timestamp,acc_x,acc_y,acc_z,gyro_x,gyro_y,gyro_z,angle_x,angle_y,angle_z
1758527183.556451,0.83642578125,0.0,0.5556640625,-22.94921875,2.5634765625,2.13623046875,6.075439453125,-59.2822265625,-37.540283203125
1758527183.566691,0.8369140625,-0.00927734375,0.513671875,-9.82666015625,1.220703125,2.3193359375,5.9490966796875,-59.2657470703125,-37.5018310546875
1758527183.576493,0.8369140625,-0.00927734375,0.513671875,-9.82666015625,1.220703125,2.3193359375,5.82275390625,-59.2547607421875,-37.46337890625
1758527183.5845826,0.83056640625,0.0341796875,0.49072265625,-3.7841796875,1.28173828125,2.50244140625,5.7513427734375,-59.23828125,-37.4249267578125
1758527183.594757,0.83056640625,0.0341796875,0.49072265625,-3.7841796875,1.28173828125,2.50244140625,5.6744384765625,-59.227294921875,-37.37548828125
1758527183.6043894,0.81005859375,0.06298828125,0.48486328125,-5.43212890625,1.953125,2.8076171875,5.5810546875,-59.205322265625,-37.3260498046875
1758527183.6148036,0.81005859375,0.06298828125,0.48486328125,-5.43212890625,1.953125,2.8076171875,5.482177734375,-59.1888427734375,-37.276611328125
1758527183.6244006,0.81005859375,0.06298828125,0.48486328125,-6.77490234375,2.685546875,2.685546875,5.372314453125,-59.161376953125,-37.2216796875
1758527183.6348557,0.80029296875,0.04833984375,0.484375,-6.77490234375,2.685546875,2.685546875,5.2679443359375,-59.1339111328125,-37.1722412109375
1758527183.6468222,0.7890625,0.0361328125,0.48193359375,-4.08935546875,2.86865234375,2.13623046875,5.1910400390625,-59.1064453125,-37.1337890625
1758527183.6555605,0.7890625,0.0361328125,0.48193359375,-4.08935546875,2.86865234375,2.13623046875,5.11962890625,-59.0789794921875,-37.0953369140625
1758527183.664583,0.81103515625,0.05859375,0.4794921875,-5.9814453125,2.86865234375,2.01416015625,5.03173828125,-59.0460205078125,-37.056884765625
1758527183.6741312,0.81103515625,0.05859375,0.4794921875,-5.9814453125,2.86865234375,2.01416015625,4.94384765625,-59.0185546875,-37.0184326171875
1758527183.6837084,0.818359375,0.0458984375,0.49755859375,-6.77490234375,3.5400390625,2.197265625,4.8394775390625,-58.985595703125,-36.97998046875
1758527183.6937187,0.818359375,0.0458984375,0.49755859375,-6.77490234375,3.5400390625,2.197265625,4.7406005859375,-58.95263671875,-36.93603515625
1758527183.703754,0.822265625,0.03857421875,0.5,-4.45556640625,4.21142578125,1.46484375,4.6746826171875,-58.90869140625,-36.9085693359375
1758527183.713808,0.822265625,0.03857421875,0.5,-4.45556640625,4.21142578125,1.46484375,4.6087646484375,-58.86474609375,-36.881103515625
1758527183.7237592,0.83447265625,0.02880859375,0.5126953125,-2.0751953125,4.08935546875,0.1220703125,4.5867919921875,-58.8262939453125,-36.881103515625
1758527183.7337556,0.83447265625,0.02880859375,0.5126953125,-2.0751953125,4.08935546875,0.1220703125,4.5648193359375,-58.7823486328125,-36.8756103515625
1758527183.743791,0.86376953125,0.03369140625,0.49755859375,0.244140625,3.84521484375,-1.3427734375,4.5867919921875,-58.743896484375,-36.8975830078125
1758527183.753775,0.86376953125,0.03369140625,0.49755859375,0.244140625,3.84521484375,-1.3427734375,4.6087646484375,-58.7054443359375,-36.9195556640625
1758527183.7647696,0.89990234375,0.03369140625,0.5546875,2.99072265625,3.96728515625,-2.685546875,4.68017578125,-58.6669921875,-36.968994140625
1758527183.7738519,0.89990234375,0.03369140625,0.5546875,2.99072265625,3.96728515625,-2.685546875,4.74609375,-58.623046875,-37.0184326171875
1758527183.783864,0.90869140625,0.04443359375,0.56787109375,4.33349609375,3.7841796875,-3.90625,4.8504638671875,-58.5845947265625,-37.08984375
1758527183.793871,0.90869140625,0.04443359375,0.56787109375,4.33349609375,3.7841796875,-3.90625,4.9493408203125,-58.546142578125,-37.15576171875
1758527183.8039627,0.90283203125,0.0302734375,0.52734375,7.99560546875,3.47900390625,-5.126953125,5.1031494140625,-58.5076904296875,-37.2491455078125
1758527183.814108,0.8935546875,0.04345703125,0.552734375,11.29150390625,2.62451171875,-6.2255859375,5.284423828125,-58.4747314453125,-37.353515625
1758527183.8242517,0.8935546875,0.04345703125,0.552734375,11.29150390625,2.62451171875,-6.2255859375,5.4876708984375,-58.4417724609375,-37.46337890625
1758527183.8340106,0.9140625,0.05712890625,0.53955078125,8.1787109375,1.220703125,-6.34765625,5.679931640625,-58.4197998046875,-37.5787353515625
1758527183.8439965,0.9140625,0.05712890625,0.53955078125,8.1787109375,1.220703125,-6.34765625,5.855712890625,-58.4033203125,-37.694091796875
1758527183.8539588,0.9404296875,0.052734375,0.5517578125,5.2490234375,0.0,-5.7373046875,6.009521484375,-58.392333984375,-37.803955078125
1758527183.8639295,0.9404296875,0.052734375,0.5517578125,5.2490234375,0.0,-5.7373046875,6.1468505859375,-58.3868408203125,-37.9083251953125
1758527183.8739867,0.96337890625,0.0224609375,0.572265625,6.4697265625,-1.0986328125,-5.4931640625,6.2896728515625,-58.392333984375,-38.0072021484375
1758527183.8839614,0.96337890625,0.0224609375,0.572265625,6.4697265625,-1.0986328125,-5.4931640625,6.43798828125,-58.3978271484375,-38.1060791015625
1758527183.89396,0.92333984375,0.04248046875,0.56396484375,7.26318359375,-2.9296875,-4.2724609375,6.5753173828125,-58.4197998046875,-38.199462890625
1758527183.9039574,0.92333984375,0.04248046875,0.56396484375,7.26318359375,-2.9296875,-4.2724609375,6.7071533203125,-58.447265625,-38.2763671875
1758527183.9139879,0.93603515625,0.09423828125,0.53662109375,0.54931640625,-4.638671875,-2.5634765625,6.7950439453125,-58.480224609375,-38.3477783203125
1758527183.9239912,0.93603515625,0.09423828125,0.53662109375,0.54931640625,-4.638671875,-2.5634765625,6.8389892578125,-58.5296630859375,-38.397216796875
1758527183.9340112,0.900390625,0.06494140625,0.5625,-1.40380859375,-6.28662109375,-1.953125,6.87744140625,-58.5845947265625,-38.4466552734375
1758527183.9440246,0.900390625,0.06494140625,0.5625,-1.40380859375,-6.28662109375,-1.953125,6.8994140625,-58.64501953125,-38.49609375
1758527183.9540188,0.88671875,0.029296875,0.51904296875,4.69970703125,-7.75146484375,-2.685546875,6.9598388671875,-58.7109375,-38.551025390625
1758527183.9640515,0.88671875,0.029296875,0.51904296875,4.69970703125,-7.75146484375,-2.685546875,7.05322265625,-58.787841796875,-38.616943359375
1758527183.9740493,0.87890625,0.017578125,0.52294921875,12.14599609375,-8.48388671875,-3.662109375,7.196044921875,-58.86474609375,-38.6883544921875
1758527183.984058,0.87890625,0.017578125,0.52294921875,12.14599609375,-8.48388671875,-3.662109375,7.3773193359375,-58.9471435546875,-38.7762451171875
1758527183.9940736,0.826171875,0.08251953125,0.5068359375,10.009765625,-8.11767578125,-3.47900390625,7.5531005859375,-59.0240478515625,-38.858642578125
1758527184.0040863,0.826171875,0.08251953125,0.5068359375,10.009765625,-8.11767578125,-3.47900390625,7.71240234375,-59.095458984375,-38.9410400390625
1758527184.014107,0.78759765625,0.13232421875,0.45263671875,-1.40380859375,-6.89697265625,-1.5869140625,7.80029296875,-59.1668701171875,-39.00146484375
1758527184.024185,0.78759765625,0.13232421875,0.45263671875,-1.40380859375,-6.89697265625,-1.5869140625,7.822265625,-59.2327880859375,-39.0509033203125
1758527184.0341854,0.87646484375,0.06640625,0.51806640625,-11.16943359375,-6.591796875,-0.6103515625,7.789306640625,-59.293212890625,-39.08935546875
1758527184.0442388,0.87646484375,0.06640625,0.51806640625,-11.16943359375,-6.591796875,-0.6103515625,7.701416015625,-59.359130859375,-39.1168212890625
1758527184.0542014,0.87646484375,0.01708984375,0.5224609375,-4.2724609375,-6.89697265625,-1.46484375,7.6519775390625,-59.4195556640625,-39.1552734375
1758527184.0642555,0.87646484375,0.01708984375,0.5224609375,-4.2724609375,-6.89697265625,-1.46484375,7.6409912109375,-59.4854736328125,-39.19921875
1758527184.0742092,0.90283203125,0.060546875,0.537109375,6.8359375,-7.26318359375,-2.86865234375,7.701416015625,-59.5513916015625,-39.2596435546875
1758527184.0842333,0.90283203125,0.060546875,0.537109375,6.8359375,-7.26318359375,-2.86865234375,7.822265625,-59.6173095703125,-39.3310546875
1758527184.0942533,0.87548828125,0.05419921875,0.5224609375,9.033203125,-7.568359375,-3.41796875,7.965087890625,-59.6832275390625,-39.407958984375
1758527184.1044333,0.87548828125,0.05419921875,0.5224609375,9.033203125,-7.568359375,-3.41796875,8.118896484375,-59.7491455078125,-39.495849609375
1758527184.1142638,0.8798828125,0.1103515625,0.490234375,2.197265625,-7.87353515625,-2.74658203125,8.2342529296875,-59.8150634765625,-39.5782470703125
1758527184.12428,0.8798828125,0.1103515625,0.490234375,2.197265625,-7.87353515625,-2.74658203125,8.316650390625,-59.886474609375,-39.6551513671875
1758527184.1342874,0.896484375,0.099609375,0.4990234375,-4.45556640625,-7.8125,-1.15966796875,8.349609375,-59.9578857421875,-39.715576171875
1758527184.1445868,0.896484375,0.099609375,0.4990234375,-4.45556640625,-7.8125,-1.15966796875,8.3441162109375,-60.029296875,-39.759521484375
1758527184.154546,0.92431640625,0.029296875,0.5224609375,0.42724609375,-7.99560546875,-1.220703125,8.360595703125,-60.1007080078125,-39.8089599609375
1758527184.1645997,0.92431640625,0.029296875,0.5224609375,0.42724609375,-7.99560546875,-1.220703125,8.3990478515625,-60.1776123046875,-39.8529052734375
1758527184.1744328,0.923828125,0.048828125,0.544921875,6.77490234375,-8.72802734375,-2.197265625,8.4814453125,-60.2545166015625,-39.913330078125
1758527184.1848028,0.923828125,0.048828125,0.544921875,6.77490234375,-8.72802734375,-2.197265625,8.5968017578125,-60.3314208984375,-39.979248046875
1758527184.194856,0.923828125,0.091796875,0.48046875,3.60107421875,-9.27734375,-2.01416015625,8.701171875,-60.413818359375,-40.045166015625
1758527184.2045538,0.923828125,0.091796875,0.48046875,3.60107421875,-9.27734375,-2.01416015625,8.7890625,-60.501708984375,-40.111083984375
1758527184.214462,0.93115234375,0.0888671875,0.52490234375,-1.15966796875,-9.58251953125,-1.15966796875,8.843994140625,-60.589599609375,-40.1715087890625
1758527184.2308729,0.93115234375,0.0888671875,0.52490234375,-1.15966796875,-9.58251953125,-1.15966796875,8.8714599609375,-60.677490234375,-40.220947265625
1758527184.2371337,0.91748046875,0.07421875,0.51318359375,-1.220703125,-10.009765625,-0.3662109375,8.8934326171875,-60.7708740234375,-40.264892578125
1758527184.2444625,0.91748046875,0.07421875,0.51318359375,-1.220703125,-10.009765625,-0.3662109375,8.909912109375,-60.8642578125,-40.2978515625
1758527184.2545447,0.90283203125,0.0634765625,0.48583984375,-2.197265625,-10.19287109375,-0.244140625,8.9208984375,-60.9576416015625,-40.3363037109375
1758527184.2704384,0.90283203125,0.0634765625,0.48583984375,-2.197265625,-10.19287109375,-0.244140625,8.9263916015625,-61.0565185546875,-40.3692626953125
1758527184.2765303,0.91064453125,0.05859375,0.4931640625,2.50244140625,-10.68115234375,-0.48828125,8.9593505859375,-61.1553955078125,-40.40771484375
1758527184.284589,0.91064453125,0.05859375,0.4931640625,2.50244140625,-10.68115234375,-0.48828125,9.0142822265625,-61.2542724609375,-40.4461669921875
1758527184.2948902,0.86962890625,0.05224609375,0.4853515625,3.60107421875,-11.23046875,-0.48828125,9.07470703125,-61.358642578125,-40.4901123046875
1758527184.3046482,0.86962890625,0.05224609375,0.4853515625,3.60107421875,-11.23046875,-0.48828125,9.140625,-61.4630126953125,-40.5340576171875
1758527184.3149672,0.86962890625,0.138671875,0.4462890625,-5.37109375,-10.80322265625,0.79345703125,9.1571044921875,-61.5673828125,-40.5615234375
1758527184.3248758,0.86962890625,0.138671875,0.4462890625,-5.37109375,-10.80322265625,0.79345703125,9.1131591796875,-61.6717529296875,-40.58349609375
1758527184.334829,0.88525390625,0.0908203125,0.4736328125,-11.16943359375,-10.31494140625,2.38037109375,9.0362548828125,-61.7706298828125,-40.58349609375
1758527184.3445978,0.88525390625,0.0908203125,0.4736328125,-11.16943359375,-10.31494140625,2.38037109375,8.909912109375,-61.875,-40.5670166015625
1758527184.3553486,0.8798828125,0.01123046875,0.45654296875,-5.92041015625,-10.1318359375,1.953125,8.8165283203125,-61.973876953125,-40.5560302734375
1758527184.3648605,0.8798828125,0.01123046875,0.45654296875,-5.92041015625,-10.1318359375,1.953125,8.7506103515625,-62.0672607421875,-40.5450439453125
1758527184.3746386,0.873046875,0.0205078125,0.4560546875,7.01904296875,-10.009765625,0.48828125,8.756103515625,-62.1661376953125,-40.5450439453125
1758527184.3847494,0.873046875,0.0205078125,0.4560546875,7.01904296875,-10.009765625,0.48828125,8.8385009765625,-62.259521484375,-40.5670166015625
1758527184.3949015,0.87548828125,0.07470703125,0.44091796875,7.2021484375,-9.521484375,0.0,8.9208984375,-62.3529052734375,-40.58349609375
1758527184.4069483,0.87548828125,0.07470703125,0.44091796875,7.2021484375,-9.521484375,0.0,9.0142822265625,-62.4407958984375,-40.6109619140625
1758527184.4160123,0.884765625,0.10791015625,0.45556640625,0.6103515625,-8.60595703125,1.3427734375,9.0582275390625,-62.5286865234375,-40.6219482421875
1758527184.4247327,0.884765625,0.10791015625,0.45556640625,0.6103515625,-8.60595703125,1.3427734375,9.0582275390625,-62.611083984375,-40.616455078125
1758527184.43469,0.8759765625,0.07470703125,0.46533203125,0.0,-7.62939453125,2.44140625,9.0472412109375,-62.68798828125,-40.5999755859375
1758527184.44476,0.8759765625,0.07470703125,0.46533203125,0.0,-7.62939453125,2.44140625,9.019775390625,-62.764892578125,-40.572509765625
1758527184.4552848,0.859375,0.06201171875,0.43115234375,2.74658203125,-6.89697265625,2.13623046875,9.0087890625,-62.830810546875,-40.5450439453125
1758527184.4647856,0.859375,0.06201171875,0.43115234375,2.74658203125,-6.89697265625,2.13623046875,9.0142822265625,-62.896728515625,-40.5230712890625
1758527184.4751494,0.85400390625,0.06982421875,0.4404296875,2.74658203125,-6.28662109375,1.5869140625,9.0252685546875,-62.962646484375,-40.5010986328125
1758527184.484881,0.85400390625,0.06982421875,0.4404296875,2.74658203125,-6.28662109375,1.5869140625,9.0362548828125,-63.0230712890625,-40.484619140625
1758527184.4947815,0.8623046875,0.0419921875,0.44091796875,7.14111328125,-5.55419921875,1.3427734375,9.07470703125,-63.0780029296875,-40.4736328125
1758527184.5048852,0.8623046875,0.0419921875,0.44091796875,7.14111328125,-5.55419921875,1.3427734375,9.129638671875,-63.12744140625,-40.4571533203125
1758527184.5152586,0.85791015625,0.0634765625,0.435546875,8.97216796875,-4.45556640625,1.40380859375,9.195556640625,-63.1768798828125,-40.440673828125
1758527184.5248537,0.85791015625,0.0634765625,0.435546875,8.97216796875,-4.45556640625,1.40380859375,9.2669677734375,-63.21533203125,-40.4241943359375
1758527184.5348148,0.87255859375,0.1083984375,0.4345703125,5.31005859375,-2.99072265625,1.8310546875,9.3109130859375,-63.248291015625,-40.396728515625
1758527184.5452368,0.87255859375,0.1083984375,0.4345703125,5.31005859375,-2.99072265625,1.8310546875,9.3328857421875,-63.2757568359375,-40.3692626953125
1758527184.554837,0.86572265625,0.08203125,0.4462890625,2.197265625,-1.89208984375,2.13623046875,9.33837890625,-63.2977294921875,-40.330810546875
1758527184.5648837,0.86572265625,0.08203125,0.4462890625,2.197265625,-1.89208984375,2.13623046875,9.327392578125,-63.314208984375,-40.2923583984375
1758527184.5748837,0.89208984375,0.06201171875,0.4375,2.62451171875,-1.03759765625,1.89208984375,9.31640625,-63.3306884765625,-40.25390625
1758527184.5849524,0.89208984375,0.06201171875,0.4375,2.62451171875,-1.03759765625,1.89208984375,9.305419921875,-63.336181640625,-40.2154541015625
1758527184.594926,0.912109375,0.06103515625,0.4619140625,2.9296875,-0.244140625,1.46484375,9.305419921875,-63.3416748046875,-40.1824951171875
1758527184.6049852,0.912109375,0.06103515625,0.4619140625,2.9296875,-0.244140625,1.46484375,9.305419921875,-63.3416748046875,-40.1495361328125
1758527184.6153073,0.9345703125,0.06640625,0.46630859375,4.94384765625,0.30517578125,1.15966796875,9.3109130859375,-63.3416748046875,-40.1165771484375
1758527184.6250174,0.9345703125,0.06640625,0.46630859375,4.94384765625,0.30517578125,1.15966796875,9.3328857421875,-63.336181640625,-40.089111328125
1758527184.6348937,0.939453125,0.0751953125,0.46923828125,3.7841796875,0.48828125,0.9765625,9.3548583984375,-63.3306884765625,-40.0616455078125
1758527184.6454203,0.939453125,0.0751953125,0.46923828125,3.7841796875,0.48828125,0.9765625,9.3658447265625,-63.3251953125,-40.0341796875
1758527184.6549492,0.92919921875,0.13330078125,0.43603515625,-3.90625,0.732421875,2.13623046875,9.3328857421875,-63.3197021484375,-39.9957275390625
1758527184.6650374,0.92919921875,0.13330078125,0.43603515625,-3.90625,0.732421875,2.13623046875,9.25048828125,-63.314208984375,-39.9462890625
1758527184.675371,0.92724609375,0.08984375,0.46533203125,-7.080078125,0.54931640625,3.2958984375,9.1461181640625,-63.314208984375,-39.88037109375
1758527184.685036,0.92724609375,0.08984375,0.46533203125,-7.080078125,0.54931640625,3.2958984375,9.019775390625,-63.3087158203125,-39.8089599609375
1758527184.6950684,0.9541015625,0.044921875,0.46875,-3.41796875,-0.244140625,3.0517578125,8.909912109375,-63.314208984375,-39.737548828125
1758527184.707852,0.9541015625,0.044921875,0.46875,-3.41796875,-0.244140625,3.0517578125,8.822021484375,-63.3197021484375,-39.671630859375
1758527184.717067,0.94384765625,0.037109375,0.4423828125,0.0,-1.0986328125,1.953125,8.7615966796875,-63.3306884765625,-39.61669921875
1758527184.7251196,0.94384765625,0.037109375,0.4423828125,0.0,-1.0986328125,1.953125,8.7286376953125,-63.3416748046875,-39.5672607421875
1758527184.7353754,0.92822265625,0.087890625,0.44921875,-2.13623046875,-1.64794921875,2.3193359375,8.67919921875,-63.358154296875,-39.5233154296875
1758527184.7455823,0.92822265625,0.087890625,0.44921875,-2.13623046875,-1.64794921875,2.3193359375,8.6187744140625,-63.380126953125,-39.4683837890625
1758527184.7551382,0.943359375,0.064453125,0.453125,-0.30517578125,-1.953125,3.41796875,8.558349609375,-63.402099609375,-39.407958984375
1758527184.7654443,0.943359375,0.064453125,0.453125,-0.30517578125,-1.953125,3.41796875,8.4979248046875,-63.4295654296875,-39.3310546875
1758527184.775569,0.91943359375,0.0419921875,0.46484375,3.35693359375,-2.74658203125,3.72314453125,8.4539794921875,-63.4625244140625,-39.2486572265625
1758527184.7851841,0.91943359375,0.0419921875,0.46484375,3.35693359375,-2.74658203125,3.72314453125,8.4210205078125,-63.4954833984375,-39.1717529296875
1758527184.7951639,0.85498046875,0.07373046875,0.39501953125,-0.48828125,-3.0517578125,2.9296875,8.3770751953125,-63.5284423828125,-39.100341796875
1758527184.805223,0.85498046875,0.07373046875,0.39501953125,-0.48828125,-3.0517578125,2.9296875,8.3221435546875,-63.5614013671875,-39.0399169921875
1758527184.8156028,0.86181640625,0.10986328125,0.4169921875,-3.2958984375,-2.62451171875,3.35693359375,8.250732421875,-63.5943603515625,-38.9739990234375
1758527184.8253353,0.86181640625,0.10986328125,0.4169921875,-3.2958984375,-2.62451171875,3.35693359375,8.1683349609375,-63.6273193359375,-38.902587890625
1758527184.8352363,0.86181640625,0.06103515625,0.43310546875,-6.591796875,-2.685546875,4.0283203125,8.0364990234375,-63.6602783203125,-38.8201904296875
1758527184.8456366,0.86181640625,0.06103515625,0.43310546875,-6.591796875,-2.685546875,4.0283203125,7.9046630859375,-63.6932373046875,-38.7322998046875
1758527184.8552382,0.8779296875,0.04248046875,0.43310546875,-6.2255859375,-3.35693359375,3.5400390625,7.7838134765625,-63.731689453125,-38.660888671875
1758527184.8653874,0.8779296875,0.04248046875,0.43310546875,-6.2255859375,-3.35693359375,3.5400390625,7.66845703125,-63.7701416015625,-38.5894775390625
1758527184.875696,0.89501953125,0.05126953125,0.4189453125,-0.732421875,-3.2958984375,2.13623046875,7.6300048828125,-63.8031005859375,-38.551025390625
1758527184.8852656,0.89501953125,0.05126953125,0.4189453125,-0.732421875,-3.2958984375,2.13623046875,7.591552734375,-63.8360595703125,-38.507080078125
1758527184.8953967,0.87109375,0.06201171875,0.443359375,-4.39453125,-2.5634765625,1.8310546875,7.525634765625,-63.863525390625,-38.47412109375
1758527184.9054768,0.87109375,0.06201171875,0.443359375,-4.39453125,-2.5634765625,1.8310546875,7.4542236328125,-63.8909912109375,-38.4356689453125
1758527184.9154928,0.86962890625,0.087890625,0.4072265625,-7.01904296875,-2.3193359375,3.2958984375,7.327880859375,-63.91845703125,-38.3642578125
1758527184.9253712,0.86962890625,0.087890625,0.4072265625,-7.01904296875,-2.3193359375,3.2958984375,7.20703125,-63.9459228515625,-38.29833984375
1758527184.9353426,0.86669921875,0.052734375,0.4169921875,-8.36181640625,-2.0751953125,4.5166015625,7.0477294921875,-63.9678955078125,-38.199462890625
1758527184.9456525,0.86669921875,0.052734375,0.4169921875,-8.36181640625,-2.0751953125,4.5166015625,6.888427734375,-63.995361328125,-38.1060791015625
1758527184.9553587,0.8701171875,0.0244140625,0.40673828125,-1.28173828125,-1.77001953125,3.96728515625,6.8060302734375,-64.017333984375,-38.0181884765625
1758527184.9653716,0.8701171875,0.0244140625,0.40673828125,-1.28173828125,-1.77001953125,3.96728515625,6.7236328125,-64.039306640625,-37.9248046875
1758527184.975823,0.8818359375,0.05078125,0.435546875,4.39453125,-1.52587890625,2.685546875,6.7236328125,-64.0557861328125,-37.8643798828125
1758527184.9854152,0.8818359375,0.05078125,0.435546875,4.39453125,-1.52587890625,2.685546875,6.7181396484375,-64.072265625,-37.803955078125
1758527184.9954393,0.8603515625,0.1064453125,0.38623046875,-1.77001953125,-1.77001953125,2.50244140625,6.6632080078125,-64.09423828125,-37.7490234375
1758527185.0054495,0.8603515625,0.1064453125,0.38623046875,-1.77001953125,-1.77001953125,2.50244140625,6.61376953125,-64.1162109375,-37.6995849609375
1758527185.015741,0.85107421875,0.06884765625,0.44091796875,-8.36181640625,-1.708984375,1.708984375,6.5093994140625,-64.1326904296875,-37.6611328125
1758527185.0255203,0.85107421875,0.06884765625,0.44091796875,-8.36181640625,-1.708984375,1.708984375,6.4105224609375,-64.149169921875,-37.6336669921875
1758527185.0354772,0.8935546875,-0.00439453125,0.44091796875,0.9765625,-1.0986328125,0.06103515625,6.4324951171875,-64.16015625,-37.6336669921875
1758527185.0457053,0.8935546875,-0.00439453125,0.44091796875,0.9765625,-1.0986328125,0.06103515625,6.448974609375,-64.171142578125,-37.6336669921875
1758527185.0554857,0.88134765625,0.0205078125,0.3984375,7.9345703125,-0.30517578125,-2.0751953125,6.5753173828125,-64.171142578125,-37.6776123046875
1758527185.065576,0.88134765625,0.0205078125,0.3984375,7.9345703125,-0.30517578125,-2.0751953125,6.6961669921875,-64.171142578125,-37.716064453125
1758527185.075967,0.87744140625,0.0947265625,0.384765625,-1.5869140625,-0.3662109375,-1.220703125,6.7071533203125,-64.171142578125,-37.738037109375
1758527185.0855494,0.87744140625,0.0947265625,0.384765625,-1.5869140625,-0.3662109375,-1.220703125,6.7181396484375,-64.1766357421875,-37.7655029296875
1758527185.0955527,0.9091796875,0.04443359375,0.44091796875,-2.685546875,-0.9765625,0.1220703125,6.6961669921875,-64.1876220703125,-37.7545166015625
1758527185.105616,0.9091796875,0.04443359375,0.44091796875,-2.685546875,-0.9765625,0.1220703125,6.6741943359375,-64.1986083984375,-37.7490234375
1758527185.1163485,0.9033203125,0.0458984375,0.4384765625,3.84521484375,-1.708984375,0.1220703125,6.7181396484375,-64.2205810546875,-37.7490234375
1758527185.125577,0.9033203125,0.0458984375,0.4384765625,3.84521484375,-1.708984375,0.1220703125,6.7620849609375,-64.237060546875,-37.7435302734375
1758527185.135745,0.90771484375,0.08349609375,0.4228515625,2.197265625,-2.197265625,-0.91552734375,6.8115234375,-64.259033203125,-37.7655029296875
1758527185.1458385,0.90771484375,0.08349609375,0.4228515625,2.197265625,-2.197265625,-0.91552734375,6.8609619140625,-64.281005859375,-37.7874755859375
1758527185.1556494,0.92529296875,0.09619140625,0.42431640625,-5.31005859375,-2.3193359375,-1.953125,6.8609619140625,-64.302978515625,-37.8369140625
1758527185.165708,0.92529296875,0.09619140625,0.42431640625,-5.31005859375,-2.3193359375,-1.953125,6.866455078125,-64.324951171875,-37.8863525390625
1758527185.1761637,0.92431640625,0.0302734375,0.42578125,-6.89697265625,-2.99072265625,-3.0517578125,6.87744140625,-64.346923828125,-37.957763671875
1758527185.1857507,0.92431640625,0.0302734375,0.42578125,-6.89697265625,-2.99072265625,-3.0517578125,6.8829345703125,-64.3743896484375,-38.03466796875
1758527185.195722,0.9140625,0.046875,0.41162109375,-3.72314453125,-3.662109375,-3.84521484375,6.943359375,-64.412841796875,-38.12255859375
1758527185.2057683,0.9140625,0.046875,0.41162109375,-3.72314453125,-3.662109375,-3.84521484375,6.998291015625,-64.44580078125,-38.21044921875
1758527185.2165587,0.90966796875,0.0498046875,0.43359375,0.79345703125,-4.2724609375,-4.2724609375,7.108154296875,-64.4842529296875,-38.3148193359375
1758527185.2257073,0.90966796875,0.0498046875,0.43359375,0.79345703125,-4.2724609375,-4.2724609375,7.218017578125,-64.522705078125,-38.4136962890625
1758527185.235891,0.9365234375,0.02001953125,0.42822265625,7.2021484375,-4.2724609375,-5.06591796875,7.40478515625,-64.5611572265625,-38.5345458984375
1758527185.2459738,0.9365234375,0.02001953125,0.42822265625,7.2021484375,-4.2724609375,-5.06591796875,7.591552734375,-64.5941162109375,-38.64990234375
1758527185.2559178,0.94091796875,0.03369140625,0.43603515625,8.48388671875,-4.2724609375,-5.859375,7.80029296875,-64.632568359375,-38.78173828125
1758527185.266028,0.94091796875,0.03369140625,0.43603515625,8.48388671875,-4.2724609375,-5.859375,8.009033203125,-64.6710205078125,-38.9190673828125
1758527185.276404,0.94970703125,0.08740234375,0.42236328125,3.662109375,-4.69970703125,-6.16455078125,8.1793212890625,-64.70947265625,-39.0618896484375
1758527185.2858412,0.94970703125,0.08740234375,0.42236328125,3.662109375,-4.69970703125,-6.16455078125,8.3551025390625,-64.7479248046875,-39.2047119140625
1758527185.2959383,0.958984375,0.09423828125,0.43505859375,-0.732421875,-4.57763671875,-5.9814453125,8.4814453125,-64.786376953125,-39.3475341796875
1758527185.3090138,0.958984375,0.09423828125,0.43505859375,-0.732421875,-4.57763671875,-5.9814453125,8.6077880859375,-64.8248291015625,-39.4903564453125
1758527185.3184967,0.96337890625,0.0703125,0.44873046875,1.28173828125,-4.5166015625,-5.67626953125,8.7506103515625,-64.86328125,-39.6221923828125
1758527185.3259733,0.96337890625,0.0703125,0.44873046875,1.28173828125,-4.5166015625,-5.67626953125,8.89892578125,-64.896240234375,-39.759521484375
1758527185.336105,0.9013671875,0.05859375,0.4267578125,2.0751953125,-5.126953125,-5.4931640625,9.0472412109375,-64.940185546875,-39.8968505859375
1758527185.3460238,0.9013671875,0.05859375,0.4267578125,2.0751953125,-5.126953125,-5.4931640625,9.195556640625,-64.984130859375,-40.0286865234375
1758527185.3558917,0.857421875,0.06884765625,0.39404296875,4.94384765625,-6.28662109375,-4.5166015625,9.3548583984375,-65.0335693359375,-40.1495361328125
1758527185.365961,0.857421875,0.06884765625,0.39404296875,4.94384765625,-6.28662109375,-4.5166015625,9.51416015625,-65.0885009765625,-40.264892578125
1758527185.376412,0.87939453125,0.02587890625,0.37353515625,3.0517578125,-5.31005859375,-4.150390625,9.64599609375,-65.137939453125,-40.3692626953125
1758527185.3859596,0.87939453125,0.02587890625,0.37353515625,3.0517578125,-5.31005859375,-4.150390625,9.7723388671875,-65.181884765625,-40.4736328125
1758527185.3960245,0.91162109375,0.109375,0.43798828125,-5.4931640625,-4.45556640625,-2.50244140625,9.77783203125,-65.2203369140625,-40.5340576171875
1758527185.4060838,0.91162109375,0.109375,0.43798828125,-5.4931640625,-4.45556640625,-2.50244140625,9.788818359375,-65.2587890625,-40.5999755859375
1758527185.4163764,0.92431640625,0.07470703125,0.38330078125,-12.5732421875,-3.7841796875,0.18310546875,9.66796875,-65.2972412109375,-40.5999755859375
1758527185.4260023,0.92431640625,0.07470703125,0.38330078125,-12.5732421875,-3.7841796875,0.18310546875,9.5526123046875,-65.335693359375,-40.5999755859375
1758527185.4363265,0.90234375,0.0341796875,0.42919921875,-12.14599609375,-4.5166015625,1.89208984375,9.404296875,-65.379638671875,-40.5615234375
1758527185.4463375,0.90234375,0.0341796875,0.42919921875,-12.14599609375,-4.5166015625,1.89208984375,9.25048828125,-65.4290771484375,-40.5230712890625
1758527185.4560528,0.94091796875,0.07080078125,0.39892578125,-12.63427734375,-5.126953125,2.3193359375,9.0911865234375,-65.4840087890625,-40.4736328125
1758527185.4661078,0.94091796875,0.07080078125,0.39892578125,-12.63427734375,-5.126953125,2.3193359375,8.9263916015625,-65.533447265625,-40.4241943359375
1758527185.4765549,0.95263671875,0.04248046875,0.45849609375,-5.67626953125,-5.0048828125,1.40380859375,8.85498046875,-65.58837890625,-40.4022216796875
1758527185.4860728,0.95263671875,0.04248046875,0.45849609375,-5.67626953125,-5.0048828125,1.40380859375,8.778076171875,-65.6378173828125,-40.374755859375
1758527185.4962707,0.93212890625,0.07177734375,0.3876953125,-7.568359375,-4.33349609375,0.79345703125,8.701171875,-65.67626953125,-40.36376953125
1758527185.5063872,0.93212890625,0.07177734375,0.3876953125,-7.568359375,-4.33349609375,0.79345703125,8.6187744140625,-65.72021484375,-40.352783203125
1758527185.5163603,0.9599609375,0.05712890625,0.41259765625,-8.60595703125,-3.5400390625,0.244140625,8.536376953125,-65.7586669921875,-40.3472900390625
1758527185.5261064,0.9599609375,0.05712890625,0.41259765625,-8.60595703125,-3.5400390625,0.244140625,8.45947265625,-65.7916259765625,-40.3472900390625
1758527185.5365384,0.9423828125,-0.01025390625,0.4306640625,3.2958984375,-4.0283203125,-0.6103515625,8.514404296875,-65.830078125,-40.36376953125
1758527185.5464034,0.9423828125,-0.01025390625,0.4306640625,3.2958984375,-4.0283203125,-0.6103515625,8.558349609375,-65.8685302734375,-40.374755859375
1758527185.556123,0.9423828125,0.09228515625,0.38134765625,6.65283203125,-4.33349609375,-0.8544921875,8.6517333984375,-65.9124755859375,-40.396728515625
1758527185.5666044,0.9423828125,0.09228515625,0.38134765625,6.65283203125,-4.33349609375,-0.8544921875,8.7451171875,-65.950927734375,-40.4241943359375
1758527185.5768225,0.92578125,0.1083984375,0.44921875,-0.18310546875,-4.39453125,0.1220703125,8.7506103515625,-65.994873046875,-40.4241943359375
1758527185.5862753,0.92578125,0.1083984375,0.44921875,-0.18310546875,-4.39453125,0.1220703125,8.7615966796875,-66.038818359375,-40.4296875
1758527185.5962467,0.8662109375,0.056640625,0.34521484375,3.173828125,-4.638671875,0.42724609375,8.800048828125,-66.082763671875,-40.4296875
1758527185.608875,0.8662109375,0.056640625,0.34521484375,3.173828125,-4.638671875,0.42724609375,8.8385009765625,-66.126708984375,-40.4296875
1758527185.6174898,0.880859375,-0.04541015625,0.3701171875,10.68115234375,-4.5166015625,-0.3662109375,8.96484375,-66.170654296875,-40.440673828125
1758527185.6262755,0.880859375,-0.04541015625,0.3701171875,10.68115234375,-4.5166015625,-0.3662109375,9.0802001953125,-66.214599609375,-40.45166015625
1758527185.6362445,0.87158203125,0.06640625,0.4111328125,12.14599609375,-4.82177734375,-0.54931640625,9.217529296875,-66.2640380859375,-40.462646484375
1758527185.6467052,0.87158203125,0.06640625,0.4111328125,12.14599609375,-4.82177734375,-0.54931640625,9.3548583984375,-66.3079833984375,-40.484619140625
1758527185.6562629,0.8798828125,0.12548828125,0.34765625,4.57763671875,-4.94384765625,0.1220703125,9.404296875,-66.357421875,-40.484619140625
1758527185.6663566,0.8798828125,0.12548828125,0.34765625,4.57763671875,-4.94384765625,0.1220703125,9.459228515625,-66.4068603515625,-40.4901123046875
1758527185.6766696,0.89990234375,0.025390625,0.404296875,11.04736328125,-5.06591796875,0.42724609375,9.5745849609375,-66.456298828125,-40.4901123046875
1758527185.686426,0.89990234375,0.025390625,0.404296875,11.04736328125,-5.06591796875,0.42724609375,9.6844482421875,-66.5057373046875,-40.4901123046875
1758527185.696352,0.9560546875,0.0458984375,0.39892578125,12.02392578125,-5.31005859375,0.244140625,9.810791015625,-66.55517578125,-40.4901123046875
1758527185.7069256,0.9560546875,0.0458984375,0.39892578125,12.02392578125,-5.31005859375,0.244140625,9.931640625,-66.6046142578125,-40.49560546875
1758527185.7166135,0.97998046875,0.13916015625,0.4189453125,2.25830078125,-4.8828125,1.15966796875,9.942626953125,-66.654052734375,-40.4736328125
1758527185.7264855,0.97998046875,0.13916015625,0.4189453125,2.25830078125,-4.8828125,1.15966796875,9.95361328125,-66.7034912109375,-40.462646484375
1758527185.7364116,0.982421875,0.10546875,0.38134765625,-5.615234375,-4.39453125,2.01416015625,9.8712158203125,-66.7474365234375,-40.4241943359375
1758527185.7468493,0.982421875,0.10546875,0.38134765625,-5.615234375,-4.39453125,2.01416015625,9.7943115234375,-66.7913818359375,-40.3857421875
1758527185.7564552,0.9892578125,-0.00146484375,0.42333984375,1.8310546875,-4.45556640625,1.77001953125,9.788818359375,-66.8408203125,-40.352783203125
1758527185.7665057,0.9892578125,-0.00146484375,0.42333984375,1.8310546875,-4.45556640625,1.77001953125,9.7833251953125,-66.884765625,-40.31982421875
1758527185.7769246,0.9951171875,0.080078125,0.41259765625,4.33349609375,-5.37109375,1.15966796875,9.8162841796875,-66.939697265625,-40.3033447265625
1758527185.7864614,0.9951171875,0.080078125,0.41259765625,4.33349609375,-5.37109375,1.15966796875,9.8492431640625,-66.99462890625,-40.286865234375
1758527185.7965336,0.99072265625,0.15185546875,0.4033203125,-6.103515625,-5.615234375,1.46484375,9.77783203125,-67.049560546875,-40.264892578125
1758527185.806883,0.99072265625,0.15185546875,0.4033203125,-6.103515625,-5.615234375,1.46484375,9.7119140625,-67.1044921875,-40.2484130859375
1758527185.8166628,0.966796875,0.05126953125,0.3974609375,-5.126953125,-5.67626953125,1.5869140625,9.656982421875,-67.1649169921875,-40.2264404296875
1758527185.8266063,0.94091796875,-0.03515625,0.404296875,12.451171875,-6.591796875,0.79345703125,9.6954345703125,-67.225341796875,-40.220947265625
1758527185.8365211,0.94091796875,-0.03515625,0.404296875,12.451171875,-6.591796875,0.79345703125,9.82177734375,-67.291259765625,-40.2154541015625
1758527185.846742,0.94091796875,-0.03515625,0.404296875,7.38525390625,-6.7138671875,0.42724609375,9.920654296875,-67.357177734375,-40.2154541015625
1758527185.8565123,0.95947265625,0.05615234375,0.36328125,7.38525390625,-6.7138671875,0.42724609375,10.0030517578125,-67.423095703125,-40.2154541015625
1758527185.8667102,0.95703125,0.1865234375,0.3759765625,-8.4228515625,-5.9814453125,1.953125,9.986572265625,-67.4835205078125,-40.198974609375
1758527185.8772497,0.95703125,0.1865234375,0.3759765625,-8.4228515625,-5.9814453125,1.953125,9.8822021484375,-67.5439453125,-40.166015625
1758527185.8865988,0.9248046875,0.02001953125,0.376953125,1.0986328125,-5.79833984375,3.0517578125,9.82177734375,-67.6043701171875,-40.1220703125
1758527185.8969095,0.9248046875,0.02001953125,0.376953125,1.0986328125,-5.79833984375,3.0517578125,9.788818359375,-67.6702880859375,-40.0616455078125
1758527185.9069483,0.89990234375,-0.06982421875,0.36279296875,15.7470703125,-6.16455078125,1.77001953125,9.8382568359375,-67.730712890625,-40.0177001953125
1758527185.9167998,0.89990234375,-0.06982421875,0.36279296875,15.7470703125,-6.16455078125,1.77001953125,9.964599609375,-67.7911376953125,-39.9847412109375
1758527185.926819,0.88037109375,0.05908203125,0.34375,14.892578125,-6.40869140625,0.67138671875,10.0909423828125,-67.8570556640625,-39.9627685546875
1758527185.9366019,0.88037109375,0.05908203125,0.34375,14.892578125,-6.40869140625,0.67138671875,10.2337646484375,-67.91748046875,-39.9517822265625
1758527185.9468794,0.8671875,0.1748046875,0.3369140625,6.65283203125,-5.859375,2.01416015625,10.316162109375,-67.9833984375,-39.9298095703125
1758527185.956644,0.8671875,0.1748046875,0.3369140625,6.65283203125,-5.859375,2.01416015625,10.3546142578125,-68.0438232421875,-39.8968505859375
1758527185.966843,0.892578125,0.05908203125,0.32861328125,4.0283203125,-4.82177734375,3.0517578125,10.37109375,-68.0987548828125,-39.847412109375
1758527185.9771442,0.892578125,0.05908203125,0.32861328125,4.0283203125,-4.82177734375,3.0517578125,10.3656005859375,-68.148193359375,-39.781494140625
1758527185.9866662,0.8779296875,0.00146484375,0.412109375,13.671875,-4.57763671875,2.44140625,10.404052734375,-68.1976318359375,-39.7265625
1758527185.9970906,0.8779296875,0.00146484375,0.412109375,13.671875,-4.57763671875,2.44140625,10.4974365234375,-68.2470703125,-39.671630859375
1758527186.0071683,0.90380859375,0.04248046875,0.30322265625,12.39013671875,-4.21142578125,1.40380859375,10.5853271484375,-68.2855224609375,-39.6331787109375
1758527186.016933,0.90380859375,0.04248046875,0.30322265625,12.39013671875,-4.21142578125,1.40380859375,10.6787109375,-68.3294677734375,-39.605712890625
1758527186.0268874,0.8955078125,0.1748046875,0.35546875,3.7841796875,-2.99072265625,1.40380859375,10.733642578125,-68.367919921875,-39.57275390625
1758527186.0369353,0.8955078125,0.1748046875,0.35546875,3.7841796875,-2.99072265625,1.40380859375,10.7501220703125,-68.3953857421875,-39.539794921875
1758527186.047047,0.88818359375,0.09619140625,0.36083984375,-1.3427734375,-2.13623046875,2.3193359375,10.733642578125,-68.4228515625,-39.5068359375
1758527186.0568206,0.88818359375,0.09619140625,0.36083984375,-1.3427734375,-2.13623046875,2.3193359375,10.6842041015625,-68.44482421875,-39.451904296875
1758527186.066992,0.89892578125,0.025390625,0.33935546875,2.86865234375,-1.64794921875,1.89208984375,10.65673828125,-68.4613037109375,-39.407958984375
1758527186.077512,0.89892578125,0.025390625,0.33935546875,2.86865234375,-1.64794921875,1.89208984375,10.6512451171875,-68.4832763671875,-39.364013671875
1758527186.0867782,0.91796875,0.029296875,0.3701171875,9.521484375,-0.9765625,0.79345703125,10.689697265625,-68.4942626953125,-39.3310546875
1758527186.0968695,0.91796875,0.029296875,0.3701171875,9.521484375,-0.9765625,0.79345703125,10.7666015625,-68.5052490234375,-39.30908203125
1758527186.1072564,0.92333984375,0.15478515625,0.35546875,-3.11279296875,-0.1220703125,0.48828125,10.7830810546875,-68.5052490234375,-39.287109375
1758527186.1171765,0.92333984375,0.15478515625,0.35546875,-3.11279296875,-0.1220703125,0.48828125,10.74462890625,-68.5052490234375,-39.2706298828125
1758527186.1268637,0.90478515625,0.15234375,0.31103515625,-10.07080078125,0.30517578125,1.46484375,10.667724609375,-68.5052490234375,-39.2486572265625
1758527186.1373363,0.90478515625,0.15234375,0.31103515625,-10.07080078125,0.30517578125,1.46484375,10.546875,-68.5052490234375,-39.2156982421875
1758527186.1472483,0.9033203125,-0.00048828125,0.36328125,-3.23486328125,0.6103515625,1.5869140625,10.4644775390625,-68.499755859375,-39.17724609375
1758527186.1571016,0.9033203125,-0.00048828125,0.36328125,-3.23486328125,0.6103515625,1.5869140625,10.4095458984375,-68.4942626953125,-39.13330078125
1758527186.1668885,0.89599609375,-0.0302734375,0.36865234375,7.38525390625,0.54931640625,0.48828125,10.4095458984375,-68.48876953125,-39.100341796875
1758527186.1777573,0.89599609375,-0.0302734375,0.36865234375,7.38525390625,0.54931640625,0.48828125,10.4644775390625,-68.48876953125,-39.0728759765625
1758527186.1869192,0.92041015625,0.08056640625,0.29931640625,3.5400390625,0.79345703125,-0.3662109375,10.5084228515625,-68.477783203125,-39.056396484375
1758527186.1972,0.92041015625,0.08056640625,0.29931640625,3.5400390625,0.79345703125,-0.3662109375,10.5413818359375,-68.4722900390625,-39.0509033203125
1758527186.2083714,0.91845703125,0.17333984375,0.3642578125,-4.33349609375,1.52587890625,0.244140625,10.535888671875,-68.4613037109375,-39.034423828125
1758527186.2193894,0.91845703125,0.17333984375,0.3642578125,-4.33349609375,1.52587890625,0.244140625,10.4864501953125,-68.4503173828125,-39.012451171875
1758527186.226975,0.90283203125,0.05224609375,0.35009765625,-3.5400390625,1.52587890625,0.732421875,10.4425048828125,-68.4393310546875,-38.9959716796875
1758527186.2370365,0.90283203125,0.05224609375,0.35009765625,-3.5400390625,1.52587890625,0.732421875,10.39306640625,-68.4228515625,-38.9630126953125
1758527186.247324,0.87353515625,-0.00341796875,0.34765625,3.72314453125,1.46484375,-0.30517578125,10.39306640625,-68.411865234375,-38.946533203125
1758527186.2570667,0.87353515625,-0.00341796875,0.34765625,3.72314453125,1.46484375,-0.30517578125,10.43701171875,-68.3953857421875,-38.9410400390625
1758527186.26734,0.8544921875,0.01904296875,0.33740234375,13.671875,1.28173828125,-1.64794921875,10.535888671875,-68.3843994140625,-38.946533203125
1758527186.2774582,0.8544921875,0.01904296875,0.33740234375,13.671875,1.28173828125,-1.64794921875,10.70068359375,-68.367919921875,-38.9739990234375
1758527186.2870445,0.88427734375,0.119140625,0.3017578125,6.2255859375,1.77001953125,-2.0751953125,10.8270263671875,-68.3514404296875,-39.00146484375
1758527186.2971241,0.88427734375,0.119140625,0.3017578125,6.2255859375,1.77001953125,-2.0751953125,10.9259033203125,-68.3349609375,-39.034423828125
1758527186.307402,0.91162109375,0.140625,0.35986328125,-2.685546875,2.38037109375,-0.9765625,10.975341796875,-68.31298828125,-39.0509033203125
1758527186.3173249,0.91162109375,0.140625,0.35986328125,-2.685546875,2.38037109375,-0.9765625,10.9698486328125,-68.291015625,-39.0618896484375
1758527186.3270974,0.9208984375,0.0751953125,0.3505859375,-8.30078125,2.74658203125,0.18310546875,10.9259033203125,-68.2635498046875,-39.056396484375
1758527186.337335,0.9208984375,0.0751953125,0.3505859375,-8.30078125,2.74658203125,0.18310546875,10.8380126953125,-68.2415771484375,-39.034423828125
1758527186.3473823,0.88623046875,0.03564453125,0.384765625,-3.5400390625,2.44140625,0.06103515625,10.7720947265625,-68.2196044921875,-39.0179443359375
1758527186.357191,0.88623046875,0.03564453125,0.384765625,-3.5400390625,2.44140625,0.06103515625,10.733642578125,-68.192138671875,-39.00146484375
1758527186.3671782,0.88623046875,0.03564453125,0.384765625,6.4697265625,1.8310546875,-0.79345703125,10.7501220703125,-68.1756591796875,-38.9959716796875
1758527186.3774903,0.87841796875,0.02197265625,0.29736328125,6.4697265625,1.8310546875,-0.79345703125,10.821533203125,-68.1591796875,-38.9959716796875
1758527186.3871784,0.91650390625,0.05517578125,0.3798828125,7.32421875,2.01416015625,-1.708984375,10.909423828125,-68.13720703125,-39.0069580078125
1758527186.3972573,0.91650390625,0.05517578125,0.3798828125,7.32421875,2.01416015625,-1.708984375,11.00830078125,-68.1207275390625,-39.0289306640625
1758527186.407546,0.92919921875,0.13134765625,0.3544921875,-5.06591796875,2.38037109375,-1.220703125,11.041259765625,-68.0987548828125,-39.04541015625
1758527186.41739,0.92919921875,0.13134765625,0.3544921875,-5.06591796875,2.38037109375,-1.220703125,11.00830078125,-68.0712890625,-39.056396484375
1758527186.4272044,0.927734375,0.123046875,0.330078125,-10.19287109375,3.0517578125,-0.1220703125,10.9423828125,-68.04931640625,-39.056396484375
1758527186.437505,0.927734375,0.123046875,0.330078125,-10.19287109375,3.0517578125,-0.1220703125,10.843505859375,-68.0218505859375,-39.04541015625
1758527186.4476051,0.9306640625,-0.0107421875,0.4130859375,3.41796875,3.35693359375,0.0,10.810546875,-67.994384765625,-39.0234375
1758527186.4572334,0.9306640625,-0.0107421875,0.4130859375,3.41796875,3.35693359375,0.0,10.83251953125,-67.96142578125,-39.00146484375
1758527186.4678867,0.9423828125,0.01953125,0.3544921875,5.0048828125,3.47900390625,-1.03759765625,10.865478515625,-67.928466796875,-38.9849853515625
1758527186.4776015,0.9423828125,0.01953125,0.3544921875,5.0048828125,3.47900390625,-1.03759765625,10.9149169921875,-67.8955078125,-38.9849853515625
1758527186.487369,0.943359375,0.1318359375,0.38671875,-1.5869140625,4.0283203125,-0.91552734375,10.931396484375,-67.862548828125,-38.9739990234375
1758527186.4973838,0.943359375,0.1318359375,0.38671875,-1.5869140625,4.0283203125,-0.91552734375,10.9149169921875,-67.8240966796875,-38.968505859375
1758527186.5091681,0.92724609375,0.11962890625,0.32958984375,-7.9345703125,4.5166015625,0.0,10.8599853515625,-67.7801513671875,-38.9520263671875
1758527186.5177853,0.92724609375,0.11962890625,0.32958984375,-7.9345703125,4.5166015625,0.0,10.7666015625,-67.74169921875,-38.924560546875
1758527186.5273514,0.91552734375,0.0419921875,0.4091796875,-8.48388671875,5.55419921875,1.15966796875,10.6622314453125,-67.69775390625,-38.880615234375
1758527186.537594,0.91552734375,0.0419921875,0.4091796875,-8.48388671875,5.55419921875,1.15966796875,10.5303955078125,-67.6483154296875,-38.814697265625
1758527186.5476596,0.919921875,0.00830078125,0.36669921875,-2.13623046875,5.859375,1.46484375,10.4205322265625,-67.5933837890625,-38.748779296875
1758527186.557363,0.919921875,0.00830078125,0.36669921875,-2.13623046875,5.859375,1.46484375,10.338134765625,-67.5439453125,-38.671875
1758527186.5673635,0.9375,0.04638671875,0.38232421875,1.708984375,6.4697265625,1.220703125,10.272216796875,-67.489013671875,-38.594970703125
1758527186.5775223,0.9375,0.04638671875,0.38232421875,1.708984375,6.4697265625,1.220703125,10.228271484375,-67.4285888671875,-38.5235595703125
1758527186.5874593,0.9267578125,0.08837890625,0.38330078125,-2.0751953125,6.591796875,1.5869140625,10.1568603515625,-67.3736572265625,-38.4466552734375
1758527186.5974877,0.9267578125,0.08837890625,0.38330078125,-2.0751953125,6.591796875,1.5869140625,10.0689697265625,-67.313232421875,-38.3642578125
1758527186.6078384,0.92431640625,0.1220703125,0.341796875,-8.544921875,6.40869140625,2.197265625,9.942626953125,-67.2528076171875,-38.2763671875
1758527186.617637,0.92431640625,0.1220703125,0.341796875,-8.544921875,6.40869140625,2.197265625,9.788818359375,-67.1978759765625,-38.1884765625
1758527186.6276398,0.93994140625,0.02734375,0.408203125,-1.28173828125,6.2255859375,2.01416015625,9.6734619140625,-67.1484375,-38.1060791015625
1758527186.6375434,0.93994140625,0.02734375,0.408203125,-1.28173828125,6.2255859375,2.01416015625,9.591064453125,-67.093505859375,-38.023681640625
1758527186.6478097,0.9619140625,-0.01416015625,0.4091796875,8.72802734375,5.859375,0.42724609375,9.580078125,-67.03857421875,-37.957763671875
1758527186.6576033,0.9619140625,-0.01416015625,0.4091796875,8.72802734375,5.859375,0.42724609375,9.6240234375,-66.983642578125,-37.913818359375
1758527186.667485,0.96435546875,0.08544921875,0.39697265625,8.544921875,5.55419921875,-0.91552734375,9.6844482421875,-66.9342041015625,-37.880859375
1758527186.6776743,0.96435546875,0.08544921875,0.39697265625,8.544921875,5.55419921875,-0.91552734375,9.7613525390625,-66.8792724609375,-37.869873046875
1758527186.687583,0.94384765625,0.185546875,0.3798828125,-6.40869140625,5.126953125,-0.18310546875,9.755859375,-66.829833984375,-37.8533935546875
1758527186.6976864,0.94384765625,0.185546875,0.3798828125,-6.40869140625,5.126953125,-0.18310546875,9.6844482421875,-66.785888671875,-37.8314208984375
1758527186.7081757,0.9326171875,0.0732421875,0.3681640625,-5.92041015625,4.39453125,0.30517578125,9.6185302734375,-66.741943359375,-37.81494140625
1758527186.7177935,0.9326171875,0.0732421875,0.3681640625,-5.92041015625,4.39453125,0.30517578125,9.547119140625,-66.7034912109375,-37.7874755859375
1758527186.7275827,0.92919921875,-0.0478515625,0.4267578125,5.92041015625,3.2958984375,-1.15966796875,9.5526123046875,-66.6705322265625,-37.781982421875
1758527186.7438688,0.92919921875,-0.0478515625,0.4267578125,5.92041015625,3.2958984375,-1.15966796875,9.6240234375,-66.6375732421875,-37.7874755859375
1758527186.7505758,0.93505859375,0.0419921875,0.36865234375,10.1318359375,2.685546875,-2.5634765625,9.7283935546875,-66.610107421875,-37.8094482421875
1758527186.7576773,0.93505859375,0.0419921875,0.36865234375,10.1318359375,2.685546875,-2.5634765625,9.86572265625,-66.588134765625,-37.8533935546875
1758527186.767682,0.93701171875,0.140625,0.38134765625,8.11767578125,3.0517578125,-2.3193359375,9.9920654296875,-66.5606689453125,-37.8863525390625
1758527186.7839859,0.93701171875,0.140625,0.38134765625,8.11767578125,3.0517578125,-2.3193359375,10.107421875,-66.5277099609375,-37.9193115234375
1758527186.7901707,0.9140625,0.12109375,0.4072265625,-1.03759765625,3.60107421875,-1.03759765625,10.1678466796875,-66.500244140625,-37.9412841796875
1758527186.797706,0.9140625,0.12109375,0.4072265625,-1.03759765625,3.60107421875,-1.03759765625,10.17333984375,-66.46728515625,-37.94677734375
1758527186.8134577,0.8935546875,0.05322265625,0.3759765625,0.18310546875,3.7841796875,0.0,10.17333984375,-66.4288330078125,-37.9412841796875
1758527186.8205247,0.8935546875,0.05322265625,0.3759765625,0.18310546875,3.7841796875,0.0,10.1678466796875,-66.3958740234375,-37.9248046875
1758527186.827665,0.90478515625,0.009765625,0.3740234375,2.99072265625,3.90625,0.0,10.1678466796875,-66.3629150390625,-37.90283203125
1758527186.8381228,0.90478515625,0.009765625,0.3740234375,2.99072265625,3.90625,0.0,10.1788330078125,-66.3299560546875,-37.8753662109375
1758527186.8483813,0.90478515625,0.009765625,0.3740234375,4.2724609375,4.08935546875,-0.48828125,10.21728515625,-66.29150390625,-37.8643798828125
1758527186.8579295,0.9140625,0.06689453125,0.40576171875,4.2724609375,4.08935546875,-0.48828125,10.250244140625,-66.2530517578125,-37.847900390625
1758527186.8680162,0.90576171875,0.1064453125,0.39306640625,0.9765625,3.84521484375,-0.3662109375,10.250244140625,-66.2200927734375,-37.8369140625
1758527186.8782837,0.90576171875,0.1064453125,0.39306640625,0.9765625,3.84521484375,-0.3662109375,10.2557373046875,-66.181640625,-37.825927734375
1758527186.8879933,0.8828125,0.1064453125,0.36865234375,0.0,3.173828125,-0.30517578125,10.250244140625,-66.1541748046875,-37.81494140625
1758527186.8979774,0.8828125,0.1064453125,0.36865234375,0.0,3.173828125,-0.30517578125,10.2557373046875,-66.126708984375,-37.8094482421875
1758527186.9082973,0.8828125,0.0263671875,0.37060546875,3.2958984375,2.62451171875,-0.54931640625,10.294189453125,-66.104736328125,-37.8094482421875
1758527186.918585,0.8828125,0.0263671875,0.37060546875,3.2958984375,2.62451171875,-0.54931640625,10.3271484375,-66.0772705078125,-37.803955078125
1758527186.9279037,0.90966796875,0.07763671875,0.37744140625,-0.18310546875,2.8076171875,-0.54931640625,10.3271484375,-66.0552978515625,-37.7984619140625
1758527186.939466,0.90966796875,0.07763671875,0.37744140625,-0.18310546875,2.8076171875,-0.54931640625,10.3271484375,-66.0333251953125,-37.79296875
1758527186.9480548,0.9208984375,0.10107421875,0.40283203125,-4.7607421875,2.99072265625,0.48828125,10.26123046875,-66.005859375,-37.760009765625
1758527186.9579628,0.9208984375,0.10107421875,0.40283203125,-4.7607421875,2.99072265625,0.48828125,10.1953125,-65.98388671875,-37.7325439453125
1758527186.9678767,0.921875,0.080078125,0.3857421875,-6.8359375,2.44140625,1.40380859375,10.0909423828125,-65.9674072265625,-37.68310546875
1758527186.9781675,0.921875,0.080078125,0.3857421875,-6.8359375,2.44140625,1.40380859375,9.9920654296875,-65.9454345703125,-37.63916015625
1758527186.9879453,0.91064453125,0.03369140625,0.40771484375,-1.5869140625,1.64794921875,0.9765625,9.95361328125,-65.93994140625,-37.6007080078125
1758527186.9980052,0.91064453125,0.03369140625,0.40771484375,-1.5869140625,1.64794921875,0.9765625,9.90966796875,-65.928955078125,-37.5677490234375
1758527187.008204,0.92724609375,0.05615234375,0.37646484375,0.1220703125,1.15966796875,0.06103515625,9.90966796875,-65.91796875,-37.5567626953125
1758527187.0182035,0.92724609375,0.05615234375,0.37646484375,0.1220703125,1.15966796875,0.06103515625,9.9041748046875,-65.9124755859375,-37.540283203125
1758527187.0279634,0.92041015625,0.10791015625,0.42041015625,-6.04248046875,1.220703125,0.244140625,9.832763671875,-65.906982421875,-37.529296875
1758527187.0381804,0.92041015625,0.10791015625,0.42041015625,-6.04248046875,1.220703125,0.244140625,9.766845703125,-65.89599609375,-37.5128173828125
1758527187.0481622,0.90673828125,0.0888671875,0.37890625,-6.89697265625,0.8544921875,0.67138671875,9.68994140625,-65.8905029296875,-37.4908447265625
1758527187.0582316,0.90673828125,0.0888671875,0.37890625,-6.89697265625,0.8544921875,0.67138671875,9.6075439453125,-65.8905029296875,-37.474365234375
1758527187.0680494,0.89453125,0.0380859375,0.404296875,-3.72314453125,0.6103515625,0.48828125,9.569091796875,-65.885009765625,-37.4578857421875
1758527187.0783622,0.89453125,0.0380859375,0.404296875,-3.72314453125,0.6103515625,0.48828125,9.5196533203125,-65.885009765625,-37.4359130859375
1758527187.0880811,0.90869140625,0.0126953125,0.41015625,4.8828125,0.54931640625,0.0,9.5635986328125,-65.8795166015625,-37.430419921875
1758527187.0983002,0.90869140625,0.0126953125,0.41015625,4.8828125,0.54931640625,0.0,9.6075439453125,-65.8795166015625,-37.4249267578125
1758527187.1090813,0.921875,0.05615234375,0.41455078125,6.40869140625,0.6103515625,-0.54931640625,9.6734619140625,-65.8740234375,-37.430419921875
1758527187.1185377,0.921875,0.05615234375,0.41455078125,6.40869140625,0.6103515625,-0.54931640625,9.7393798828125,-65.8685302734375,-37.4359130859375
1758527187.1280816,0.93359375,0.1015625,0.38720703125,5.2490234375,0.3662109375,-0.91552734375,9.8052978515625,-65.863037109375,-37.4468994140625
1758527187.1383605,0.93359375,0.1015625,0.38720703125,5.2490234375,0.3662109375,-0.91552734375,9.8712158203125,-65.863037109375,-37.46337890625
1758527187.14859,0.92724609375,0.10400390625,0.39794921875,0.0,0.244140625,-0.79345703125,9.8876953125,-65.8575439453125,-37.4798583984375
1758527187.1581829,0.92724609375,0.10400390625,0.39794921875,0.0,0.244140625,-0.79345703125,9.90966796875,-65.8575439453125,-37.5018310546875
1758527187.1681917,0.923828125,0.08251953125,0.40673828125,-1.3427734375,-0.06103515625,-0.42724609375,9.90966796875,-65.8575439453125,-37.50732421875
1758527187.1784115,0.923828125,0.08251953125,0.40673828125,-1.3427734375,-0.06103515625,-0.42724609375,9.90966796875,-65.863037109375,-37.518310546875
1758527187.1882281,0.92626953125,0.0400390625,0.40576171875,3.96728515625,-0.6103515625,-0.48828125,9.964599609375,-65.8685302734375,-37.5347900390625
1758527187.1982782,0.92626953125,0.0400390625,0.40576171875,3.96728515625,-0.6103515625,-0.48828125,10.01953125,-65.8740234375,-37.5457763671875
1758527187.2083402,0.9267578125,0.0478515625,0.41064453125,5.4931640625,-1.0986328125,-0.91552734375,10.0909423828125,-65.885009765625,-37.5677490234375
1758527187.2183137,0.9267578125,0.0478515625,0.41064453125,5.4931640625,-1.0986328125,-0.91552734375,10.1678466796875,-65.89599609375,-37.5897216796875
1758527187.228229,0.90673828125,0.0859375,0.3994140625,7.32421875,-1.40380859375,-0.91552734375,10.26123046875,-65.9124755859375,-37.6171875
1758527187.2383902,0.90673828125,0.0859375,0.3994140625,7.32421875,-1.40380859375,-0.91552734375,10.3546142578125,-65.9234619140625,-37.63916015625
1758527187.24847,0.87109375,0.07763671875,0.3818359375,8.056640625,-1.46484375,-0.244140625,10.4425048828125,-65.93994140625,-37.650146484375
1758527187.2583141,0.87109375,0.07763671875,0.3818359375,8.056640625,-1.46484375,-0.244140625,10.5303955078125,-65.950927734375,-37.6611328125
1758527187.2682724,0.8818359375,0.04541015625,0.38623046875,7.75146484375,-1.220703125,0.8544921875,10.5908203125,-65.9674072265625,-37.63916015625
1758527187.2785733,0.8818359375,0.04541015625,0.38623046875,7.75146484375,-1.220703125,0.8544921875,10.6512451171875,-65.98388671875,-37.6226806640625
1758527187.2883606,0.90771484375,0.0771484375,0.37744140625,-1.46484375,-0.244140625,2.44140625,10.5743408203125,-65.9893798828125,-37.562255859375
1758527187.2983613,0.90771484375,0.0771484375,0.37744140625,-1.46484375,-0.244140625,2.44140625,10.5029296875,-66.0003662109375,-37.5018310546875
1758527187.3084366,0.89111328125,0.1103515625,0.388671875,-10.31494140625,0.6103515625,4.2724609375,10.2996826171875,-66.0003662109375,-37.3974609375
1758527187.3185134,0.89111328125,0.1103515625,0.388671875,-10.31494140625,0.6103515625,4.2724609375,10.107421875,-66.005859375,-37.2930908203125
1758527187.3283842,0.888671875,0.06591796875,0.3876953125,-8.48388671875,0.42724609375,5.126953125,9.90966796875,-66.0113525390625,-37.166748046875
1758527187.338888,0.888671875,0.06591796875,0.3876953125,-8.48388671875,0.42724609375,5.126953125,9.7174072265625,-66.016845703125,-37.0458984375
1758527187.348701,0.89599609375,0.0126953125,0.40869140625,-1.52587890625,0.06103515625,4.7607421875,9.5965576171875,-66.0223388671875,-36.9305419921875
1758527187.3584862,0.89599609375,0.0126953125,0.40869140625,-1.52587890625,0.06103515625,4.7607421875,9.4757080078125,-66.02783203125,-36.8096923828125
1758527187.3684363,0.89599609375,0.0126953125,0.40869140625,0.42724609375,-0.06103515625,4.39453125,9.3768310546875,-66.038818359375,-36.705322265625
1758527187.3786893,0.90576171875,0.03125,0.39306640625,0.42724609375,-0.06103515625,4.39453125,9.2779541015625,-66.0443115234375,-36.5899658203125
1758527187.3886254,0.916015625,0.10595703125,0.380859375,-6.65283203125,0.06103515625,5.0048828125,9.0966796875,-66.0552978515625,-36.4691162109375
1758527187.398559,0.916015625,0.10595703125,0.380859375,-6.65283203125,0.06103515625,5.0048828125,8.9208984375,-66.060791015625,-36.3427734375
1758527187.409582,0.92822265625,0.1083984375,0.4052734375,-8.48388671875,0.30517578125,6.2255859375,8.7066650390625,-66.07177734375,-36.1944580078125
1758527187.4187102,0.92822265625,0.1083984375,0.4052734375,-8.48388671875,0.30517578125,6.2255859375,8.492431640625,-66.0772705078125,-36.046142578125
1758527187.4285166,0.93701171875,0.0244140625,0.42431640625,-2.8076171875,0.30517578125,6.34765625,8.3331298828125,-66.082763671875,-35.8978271484375
1758527187.4388525,0.93701171875,0.0244140625,0.42431640625,-2.8076171875,0.30517578125,6.34765625,8.1683349609375,-66.0882568359375,-35.7440185546875
1758527187.4488804,0.94189453125,0.01025390625,0.42138671875,-2.50244140625,0.42724609375,5.615234375,8.02001953125,-66.09375,-35.606689453125
1758527187.4585814,0.94189453125,0.01025390625,0.42138671875,-2.50244140625,0.42724609375,5.615234375,7.8662109375,-66.0992431640625,-35.4693603515625
1758527187.4689233,0.93701171875,0.0888671875,0.39990234375,-9.8876953125,0.6103515625,5.859375,7.635498046875,-66.0992431640625,-35.3265380859375
1758527187.4787447,0.93701171875,0.0888671875,0.39990234375,-9.8876953125,0.6103515625,5.859375,7.4102783203125,-66.0992431640625,-35.1837158203125
1758527187.4887152,0.93017578125,0.1064453125,0.38916015625,-10.7421875,0.48828125,7.14111328125,7.152099609375,-66.104736328125,-35.013427734375
1758527187.4986448,0.93017578125,0.1064453125,0.38916015625,-10.7421875,0.48828125,7.14111328125,6.9049072265625,-66.1102294921875,-34.8431396484375
1758527187.5087051,0.95361328125,-0.0009765625,0.42822265625,-7.50732421875,0.3662109375,8.1787109375,6.65771484375,-66.11572265625,-34.65087890625
1758527187.5186944,0.95361328125,-0.0009765625,0.42822265625,-7.50732421875,0.3662109375,8.1787109375,6.405029296875,-66.1212158203125,-34.453125
1758527187.5286164,0.958984375,-0.0048828125,0.4111328125,-8.1787109375,0.67138671875,7.568359375,6.1578369140625,-66.126708984375,-34.266357421875
1758527187.5388687,0.958984375,-0.0048828125,0.4111328125,-8.1787109375,0.67138671875,7.568359375,5.91064453125,-66.126708984375,-34.07958984375
1758527187.5488455,0.97314453125,0.04833984375,0.4306640625,-5.615234375,0.79345703125,6.77490234375,5.701904296875,-66.126708984375,-33.914794921875
1758527187.558691,0.97314453125,0.04833984375,0.4306640625,-5.615234375,0.79345703125,6.77490234375,5.4986572265625,-66.126708984375,-33.75
1758527187.5688026,0.98486328125,0.06787109375,0.43408203125,-5.37109375,0.42724609375,6.16455078125,5.3118896484375,-66.1322021484375,-33.6016845703125
1758527187.578858,0.98486328125,0.06787109375,0.43408203125,-5.37109375,0.42724609375,6.16455078125,5.1251220703125,-66.1322021484375,-33.4588623046875
1758527187.5887249,0.9853515625,0.0478515625,0.4052734375,-4.39453125,0.0,6.16455078125,4.954833984375,-66.1376953125,-33.310546875
1758527187.5987308,0.9853515625,0.0478515625,0.4052734375,-4.39453125,0.0,6.16455078125,4.7845458984375,-66.148681640625,-33.167724609375
1758527187.608784,0.96484375,0.0244140625,0.419921875,-4.0283203125,-0.244140625,5.7373046875,4.625244140625,-66.1541748046875,-33.0303955078125
1758527187.6188204,0.96484375,0.0244140625,0.419921875,-4.0283203125,-0.244140625,5.7373046875,4.4659423828125,-66.1651611328125,-32.89306640625
1758527187.6287591,0.95703125,0.0458984375,0.41650390625,-3.662109375,-0.54931640625,5.615234375,4.317626953125,-66.1761474609375,-32.76123046875
1758527187.6390643,0.95703125,0.0458984375,0.41650390625,-3.662109375,-0.54931640625,5.615234375,4.163818359375,-66.1871337890625,-32.62939453125
1758527187.6488461,0.96630859375,0.01806640625,0.4248046875,-1.03759765625,-0.6103515625,5.859375,4.031982421875,-66.1981201171875,-32.4920654296875
1758527187.6588376,0.96630859375,0.01806640625,0.4248046875,-1.03759765625,-0.6103515625,5.859375,3.900146484375,-66.2091064453125,-32.354736328125
1758527187.668854,0.92822265625,0.0126953125,0.4111328125,-0.8544921875,-0.79345703125,5.2490234375,3.7847900390625,-66.2255859375,-32.2283935546875
1758527187.6789558,0.92822265625,0.0126953125,0.4111328125,-0.8544921875,-0.79345703125,5.2490234375,3.6639404296875,-66.236572265625,-32.1075439453125
1758527187.6888633,0.8740234375,0.03466796875,0.35595703125,-3.35693359375,-0.9765625,4.57763671875,3.53759765625,-66.24755859375,-31.9976806640625
1758527187.6988966,0.8740234375,0.03466796875,0.35595703125,-3.35693359375,-0.9765625,4.57763671875,3.4112548828125,-66.2640380859375,-31.893310546875
1758527187.7089748,0.9013671875,0.05517578125,0.3837890625,-7.6904296875,-0.91552734375,5.31005859375,3.2244873046875,-66.280517578125,-31.7669677734375
1758527187.7189004,0.9013671875,0.05517578125,0.3837890625,-7.6904296875,-0.91552734375,5.31005859375,3.043212890625,-66.29150390625,-31.640625
1758527187.728899,0.892578125,0.005859375,0.42822265625,-4.33349609375,-0.91552734375,5.859375,2.87841796875,-66.3079833984375,-31.5032958984375
1758527187.739216,0.892578125,0.005859375,0.42822265625,-4.33349609375,-0.91552734375,5.859375,2.713623046875,-66.3189697265625,-31.365966796875
1758527187.7492461,0.87744140625,-0.0478515625,0.3984375,5.0048828125,-1.46484375,5.37109375,2.647705078125,-66.33544921875,-31.2396240234375
1758527187.758882,0.87744140625,-0.0478515625,0.3984375,5.0048828125,-1.46484375,5.37109375,2.581787109375,-66.3519287109375,-31.11328125
1758527187.7689843,0.8681640625,0.00244140625,0.37939453125,4.8828125,-1.46484375,4.638671875,2.5213623046875,-66.3629150390625,-31.00341796875
1758527187.7790856,0.8681640625,0.00244140625,0.37939453125,4.8828125,-1.46484375,4.638671875,2.4664306640625,-66.37939453125,-30.8880615234375
1758527187.7890258,0.8798828125,0.05712890625,0.375,3.47900390625,-1.220703125,4.33349609375,2.406005859375,-66.3958740234375,-30.7891845703125
1758527187.7990348,0.8798828125,0.05712890625,0.375,3.47900390625,-1.220703125,4.33349609375,2.3455810546875,-66.4068603515625,-30.684814453125
1758527187.8094423,0.904296875,0.0302734375,0.40966796875,1.8310546875,-0.54931640625,4.45556640625,2.2686767578125,-66.412353515625,-30.5859375
1758527187.8191185,0.904296875,0.0302734375,0.40966796875,1.8310546875,-0.54931640625,4.45556640625,2.1917724609375,-66.4178466796875,-30.487060546875
1758527187.8290243,0.90966796875,0.02001953125,0.3935546875,-2.62451171875,0.18310546875,4.21142578125,2.076416015625,-66.4178466796875,-30.38818359375
1758527187.8393173,0.8935546875,0.0419921875,0.35986328125,-12.3291015625,0.9765625,4.0283203125,1.9171142578125,-66.412353515625,-30.2947998046875
1758527187.8494873,0.8935546875,0.0419921875,0.35986328125,-12.3291015625,0.9765625,4.0283203125,1.7138671875,-66.4068603515625,-30.2069091796875
1758527187.8590467,0.8916015625,0.03076171875,0.39306640625,-12.14599609375,1.0986328125,2.86865234375,1.527099609375,-66.3958740234375,-30.1300048828125
1758527187.8697155,0.8916015625,0.03076171875,0.39306640625,-12.14599609375,1.0986328125,2.86865234375,1.351318359375,-66.3848876953125,-30.069580078125
1758527187.8791552,0.8916015625,0.03076171875,0.39306640625,1.46484375,0.91552734375,0.732421875,1.2744140625,-66.37939453125,-30.0311279296875
1758527187.8891444,0.90234375,-0.04833984375,0.41455078125,1.46484375,0.91552734375,0.732421875,1.2799072265625,-66.368408203125,-30.0201416015625
1758527187.8991659,0.91845703125,0.00390625,0.39306640625,-4.2724609375,1.46484375,0.0,1.2579345703125,-66.357421875,-30.0201416015625
1758527187.9092185,0.91845703125,0.00390625,0.39306640625,-4.2724609375,1.46484375,0.0,1.219482421875,-66.3409423828125,-30.0201416015625
1758527187.9191935,0.9052734375,0.05517578125,0.3857421875,-7.87353515625,1.5869140625,0.67138671875,1.153564453125,-66.324462890625,-30.0201416015625
1758527187.9291859,0.9052734375,0.05517578125,0.3857421875,-7.87353515625,1.5869140625,0.67138671875,1.0711669921875,-66.3134765625,-30.0091552734375
1758527187.9394166,0.8994140625,0.0068359375,0.39453125,-5.2490234375,1.52587890625,0.91552734375,0.9942626953125,-66.2969970703125,-29.99267578125
1758527187.9494283,0.8994140625,0.0068359375,0.39453125,-5.2490234375,1.52587890625,0.91552734375,0.933837890625,-66.280517578125,-29.9761962890625
1758527187.9591835,0.90478515625,-0.06640625,0.42626953125,6.89697265625,1.0986328125,-0.54931640625,0.94482421875,-66.26953125,-29.9761962890625
1758527187.969186,0.90478515625,-0.06640625,0.42626953125,6.89697265625,1.0986328125,-0.54931640625,1.0272216796875,-66.258544921875,-29.99267578125
1758527187.9792356,0.91748046875,-0.02734375,0.40478515625,6.9580078125,1.28173828125,-1.15966796875,1.109619140625,-66.24755859375,-30.0091552734375
1758527187.9892993,0.91748046875,-0.02734375,0.40478515625,6.9580078125,1.28173828125,-1.15966796875,1.1920166015625,-66.2310791015625,-30.03662109375
1758527187.9993458,0.9072265625,0.08203125,0.3583984375,-5.615234375,1.64794921875,-0.30517578125,1.20849609375,-66.2200927734375,-30.0531005859375
1758527188.010032,0.9072265625,0.08203125,0.3583984375,-5.615234375,1.64794921875,-0.30517578125,1.1590576171875,-66.20361328125,-30.05859375
1758527188.019455,0.8994140625,0.06103515625,0.39697265625,-8.11767578125,1.77001953125,0.54931640625,1.087646484375,-66.1871337890625,-30.0531005859375
1758527188.0293267,0.8994140625,0.06103515625,0.39697265625,-8.11767578125,1.77001953125,0.54931640625,1.0052490234375,-66.170654296875,-30.0421142578125
1758527188.039386,0.8974609375,-0.060546875,0.43310546875,1.89208984375,1.52587890625,-0.18310546875,0.977783203125,-66.15966796875,-30.0421142578125
1758527188.0498557,0.8974609375,-0.060546875,0.43310546875,1.89208984375,1.52587890625,-0.18310546875,1.0052490234375,-66.1431884765625,-30.0531005859375
1758527188.0592988,0.916015625,-0.0869140625,0.41650390625,11.16943359375,1.40380859375,-1.52587890625,1.087646484375,-66.126708984375,-30.069580078125
1758527188.0695283,0.916015625,-0.0869140625,0.41650390625,11.16943359375,1.40380859375,-1.52587890625,1.219482421875,-66.1102294921875,-30.1025390625
1758527188.0797052,0.91650390625,0.04541015625,0.388671875,6.28662109375,1.64794921875,-1.77001953125,1.329345703125,-66.09375,-30.135498046875
1758527188.089359,0.91650390625,0.04541015625,0.388671875,6.28662109375,1.64794921875,-1.77001953125,1.417236328125,-66.0772705078125,-30.1739501953125
1758527188.0994143,0.89306640625,0.0966796875,0.38427734375,0.06103515625,2.13623046875,-0.6103515625,1.4666748046875,-66.060791015625,-30.1959228515625
1758527188.1094716,0.89306640625,0.0966796875,0.38427734375,0.06103515625,2.13623046875,-0.6103515625,1.483154296875,-66.038818359375,-30.21240234375
1758527188.1193852,0.876953125,-0.00830078125,0.41162109375,4.08935546875,2.50244140625,0.67138671875,1.505126953125,-66.016845703125,-30.21240234375
1758527188.1294487,0.876953125,-0.00830078125,0.41162109375,4.08935546875,2.50244140625,0.67138671875,1.5325927734375,-65.994873046875,-30.1959228515625
1758527188.1393754,0.89453125,-0.11376953125,0.42138671875,14.2822265625,2.50244140625,0.30517578125,1.614990234375,-65.9674072265625,-30.1849365234375
1758527188.1498713,0.89453125,-0.11376953125,0.42138671875,14.2822265625,2.50244140625,0.30517578125,1.73583984375,-65.9454345703125,-30.1739501953125
1758527188.1594367,0.935546875,-0.04345703125,0.412109375,15.56396484375,2.685546875,-0.732421875,1.86767578125,-65.91796875,-30.16845703125
1758527188.1694565,0.935546875,-0.04345703125,0.412109375,15.56396484375,2.685546875,-0.732421875,2.010498046875,-65.8905029296875,-30.1739501953125
1758527188.1799026,0.9384765625,0.08740234375,0.421875,12.87841796875,3.11279296875,-0.6103515625,2.142333984375,-65.863037109375,-30.179443359375
1758527188.1894753,0.9384765625,0.08740234375,0.421875,12.87841796875,3.11279296875,-0.6103515625,2.26318359375,-65.830078125,-30.1849365234375
1758527188.1994941,0.92822265625,0.05712890625,0.40087890625,10.92529296875,3.5400390625,0.48828125,2.3675537109375,-65.797119140625,-30.1849365234375
1758527188.2095766,0.92822265625,0.05712890625,0.40087890625,10.92529296875,3.5400390625,0.48828125,2.4554443359375,-65.76416015625,-30.16845703125
1758527188.219594,0.93701171875,-0.021484375,0.40576171875,9.09423828125,4.0283203125,1.15966796875,2.5323486328125,-65.7257080078125,-30.1409912109375
1758527188.2295918,0.93701171875,-0.021484375,0.40576171875,9.09423828125,4.0283203125,1.15966796875,2.581787109375,-65.687255859375,-30.1080322265625
1758527188.239514,0.9501953125,0.0263671875,0.4150390625,-0.3662109375,4.2724609375,1.5869140625,2.581787109375,-65.6488037109375,-30.0640869140625
1758527188.25008,0.9501953125,0.0263671875,0.4150390625,-0.3662109375,4.2724609375,1.5869140625,2.5323486328125,-65.6103515625,-30.0201416015625
1758527188.259591,0.93505859375,0.0888671875,0.390625,-7.01904296875,4.21142578125,2.44140625,2.4444580078125,-65.5718994140625,-29.9652099609375
1758527188.2696834,0.93505859375,0.0888671875,0.390625,-7.01904296875,4.21142578125,2.44140625,2.318115234375,-65.5389404296875,-29.8992919921875
1758527188.2800837,0.93408203125,0.04345703125,0.41015625,-12.26806640625,3.90625,3.23486328125,2.164306640625,-65.50048828125,-29.8333740234375
1758527188.2896335,0.93408203125,0.04345703125,0.41015625,-12.26806640625,3.90625,3.23486328125,1.9775390625,-65.4730224609375,-29.7564697265625
1758527188.299631,0.93017578125,-0.0263671875,0.43310546875,-7.8125,2.99072265625,2.74658203125,1.8182373046875,-65.4400634765625,-29.68505859375
1758527188.310315,0.93017578125,-0.0263671875,0.43310546875,-7.8125,2.99072265625,2.74658203125,1.6864013671875,-65.4180908203125,-29.619140625
1758527188.3198292,0.93896484375,-0.04833984375,0.4384765625,-2.197265625,2.01416015625,1.89208984375,1.5875244140625,-65.3961181640625,-29.564208984375
1758527188.3296974,0.93896484375,-0.04833984375,0.4384765625,-2.197265625,2.01416015625,1.89208984375,1.5216064453125,-65.379638671875,-29.5147705078125
1758527188.3397858,0.9248046875,-0.00341796875,0.4169921875,-4.21142578125,1.89208984375,2.197265625,1.439208984375,-65.3631591796875,-29.46533203125
1758527188.350301,0.9248046875,-0.00341796875,0.4169921875,-4.21142578125,1.89208984375,2.197265625,1.3458251953125,-65.3521728515625,-29.4049072265625
1758527188.3597217,0.90283203125,0.01708984375,0.4208984375,-3.2958984375,1.89208984375,3.11279296875,1.2469482421875,-65.335693359375,-29.3389892578125
1758527188.3701243,0.90283203125,0.01708984375,0.4208984375,-3.2958984375,1.89208984375,3.11279296875,1.142578125,-65.3192138671875,-29.267578125
1758527188.3803446,0.91162109375,-0.01953125,0.41455078125,1.40380859375,1.3427734375,3.173828125,1.0601806640625,-65.3082275390625,-29.190673828125
1758527188.3898907,0.91162109375,-0.01953125,0.41455078125,1.40380859375,1.3427734375,3.173828125,1.0052490234375,-65.2972412109375,-29.11376953125
1758527188.4001522,0.9130859375,-0.00341796875,0.4189453125,1.5869140625,0.8544921875,2.25830078125,0.955810546875,-65.2862548828125,-29.0478515625
1758527188.4100938,0.9130859375,-0.00341796875,0.4189453125,1.5869140625,0.8544921875,2.25830078125,0.9173583984375,-65.28076171875,-28.992919921875
1758527188.419831,0.91162109375,0.02685546875,0.41845703125,1.28173828125,0.6103515625,1.64794921875,0.8843994140625,-65.2752685546875,-28.9434814453125
1758527188.4299715,0.91162109375,0.02685546875,0.41845703125,1.28173828125,0.6103515625,1.64794921875,0.85693359375,-65.269775390625,-28.905029296875
1758527188.4397879,0.90234375,0.01708984375,0.40771484375,1.40380859375,0.54931640625,1.8310546875,0.8349609375,-65.269775390625,-28.8665771484375
1758527188.450429,0.90234375,0.01708984375,0.40771484375,1.40380859375,0.54931640625,1.8310546875,0.8074951171875,-65.2642822265625,-28.8226318359375
1758527188.4598298,0.91015625,0.01953125,0.400390625,-4.69970703125,0.732421875,2.50244140625,0.7470703125,-65.2587890625,-28.7786865234375
1758527188.4699702,0.91015625,0.01953125,0.400390625,-4.69970703125,0.732421875,2.50244140625,0.648193359375,-65.2587890625,-28.71826171875
1758527188.4803483,0.91357421875,0.037109375,0.40966796875,-12.26806640625,0.91552734375,3.11279296875,0.50537109375,-65.2532958984375,-28.6578369140625
1758527188.4898968,0.91357421875,0.037109375,0.40966796875,-12.26806640625,0.91552734375,3.11279296875,0.3240966796875,-65.2423095703125,-28.58642578125
1758527188.4999433,0.91259765625,-0.013671875,0.4404296875,-7.75146484375,0.67138671875,2.44140625,0.17578125,-65.2423095703125,-28.5260009765625
1758527188.5100145,0.91259765625,-0.013671875,0.4404296875,-7.75146484375,0.67138671875,2.44140625,0.054931640625,-65.23681640625,-28.4765625
1758527188.519954,0.919921875,-0.02783203125,0.42138671875,-3.60107421875,0.18310546875,0.732421875,-0.02197265625,-65.2313232421875,-28.443603515625
1758527188.5302644,0.919921875,-0.02783203125,0.42138671875,-3.60107421875,0.18310546875,0.732421875,-0.0714111328125,-65.2313232421875,-28.4326171875
1758527188.5408602,0.92724609375,0.021484375,0.43310546875,-4.45556640625,0.1220703125,0.54931640625,-0.120849609375,-65.2313232421875,-28.421630859375
1758527188.5545368,0.92724609375,0.021484375,0.43310546875,-4.45556640625,0.1220703125,0.54931640625,-0.17578125,-65.2313232421875,-28.41064453125
1758527188.5608835,0.921875,-0.02392578125,0.4375,-0.732421875,0.244140625,1.40380859375,-0.2142333984375,-65.2313232421875,-28.3941650390625
1758527188.570157,0.921875,-0.02392578125,0.4375,-0.732421875,0.244140625,1.40380859375,-0.2471923828125,-65.225830078125,-28.3612060546875
1758527188.5802336,0.912109375,-0.0576171875,0.42578125,3.11279296875,0.244140625,1.40380859375,-0.2691650390625,-65.225830078125,-28.333740234375
1758527188.590224,0.912109375,-0.0576171875,0.42578125,3.11279296875,0.244140625,1.40380859375,-0.2691650390625,-65.2203369140625,-28.30078125
1758527188.6005392,0.91552734375,-0.00537109375,0.4267578125,5.37109375,0.0,0.732421875,-0.2581787109375,-65.2203369140625,-28.2733154296875
1758527188.6104817,0.91552734375,-0.00537109375,0.4267578125,5.37109375,0.0,0.732421875,-0.2252197265625,-65.2203369140625,-28.2568359375
1758527188.6201303,0.91455078125,0.0341796875,0.423828125,3.90625,0.0,0.54931640625,-0.19775390625,-65.2203369140625,-28.245849609375
1758527188.6303153,0.91455078125,0.0341796875,0.423828125,3.90625,0.0,0.54931640625,-0.17578125,-65.2203369140625,-28.23486328125
1758527188.6400974,0.908203125,0.015625,0.4169921875,3.2958984375,-0.1220703125,0.9765625,-0.15380859375,-65.2203369140625,-28.223876953125
1758527188.65149,0.908203125,0.015625,0.4169921875,3.2958984375,-0.1220703125,0.9765625,-0.142822265625,-65.2203369140625,-28.201904296875
1758527188.660165,0.91162109375,-0.02587890625,0.4169921875,4.57763671875,-0.42724609375,1.5869140625,-0.1263427734375,-65.2203369140625,-28.179931640625
1758527188.6703303,0.91162109375,-0.02587890625,0.4169921875,4.57763671875,-0.42724609375,1.5869140625,-0.1153564453125,-65.225830078125,-28.1414794921875
1758527188.6807938,0.91015625,-0.02685546875,0.42041015625,5.67626953125,-0.79345703125,1.40380859375,-0.098876953125,-65.2313232421875,-28.1085205078125
1758527188.6903195,0.91015625,-0.02685546875,0.42041015625,5.67626953125,-0.79345703125,1.40380859375,-0.076904296875,-65.2423095703125,-28.0755615234375
1758527188.7002606,0.9072265625,0.0078125,0.4248046875,6.2255859375,-0.9765625,0.91552734375,-0.0494384765625,-65.247802734375,-28.048095703125
1758527188.7151585,0.9072265625,0.0078125,0.4248046875,6.2255859375,-0.9765625,0.91552734375,-0.010986328125,-65.2587890625,-28.026123046875
1758527188.7224576,0.90380859375,0.017578125,0.4111328125,9.033203125,-1.03759765625,1.220703125,0.032958984375,-65.269775390625,-28.004150390625
1758527188.7303817,0.90380859375,0.017578125,0.4111328125,9.033203125,-1.03759765625,1.220703125,0.0933837890625,-65.2752685546875,-27.9766845703125
1758527188.7407732,0.9150390625,-0.02197265625,0.42236328125,9.94873046875,-0.6103515625,1.89208984375,0.15380859375,-65.2862548828125,-27.9437255859375
1758527188.7513125,0.9150390625,-0.02197265625,0.42236328125,9.94873046875,-0.6103515625,1.89208984375,0.208740234375,-65.291748046875,-27.8997802734375
1758527188.7606893,0.91748046875,-0.02685546875,0.42333984375,7.99560546875,-0.54931640625,2.01416015625,0.2471923828125,-65.2972412109375,-27.8558349609375
1758527188.7704568,0.91748046875,-0.02685546875,0.42333984375,7.99560546875,-0.54931640625,2.01416015625,0.2801513671875,-65.302734375,-27.806396484375
1758527188.781852,0.88818359375,-0.0068359375,0.416015625,11.474609375,-0.42724609375,1.46484375,0.32958984375,-65.3082275390625,-27.7679443359375
1758527188.7904167,0.88818359375,-0.0068359375,0.416015625,11.474609375,-0.42724609375,1.46484375,0.4010009765625,-65.3082275390625,-27.7294921875
1758527188.8016775,0.8984375,-0.00244140625,0.404296875,13.85498046875,-0.67138671875,1.5869140625,0.4888916015625,-65.313720703125,-27.696533203125
1758527188.8107708,0.8984375,-0.00244140625,0.404296875,13.85498046875,-0.67138671875,1.5869140625,0.582275390625,-65.3192138671875,-27.6580810546875
1758527188.8209026,0.88671875,-0.01123046875,0.41357421875,17.2119140625,-0.54931640625,1.220703125,0.6976318359375,-65.32470703125,-27.6251220703125
1758527188.8305545,0.88671875,-0.01123046875,0.41357421875,17.2119140625,-0.54931640625,1.220703125,0.8294677734375,-65.3302001953125,-27.59765625
1758527188.840926,0.87890625,-0.01513671875,0.4248046875,19.4091796875,-0.6103515625,0.9765625,0.977783203125,-65.335693359375,-27.5701904296875
1758527188.8516023,0.87890625,-0.01513671875,0.4248046875,19.4091796875,-0.6103515625,0.9765625,1.1370849609375,-65.3411865234375,-27.5482177734375
1758527188.8608851,0.86669921875,0.009765625,0.3740234375,15.0146484375,-0.48828125,1.0986328125,1.2469482421875,-65.3466796875,-27.520751953125
1758527188.8706484,0.86669921875,0.009765625,0.3740234375,15.0146484375,-0.48828125,1.0986328125,1.3623046875,-65.3521728515625,-27.4932861328125
1758527188.8819594,0.86669921875,0.009765625,0.3740234375,5.9814453125,-0.48828125,2.13623046875,1.3677978515625,-65.357666015625,-27.44384765625
1758527188.8905716,0.8681640625,0.0546875,0.34619140625,5.9814453125,-0.48828125,2.13623046875,1.373291015625,-65.3631591796875,-27.388916015625
1758527188.902028,0.90234375,0.04296875,0.369140625,-2.13623046875,0.8544921875,3.84521484375,1.2689208984375,-65.3631591796875,-27.301025390625
1758527188.9116786,0.90234375,0.04296875,0.369140625,-2.13623046875,0.8544921875,3.84521484375,1.16455078125,-65.357666015625,-27.2076416015625
1758527188.9213834,0.89013671875,0.01025390625,0.501953125,-11.53564453125,3.41796875,5.615234375,0.933837890625,-65.3302001953125,-27.0758056640625
1758527188.9305894,0.89013671875,0.01025390625,0.501953125,-11.53564453125,3.41796875,5.615234375,0.6976318359375,-65.2972412109375,-26.949462890625
1758527188.9404178,0.896484375,-0.0361328125,0.40087890625,-3.47900390625,3.0517578125,5.2490234375,0.5548095703125,-65.2642822265625,-26.8341064453125
1758527188.9516306,0.896484375,-0.0361328125,0.40087890625,-3.47900390625,3.0517578125,5.2490234375,0.406494140625,-65.23681640625,-26.7132568359375
1758527188.9605389,0.9072265625,-0.02197265625,0.39404296875,-1.15966796875,2.9296875,3.11279296875,0.3240966796875,-65.2093505859375,-26.641845703125
1758527188.9705877,0.9072265625,-0.02197265625,0.39404296875,-1.15966796875,2.9296875,3.11279296875,0.24169921875,-65.181884765625,-26.5704345703125
1758527188.9811888,0.89013671875,0.02783203125,0.46484375,-3.11279296875,2.62451171875,0.67138671875,0.19775390625,-65.1544189453125,-26.5594482421875
1758527188.9907842,0.89013671875,0.02783203125,0.46484375,-3.11279296875,2.62451171875,0.67138671875,0.15380859375,-65.126953125,-26.553955078125
1758527189.0015597,0.90234375,0.048828125,0.3759765625,2.8076171875,1.15966796875,0.3662109375,0.17578125,-65.115966796875,-26.553955078125
1758527189.0111182,0.90234375,0.048828125,0.3759765625,2.8076171875,1.15966796875,0.3662109375,0.208740234375,-65.10498046875,-26.553955078125
1758527189.0207536,0.93359375,0.00927734375,0.40087890625,-2.62451171875,0.8544921875,0.3662109375,0.1812744140625,-65.0994873046875,-26.5484619140625
1758527189.0308204,0.93359375,0.00927734375,0.40087890625,-2.62451171875,0.8544921875,0.3662109375,0.15380859375,-65.093994140625,-26.5484619140625
1758527189.0405645,0.955078125,-0.00146484375,0.4404296875,-8.85009765625,0.244140625,0.0,0.076904296875,-65.093994140625,-26.553955078125
1758527189.0520113,0.955078125,-0.00146484375,0.4404296875,-8.85009765625,0.244140625,0.0,0.0,-65.093994140625,-26.5594482421875
1758527189.0606525,0.9287109375,0.0283203125,0.43115234375,-17.2119140625,-0.18310546875,0.0,-0.164794921875,-65.0994873046875,-26.56494140625
1758527189.0708203,0.9287109375,0.0283203125,0.43115234375,-17.2119140625,-0.18310546875,0.0,-0.3240966796875,-65.10498046875,-26.5704345703125
1758527189.0809443,0.8994140625,0.03759765625,0.38232421875,-23.4375,-0.30517578125,0.732421875,-0.560302734375,-65.1104736328125,-26.56494140625
1758527189.0907607,0.8994140625,0.03759765625,0.38232421875,-23.4375,-0.30517578125,0.732421875,-0.791015625,-65.115966796875,-26.553955078125
1758527189.1007748,0.92138671875,-0.0048828125,0.4111328125,-17.9443359375,-0.3662109375,1.40380859375,-0.9832763671875,-65.1214599609375,-26.5264892578125
1758527189.1114736,0.92138671875,-0.0048828125,0.4111328125,-17.9443359375,-0.3662109375,1.40380859375,-1.175537109375,-65.1324462890625,-26.4990234375
1758527189.120842,0.9072265625,-0.06005859375,0.46240234375,-17.39501953125,0.0,0.9765625,-1.3568115234375,-65.1324462890625,-26.4825439453125
1758527189.1308115,0.9072265625,-0.06005859375,0.46240234375,-17.39501953125,0.0,0.9765625,-1.5380859375,-65.1324462890625,-26.466064453125
1758527189.1408427,0.9150390625,-0.05810546875,0.4462890625,-16.6015625,-0.79345703125,0.79345703125,-1.7193603515625,-65.1434326171875,-26.4495849609375
1758527189.1519883,0.9150390625,-0.05810546875,0.4462890625,-16.6015625,-0.79345703125,0.79345703125,-1.8951416015625,-65.14892578125,-26.43310546875
1758527189.1607816,0.8984375,-0.05126953125,0.4052734375,-5.43212890625,-2.25830078125,0.732421875,-1.966552734375,-65.1708984375,-26.4166259765625
1758527189.1715696,0.8984375,-0.05126953125,0.4052734375,-5.43212890625,-2.25830078125,0.732421875,-2.04345703125,-65.19287109375,-26.400146484375
1758527189.1815526,0.89013671875,-0.052734375,0.4189453125,1.46484375,-2.74658203125,0.06103515625,-2.0379638671875,-65.2203369140625,-26.3946533203125
1758527189.1912515,0.89013671875,-0.052734375,0.4189453125,1.46484375,-2.74658203125,0.06103515625,-2.032470703125,-65.2423095703125,-26.38916015625
1758527189.2008662,0.90234375,-0.00732421875,0.41064453125,-0.48828125,-2.62451171875,-0.18310546875,-2.04345703125,-65.269775390625,-26.38916015625
1758527189.2129753,0.90234375,-0.00732421875,0.41064453125,-0.48828125,-2.62451171875,-0.18310546875,-2.0489501953125,-65.2972412109375,-26.38916015625
1758527189.2209136,0.90625,-0.0078125,0.40087890625,5.18798828125,-3.2958984375,-0.06103515625,-2.0050048828125,-65.3302001953125,-26.38916015625
1758527189.2314212,0.90625,-0.0078125,0.40087890625,5.18798828125,-3.2958984375,-0.06103515625,-1.9610595703125,-65.357666015625,-26.38916015625
1758527189.24094,0.90185546875,-0.05712890625,0.43701171875,11.29150390625,-3.90625,-0.3662109375,-1.845703125,-65.3961181640625,-26.3946533203125
1758527189.2528315,0.90185546875,-0.05712890625,0.43701171875,11.29150390625,-3.90625,-0.3662109375,-1.7413330078125,-65.4345703125,-26.400146484375
1758527189.2612834,0.89306640625,-0.0224609375,0.40185546875,8.97216796875,-4.0283203125,-0.79345703125,-1.64794921875,-65.4730224609375,-26.4166259765625
1758527189.271686,0.89306640625,-0.0224609375,0.40185546875,8.97216796875,-4.0283203125,-0.79345703125,-1.5545654296875,-65.511474609375,-26.43310546875
1758527189.281672,0.912109375,0.03515625,0.37548828125,1.40380859375,-3.96728515625,0.0,-1.549072265625,-65.5499267578125,-26.4276123046875
1758527189.2915857,0.912109375,0.03515625,0.37548828125,1.40380859375,-3.96728515625,0.0,-1.5435791015625,-65.5938720703125,-26.4276123046875
1758527189.3013813,0.91259765625,0.00244140625,0.4150390625,4.2724609375,-4.150390625,0.18310546875,-1.505126953125,-65.63232421875,-26.422119140625
1758527189.3126183,0.91259765625,0.00244140625,0.4150390625,4.2724609375,-4.150390625,0.18310546875,-1.47216796875,-65.67626953125,-26.4166259765625
1758527189.321206,0.92724609375,-0.060546875,0.453125,10.55908203125,-4.2724609375,-0.42724609375,-1.3623046875,-65.7147216796875,-26.4276123046875
1758527189.3316793,0.92724609375,-0.060546875,0.453125,10.55908203125,-4.2724609375,-0.42724609375,-1.2579345703125,-65.7586669921875,-26.4385986328125
1758527189.340995,0.9501953125,-0.02099609375,0.43359375,4.69970703125,-4.08935546875,-1.15966796875,-1.197509765625,-65.797119140625,-26.466064453125
1758527189.3525424,0.9501953125,-0.02099609375,0.43359375,4.69970703125,-4.08935546875,-1.15966796875,-1.1370849609375,-65.830078125,-26.4935302734375
1758527189.3610315,0.90625,0.0546875,0.35546875,-4.08935546875,-4.69970703125,-0.3662109375,-1.175537109375,-65.8795166015625,-26.5045166015625
1758527189.371014,0.90625,0.0546875,0.35546875,-4.08935546875,-4.69970703125,-0.3662109375,-1.20849609375,-65.9234619140625,-26.5155029296875
1758527189.3818066,0.8994140625,-0.005859375,0.38818359375,-0.18310546875,-4.2724609375,0.244140625,-1.219482421875,-65.9674072265625,-26.510009765625
1758527189.3910363,0.8994140625,-0.005859375,0.38818359375,-0.18310546875,-4.2724609375,0.244140625,-1.2249755859375,-66.0113525390625,-26.5045166015625
1758527189.4016073,0.90185546875,-0.009765625,0.4248046875,-1.8310546875,-3.0517578125,-0.3662109375,-1.2359619140625,-66.038818359375,-26.5155029296875
1758527189.4117866,0.90185546875,-0.009765625,0.4248046875,-1.8310546875,-3.0517578125,-0.3662109375,-1.2469482421875,-66.07177734375,-26.5264892578125
1758527189.4212618,0.93115234375,0.00390625,0.4169921875,-0.18310546875,-3.35693359375,-0.67138671875,-1.23046875,-66.104736328125,-26.54296875
1758527189.4311814,0.93115234375,0.00390625,0.4169921875,-0.18310546875,-3.35693359375,-0.67138671875,-1.2139892578125,-66.1322021484375,-26.56494140625
1758527189.4428222,0.92138671875,-0.0224609375,0.37646484375,-0.67138671875,-4.2724609375,-0.48828125,-1.2139892578125,-66.1761474609375,-26.575927734375
1758527189.4519305,0.92138671875,-0.0224609375,0.37646484375,-0.67138671875,-4.2724609375,-0.48828125,-1.20849609375,-66.2200927734375,-26.5869140625
1758527189.4613178,0.89990234375,-0.0390625,0.4111328125,1.52587890625,-3.96728515625,-0.67138671875,-1.1810302734375,-66.258544921875,-26.6033935546875
1758527189.4713929,0.89990234375,-0.0390625,0.4111328125,1.52587890625,-3.96728515625,-0.67138671875,-1.1590576171875,-66.2969970703125,-26.6143798828125
1758527189.481868,0.9052734375,-0.02880859375,0.44482421875,9.46044921875,-3.11279296875,-0.9765625,-1.0491943359375,-66.324462890625,-26.641845703125
1758527189.4911878,0.9052734375,-0.02880859375,0.44482421875,9.46044921875,-3.11279296875,-0.9765625,-0.9393310546875,-66.3519287109375,-26.663818359375
1758527189.5016415,0.9189453125,-0.0263671875,0.40576171875,12.75634765625,-2.86865234375,-0.9765625,-0.802001953125,-66.3739013671875,-26.6912841796875
1758527189.511645,0.9189453125,-0.0263671875,0.40576171875,12.75634765625,-2.86865234375,-0.9765625,-0.6646728515625,-66.4013671875,-26.7132568359375
1758527189.521594,0.9208984375,0.015625,0.36181640625,9.94873046875,-2.3193359375,-0.79345703125,-0.5548095703125,-66.42333984375,-26.7352294921875
1758527189.5312698,0.9208984375,0.015625,0.36181640625,9.94873046875,-2.3193359375,-0.79345703125,-0.4449462890625,-66.4453125,-26.751708984375
1758527189.5414224,0.91162109375,0.00830078125,0.4384765625,11.65771484375,-0.79345703125,-1.220703125,-0.3076171875,-66.4508056640625,-26.78466796875
1758527189.5520403,0.91162109375,0.00830078125,0.4384765625,11.65771484375,-0.79345703125,-1.220703125,-0.1702880859375,-66.456298828125,-26.817626953125
1758527189.5617082,0.8916015625,-0.01611328125,0.40771484375,8.23974609375,0.732421875,-1.64794921875,-0.0604248046875,-66.4453125,-26.861572265625
1758527189.571475,0.8916015625,-0.01611328125,0.40771484375,8.23974609375,0.732421875,-1.64794921875,0.0494384765625,-66.434326171875,-26.9000244140625
1758527189.582347,0.89013671875,0.0302734375,0.31884765625,0.18310546875,1.52587890625,-1.46484375,0.076904296875,-66.412353515625,-26.9384765625
1758527189.5913017,0.89013671875,0.0302734375,0.31884765625,0.18310546875,1.52587890625,-1.46484375,0.10986328125,-66.4013671875,-26.971435546875
1758527189.6025836,0.890625,0.07470703125,0.326171875,-4.2724609375,0.9765625,-0.42724609375,0.076904296875,-66.390380859375,-26.982421875
1758527189.6121523,0.890625,0.07470703125,0.326171875,-4.2724609375,0.9765625,-0.42724609375,0.054931640625,-66.3848876953125,-26.993408203125
1758527189.6222625,0.90185546875,0.001953125,0.41748046875,-11.41357421875,1.28173828125,0.06103515625,-0.0439453125,-66.37939453125,-26.993408203125
1758527189.6314058,0.90185546875,0.001953125,0.41748046875,-11.41357421875,1.28173828125,0.06103515625,-0.15380859375,-66.368408203125,-26.993408203125
1758527189.6420856,0.908203125,0.0068359375,0.41015625,-15.07568359375,1.40380859375,-0.732421875,-0.274658203125,-66.357421875,-27.0208740234375
1758527189.6521049,0.908203125,0.0068359375,0.41015625,-15.07568359375,1.40380859375,-0.732421875,-0.4010009765625,-66.346435546875,-27.0428466796875
1758527189.6619709,0.8837890625,0.0302734375,0.35107421875,-16.78466796875,0.79345703125,-0.54931640625,-0.5438232421875,-66.3409423828125,-27.059326171875
1758527189.6714463,0.8837890625,0.0302734375,0.35107421875,-16.78466796875,0.79345703125,-0.54931640625,-0.68115234375,-66.33544921875,-27.081298828125
1758527189.6827617,0.921875,-0.0419921875,0.37841796875,-14.404296875,-0.18310546875,0.1220703125,-0.81298828125,-66.3409423828125,-27.081298828125
1758527189.6914291,0.921875,-0.0419921875,0.37841796875,-14.404296875,-0.18310546875,0.1220703125,-0.9503173828125,-66.346435546875,-27.0758056640625
1758527189.7025216,0.94970703125,-0.08154296875,0.47021484375,-6.9580078125,-0.91552734375,-0.54931640625,-1.0052490234375,-66.357421875,-27.09228515625
1758527189.712444,0.94970703125,-0.08154296875,0.47021484375,-6.9580078125,-0.91552734375,-0.54931640625,-1.065673828125,-66.368408203125,-27.103271484375
1758527189.7223415,0.9140625,-0.02392578125,0.42041015625,-0.06103515625,-1.220703125,-1.52587890625,-1.0382080078125,-66.37939453125,-27.13623046875
1758527189.7315545,0.9140625,-0.02392578125,0.42041015625,-0.06103515625,-1.220703125,-1.52587890625,-1.0107421875,-66.390380859375,-27.1746826171875
1758527189.7422602,0.89306640625,0.0068359375,0.34765625,-0.1220703125,-1.5869140625,-0.42724609375,-1.0107421875,-66.4068603515625,-27.18017578125
1758527189.7523189,0.89306640625,0.0068359375,0.34765625,-0.1220703125,-1.5869140625,-0.42724609375,-1.0052490234375,-66.42333984375,-27.1856689453125
1758527189.762183,0.92626953125,-0.03271484375,0.3994140625,0.6103515625,-1.40380859375,0.18310546875,-1.0107421875,-66.4398193359375,-27.1746826171875
1758527189.771532,0.92626953125,-0.03271484375,0.3994140625,0.6103515625,-1.40380859375,0.18310546875,-1.0107421875,-66.456298828125,-27.1636962890625
1758527189.7833786,0.94921875,-0.0361328125,0.46142578125,5.126953125,-1.0986328125,-0.54931640625,-0.955810546875,-66.46728515625,-27.1746826171875
1758527189.791532,0.94921875,-0.0361328125,0.46142578125,5.126953125,-1.0986328125,-0.54931640625,-0.9063720703125,-66.4727783203125,-27.18017578125
1758527189.8019273,0.93603515625,0.0126953125,0.404296875,5.4931640625,-1.0986328125,-0.48828125,-0.845947265625,-66.4837646484375,-27.191162109375
1758527189.8139849,0.93603515625,0.0126953125,0.404296875,5.4931640625,-1.0986328125,-0.48828125,-0.791015625,-66.4947509765625,-27.2021484375
1758527189.821963,0.9130859375,0.00732421875,0.3427734375,3.60107421875,-1.28173828125,0.48828125,-0.76904296875,-66.5057373046875,-27.191162109375
1758527189.831657,0.9130859375,0.00732421875,0.3427734375,3.60107421875,-1.28173828125,0.48828125,-0.7470703125,-66.5167236328125,-27.169189453125
1758527189.8417783,0.92041015625,-0.00634765625,0.4150390625,0.67138671875,-0.67138671875,0.30517578125,-0.7525634765625,-66.5277099609375,-27.158203125
1758527189.8524127,0.92041015625,-0.00634765625,0.4150390625,0.67138671875,-0.67138671875,0.30517578125,-0.758056640625,-66.533203125,-27.147216796875
1758527189.8617613,0.9296875,0.0185546875,0.42822265625,-2.99072265625,0.06103515625,-0.48828125,-0.7745361328125,-66.533203125,-27.158203125
1758527189.8716974,0.9150390625,0.03857421875,0.365234375,-6.04248046875,0.06103515625,-0.06103515625,-0.81298828125,-66.533203125,-27.169189453125
1758527189.8823662,0.9150390625,0.03857421875,0.365234375,-6.04248046875,0.06103515625,-0.06103515625,-0.867919921875,-66.533203125,-27.1746826171875
1758527189.891685,0.900390625,-0.02978515625,0.37646484375,-5.9814453125,-0.06103515625,1.0986328125,-0.9283447265625,-66.533203125,-27.1636962890625
1758527189.901905,0.900390625,-0.02978515625,0.37646484375,-5.9814453125,-0.06103515625,1.0986328125,-1.0107421875,-66.533203125,-27.13623046875
1758527189.9125638,0.9140625,-0.0400390625,0.40771484375,-6.8359375,0.18310546875,0.48828125,-1.087646484375,-66.5386962890625,-27.1142578125
1758527189.9220493,0.9140625,-0.0400390625,0.40771484375,-6.8359375,0.18310546875,0.48828125,-1.1700439453125,-66.5386962890625,-27.103271484375
1758527189.9318175,0.9150390625,0.00634765625,0.42138671875,-5.55419921875,0.91552734375,-0.42724609375,-1.23046875,-66.533203125,-27.103271484375
1758527189.9418347,0.9150390625,0.00634765625,0.42138671875,-5.55419921875,0.91552734375,-0.42724609375,-1.2744140625,-66.522216796875,-27.1142578125
1758527189.952501,0.88525390625,0.03515625,0.3720703125,-8.056640625,1.40380859375,0.30517578125,-1.34033203125,-66.51123046875,-27.1197509765625
1758527189.9620662,0.88525390625,0.03515625,0.3720703125,-8.056640625,1.40380859375,0.30517578125,-1.417236328125,-66.4947509765625,-27.1197509765625
1758527189.9718826,0.873046875,-0.04638671875,0.361328125,-5.4931640625,1.28173828125,1.64794921875,-1.4996337890625,-66.4837646484375,-27.0977783203125
1758527189.9853294,0.873046875,-0.04638671875,0.361328125,-5.4931640625,1.28173828125,1.64794921875,-1.5875244140625,-66.4727783203125,-27.0648193359375
1758527189.9918354,0.90283203125,-0.08349609375,0.43408203125,-1.28173828125,1.89208984375,0.9765625,-1.64794921875,-66.456298828125,-27.0318603515625
1758527190.0018861,0.90283203125,-0.08349609375,0.43408203125,-1.28173828125,1.89208984375,0.9765625,-1.6864013671875,-66.434326171875,-27.00439453125
1758527190.012927,0.9033203125,0.0009765625,0.4208984375,-2.25830078125,3.0517578125,-0.244140625,-1.7193603515625,-66.412353515625,-26.9989013671875
1758527190.0219572,0.9033203125,0.0009765625,0.4208984375,-2.25830078125,3.0517578125,-0.244140625,-1.7413330078125,-66.37939453125,-27.00439453125
1758527190.0319765,0.86572265625,0.04931640625,0.353515625,-1.64794921875,3.11279296875,0.54931640625,-1.7633056640625,-66.346435546875,-27.00439453125
1758527190.0420012,0.86572265625,0.04931640625,0.353515625,-1.64794921875,3.11279296875,0.54931640625,-1.790771484375,-66.3134765625,-26.993408203125
1758527190.0532987,0.8681640625,-0.06787109375,0.3671875,0.0,3.72314453125,1.52587890625,-1.812744140625,-66.280517578125,-26.9769287109375
1758527190.0622683,0.8681640625,-0.06787109375,0.3671875,0.0,3.72314453125,1.52587890625,-1.845703125,-66.2420654296875,-26.9384765625
1758527190.0724308,0.9287109375,-0.0322265625,0.4296875,-5.06591796875,5.126953125,0.18310546875,-1.8896484375,-66.1981201171875,-26.91650390625
1758527190.0825584,0.9287109375,-0.0322265625,0.4296875,-5.06591796875,5.126953125,0.18310546875,-1.944580078125,-66.148681640625,-26.91650390625
1758527190.0924547,0.953125,0.0498046875,0.44287109375,-7.080078125,6.16455078125,-0.732421875,-1.99951171875,-66.09375,-26.927490234375
1758527190.1023774,0.953125,0.0498046875,0.44287109375,-7.080078125,6.16455078125,-0.732421875,-2.0489501953125,-66.0333251953125,-26.9549560546875
1758527190.1137807,0.93017578125,0.0185546875,0.3974609375,-6.591796875,6.40869140625,0.42724609375,-2.098388671875,-65.9674072265625,-26.971435546875
1758527190.122434,0.93017578125,0.0185546875,0.3974609375,-6.591796875,6.40869140625,0.42724609375,-2.1588134765625,-65.906982421875,-26.9769287109375
1758527190.1320362,0.9384765625,-0.0693359375,0.39599609375,-9.1552734375,6.65283203125,1.03759765625,-2.2412109375,-65.841064453125,-26.971435546875
1758527190.1424603,0.9384765625,-0.0693359375,0.39599609375,-9.1552734375,6.65283203125,1.03759765625,-2.3455810546875,-65.7806396484375,-26.9549560546875
1758527190.1527102,0.9716796875,-0.029296875,0.45849609375,-9.8876953125,7.38525390625,-0.48828125,-2.4334716796875,-65.7147216796875,-26.9549560546875
1758527190.162205,0.9716796875,-0.029296875,0.45849609375,-9.8876953125,7.38525390625,-0.48828125,-2.515869140625,-65.643310546875,-26.971435546875
1758527190.1720753,1.0185546875,0.01953125,0.49462890625,-9.94873046875,6.34765625,-1.40380859375,-2.5872802734375,-65.577392578125,-27.00439453125
1758527190.1827884,1.0185546875,0.01953125,0.49462890625,-9.94873046875,6.34765625,-1.40380859375,-2.6422119140625,-65.511474609375,-27.04833984375
1758527190.1920395,0.99755859375,-0.009765625,0.35107421875,-4.08935546875,2.01416015625,-0.3662109375,-2.6806640625,-65.4730224609375,-27.0758056640625
1758527190.2024136,0.99755859375,-0.009765625,0.35107421875,-4.08935546875,2.01416015625,-0.3662109375,-2.70263671875,-65.45654296875,-27.0867919921875
1758527190.212424,0.9462890625,-0.0517578125,0.44384765625,-12.451171875,0.732421875,0.732421875,-2.7850341796875,-65.4510498046875,-27.081298828125
1758527190.2223947,0.9462890625,-0.0517578125,0.44384765625,-12.451171875,0.732421875,0.732421875,-2.9168701171875,-65.4510498046875,-27.0648193359375
1758527190.2321393,0.94091796875,-0.033203125,0.43310546875,-12.8173828125,0.732421875,0.732421875,-3.05419921875,-65.445556640625,-27.0428466796875
1758527190.242253,0.94091796875,-0.033203125,0.43310546875,-12.8173828125,0.732421875,0.732421875,-3.197021484375,-65.4400634765625,-27.0263671875
1758527190.2527156,0.9462890625,-0.00341796875,0.462890625,-10.92529296875,1.64794921875,0.06103515625,-3.31787109375,-65.4345703125,-27.015380859375
1758527190.2624054,0.9462890625,-0.00341796875,0.462890625,-10.92529296875,1.64794921875,0.06103515625,-3.4222412109375,-65.4180908203125,-27.0208740234375
1758527190.2725058,0.92626953125,-0.00341796875,0.4248046875,-15.625,1.28173828125,1.64794921875,-3.5650634765625,-65.4071044921875,-27.00439453125
1758527190.2826753,0.92626953125,-0.00341796875,0.4248046875,-15.625,1.28173828125,1.64794921875,-3.746337890625,-65.3961181640625,-26.971435546875
1758527190.2922254,0.9521484375,-0.08935546875,0.3515625,-17.578125,-0.48828125,2.74658203125,-3.9495849609375,-65.390625,-26.927490234375
1758527190.302317,0.9521484375,-0.08935546875,0.3515625,-17.578125,-0.48828125,2.74658203125,-4.1802978515625,-65.3961181640625,-26.8560791015625
1758527190.3125339,0.98291015625,-0.0673828125,0.49658203125,-7.01904296875,-1.89208984375,1.46484375,-4.3505859375,-65.41259765625,-26.8011474609375
1758527190.3223965,0.98291015625,-0.0673828125,0.49658203125,-7.01904296875,-1.89208984375,1.46484375,-4.4549560546875,-65.4345703125,-26.7572021484375
1758527190.3322718,0.9189453125,-0.037109375,0.4306640625,-4.82177734375,-2.38037109375,0.732421875,-4.5428466796875,-65.45654296875,-26.7242431640625
1758527190.3424351,0.9189453125,-0.037109375,0.4306640625,-4.82177734375,-2.38037109375,0.732421875,-4.6142578125,-65.478515625,-26.7022705078125
1758527190.3527079,0.8203125,0.0087890625,0.318359375,-9.6435546875,-0.732421875,0.18310546875,-4.6966552734375,-65.4949951171875,-26.685791015625
1758527190.362474,0.8203125,0.0087890625,0.318359375,-9.6435546875,-0.732421875,0.18310546875,-4.7955322265625,-65.50048828125,-26.6802978515625
1758527190.3722522,0.8505859375,-0.005859375,0.47900390625,-10.7421875,2.0751953125,0.48828125,-4.89990234375,-65.50048828125,-26.6748046875
1758527190.3828096,0.8505859375,-0.005859375,0.47900390625,-10.7421875,2.0751953125,0.48828125,-5.0042724609375,-65.478515625,-26.6693115234375
1758527190.3922915,0.95751953125,-0.103515625,0.404296875,-6.2255859375,1.15966796875,0.6103515625,-5.086669921875,-65.45654296875,-26.6693115234375
1758527190.402437,0.95751953125,-0.103515625,0.404296875,-6.2255859375,1.15966796875,0.6103515625,-5.1580810546875,-65.445556640625,-26.663818359375
1758527190.4127028,0.92626953125,-0.0791015625,0.40966796875,-1.953125,0.30517578125,0.79345703125,-5.2130126953125,-65.4400634765625,-26.6473388671875
1758527190.422497,0.92626953125,-0.0791015625,0.40966796875,-1.953125,0.30517578125,0.79345703125,-5.25146484375,-65.4345703125,-26.630859375
1758527190.43242,0.89892578125,-0.05126953125,0.451171875,8.9111328125,0.6103515625,0.54931640625,-5.240478515625,-65.4290771484375,-26.60888671875
1758527190.4425218,0.89892578125,-0.05126953125,0.451171875,8.9111328125,0.6103515625,0.54931640625,-5.1690673828125,-65.423583984375,-26.597900390625
1758527190.4528253,0.92431640625,-0.09033203125,0.333984375,15.93017578125,-1.40380859375,1.15966796875,-5.0701904296875,-65.423583984375,-26.575927734375
1758527190.4625173,0.92431640625,-0.09033203125,0.333984375,15.93017578125,-1.40380859375,1.15966796875,-4.954833984375,-65.4345703125,-26.5374755859375
1758527190.4724534,0.92041015625,-0.046875,0.4189453125,14.34326171875,-2.9296875,1.03759765625,-4.844970703125,-65.4620361328125,-26.4935302734375
1758527190.4832947,0.92041015625,-0.046875,0.4189453125,14.34326171875,-2.9296875,1.03759765625,-4.74609375,-65.489501953125,-26.4495849609375
1758527190.4923909,0.955078125,0.00048828125,0.4609375,6.40869140625,-3.0517578125,0.91552734375,-4.6856689453125,-65.5224609375,-26.4111328125
1758527190.5026264,0.955078125,0.00048828125,0.4609375,6.40869140625,-3.0517578125,0.91552734375,-4.658203125,-65.5499267578125,-26.378173828125
1758527190.5127673,0.92578125,0.01220703125,0.39453125,8.4228515625,-3.41796875,-0.30517578125,-4.603271484375,-65.5828857421875,-26.3616943359375
1758527190.5226266,0.92578125,0.01220703125,0.39453125,8.4228515625,-3.41796875,-0.30517578125,-4.5208740234375,-65.621337890625,-26.356201171875
1758527190.5325315,0.94970703125,-0.0517578125,0.4287109375,8.6669921875,-3.96728515625,-0.48828125,-4.4329833984375,-65.654296875,-26.356201171875
1758527190.5427063,0.94970703125,-0.0517578125,0.4287109375,8.6669921875,-3.96728515625,-0.48828125,-4.3450927734375,-65.6982421875,-26.3616943359375
1758527190.5527751,0.89990234375,-0.04345703125,0.4443359375,13.00048828125,-4.45556640625,-1.3427734375,-4.229736328125,-65.7421875,-26.3726806640625
1758527190.5627396,0.89990234375,-0.04345703125,0.4443359375,13.00048828125,-4.45556640625,-1.3427734375,-4.0814208984375,-65.7861328125,-26.3946533203125
1758527190.5725136,0.91943359375,-0.0400390625,0.37353515625,8.97216796875,-5.0048828125,-1.40380859375,-3.955078125,-65.830078125,-26.422119140625
1758527190.5831628,0.91943359375,-0.0400390625,0.37353515625,8.97216796875,-5.0048828125,-1.40380859375,-3.8507080078125,-65.8795166015625,-26.444091796875
1758527190.5925431,0.90283203125,0.01611328125,0.42578125,7.50732421875,-4.8828125,-1.52587890625,-3.7518310546875,-65.928955078125,-26.466064453125
1758527190.6031363,0.90283203125,0.01611328125,0.42578125,7.50732421875,-4.8828125,-1.52587890625,-3.6529541015625,-65.9783935546875,-26.4990234375
1758527190.6128814,0.90966796875,-0.025390625,0.423828125,9.82666015625,-4.69970703125,-1.46484375,-3.5430908203125,-66.0223388671875,-26.531982421875
1758527190.622668,0.90966796875,-0.025390625,0.423828125,9.82666015625,-4.69970703125,-1.46484375,-3.4222412109375,-66.0662841796875,-26.56494140625
1758527190.6326156,0.91748046875,-0.0185546875,0.37158203125,0.42724609375,-4.2724609375,-0.48828125,-3.3563232421875,-66.1102294921875,-26.5869140625
1758527190.6427855,0.91748046875,-0.0185546875,0.37158203125,0.42724609375,-4.2724609375,-0.48828125,-3.3453369140625,-66.148681640625,-26.5924072265625
1758527190.6530046,0.912109375,0.01123046875,0.40234375,-8.23974609375,-3.47900390625,-0.3662109375,-3.3837890625,-66.1871337890625,-26.597900390625
1758527190.6627674,0.912109375,0.01123046875,0.40234375,-8.23974609375,-3.47900390625,-0.3662109375,-3.460693359375,-66.2200927734375,-26.6033935546875
1758527190.672797,0.90771484375,-0.01123046875,0.39599609375,-9.09423828125,-3.0517578125,-0.48828125,-3.53759765625,-66.2530517578125,-26.6143798828125
1758527190.683162,0.90771484375,-0.01123046875,0.39599609375,-9.09423828125,-3.0517578125,-0.48828125,-3.614501953125,-66.2860107421875,-26.6253662109375
1758527190.6926641,0.92578125,-0.0615234375,0.4091796875,-2.99072265625,-3.23486328125,-0.30517578125,-3.6639404296875,-66.3134765625,-26.6363525390625
1758527190.7028573,0.92578125,-0.0615234375,0.4091796875,-2.99072265625,-3.23486328125,-0.30517578125,-3.6859130859375,-66.346435546875,-26.641845703125
1758527190.7145562,0.95751953125,-0.01904296875,0.390625,-10.6201171875,-2.99072265625,0.0,-3.75732421875,-66.3739013671875,-26.641845703125
1758527190.7228587,0.95751953125,-0.01904296875,0.390625,-10.6201171875,-2.99072265625,0.0,-3.8671875,-66.4013671875,-26.6363525390625
1758527190.7326956,0.95556640625,0.0205078125,0.43359375,-13.7939453125,-2.62451171875,-0.18310546875,-3.988037109375,-66.4288330078125,-26.6363525390625
1758527190.7430103,0.95556640625,0.0205078125,0.43359375,-13.7939453125,-2.62451171875,-0.18310546875,-4.1143798828125,-66.456298828125,-26.641845703125
1758527190.7530625,0.935546875,-0.03564453125,0.423828125,-9.3994140625,-2.44140625,-0.54931640625,-4.21875,-66.478271484375,-26.65283203125
1758527190.7628882,0.935546875,-0.03564453125,0.423828125,-9.3994140625,-2.44140625,-0.54931640625,-4.2901611328125,-66.5057373046875,-26.6693115234375
1758527190.7728064,0.9228515625,-0.0693359375,0.390625,-5.67626953125,-3.0517578125,-1.46484375,-4.339599609375,-66.5277099609375,-26.69677734375
1758527190.7833116,0.9228515625,-0.0693359375,0.390625,-5.67626953125,-3.0517578125,-1.46484375,-4.361572265625,-66.5606689453125,-26.729736328125
1758527190.7928162,0.91650390625,-0.05078125,0.39111328125,5.79833984375,-3.41796875,-3.35693359375,-4.3121337890625,-66.5936279296875,-26.78466796875
1758527190.8029604,0.91650390625,-0.05078125,0.39111328125,5.79833984375,-3.41796875,-3.35693359375,-4.185791015625,-66.6265869140625,-26.861572265625
1758527190.813103,0.8857421875,-0.037109375,0.4052734375,11.962890625,-3.72314453125,-4.45556640625,-4.0155029296875,-66.6650390625,-26.9549560546875
1758527190.8232348,0.8857421875,-0.037109375,0.4052734375,11.962890625,-3.72314453125,-4.45556640625,-3.80126953125,-66.697998046875,-27.0538330078125
1758527190.8331604,0.89111328125,-0.05712890625,0.39013671875,20.6298828125,-3.7841796875,-4.638671875,-3.548583984375,-66.7364501953125,-27.1636962890625
1758527190.8432174,0.89111328125,-0.05712890625,0.39013671875,20.6298828125,-3.7841796875,-4.638671875,-3.251953125,-66.77490234375,-27.26806640625
1758527190.8531027,0.89111328125,-0.05712890625,0.39013671875,12.0849609375,-3.11279296875,-3.72314453125,-3.01025390625,-66.807861328125,-27.366943359375
1758527190.8630188,0.9013671875,-0.04052734375,0.380859375,12.0849609375,-3.11279296875,-3.72314453125,-2.8179931640625,-66.8353271484375,-27.4493408203125
1758527190.8729384,0.935546875,0.013671875,0.35400390625,2.25830078125,-2.50244140625,-2.5634765625,-2.7520751953125,-66.86279296875,-27.5042724609375
1758527190.8835137,0.935546875,0.013671875,0.35400390625,2.25830078125,-2.50244140625,-2.5634765625,-2.6861572265625,-66.884765625,-27.564697265625
1758527190.8929503,0.9833984375,-0.0048828125,0.43408203125,4.0283203125,-1.40380859375,-1.03759765625,-2.6312255859375,-66.9012451171875,-27.5811767578125
1758527190.9030468,0.9833984375,-0.0048828125,0.43408203125,4.0283203125,-1.40380859375,-1.03759765625,-2.57080078125,-66.9122314453125,-27.608642578125
1758527190.913235,0.990234375,-0.0751953125,0.44970703125,9.09423828125,-0.30517578125,0.54931640625,-2.5048828125,-66.917724609375,-27.586669921875
1758527190.9230084,0.990234375,-0.0751953125,0.44970703125,9.09423828125,-0.30517578125,0.54931640625,-2.43896484375,-66.917724609375,-27.5701904296875
1758527190.933009,0.99267578125,-0.02099609375,0.3681640625,-9.521484375,0.732421875,2.5634765625,-2.603759765625,-66.90673828125,-27.5042724609375
1758527190.9432793,0.99267578125,-0.02099609375,0.3681640625,-9.521484375,0.732421875,2.5634765625,-2.7685546875,-66.895751953125,-27.432861328125
1758527190.9531705,0.95556640625,0.0537109375,0.3984375,-15.380859375,1.220703125,3.84521484375,-3.0157470703125,-66.884765625,-27.333984375
1758527190.9630282,0.95556640625,0.0537109375,0.3984375,-15.380859375,1.220703125,3.84521484375,-3.251953125,-66.873779296875,-27.2406005859375
1758527190.9730542,0.9287109375,-0.08154296875,0.4775390625,5.55419921875,1.15966796875,4.33349609375,-3.2958984375,-66.8572998046875,-27.1307373046875
1758527190.9837933,0.9287109375,-0.08154296875,0.4775390625,5.55419921875,1.15966796875,4.33349609375,-3.33984375,-66.8408203125,-27.0263671875
1758527190.9931192,0.94873046875,-0.15869140625,0.3623046875,10.009765625,0.9765625,4.57763671875,-3.36181640625,-66.8243408203125,-26.9110107421875
1758527191.0032406,0.94873046875,-0.15869140625,0.3623046875,10.009765625,0.9765625,4.57763671875,-3.3837890625,-66.8133544921875,-26.78466796875
1758527191.0151503,0.935546875,0.009765625,0.408203125,1.03759765625,1.40380859375,4.08935546875,-3.4881591796875,-66.796875,-26.6748046875
1758527191.02342,0.935546875,0.009765625,0.408203125,1.03759765625,1.40380859375,4.08935546875,-3.5870361328125,-66.7803955078125,-26.56494140625
1758527191.0333776,0.931640625,0.0322265625,0.41162109375,9.1552734375,1.5869140625,4.2724609375,-3.5980224609375,-66.7584228515625,-26.4605712890625
1758527191.0433848,0.931640625,0.0322265625,0.41162109375,9.1552734375,1.5869140625,4.2724609375,-3.6090087890625,-66.741943359375,-26.356201171875
1758527191.0534844,0.93359375,-0.04296875,0.3837890625,10.986328125,1.46484375,4.2724609375,-3.5980224609375,-66.7254638671875,-26.246337890625
1758527191.0631812,0.93359375,-0.04296875,0.3837890625,10.986328125,1.46484375,4.2724609375,-3.5870361328125,-66.708984375,-26.1419677734375
1758527191.0732052,0.9208984375,-0.02978515625,0.39599609375,4.2724609375,1.3427734375,4.69970703125,-3.6529541015625,-66.6925048828125,-26.0211181640625
1758527191.0834846,0.9208984375,-0.02978515625,0.39599609375,4.2724609375,1.3427734375,4.69970703125,-3.724365234375,-66.676025390625,-25.90576171875
1758527191.0932176,0.9072265625,0.03076171875,0.3828125,-2.0751953125,1.0986328125,5.126953125,-3.8616943359375,-66.6595458984375,-25.7794189453125
1758527191.103438,0.9072265625,0.03076171875,0.3828125,-2.0751953125,1.0986328125,5.126953125,-3.988037109375,-66.6485595703125,-25.6585693359375
1758527191.1136272,0.9072265625,0.03076171875,0.3828125,2.9296875,0.8544921875,5.18798828125,-4.0704345703125,-66.6375732421875,-25.5322265625
1758527191.1235423,0.91357421875,-0.04248046875,0.41259765625,2.9296875,0.8544921875,5.18798828125,-4.1583251953125,-66.6265869140625,-25.411376953125
1758527191.1332552,0.9072265625,-0.07275390625,0.40234375,7.4462890625,0.6103515625,5.126953125,-4.19677734375,-66.6156005859375,-25.2850341796875
1758527191.143545,0.9072265625,-0.07275390625,0.40234375,7.4462890625,0.6103515625,5.126953125,-4.24072265625,-66.6046142578125,-25.1641845703125
1758527191.1536427,0.91650390625,0.00048828125,0.365234375,-1.89208984375,0.54931640625,5.79833984375,-4.39453125,-66.5936279296875,-25.0213623046875
1758527191.1632566,0.91650390625,0.00048828125,0.365234375,-1.89208984375,0.54931640625,5.79833984375,-4.5428466796875,-66.5826416015625,-24.8785400390625
1758527191.1734452,0.89453125,0.056640625,0.3701171875,-8.7890625,0.48828125,6.28662109375,-4.7625732421875,-66.5771484375,-24.730224609375
1758527191.18393,0.89453125,0.056640625,0.3701171875,-8.7890625,0.48828125,6.28662109375,-4.976806640625,-66.5716552734375,-24.58740234375
1758527191.1934729,0.89501953125,-0.02880859375,0.3720703125,-0.42724609375,0.1220703125,6.34765625,-5.1031494140625,-66.566162109375,-24.4390869140625
1758527191.2033508,0.89501953125,-0.02880859375,0.3720703125,-0.42724609375,0.1220703125,6.34765625,-5.2349853515625,-66.5606689453125,-24.290771484375
1758527191.213753,0.89453125,-0.1162109375,0.412109375,8.6669921875,-0.18310546875,5.9814453125,-5.2734375,-66.5606689453125,-24.14794921875
1758527191.2235496,0.89453125,-0.1162109375,0.412109375,8.6669921875,-0.18310546875,5.9814453125,-5.3228759765625,-66.55517578125,-24.005126953125
1758527191.2335832,0.9140625,-0.0625,0.34375,-7.080078125,-0.06103515625,6.28662109375,-5.537109375,-66.55517578125,-23.8458251953125
1758527191.243761,0.9140625,-0.0625,0.34375,-7.080078125,-0.06103515625,6.28662109375,-5.7513427734375,-66.5496826171875,-23.6920166015625
1758527191.2537122,0.896484375,0.04833984375,0.34912109375,-17.02880859375,-0.54931640625,6.2255859375,-6.0589599609375,-66.55517578125,-23.53271484375
1758527191.2636003,0.896484375,0.04833984375,0.34912109375,-17.02880859375,-0.54931640625,6.2255859375,-6.3555908203125,-66.5606689453125,-23.3843994140625
1758527191.2735062,0.87841796875,-0.03515625,0.42529296875,-0.79345703125,-1.46484375,5.43212890625,-6.4764404296875,-66.5716552734375,-23.2525634765625
1758527191.284019,0.87841796875,-0.03515625,0.42529296875,-0.79345703125,-1.46484375,5.43212890625,-6.5972900390625,-66.5826416015625,-23.1207275390625
1758527191.293569,0.8916015625,-0.13330078125,0.37353515625,7.6904296875,-1.8310546875,4.82177734375,-6.624755859375,-66.5936279296875,-23.00537109375
1758527191.3034909,0.8916015625,-0.13330078125,0.37353515625,7.6904296875,-1.8310546875,4.82177734375,-6.65771484375,-66.610107421875,-22.8790283203125
1758527191.3138773,0.90283203125,-0.08447265625,0.35595703125,1.77001953125,-2.197265625,4.08935546875,-6.74560546875,-66.6265869140625,-22.774658203125
1758527191.3235724,0.90283203125,-0.08447265625,0.35595703125,1.77001953125,-2.197265625,4.08935546875,-6.83349609375,-66.6485595703125,-22.6593017578125
1758527191.333674,0.9296875,0.0107421875,0.41259765625,-4.69970703125,-2.50244140625,3.90625,-6.976318359375,-66.6705322265625,-22.554931640625
1758527191.343856,0.9296875,0.0107421875,0.41259765625,-4.69970703125,-2.50244140625,3.90625,-7.119140625,-66.6925048828125,-22.4560546875
1758527191.3538978,0.931640625,-0.00439453125,0.4091796875,1.64794921875,-2.5634765625,3.84521484375,-7.18505859375,-66.7144775390625,-22.3626708984375
1758527191.3634906,0.931640625,-0.00439453125,0.4091796875,1.64794921875,-2.5634765625,3.84521484375,-7.2509765625,-66.73095703125,-22.269287109375
1758527191.373644,0.94140625,-0.06689453125,0.39453125,1.89208984375,-2.685546875,3.662109375,-7.31689453125,-66.7529296875,-22.181396484375
1758527191.3842673,0.94140625,-0.06689453125,0.39453125,1.89208984375,-2.685546875,3.662109375,-7.3773193359375,-66.7803955078125,-22.0880126953125
1758527191.3937256,0.93505859375,-0.0478515625,0.38427734375,-5.79833984375,-2.38037109375,3.60107421875,-7.5201416015625,-66.796875,-22.0001220703125
1758527191.4035563,0.93505859375,-0.0478515625,0.38427734375,-5.79833984375,-2.38037109375,3.60107421875,-7.657470703125,-66.81884765625,-21.90673828125
1758527191.4139957,0.912109375,-0.044921875,0.38818359375,-3.47900390625,-2.74658203125,2.9296875,-7.7618408203125,-66.8408203125,-21.8353271484375
1758527191.4237554,0.912109375,-0.044921875,0.38818359375,-3.47900390625,-2.74658203125,2.9296875,-7.8607177734375,-66.86279296875,-21.7584228515625
1758527191.4338114,0.93408203125,-0.0849609375,0.4091796875,3.662109375,-2.685546875,3.11279296875,-7.899169921875,-66.884765625,-21.6815185546875
1758527191.444028,0.93408203125,-0.0849609375,0.4091796875,3.662109375,-2.685546875,3.11279296875,-7.9376220703125,-66.90673828125,-21.6046142578125
1758527191.4539597,0.95263671875,-0.1103515625,0.41162109375,13.0615234375,-2.50244140625,2.3193359375,-7.8662109375,-66.9287109375,-21.544189453125
1758527191.4636564,0.95263671875,-0.1103515625,0.41162109375,13.0615234375,-2.50244140625,2.3193359375,-7.8057861328125,-66.95068359375,-21.478271484375
1758527191.4743633,0.94189453125,-0.0341796875,0.37451171875,-3.11279296875,-2.13623046875,2.13623046875,-7.8936767578125,-66.9671630859375,-21.4178466796875
1758527191.4844024,0.94189453125,-0.0341796875,0.37451171875,-3.11279296875,-2.13623046875,2.13623046875,-7.987060546875,-66.983642578125,-21.3629150390625
1758527191.493848,0.91259765625,0.03173828125,0.35107421875,-9.09423828125,-2.13623046875,2.685546875,-8.140869140625,-67.0001220703125,-21.29150390625
1758527191.503759,0.91259765625,0.03173828125,0.35107421875,-9.09423828125,-2.13623046875,2.685546875,-8.2891845703125,-67.0220947265625,-21.2200927734375
1758527191.5141141,0.912109375,-0.0390625,0.4267578125,-3.11279296875,-2.3193359375,2.99072265625,-8.382568359375,-67.03857421875,-21.148681640625
1758527191.523825,0.912109375,-0.0390625,0.4267578125,-3.11279296875,-2.3193359375,2.99072265625,-8.4759521484375,-67.060546875,-21.0772705078125
1758527191.5339136,0.91845703125,-0.1025390625,0.375,-7.8125,-1.89208984375,3.35693359375,-8.624267578125,-67.071533203125,-20.994873046875
1758527191.544244,0.91845703125,-0.1025390625,0.375,-7.8125,-1.89208984375,3.35693359375,-8.7835693359375,-67.08251953125,-20.9124755859375
1758527191.5540721,0.900390625,-0.0986328125,0.3681640625,5.67626953125,-2.01416015625,3.173828125,-8.800048828125,-67.0989990234375,-20.830078125
1758527191.563777,0.900390625,-0.0986328125,0.3681640625,5.67626953125,-2.01416015625,3.173828125,-8.8275146484375,-67.1099853515625,-20.7421875
1758527191.57394,0.908203125,-0.1279296875,0.4208984375,10.7421875,-1.28173828125,3.60107421875,-8.81103515625,-67.115478515625,-20.6488037109375
1758527191.5844944,0.908203125,-0.1279296875,0.4208984375,10.7421875,-1.28173828125,3.60107421875,-8.8055419921875,-67.1209716796875,-20.555419921875
1758527191.5939689,0.92138671875,-0.09375,0.36865234375,14.2822265625,-0.79345703125,3.96728515625,-8.76708984375,-67.1209716796875,-20.4510498046875
1758527191.6038904,0.92138671875,-0.09375,0.36865234375,14.2822265625,-0.79345703125,3.96728515625,-8.734130859375,-67.1209716796875,-20.3411865234375
1758527191.6151004,0.93115234375,-0.0166015625,0.388671875,-0.3662109375,-0.1220703125,4.7607421875,-8.8604736328125,-67.1099853515625,-20.2203369140625
