timestamp,acc_x,acc_y,acc_z,gyro_x,gyro_y,gyro_z,angle_x,angle_y,angle_z
1758787238.287697,-0.5751953125,0.02294921875,0.81787109375,0.30517578125,0.42724609375,0.18310546875,1.593017578125,35.2496337890625,-167.9644775390625
1758787238.2967858,-0.5791015625,0.02294921875,0.81005859375,0.06103515625,0.3662109375,0.3662109375,1.5985107421875,35.255126953125,-167.958984375
1758787238.3066735,-0.5791015625,0.02294921875,0.81005859375,0.06103515625,0.3662109375,0.3662109375,1.5985107421875,35.2606201171875,-167.9534912109375
1758787238.318547,-0.57763671875,0.02001953125,0.81884765625,-0.244140625,0.42724609375,0.54931640625,1.5985107421875,35.2606201171875,-167.947998046875
1758787238.3297472,-0.57763671875,0.02001953125,0.81884765625,-0.244140625,0.42724609375,0.54931640625,1.60400390625,35.26611328125,-167.93701171875
1758787238.3411503,-0.58837890625,0.0244140625,0.81298828125,-0.06103515625,0.732421875,0.732421875,1.6094970703125,35.277099609375,-167.926025390625
1758787238.3528337,-0.58837890625,0.0244140625,0.81298828125,-0.06103515625,0.732421875,0.732421875,1.6094970703125,35.2825927734375,-167.9150390625
1758787238.3616865,-0.57666015625,0.02099609375,0.81396484375,-0.91552734375,1.15966796875,1.0986328125,1.6094970703125,35.2935791015625,-167.904052734375
1758787238.3695147,-0.57666015625,0.02099609375,0.81396484375,-0.91552734375,1.15966796875,1.0986328125,1.6094970703125,35.3045654296875,-167.8875732421875
1758787238.37569,-0.56494140625,0.01904296875,0.82373046875,-0.54931640625,0.91552734375,1.15966796875,1.6094970703125,35.3155517578125,-167.87109375
1758787238.3859344,-0.56494140625,0.01904296875,0.82373046875,-0.54931640625,0.91552734375,1.15966796875,1.614990234375,35.3265380859375,-167.860107421875
1758787238.395576,-0.57080078125,0.02294921875,0.822265625,0.244140625,0.732421875,0.9765625,1.6204833984375,35.33203125,-167.84912109375
1758787238.4055808,-0.57080078125,0.02294921875,0.822265625,0.244140625,0.732421875,0.9765625,1.6314697265625,35.3375244140625,-167.838134765625
1758787238.415603,-0.57568359375,0.02880859375,0.81494140625,0.732421875,0.732421875,0.6103515625,1.6424560546875,35.343017578125,-167.838134765625
1758787238.425638,-0.57568359375,0.02880859375,0.81494140625,0.732421875,0.732421875,0.6103515625,1.6534423828125,35.3485107421875,-167.8326416015625
1758787238.435623,-0.57861328125,0.03515625,0.81591796875,0.79345703125,0.732421875,0.18310546875,1.6644287109375,35.35400390625,-167.8326416015625
1758787238.4456215,-0.57861328125,0.03515625,0.81591796875,0.79345703125,0.732421875,0.18310546875,1.6754150390625,35.3594970703125,-167.8326416015625
1758787238.4556537,-0.5751953125,0.02978515625,0.8134765625,-0.3662109375,0.6103515625,0.1220703125,1.6754150390625,35.364990234375,-167.8326416015625
1758787238.4656737,-0.5751953125,0.02978515625,0.8134765625,-0.3662109375,0.6103515625,0.1220703125,1.669921875,35.3704833984375,-167.8326416015625
1758787238.4756725,-0.57470703125,0.0244140625,0.81640625,-1.15966796875,0.54931640625,0.1220703125,1.658935546875,35.3759765625,-167.8326416015625
1758787238.485669,-0.57470703125,0.0244140625,0.81640625,-1.15966796875,0.54931640625,0.1220703125,1.6534423828125,35.3814697265625,-167.8271484375
1758787238.4956932,-0.58740234375,0.01708984375,0.8193359375,-0.3662109375,0.79345703125,0.18310546875,1.64794921875,35.386962890625,-167.8271484375
1758787238.5057387,-0.58740234375,0.01708984375,0.8193359375,-0.3662109375,0.79345703125,0.18310546875,1.64794921875,35.3924560546875,-167.8271484375
1758787238.5157623,-0.580078125,0.021484375,0.8046875,0.6103515625,0.8544921875,0.1220703125,1.6534423828125,35.4034423828125,-167.8271484375
1758787238.5259519,-0.580078125,0.021484375,0.8046875,0.6103515625,0.8544921875,0.1220703125,1.6644287109375,35.408935546875,-167.8216552734375
1758787238.5358133,-0.5888671875,0.029296875,0.81494140625,2.3193359375,1.15966796875,0.0,1.6864013671875,35.419921875,-167.8216552734375
1758787238.5458276,-0.5888671875,0.029296875,0.81494140625,2.3193359375,1.15966796875,0.0,1.7083740234375,35.430908203125,-167.8216552734375
1758787238.555872,-0.56689453125,0.017578125,0.8251953125,1.03759765625,1.46484375,0.244140625,1.724853515625,35.4473876953125,-167.8216552734375
1758787238.5658627,-0.56689453125,0.017578125,0.8251953125,1.03759765625,1.46484375,0.244140625,1.73583984375,35.4583740234375,-167.8216552734375
1758787238.5758677,-0.56396484375,0.03369140625,0.81591796875,0.3662109375,1.03759765625,0.3662109375,1.7413330078125,35.4693603515625,-167.816162109375
1758787238.58586,-0.56396484375,0.03369140625,0.81591796875,0.3662109375,1.03759765625,0.3662109375,1.746826171875,35.474853515625,-167.816162109375
1758787238.5958593,-0.57275390625,0.02294921875,0.81982421875,0.30517578125,0.6103515625,0.3662109375,1.7523193359375,35.4803466796875,-167.8106689453125
1758787238.6058788,-0.57275390625,0.02294921875,0.81982421875,0.30517578125,0.6103515625,0.3662109375,1.7578125,35.48583984375,-167.8106689453125
1758787238.6158457,-0.576171875,0.03173828125,0.8125,-0.6103515625,0.6103515625,0.30517578125,1.7578125,35.4913330078125,-167.8106689453125
1758787238.6258404,-0.576171875,0.03173828125,0.8125,-0.6103515625,0.6103515625,0.30517578125,1.7523193359375,35.4913330078125,-167.8106689453125
1758787238.6358535,-0.5654296875,0.02978515625,0.82080078125,-0.54931640625,0.6103515625,0.30517578125,1.746826171875,35.496826171875,-167.80517578125
1758787238.6458645,-0.5654296875,0.02978515625,0.82080078125,-0.54931640625,0.6103515625,0.30517578125,1.746826171875,35.5023193359375,-167.80517578125
1758787238.65589,-0.54833984375,0.02783203125,0.82861328125,-2.685546875,0.30517578125,0.3662109375,1.724853515625,35.496826171875,-167.80517578125
1758787238.665887,-0.54833984375,0.02783203125,0.82861328125,-2.685546875,0.30517578125,0.3662109375,1.702880859375,35.496826171875,-167.80517578125
1758787238.6759083,-0.5478515625,0.02734375,0.84765625,-2.0751953125,0.244140625,0.244140625,1.680908203125,35.496826171875,-167.8106689453125
1758787238.6861207,-0.5478515625,0.02734375,0.84765625,-2.0751953125,0.244140625,0.244140625,1.6644287109375,35.4913330078125,-167.8106689453125
1758787238.6959174,-0.5478515625,0.02099609375,0.83935546875,-1.15966796875,0.3662109375,0.06103515625,1.6534423828125,35.48583984375,-167.8216552734375
1758787238.705924,-0.5478515625,0.02099609375,0.83935546875,-1.15966796875,0.3662109375,0.06103515625,1.6424560546875,35.48583984375,-167.8271484375
1758787238.715918,-0.54833984375,0.025390625,0.83251953125,-0.8544921875,0.54931640625,0.0,1.636962890625,35.4803466796875,-167.838134765625
1758787238.7259135,-0.54833984375,0.025390625,0.83251953125,-0.8544921875,0.54931640625,0.0,1.6314697265625,35.474853515625,-167.8436279296875
1758787238.7360203,-0.55224609375,0.025390625,0.84228515625,-1.708984375,1.03759765625,0.30517578125,1.614990234375,35.4803466796875,-167.84912109375
1758787238.7460213,-0.55224609375,0.025390625,0.84228515625,-1.708984375,1.03759765625,0.30517578125,1.60400390625,35.4803466796875,-167.8546142578125
1758787238.7560194,-0.54833984375,0.021484375,0.8408203125,-4.0283203125,1.03759765625,0.79345703125,1.5655517578125,35.4803466796875,-167.860107421875
1758787238.766017,-0.54833984375,0.021484375,0.8408203125,-4.0283203125,1.03759765625,0.79345703125,1.5325927734375,35.4803466796875,-167.860107421875
1758787238.7760277,-0.53759765625,0.02734375,0.82666015625,-5.126953125,0.54931640625,1.03759765625,1.494140625,35.474853515625,-167.860107421875
1758787238.7860785,-0.53759765625,0.02734375,0.82666015625,-5.126953125,0.54931640625,1.03759765625,1.4501953125,35.4693603515625,-167.860107421875
1758787238.7961657,-0.54736328125,0.0185546875,0.84521484375,-5.18798828125,0.1220703125,1.28173828125,1.40625,35.4583740234375,-167.8546142578125
1758787238.8061018,-0.54736328125,0.0185546875,0.84521484375,-5.18798828125,0.1220703125,1.28173828125,1.3677978515625,35.4473876953125,-167.84912109375
1758787238.8164206,-0.5595703125,0.01318359375,0.8486328125,-4.57763671875,0.0,1.64794921875,1.3348388671875,35.430908203125,-167.8436279296875
1758787238.8261366,-0.5595703125,0.01318359375,0.8486328125,-4.57763671875,0.0,1.64794921875,1.3018798828125,35.419921875,-167.838134765625
1758787238.836449,-0.5517578125,0.01513671875,0.828125,-6.28662109375,-0.1220703125,2.0751953125,1.25244140625,35.408935546875,-167.8216552734375
1758787238.8461921,-0.5517578125,0.01513671875,0.828125,-6.28662109375,-0.1220703125,2.0751953125,1.20849609375,35.3924560546875,-167.8106689453125
1758787238.8564637,-0.55615234375,0.0263671875,0.83251953125,-7.4462890625,-0.30517578125,2.50244140625,1.153564453125,35.3814697265625,-167.794189453125
1758787238.8661466,-0.55615234375,0.0263671875,0.83251953125,-7.4462890625,-0.30517578125,2.50244140625,1.0986328125,35.364990234375,-167.772216796875
1758787238.8763976,-0.55810546875,0.01953125,0.826171875,-7.38525390625,-0.3662109375,2.9296875,1.0491943359375,35.3485107421875,-167.750244140625
1758787238.8864372,-0.55810546875,0.01953125,0.826171875,-7.38525390625,-0.3662109375,2.9296875,0.9942626953125,35.3375244140625,-167.7227783203125
1758787238.896509,-0.56005859375,0.0068359375,0.828125,-7.2021484375,-0.732421875,3.0517578125,0.9503173828125,35.3155517578125,-167.6953125
1758787238.906559,-0.56005859375,0.0068359375,0.828125,-7.2021484375,-0.732421875,3.0517578125,0.90087890625,35.299072265625,-167.6678466796875
1758787238.9163668,-0.56005859375,0.0068359375,0.828125,-8.23974609375,-0.91552734375,3.23486328125,0.8404541015625,35.2825927734375,-167.640380859375
1758787238.9272885,-0.54833984375,0.01025390625,0.8310546875,-8.23974609375,-0.91552734375,3.23486328125,0.7855224609375,35.2606201171875,-167.607421875
1758787238.9366262,-0.54833984375,0.01025390625,0.8310546875,-9.33837890625,-0.91552734375,3.5400390625,0.7196044921875,35.244140625,-167.574462890625
1758787238.9462879,-0.54931640625,0.01318359375,0.84765625,-9.33837890625,-0.91552734375,3.5400390625,0.6536865234375,35.22216796875,-167.5360107421875
1758787238.9627547,-0.5419921875,0.00927734375,0.841796875,-7.2021484375,-0.732421875,3.5400390625,0.6097412109375,35.2056884765625,-167.5030517578125
1758787238.9695292,-0.5419921875,0.00927734375,0.841796875,-7.2021484375,-0.732421875,3.5400390625,0.5657958984375,35.1837158203125,-167.4700927734375
1758787238.9764693,-0.5419921875,0.005859375,0.81787109375,-5.4931640625,-0.54931640625,3.2958984375,0.5328369140625,35.167236328125,-167.4371337890625
1758787238.9863276,-0.55224609375,0.013671875,0.8408203125,-7.8125,-0.54931640625,3.11279296875,0.494384765625,35.1507568359375,-167.40966796875
1758787238.9970176,-0.55224609375,0.013671875,0.8408203125,-7.8125,-0.54931640625,3.11279296875,0.439453125,35.13427734375,-167.3822021484375
1758787239.006311,-0.55859375,0.017578125,0.83642578125,-8.72802734375,-0.18310546875,2.86865234375,0.3790283203125,35.123291015625,-167.354736328125
1758787239.016494,-0.55859375,0.017578125,0.83642578125,-8.72802734375,-0.18310546875,2.86865234375,0.318603515625,35.1123046875,-167.3272705078125
1758787239.026398,-0.56494140625,0.00927734375,0.830078125,-6.9580078125,0.0,2.25830078125,0.263671875,35.101318359375,-167.3052978515625
1758787239.0366776,-0.56494140625,0.00927734375,0.830078125,-6.9580078125,0.0,2.25830078125,0.2142333984375,35.09033203125,-167.2833251953125
1758787239.046312,-0.5703125,0.00537109375,0.84130859375,-3.662109375,0.3662109375,1.40380859375,0.17578125,35.0848388671875,-167.266845703125
1758787239.056747,-0.5703125,0.00537109375,0.84130859375,-3.662109375,0.3662109375,1.40380859375,0.15380859375,35.079345703125,-167.255859375
1758787239.0664487,-0.56005859375,-0.00341796875,0.82275390625,0.67138671875,0.30517578125,0.67138671875,0.1483154296875,35.0738525390625,-167.2503662109375
1758787239.076423,-0.56005859375,-0.00341796875,0.82275390625,0.67138671875,0.30517578125,0.67138671875,0.164794921875,35.068359375,-167.244873046875
1758787239.0872746,-0.55322265625,-0.01513671875,0.822265625,3.7841796875,0.30517578125,0.244140625,0.1922607421875,35.0628662109375,-167.244873046875
1758787239.0964854,-0.55322265625,-0.01513671875,0.822265625,3.7841796875,0.30517578125,0.244140625,0.230712890625,35.057373046875,-167.2503662109375
1758787239.106359,-0.5546875,-0.00537109375,0.8271484375,5.126953125,0.244140625,-0.1220703125,0.2801513671875,35.0518798828125,-167.255859375
1758787239.1165476,-0.5546875,-0.00537109375,0.8271484375,5.126953125,0.244140625,-0.1220703125,0.32958984375,35.04638671875,-167.266845703125
1758787239.126422,-0.55126953125,0.0048828125,0.83837890625,6.7138671875,0.244140625,-0.54931640625,0.384521484375,35.04638671875,-167.27783203125
1758787239.1364386,-0.55126953125,0.0048828125,0.83837890625,6.7138671875,0.244140625,-0.54931640625,0.4449462890625,35.0408935546875,-167.288818359375
1758787239.1464224,-0.55029296875,0.01708984375,0.830078125,8.7890625,0.48828125,-0.91552734375,0.516357421875,35.035400390625,-167.3052978515625
1758787239.1568575,-0.55029296875,0.01708984375,0.830078125,8.7890625,0.48828125,-0.91552734375,0.5987548828125,35.0299072265625,-167.3272705078125
1758787239.1664748,-0.57666015625,0.02001953125,0.8203125,4.150390625,0.6103515625,-0.91552734375,0.6536865234375,35.0299072265625,-167.34375
1758787239.1764846,-0.57666015625,0.02001953125,0.8203125,4.150390625,0.6103515625,-0.91552734375,0.6866455078125,35.0299072265625,-167.3602294921875
1758787239.1868758,-0.576171875,0.041015625,0.85498046875,0.0,0.244140625,-0.91552734375,0.703125,35.0244140625,-167.376708984375
1758787239.1965253,-0.576171875,0.041015625,0.85498046875,0.0,0.244140625,-0.91552734375,0.6976318359375,35.0244140625,-167.3876953125
1758787239.2072937,-0.57666015625,0.03515625,0.81689453125,-4.5166015625,0.06103515625,-0.8544921875,0.670166015625,35.0189208984375,-167.4041748046875
1758787239.2165506,-0.57666015625,0.03515625,0.81689453125,-4.5166015625,0.06103515625,-0.8544921875,0.6207275390625,35.013427734375,-167.4151611328125
1758787239.2266598,-0.5703125,0.02587890625,0.79931640625,-4.94384765625,-0.06103515625,-0.8544921875,0.5712890625,35.0079345703125,-167.4261474609375
1758787239.2365458,-0.5703125,0.02587890625,0.79931640625,-4.94384765625,-0.06103515625,-0.8544921875,0.5218505859375,35.00244140625,-167.4371337890625
1758787239.246876,-0.57421875,-0.02685546875,0.80712890625,-2.50244140625,0.244140625,-0.67138671875,0.4833984375,35.00244140625,-167.442626953125
1758787239.2567546,-0.57421875,-0.02685546875,0.80712890625,-2.50244140625,0.244140625,-0.67138671875,0.4559326171875,35.00244140625,-167.45361328125
1758787239.26663,-0.58544921875,-0.03662109375,0.828125,2.86865234375,0.3662109375,-1.03759765625,0.4559326171875,35.00244140625,-167.464599609375
1758787239.276543,-0.58544921875,-0.03662109375,0.828125,2.86865234375,0.3662109375,-1.03759765625,0.472412109375,35.00244140625,-167.4810791015625
1758787239.2873814,-0.59033203125,-0.01513671875,0.80810546875,8.36181640625,0.6103515625,-1.40380859375,0.5218505859375,35.0079345703125,-167.49755859375
1758787239.296914,-0.59033203125,-0.01513671875,0.80810546875,8.36181640625,0.6103515625,-1.40380859375,0.59326171875,35.013427734375,-167.5140380859375
1758787239.30672,-0.5966796875,0.02294921875,0.8095703125,6.89697265625,0.244140625,-1.0986328125,0.6536865234375,35.0189208984375,-167.530517578125
1758787239.316598,-0.5966796875,0.02294921875,0.8095703125,6.89697265625,0.244140625,-1.0986328125,0.714111328125,35.0189208984375,-167.54150390625
1758787239.3266726,-0.5966796875,0.05908203125,0.83203125,-0.79345703125,0.42724609375,-0.91552734375,0.7305908203125,35.0244140625,-167.552490234375
1758787239.3369195,-0.5966796875,0.05908203125,0.83203125,-0.79345703125,0.42724609375,-0.91552734375,0.7196044921875,35.0299072265625,-167.5579833984375
1758787239.3466508,-0.60400390625,0.0185546875,0.8017578125,-4.33349609375,0.6103515625,-0.6103515625,0.692138671875,35.0408935546875,-167.5634765625
1758787239.3567932,-0.60400390625,0.0185546875,0.8017578125,-4.33349609375,0.6103515625,-0.6103515625,0.6427001953125,35.04638671875,-167.5689697265625
1758787239.3666756,-0.58984375,-0.0244140625,0.79345703125,-1.5869140625,0.732421875,-0.48828125,0.615234375,35.057373046875,-167.5689697265625
1758787239.3769805,-0.58984375,-0.0244140625,0.79345703125,-1.5869140625,0.732421875,-0.48828125,0.59326171875,35.068359375,-167.5689697265625
1758787239.3875656,-0.5869140625,-0.04052734375,0.80419921875,6.8359375,1.03759765625,-0.42724609375,0.615234375,35.0848388671875,-167.574462890625
1758787239.3966954,-0.5869140625,-0.04052734375,0.80419921875,6.8359375,1.03759765625,-0.42724609375,0.6756591796875,35.101318359375,-167.574462890625
1758787239.4069073,-0.5771484375,-0.02880859375,0.7900390625,11.23046875,1.0986328125,-0.42724609375,0.758056640625,35.1123046875,-167.5799560546875
1758787239.4167309,-0.5771484375,-0.02880859375,0.7900390625,11.23046875,1.0986328125,-0.42724609375,0.8624267578125,35.1287841796875,-167.58544921875
1758787239.4272606,-0.5771484375,-0.02880859375,0.7900390625,7.50732421875,1.15966796875,-0.06103515625,0.94482421875,35.145263671875,-167.58544921875
1758787239.4368007,-0.5732421875,0.01904296875,0.81298828125,7.50732421875,1.15966796875,-0.06103515625,1.0162353515625,35.1617431640625,-167.58544921875
1758787239.4467487,-0.56591796875,0.0712890625,0.82666015625,0.6103515625,1.52587890625,0.67138671875,1.0491943359375,35.17822265625,-167.5799560546875
1758787239.456897,-0.56591796875,0.0712890625,0.82666015625,0.6103515625,1.52587890625,0.67138671875,1.0601806640625,35.1947021484375,-167.574462890625
1758787239.4671457,-0.57861328125,0.037109375,0.84814453125,-1.46484375,1.77001953125,0.67138671875,1.0601806640625,35.2166748046875,-167.5634765625
1758787239.4768417,-0.57861328125,0.037109375,0.84814453125,-1.46484375,1.77001953125,0.67138671875,1.0491943359375,35.233154296875,-167.552490234375
1758787239.4871976,-0.55224609375,0.00146484375,0.81884765625,1.77001953125,2.44140625,0.42724609375,1.0546875,35.255126953125,-167.54150390625
1758787239.4968235,-0.55224609375,0.00146484375,0.81884765625,1.77001953125,2.44140625,0.42724609375,1.07666015625,35.277099609375,-167.5360107421875
1758787239.507331,-0.53857421875,-0.00830078125,0.83251953125,4.638671875,2.50244140625,0.0,1.109619140625,35.299072265625,-167.5360107421875
1758787239.5168962,-0.53857421875,-0.00830078125,0.83251953125,4.638671875,2.50244140625,0.0,1.153564453125,35.321044921875,-167.54150390625
1758787239.5268507,-0.5556640625,0.01708984375,0.87744140625,3.47900390625,2.9296875,-0.06103515625,1.1920166015625,35.343017578125,-167.552490234375
1758787239.5368366,-0.5556640625,0.01708984375,0.87744140625,3.47900390625,2.9296875,-0.06103515625,1.219482421875,35.3704833984375,-167.5579833984375
1758787239.5468822,-0.556640625,0.04296875,0.830078125,2.38037109375,3.11279296875,0.0,1.2469482421875,35.3924560546875,-167.5689697265625
1758787239.5574777,-0.556640625,0.04296875,0.830078125,2.38037109375,3.11279296875,0.0,1.2689208984375,35.4144287109375,-167.5799560546875
1758787239.5668523,-0.5830078125,0.02392578125,0.83203125,1.52587890625,3.0517578125,0.0,1.2908935546875,35.4364013671875,-167.58544921875
1758787239.5769877,-0.5830078125,0.02392578125,0.83203125,1.52587890625,3.0517578125,0.0,1.307373046875,35.4638671875,-167.5909423828125
1758787239.5873575,-0.57275390625,0.01513671875,0.83984375,2.62451171875,3.60107421875,-0.30517578125,1.3238525390625,35.48583984375,-167.6019287109375
1758787239.5970898,-0.57275390625,0.01513671875,0.83984375,2.62451171875,3.60107421875,-0.30517578125,1.351318359375,35.518798828125,-167.6129150390625
1758787239.6069093,-0.548828125,0.01708984375,0.80419921875,1.220703125,3.90625,-0.48828125,1.3623046875,35.5462646484375,-167.6239013671875
1758787239.6169534,-0.548828125,0.01708984375,0.80419921875,1.220703125,3.90625,-0.48828125,1.373291015625,35.5792236328125,-167.640380859375
1758787239.6270149,-0.56640625,0.04248046875,0.8291015625,-1.28173828125,4.2724609375,-0.8544921875,1.3677978515625,35.6121826171875,-167.6568603515625
1758787239.6372964,-0.56640625,0.04248046875,0.8291015625,-1.28173828125,4.2724609375,-0.8544921875,1.351318359375,35.6451416015625,-167.67333984375
1758787239.6469188,-0.58154296875,0.03759765625,0.83447265625,2.50244140625,5.7373046875,-1.52587890625,1.351318359375,35.6890869140625,-167.6953125
1758787239.6570675,-0.58154296875,0.03759765625,0.83447265625,2.50244140625,5.7373046875,-1.52587890625,1.3677978515625,35.738525390625,-167.7227783203125
1758787239.6669877,-0.5869140625,0.02783203125,0.82421875,1.64794921875,6.65283203125,-2.13623046875,1.3787841796875,35.79345703125,-167.750244140625
1758787239.6775043,-0.5869140625,0.02783203125,0.82421875,1.64794921875,6.65283203125,-2.13623046875,1.3787841796875,35.8538818359375,-167.783203125
1758787239.6874335,-0.59619140625,0.01611328125,0.78662109375,-3.0517578125,7.6904296875,-2.0751953125,1.3623046875,35.914306640625,-167.816162109375
1758787239.697134,-0.59619140625,0.01611328125,0.78662109375,-3.0517578125,7.6904296875,-2.0751953125,1.318359375,35.9857177734375,-167.8436279296875
1758787239.7076194,-0.5908203125,0.0185546875,0.7646484375,-1.52587890625,7.99560546875,-2.25830078125,1.285400390625,36.0626220703125,-167.8765869140625
1758787239.7170782,-0.5908203125,0.0185546875,0.7646484375,-1.52587890625,7.99560546875,-2.25830078125,1.2579345703125,36.134033203125,-167.904052734375
1758787239.7270539,-0.59033203125,0.009765625,0.79736328125,5.7373046875,7.62939453125,-2.62451171875,1.263427734375,36.2109375,-167.93701171875
1758787239.7370813,-0.59033203125,0.009765625,0.79736328125,5.7373046875,7.62939453125,-2.62451171875,1.3018798828125,36.2823486328125,-167.9754638671875
1758787239.7471585,-0.6103515625,-0.00927734375,0.80908203125,8.056640625,7.8125,-2.74658203125,1.3568115234375,36.3592529296875,-168.0084228515625
1758787239.757181,-0.6103515625,-0.00927734375,0.80908203125,8.056640625,7.8125,-2.74658203125,1.417236328125,36.4361572265625,-168.046875
1758787239.7671056,-0.5908203125,0.01171875,0.77880859375,7.080078125,7.38525390625,-2.13623046875,1.47216796875,36.507568359375,-168.0853271484375
1758787239.7771008,-0.5908203125,0.01171875,0.77880859375,7.080078125,7.38525390625,-2.13623046875,1.527099609375,36.5789794921875,-168.11279296875
1758787239.7875085,-0.60302734375,0.01611328125,0.818359375,5.615234375,6.53076171875,-1.77001953125,1.571044921875,36.6448974609375,-168.145751953125
1758787239.797615,-0.60302734375,0.01611328125,0.818359375,5.615234375,6.53076171875,-1.77001953125,1.614990234375,36.7108154296875,-168.1732177734375
1758787239.8071437,-0.5927734375,0.0302734375,0.83837890625,-2.25830078125,5.615234375,-1.52587890625,1.614990234375,36.7657470703125,-168.20068359375
1758787239.8171926,-0.5927734375,0.0302734375,0.83837890625,-2.25830078125,5.615234375,-1.52587890625,1.58203125,36.8206787109375,-168.2281494140625
1758787239.827221,-0.59228515625,0.03076171875,0.80078125,3.5400390625,5.4931640625,-1.5869140625,1.5765380859375,36.8701171875,-168.255615234375
1758787239.838641,-0.59228515625,0.03076171875,0.80078125,3.5400390625,5.4931640625,-1.5869140625,1.5985107421875,36.9195556640625,-168.2830810546875
1758787239.8475971,-0.59521484375,-0.0146484375,0.77978515625,9.521484375,5.06591796875,-1.89208984375,1.64794921875,36.968994140625,-168.310546875
1758787239.8575976,-0.59521484375,-0.0146484375,0.77978515625,9.521484375,5.06591796875,-1.89208984375,1.724853515625,37.0184326171875,-168.343505859375
1758787239.8672364,-0.6064453125,0.01171875,0.8017578125,8.056640625,4.94384765625,-1.220703125,1.8017578125,37.0623779296875,-168.3709716796875
1758787239.8772209,-0.6064453125,0.01171875,0.8017578125,8.056640625,4.94384765625,-1.220703125,1.86767578125,37.1063232421875,-168.3984375
1758787239.888119,-0.62548828125,0.04150390625,0.79296875,2.86865234375,5.0048828125,-0.54931640625,1.91162109375,37.15576171875,-168.42041015625
1758787239.897206,-0.62548828125,0.04150390625,0.79296875,2.86865234375,5.0048828125,-0.54931640625,1.93359375,37.2052001953125,-168.431396484375
1758787239.9072537,-0.6279296875,0.07275390625,0.78076171875,-0.30517578125,5.2490234375,-0.42724609375,1.9390869140625,37.2491455078125,-168.4478759765625
1758787239.917235,-0.6279296875,0.07275390625,0.78076171875,-0.30517578125,5.2490234375,-0.42724609375,1.93359375,37.3040771484375,-168.453369140625
1758787239.9275348,-0.61279296875,0.03271484375,0.7275390625,-6.2255859375,5.43212890625,-0.3662109375,1.900634765625,37.353515625,-168.4588623046875
1758787239.9372823,-0.61279296875,0.03271484375,0.7275390625,-6.2255859375,5.43212890625,-0.3662109375,1.834716796875,37.408447265625,-168.46435546875
1758787239.9471982,-0.6318359375,0.05810546875,0.796875,-10.25390625,5.126953125,0.0,1.7578125,37.46337890625,-168.4698486328125
1758787239.9572272,-0.6318359375,0.05810546875,0.796875,-10.25390625,5.126953125,0.0,1.658935546875,37.518310546875,-168.46435546875
1758787239.9672902,-0.5791015625,0.03173828125,0.79736328125,-12.8173828125,4.57763671875,0.54931640625,1.5545654296875,37.5677490234375,-168.4588623046875
1758787239.9774668,-0.5791015625,0.03173828125,0.79736328125,-12.8173828125,4.57763671875,0.54931640625,1.4337158203125,37.6116943359375,-168.453369140625
1758787239.9877975,-0.60498046875,0.02099609375,0.79052734375,-16.78466796875,4.45556640625,1.03759765625,1.3018798828125,37.6556396484375,-168.4423828125
1758787239.9972794,-0.60498046875,0.02099609375,0.79052734375,-16.78466796875,4.45556640625,1.03759765625,1.1480712890625,37.6995849609375,-168.431396484375
1758787240.007385,-0.6103515625,-0.0029296875,0.80224609375,-8.6669921875,4.08935546875,0.1220703125,1.03271484375,37.7435302734375,-168.4259033203125
1758787240.0173607,-0.6103515625,-0.0029296875,0.80224609375,-8.6669921875,4.08935546875,0.1220703125,0.955810546875,37.781982421875,-168.431396484375
1758787240.0278468,-0.6259765625,-0.01171875,0.80078125,-2.9296875,3.7841796875,-0.54931640625,0.90087890625,37.81494140625,-168.4368896484375
1758787240.0373626,-0.6259765625,-0.01171875,0.80078125,-2.9296875,3.7841796875,-0.54931640625,0.8734130859375,37.8533935546875,-168.453369140625
1758787240.0473385,-0.6240234375,0.0390625,0.82421875,-8.544921875,3.23486328125,-0.42724609375,0.81298828125,37.8863525390625,-168.46435546875
1758787240.057405,-0.6240234375,0.0390625,0.82421875,-8.544921875,3.23486328125,-0.42724609375,0.7305908203125,37.913818359375,-168.475341796875
1758787240.067959,-0.599609375,0.08203125,0.75439453125,-13.7939453125,2.99072265625,0.18310546875,0.626220703125,37.94677734375,-168.4808349609375
1758787240.0774355,-0.599609375,0.08203125,0.75439453125,-13.7939453125,2.99072265625,0.18310546875,0.4998779296875,37.9742431640625,-168.4808349609375
1758787240.087754,-0.60009765625,0.0234375,0.7666015625,-23.37646484375,1.8310546875,-0.06103515625,0.3240966796875,37.9962158203125,-168.475341796875
1758787240.0973957,-0.60009765625,0.0234375,0.7666015625,-23.37646484375,1.8310546875,-0.06103515625,0.1043701171875,38.0126953125,-168.475341796875
1758787240.1075447,-0.6123046875,-0.04248046875,0.828125,-14.7705078125,1.52587890625,-0.06103515625,-0.0274658203125,38.023681640625,-168.4808349609375
1758787240.1178854,-0.6123046875,-0.04248046875,0.828125,-14.7705078125,1.52587890625,-0.06103515625,-0.164794921875,38.03466796875,-168.4808349609375
1758787240.127611,-0.59716796875,-0.06787109375,0.76171875,-1.220703125,1.0986328125,-0.67138671875,-0.17578125,38.0401611328125,-168.497314453125
1758787240.1374824,-0.59716796875,-0.06787109375,0.76171875,-1.220703125,1.0986328125,-0.67138671875,-0.1922607421875,38.0511474609375,-168.5137939453125
1758787240.1475914,-0.62255859375,-0.02294921875,0.80419921875,2.8076171875,0.732421875,-1.220703125,-0.1702880859375,38.056640625,-168.5357666015625
1758787240.1580806,-0.62255859375,-0.02294921875,0.80419921875,2.8076171875,0.732421875,-1.220703125,-0.15380859375,38.0621337890625,-168.563232421875
1758787240.170943,-0.62109375,-0.0126953125,0.7587890625,15.56396484375,1.220703125,-1.89208984375,-0.0164794921875,38.067626953125,-168.5906982421875
1758787240.177489,-0.62109375,-0.0126953125,0.7587890625,15.56396484375,1.220703125,-1.89208984375,0.120849609375,38.07861328125,-168.6236572265625
1758787240.1876493,-0.61767578125,-0.02587890625,0.75732421875,19.53125,0.732421875,-2.38037109375,0.2911376953125,38.089599609375,-168.662109375
1758787240.1975493,-0.61767578125,-0.02587890625,0.75732421875,19.53125,0.732421875,-2.38037109375,0.46142578125,38.0950927734375,-168.7005615234375
1758787240.2078445,-0.66748046875,-0.00732421875,0.84375,20.81298828125,0.3662109375,-2.99072265625,0.63720703125,38.1005859375,-168.7445068359375
1758787240.217656,-0.66748046875,-0.00732421875,0.84375,20.81298828125,0.3662109375,-2.99072265625,0.8184814453125,38.1060791015625,-168.7939453125
1758787240.227562,-0.66748046875,0.0458984375,0.77490234375,10.68115234375,0.91552734375,-2.86865234375,0.8953857421875,38.1170654296875,-168.837890625
1758787240.237552,-0.66748046875,0.0458984375,0.77490234375,10.68115234375,0.91552734375,-2.86865234375,0.9722900390625,38.1280517578125,-168.8818359375
1758787240.2475424,-0.62744140625,0.1015625,0.759765625,-3.23486328125,0.48828125,-1.77001953125,0.9228515625,38.1390380859375,-168.90380859375
1758787240.25764,-0.62744140625,0.1015625,0.759765625,-3.23486328125,0.48828125,-1.77001953125,0.87890625,38.14453125,-168.92578125
1758787240.2675753,-0.64453125,0.04833984375,0.751953125,-11.23046875,1.15966796875,-1.46484375,0.7635498046875,38.1610107421875,-168.936767578125
1758787240.2775614,-0.64453125,0.04833984375,0.751953125,-11.23046875,1.15966796875,-1.46484375,0.648193359375,38.1829833984375,-168.94775390625
1758787240.2879446,-0.6376953125,-0.0009765625,0.7568359375,-16.05224609375,0.48828125,-1.3427734375,0.4833984375,38.1939697265625,-168.958740234375
1758787240.297948,-0.6376953125,-0.0009765625,0.7568359375,-16.05224609375,0.48828125,-1.3427734375,0.318603515625,38.2049560546875,-168.9697265625
1758787240.3078413,-0.63134765625,-0.037109375,0.78076171875,-10.19287109375,0.18310546875,-1.5869140625,0.208740234375,38.21044921875,-168.9862060546875
1758787240.3183115,-0.63134765625,-0.037109375,0.78076171875,-10.19287109375,0.18310546875,-1.5869140625,0.098876953125,38.221435546875,-169.002685546875
1758787240.3277168,-0.64599609375,-0.0458984375,0.75439453125,0.54931640625,-0.244140625,-1.953125,0.0933837890625,38.2269287109375,-169.024658203125
1758787240.3376892,-0.64599609375,-0.0458984375,0.75439453125,0.54931640625,-0.244140625,-1.953125,0.0823974609375,38.2269287109375,-169.046630859375
1758787240.3476908,-0.65380859375,-0.03076171875,0.7890625,10.25390625,-0.67138671875,-1.77001953125,0.164794921875,38.232421875,-169.068603515625
1758787240.3576913,-0.65380859375,-0.03076171875,0.7890625,10.25390625,-0.67138671875,-1.77001953125,0.252685546875,38.232421875,-169.090576171875
1758787240.3676925,-0.64794921875,-0.017578125,0.74853515625,13.73291015625,-0.6103515625,-2.01416015625,0.3680419921875,38.232421875,-169.1180419921875
1758787240.3777082,-0.64794921875,-0.017578125,0.74853515625,13.73291015625,-0.6103515625,-2.01416015625,0.4833984375,38.2379150390625,-169.1400146484375
1758787240.388612,-0.66455078125,0.00537109375,0.75537109375,6.9580078125,-1.46484375,-2.38037109375,0.52734375,38.232421875,-169.16748046875
1758787240.3977816,-0.66455078125,0.00537109375,0.75537109375,6.9580078125,-1.46484375,-2.38037109375,0.5712890625,38.2269287109375,-169.200439453125
1758787240.4077873,-0.63427734375,-0.00048828125,0.75732421875,8.36181640625,-1.03759765625,-2.01416015625,0.6317138671875,38.232421875,-169.222412109375
1758787240.4178014,-0.63427734375,-0.00048828125,0.75732421875,8.36181640625,-1.03759765625,-2.01416015625,0.6976318359375,38.232421875,-169.244384765625
1758787240.4277992,-0.60888671875,0.01318359375,0.71533203125,6.103515625,-1.03759765625,-1.15966796875,0.7415771484375,38.232421875,-169.25537109375
1758787240.438354,-0.60888671875,0.01318359375,0.71533203125,6.103515625,-1.03759765625,-1.15966796875,0.7855224609375,38.232421875,-169.266357421875
1758787240.447756,-0.64990234375,0.009765625,0.8359375,10.43701171875,-1.15966796875,-1.28173828125,0.87890625,38.232421875,-169.27734375
1758787240.4578109,-0.64990234375,0.009765625,0.8359375,10.43701171875,-1.15966796875,-1.28173828125,0.966796875,38.2269287109375,-169.2938232421875
1758787240.4678504,-0.61279296875,0.00146484375,0.765625,10.07080078125,-1.3427734375,-1.220703125,1.0491943359375,38.221435546875,-169.310302734375
1758787240.4782562,-0.61279296875,0.00146484375,0.765625,10.07080078125,-1.3427734375,-1.220703125,1.1370849609375,38.2159423828125,-169.3267822265625
1758787240.4880867,-0.60888671875,0.02099609375,0.763671875,4.39453125,-2.0751953125,-0.6103515625,1.1700439453125,38.2049560546875,-169.332275390625
1758787240.4978487,-0.60888671875,0.02099609375,0.763671875,4.39453125,-2.0751953125,-0.6103515625,1.2030029296875,38.1939697265625,-169.34326171875
1758787240.5079026,-0.63916015625,0.0244140625,0.84765625,-1.8310546875,-2.197265625,0.18310546875,1.1810302734375,38.177490234375,-169.34326171875
1758787240.5178611,-0.63916015625,0.0244140625,0.84765625,-1.8310546875,-2.197265625,0.18310546875,1.1590576171875,38.155517578125,-169.34326171875
1758787240.5282536,-0.6220703125,0.02392578125,0.78857421875,-0.244140625,-2.13623046875,0.91552734375,1.1590576171875,38.1390380859375,-169.332275390625
1758787240.5378666,-0.6220703125,0.02392578125,0.78857421875,-0.244140625,-2.13623046875,0.91552734375,1.16455078125,38.12255859375,-169.3212890625
1758787240.547865,-0.59228515625,0.0009765625,0.74755859375,5.06591796875,-2.25830078125,0.42724609375,1.2139892578125,38.1060791015625,-169.3212890625
1758787240.5579622,-0.59228515625,0.0009765625,0.74755859375,5.06591796875,-2.25830078125,0.42724609375,1.263427734375,38.0841064453125,-169.3157958984375
1758787240.5684,-0.57080078125,0.00634765625,0.79443359375,6.40869140625,-2.13623046875,0.54931640625,1.329345703125,38.067626953125,-169.3157958984375
1758787240.5779994,-0.57080078125,0.00634765625,0.79443359375,6.40869140625,-2.13623046875,0.54931640625,1.3897705078125,38.045654296875,-169.3157958984375
1758787240.5883293,-0.55224609375,0.07275390625,0.82568359375,-4.33349609375,-2.38037109375,2.0751953125,1.3623046875,38.0181884765625,-169.29931640625
1758787240.598008,-0.55224609375,0.07275390625,0.82568359375,-4.33349609375,-2.38037109375,2.0751953125,1.3348388671875,37.99072265625,-169.2828369140625
1758787240.6082566,-0.56396484375,0.0849609375,0.830078125,-17.7001953125,-2.62451171875,3.173828125,1.1865234375,37.957763671875,-169.2498779296875
1758787240.6182032,-0.56396484375,0.0849609375,0.830078125,-17.7001953125,-2.62451171875,3.173828125,1.0382080078125,37.9248046875,-169.2169189453125
1758787240.627996,-0.61328125,-0.00830078125,0.82568359375,-13.427734375,-3.23486328125,3.662109375,0.9393310546875,37.8863525390625,-169.178466796875
1758787240.6380749,-0.61328125,-0.00830078125,0.82568359375,-13.427734375,-3.23486328125,3.662109375,0.8404541015625,37.847900390625,-169.1455078125
1758787240.648304,-0.57861328125,-0.0673828125,0.80322265625,-1.15966796875,-3.662109375,3.41796875,0.85693359375,37.803955078125,-169.112548828125
1758787240.6581855,-0.57861328125,-0.0673828125,0.80322265625,-1.15966796875,-3.662109375,3.41796875,0.867919921875,37.7545166015625,-169.0850830078125
1758787240.6681097,-0.60791015625,-0.0185546875,0.81103515625,1.89208984375,-3.23486328125,3.173828125,0.911865234375,37.716064453125,-169.0631103515625
1758787240.6782532,-0.60791015625,-0.0185546875,0.81103515625,1.89208984375,-3.23486328125,3.173828125,0.9503173828125,37.6776123046875,-169.03564453125
1758787240.6886115,-0.6015625,0.04443359375,0.79052734375,-3.72314453125,-3.41796875,3.47900390625,0.933837890625,37.63916015625,-169.0081787109375
1758787240.6983838,-0.6015625,0.04443359375,0.79052734375,-3.72314453125,-3.41796875,3.47900390625,0.9228515625,37.59521484375,-168.9752197265625
1758787240.7081249,-0.57373046875,0.0654296875,0.80078125,-11.3525390625,-3.84521484375,4.5166015625,0.845947265625,37.55126953125,-168.9312744140625
1758787240.71818,-0.57373046875,0.0654296875,0.80078125,-11.3525390625,-3.84521484375,4.5166015625,0.76904296875,37.50732421875,-168.8818359375
1758787240.728142,-0.60546875,-0.013671875,0.8564453125,-6.34765625,-3.7841796875,4.39453125,0.7415771484375,37.46337890625,-168.8323974609375
1758787240.7387693,-0.60546875,-0.013671875,0.8564453125,-6.34765625,-3.7841796875,4.39453125,0.714111328125,37.41943359375,-168.7884521484375
1758787240.7481313,-0.58740234375,-0.052734375,0.81396484375,2.50244140625,-3.41796875,4.2724609375,0.76904296875,37.37548828125,-168.75
1758787240.7590592,-0.58740234375,-0.052734375,0.81396484375,2.50244140625,-3.41796875,4.2724609375,0.823974609375,37.33154296875,-168.7115478515625
1758787240.7681592,-0.59228515625,-0.00390625,0.79345703125,6.2255859375,-3.23486328125,3.90625,0.911865234375,37.2930908203125,-168.6785888671875
1758787240.7781944,-0.59228515625,-0.00390625,0.79345703125,6.2255859375,-3.23486328125,3.90625,0.9942626953125,37.254638671875,-168.64013671875
1758787240.7890942,-0.63134765625,0.07080078125,0.81591796875,1.953125,-2.62451171875,4.2724609375,1.043701171875,37.2216796875,-168.6016845703125
1758787240.7982087,-0.63134765625,0.07080078125,0.81591796875,1.953125,-2.62451171875,4.2724609375,1.0931396484375,37.1942138671875,-168.5577392578125
1758787240.8082325,-0.5859375,0.0703125,0.72265625,-13.671875,-2.3193359375,4.39453125,0.9942626953125,37.166748046875,-168.50830078125
1758787240.8182573,-0.5859375,0.0703125,0.72265625,-13.671875,-2.3193359375,4.39453125,0.8953857421875,37.1392822265625,-168.453369140625
1758787240.8284967,-0.55615234375,0.07373046875,0.7919921875,-20.263671875,-2.44140625,5.31005859375,0.736083984375,37.11181640625,-168.387451171875
1758787240.8383408,-0.55615234375,0.07373046875,0.7919921875,-20.263671875,-2.44140625,5.31005859375,0.5877685546875,37.0843505859375,-168.321533203125
1758787240.8482137,-0.57958984375,-0.041015625,0.8583984375,-8.72802734375,-1.28173828125,4.94384765625,0.5438232421875,37.06787109375,-168.2611083984375
1758787240.8583343,-0.57958984375,-0.041015625,0.8583984375,-8.72802734375,-1.28173828125,4.94384765625,0.4998779296875,37.0513916015625,-168.2061767578125
1758787240.869413,-0.6025390625,-0.06396484375,0.83642578125,0.1220703125,-0.91552734375,4.5166015625,0.538330078125,37.034912109375,-168.15673828125
1758787240.878606,-0.6025390625,-0.06396484375,0.83642578125,0.1220703125,-0.91552734375,4.5166015625,0.5712890625,37.0184326171875,-168.11279296875
1758787240.8884232,-0.64794921875,0.01953125,0.81591796875,2.25830078125,-0.42724609375,3.90625,0.6207275390625,37.012939453125,-168.0743408203125
1758787240.898338,-0.64794921875,0.01953125,0.81591796875,2.25830078125,-0.42724609375,3.90625,0.6756591796875,37.001953125,-168.0303955078125
1758787240.9084325,-0.60400390625,0.1025390625,0.755859375,-13.5498046875,1.220703125,3.7841796875,0.5712890625,37.012939453125,-167.9864501953125
1758787240.918778,-0.60400390625,0.1025390625,0.755859375,-13.5498046875,1.220703125,3.7841796875,0.4669189453125,37.02392578125,-167.93701171875
1758787240.9285932,-0.5986328125,0.06103515625,0.767578125,-18.98193359375,1.8310546875,3.90625,0.318603515625,37.0404052734375,-167.8875732421875
1758787240.9383712,-0.5986328125,0.06103515625,0.767578125,-18.98193359375,1.8310546875,3.90625,0.1702880859375,37.056884765625,-167.8326416015625
1758787240.9484115,-0.63623046875,-0.01220703125,0.86083984375,-16.2353515625,2.9296875,3.96728515625,0.0494384765625,37.08984375,-167.7777099609375
1758787240.958422,-0.63623046875,-0.01220703125,0.86083984375,-16.2353515625,2.9296875,3.96728515625,-0.06591796875,37.1173095703125,-167.7227783203125
1758787240.969106,-0.56640625,-0.0595703125,0.76806640625,-2.62451171875,3.0517578125,3.47900390625,-0.0604248046875,37.144775390625,-167.67333984375
1758787240.9784007,-0.56640625,-0.0595703125,0.76806640625,-2.62451171875,3.0517578125,3.47900390625,-0.054931640625,37.1722412109375,-167.62939453125
1758787240.9886332,-0.5712890625,-0.064453125,0.775390625,11.16943359375,1.89208984375,2.62451171875,0.0714111328125,37.1942138671875,-167.6019287109375
1758787240.9984276,-0.5712890625,-0.064453125,0.775390625,11.16943359375,1.89208984375,2.62451171875,0.2032470703125,37.210693359375,-167.574462890625
1758787241.0087657,-0.59814453125,-0.02490234375,0.861328125,22.0947265625,0.732421875,1.40380859375,0.428466796875,37.210693359375,-167.5634765625
1758787241.018729,-0.59814453125,-0.02490234375,0.861328125,22.0947265625,0.732421875,1.40380859375,0.6536865234375,37.2161865234375,-167.5579833984375
1758787241.0284672,-0.60400390625,0.0537109375,0.79345703125,10.92529296875,-0.48828125,1.8310546875,0.76904296875,37.2052001953125,-167.54150390625
1758787241.038493,-0.60400390625,0.0537109375,0.79345703125,10.92529296875,-0.48828125,1.8310546875,0.8843994140625,37.1942138671875,-167.530517578125
1758787241.0484407,-0.59033203125,0.09912109375,0.826171875,3.5400390625,-2.44140625,2.3193359375,0.9393310546875,37.166748046875,-167.5030517578125
1758787241.0620315,-0.59033203125,0.09912109375,0.826171875,3.5400390625,-2.44140625,2.3193359375,0.9942626953125,37.1392822265625,-167.4810791015625
1758787241.069051,-0.6025390625,0.02294921875,0.80712890625,-3.90625,-2.3193359375,2.50244140625,0.977783203125,37.11181640625,-167.45361328125
1758787241.0785143,-0.6025390625,0.02294921875,0.80712890625,-3.90625,-2.3193359375,2.50244140625,0.955810546875,37.0843505859375,-167.4261474609375
1758787241.0886123,-0.5537109375,0.0068359375,0.71337890625,-13.61083984375,-2.8076171875,3.2958984375,0.8514404296875,37.0513916015625,-167.3876953125
1758787241.0985599,-0.5537109375,0.0068359375,0.71337890625,-13.61083984375,-2.8076171875,3.2958984375,0.7415771484375,37.0184326171875,-167.3492431640625
1758787241.1090431,-0.6513671875,0.02294921875,0.8251953125,-10.31494140625,-3.96728515625,2.74658203125,0.6646728515625,36.97998046875,-167.3162841796875
1758787241.1185472,-0.6513671875,0.02294921875,0.8251953125,-10.31494140625,-3.96728515625,2.74658203125,0.582275390625,36.93603515625,-167.2833251953125
1758787241.1289349,-0.68017578125,-0.02001953125,0.9052734375,-1.77001953125,-3.72314453125,2.99072265625,0.59326171875,36.903076171875,-167.244873046875
1758787241.1385572,-0.68017578125,-0.02001953125,0.9052734375,-1.77001953125,-3.72314453125,2.99072265625,0.5987548828125,36.8646240234375,-167.2064208984375
1758787241.1485546,-0.55810546875,-0.05517578125,0.62255859375,10.1318359375,-2.685546875,2.86865234375,0.7196044921875,36.837158203125,-167.1734619140625
1758787241.1589487,-0.55810546875,-0.05517578125,0.62255859375,10.1318359375,-2.685546875,2.86865234375,0.8404541015625,36.815185546875,-167.135009765625
1758787241.1685445,-0.62255859375,-0.0283203125,0.6884765625,17.15087890625,-2.38037109375,1.8310546875,1.0162353515625,36.7987060546875,-167.113037109375
1758787241.1785743,-0.62255859375,-0.0283203125,0.6884765625,17.15087890625,-2.38037109375,1.8310546875,1.1920166015625,36.7877197265625,-167.0855712890625
1758787241.188722,-0.673828125,0.005859375,0.91455078125,27.77099609375,-1.220703125,0.48828125,1.461181640625,36.7822265625,-167.080078125
1758787241.19893,-0.65478515625,0.06298828125,0.82763671875,21.66748046875,-1.708984375,0.244140625,1.702880859375,36.7767333984375,-167.0745849609375
1758787241.2086515,-0.65478515625,0.06298828125,0.82763671875,21.66748046875,-1.708984375,0.244140625,1.91162109375,36.7657470703125,-167.069091796875
1758787241.2186446,-0.60302734375,0.0830078125,0.72607421875,11.29150390625,-2.62451171875,0.732421875,2.0709228515625,36.7547607421875,-167.0635986328125
1758787241.228693,-0.60302734375,0.0830078125,0.72607421875,11.29150390625,-2.62451171875,0.732421875,2.1807861328125,36.73828125,-167.047119140625
1758787241.239071,-0.59423828125,0.078125,0.71875,-6.16455078125,-2.01416015625,1.89208984375,2.2137451171875,36.727294921875,-167.025146484375
1758787241.2487657,-0.59423828125,0.078125,0.71875,-6.16455078125,-2.01416015625,1.89208984375,2.164306640625,36.71630859375,-166.9921875
1758787241.2587066,-0.62890625,0.091796875,0.80908203125,-10.43701171875,-2.3193359375,2.44140625,2.098388671875,36.705322265625,-166.9537353515625
1758787241.2686613,-0.62890625,0.091796875,0.80908203125,-10.43701171875,-2.3193359375,2.44140625,2.0159912109375,36.6888427734375,-166.9097900390625
1758787241.2786963,-0.64111328125,-0.00390625,0.81005859375,-10.498046875,-2.01416015625,2.62451171875,1.9390869140625,36.6778564453125,-166.8658447265625
1758787241.2894297,-0.64111328125,-0.00390625,0.81005859375,-10.498046875,-2.01416015625,2.62451171875,1.856689453125,36.6668701171875,-166.81640625
1758787241.2987058,-0.61328125,-0.009765625,0.7412109375,-5.18798828125,-1.5869140625,2.197265625,1.8017578125,36.661376953125,-166.7779541015625
1758787241.3087718,-0.61328125,-0.009765625,0.7412109375,-5.18798828125,-1.5869140625,2.197265625,1.768798828125,36.6558837890625,-166.739501953125
1758787241.3188088,-0.64453125,0.01220703125,0.78857421875,-2.01416015625,-2.01416015625,2.01416015625,1.746826171875,36.650390625,-166.7010498046875
1758787241.3290017,-0.64453125,0.01220703125,0.78857421875,-2.01416015625,-2.01416015625,2.01416015625,1.7413330078125,36.639404296875,-166.6680908203125
1758787241.3387713,-0.64404296875,0.04296875,0.7646484375,-3.0517578125,-1.5869140625,2.0751953125,1.7303466796875,36.6339111328125,-166.629638671875
1758787241.3487632,-0.64404296875,0.04296875,0.7646484375,-3.0517578125,-1.5869140625,2.0751953125,1.7138671875,36.6339111328125,-166.5911865234375
1758787241.3588636,-0.5966796875,0.0439453125,0.740234375,-4.45556640625,-1.8310546875,1.708984375,1.69189453125,36.62841796875,-166.552734375
1758787241.3692088,-0.5966796875,0.0439453125,0.740234375,-4.45556640625,-1.8310546875,1.708984375,1.6644287109375,36.62841796875,-166.519775390625
1758787241.378992,-0.65673828125,0.0146484375,0.8525390625,-1.708984375,-1.46484375,1.5869140625,1.64794921875,36.6229248046875,-166.48681640625
1758787241.3888705,-0.65673828125,0.0146484375,0.8525390625,-1.708984375,-1.46484375,1.5869140625,1.64794921875,36.6229248046875,-166.453857421875
1758787241.3988414,-0.6171875,-0.02294921875,0.78466796875,5.67626953125,-0.67138671875,1.0986328125,1.6754150390625,36.6229248046875,-166.4208984375
1758787241.4088311,-0.6171875,-0.02294921875,0.78466796875,5.67626953125,-0.67138671875,1.0986328125,1.7413330078125,36.62841796875,-166.39892578125
1758787241.4193456,-0.6142578125,0.01611328125,0.76171875,12.39013671875,-1.46484375,0.42724609375,1.834716796875,36.62841796875,-166.376953125
1758787241.4288578,-0.6142578125,0.01611328125,0.76171875,12.39013671875,-1.46484375,0.42724609375,1.95556640625,36.62841796875,-166.365966796875
1758787241.4389374,-0.62890625,0.0615234375,0.77734375,2.74658203125,-0.91552734375,0.6103515625,2.032470703125,36.62841796875,-166.3494873046875
1758787241.4489014,-0.62890625,0.0615234375,0.77734375,2.74658203125,-0.91552734375,0.6103515625,2.0599365234375,36.62841796875,-166.3330078125
1758787241.4593308,-0.62255859375,0.1005859375,0.7236328125,-10.92529296875,-0.3662109375,0.67138671875,2.021484375,36.6339111328125,-166.31103515625
1758787241.468993,-0.62255859375,0.1005859375,0.7236328125,-10.92529296875,-0.3662109375,0.67138671875,1.922607421875,36.6448974609375,-166.2835693359375
1758787241.478965,-0.5986328125,0.06787109375,0.791015625,-13.61083984375,-0.54931640625,0.91552734375,1.812744140625,36.6558837890625,-166.256103515625
1758787241.4890182,-0.5986328125,0.06787109375,0.791015625,-13.61083984375,-0.54931640625,0.91552734375,1.69189453125,36.661376953125,-166.22314453125
1758787241.4989867,-0.59228515625,-0.001953125,0.83447265625,-9.8876953125,-0.1220703125,0.8544921875,1.5875244140625,36.67236328125,-166.1956787109375
1758787241.5090177,-0.59228515625,-0.001953125,0.83447265625,-9.8876953125,-0.1220703125,0.8544921875,1.505126953125,36.6778564453125,-166.1737060546875
1758787241.518997,-0.5712890625,-0.03857421875,0.7802734375,-2.13623046875,-0.54931640625,0.54931640625,1.4556884765625,36.683349609375,-166.1517333984375
1758787241.528945,-0.5712890625,-0.03857421875,0.7802734375,-2.13623046875,-0.54931640625,0.54931640625,1.439208984375,36.683349609375,-166.13525390625
1758787241.5389915,-0.6142578125,0.00439453125,0.828125,3.0517578125,-0.79345703125,0.0,1.4501953125,36.683349609375,-166.124267578125
1758787241.5489376,-0.6142578125,0.00439453125,0.828125,3.0517578125,-0.79345703125,0.0,1.4776611328125,36.683349609375,-166.1187744140625
1758787241.5593715,-0.60302734375,0.0712890625,0.814453125,-1.46484375,-0.79345703125,-0.18310546875,1.483154296875,36.6778564453125,-166.1187744140625
1758787241.5689793,-0.60302734375,0.0712890625,0.814453125,-1.46484375,-0.79345703125,-0.18310546875,1.47216796875,36.67236328125,-166.11328125
1758787241.5790877,-0.6201171875,0.12890625,0.7724609375,-21.97265625,-0.48828125,0.8544921875,1.3623046875,36.67236328125,-166.102294921875
1758787241.5891087,-0.6201171875,0.12890625,0.7724609375,-21.97265625,-0.48828125,0.8544921875,1.1590576171875,36.67236328125,-166.080322265625
1758787241.5993633,-0.57080078125,0.0556640625,0.7900390625,-28.80859375,-0.3662109375,0.91552734375,0.9228515625,36.67236328125,-166.0528564453125
1758787241.6092527,-0.57080078125,0.0556640625,0.7900390625,-28.80859375,-0.3662109375,0.91552734375,0.6591796875,36.67236328125,-166.025390625
1758787241.619193,-0.56298828125,-0.06787109375,0.82421875,-23.74267578125,0.42724609375,1.28173828125,0.4229736328125,36.6778564453125,-165.992431640625
1758787241.6290843,-0.56298828125,-0.06787109375,0.82421875,-23.74267578125,0.42724609375,1.28173828125,0.208740234375,36.683349609375,-165.970458984375
1758787241.6391556,-0.5654296875,-0.0576171875,0.8173828125,-5.43212890625,0.48828125,0.79345703125,0.0823974609375,36.6888427734375,-165.948486328125
1758787241.6503189,-0.5654296875,-0.0576171875,0.8173828125,-5.43212890625,0.48828125,0.79345703125,0.0384521484375,36.6888427734375,-165.9375
1758787241.6613855,-0.58984375,-0.08251953125,0.853515625,19.53125,0.18310546875,-0.67138671875,0.1153564453125,36.6888427734375,-165.9375
1758787241.669124,-0.58984375,-0.08251953125,0.853515625,19.53125,0.18310546875,-0.67138671875,0.3021240234375,36.6888427734375,-165.9539794921875
1758787241.6791637,-0.5625,-0.04443359375,0.81396484375,31.43310546875,0.06103515625,-1.8310546875,0.5438232421875,36.6888427734375,-165.9759521484375
1758787241.68921,-0.5625,-0.04443359375,0.81396484375,31.43310546875,0.06103515625,-1.8310546875,0.8349609375,36.683349609375,-166.0089111328125
1758787241.6996832,-0.54443359375,0.037109375,0.82373046875,24.7802734375,-0.1220703125,-1.77001953125,1.087646484375,36.6778564453125,-166.04736328125
1758787241.7091825,-0.54443359375,0.037109375,0.82373046875,24.7802734375,-0.1220703125,-1.77001953125,1.3128662109375,36.6668701171875,-166.080322265625
1758787241.719213,-0.595703125,0.138671875,0.85791015625,3.662109375,-0.54931640625,-0.67138671875,1.439208984375,36.661376953125,-166.1077880859375
1758787241.72925,-0.595703125,0.138671875,0.85791015625,3.662109375,-0.54931640625,-0.67138671875,1.4666748046875,36.6448974609375,-166.1297607421875
1758787241.7397883,-0.58740234375,0.13427734375,0.8408203125,-12.75634765625,-1.220703125,0.18310546875,1.4227294921875,36.62841796875,-166.13525390625
1758787241.749206,-0.58740234375,0.13427734375,0.8408203125,-12.75634765625,-1.220703125,0.18310546875,1.3018798828125,36.6064453125,-166.1407470703125
1758787241.7592547,-0.55712890625,0.015625,0.791015625,-19.4091796875,-0.8544921875,0.6103515625,1.153564453125,36.5899658203125,-166.13525390625
1758787241.769251,-0.55712890625,0.015625,0.791015625,-19.4091796875,-0.8544921875,0.6103515625,0.9722900390625,36.5679931640625,-166.1297607421875
1758787241.7794473,-0.6162109375,-0.06396484375,0.7978515625,-12.26806640625,-0.67138671875,0.06103515625,0.8294677734375,36.5570068359375,-166.124267578125
1758787241.7897236,-0.6162109375,-0.06396484375,0.7978515625,-12.26806640625,-0.67138671875,0.06103515625,0.714111328125,36.54052734375,-166.1297607421875
1758787241.79929,-0.609375,-0.041015625,0.81494140625,0.91552734375,0.8544921875,-0.54931640625,0.6591796875,36.5350341796875,-166.13525390625
1758787241.8092613,-0.609375,-0.041015625,0.81494140625,0.91552734375,0.8544921875,-0.54931640625,0.6646728515625,36.54052734375,-166.1517333984375
1758787241.8193467,-0.60546875,0.00732421875,0.77392578125,5.0048828125,2.38037109375,-1.8310546875,0.6866455078125,36.551513671875,-166.1737060546875
1758787241.8294117,-0.60546875,0.00732421875,0.77392578125,5.0048828125,2.38037109375,-1.8310546875,0.7196044921875,36.573486328125,-166.201171875
1758787241.8394387,-0.66259765625,-0.01171875,0.81494140625,8.4228515625,3.5400390625,-2.9296875,0.76904296875,36.6009521484375,-166.234130859375
1758787241.8493211,-0.66259765625,-0.01171875,0.81494140625,8.4228515625,3.5400390625,-2.9296875,0.8294677734375,36.639404296875,-166.26708984375
1758787241.859408,-0.62353515625,0.001953125,0.78125,16.17431640625,5.2490234375,-3.84521484375,0.9228515625,36.683349609375,-166.31103515625
1758787241.8696883,-0.62353515625,0.001953125,0.78125,16.17431640625,5.2490234375,-3.84521484375,1.0546875,36.73828125,-166.35498046875
1758787241.879573,-0.625,0.0166015625,0.720703125,16.29638671875,6.103515625,-4.69970703125,1.1810302734375,36.7987060546875,-166.409912109375
1758787241.8894718,-0.625,0.0166015625,0.720703125,16.29638671875,6.103515625,-4.69970703125,1.3018798828125,36.8646240234375,-166.46484375
1758787241.8995004,-0.646484375,0.0107421875,0.7958984375,20.263671875,7.8125,-5.126953125,1.4447021484375,36.9415283203125,-166.519775390625
1758787241.9094644,-0.646484375,0.0107421875,0.7958984375,20.263671875,7.8125,-5.126953125,1.60400390625,37.0294189453125,-166.57470703125
1758787241.9195507,-0.646484375,0.0107421875,0.7958984375,23.13232421875,8.60595703125,-6.4697265625,1.768798828125,37.1173095703125,-166.6461181640625
1758787241.9294882,-0.6435546875,0.01171875,0.794921875,23.13232421875,8.60595703125,-6.4697265625,1.944580078125,37.210693359375,-166.717529296875
1758787241.9395044,-0.63818359375,0.05078125,0.79638671875,23.25439453125,8.72802734375,-7.568359375,2.120361328125,37.3040771484375,-166.7999267578125
1758787241.9502468,-0.63818359375,0.05078125,0.79638671875,23.25439453125,8.72802734375,-7.568359375,2.2906494140625,37.4029541015625,-166.8878173828125
1758787241.9622805,-0.65234375,0.06591796875,0.79248046875,16.17431640625,8.11767578125,-7.38525390625,2.4224853515625,37.4908447265625,-166.9757080078125
1758787241.9697535,-0.65234375,0.06591796875,0.79248046875,16.17431640625,8.11767578125,-7.38525390625,2.52685546875,37.584228515625,-167.0635986328125
1758787241.9794984,-0.591796875,0.1005859375,0.7685546875,4.150390625,7.8125,-6.40869140625,2.5762939453125,37.672119140625,-167.1405029296875
1758787241.9895601,-0.591796875,0.1005859375,0.7685546875,4.150390625,7.8125,-6.40869140625,2.57080078125,37.7545166015625,-167.2119140625
1758787241.9995615,-0.5810546875,0.06298828125,0.7705078125,-7.38525390625,6.34765625,-5.31005859375,2.5103759765625,37.8314208984375,-167.2723388671875
1758787242.0095928,-0.5810546875,0.06298828125,0.7705078125,-7.38525390625,6.34765625,-5.31005859375,2.4005126953125,37.8973388671875,-167.332763671875
1758787242.0195348,-0.5830078125,-0.001953125,0.7529296875,-7.75146484375,5.92041015625,-4.638671875,2.296142578125,37.9632568359375,-167.3876953125
1758787242.0295272,-0.5830078125,-0.001953125,0.7529296875,-7.75146484375,5.92041015625,-4.638671875,2.186279296875,38.023681640625,-167.442626953125
1758787242.0395796,-0.6259765625,-0.025390625,0.76025390625,0.3662109375,4.21142578125,-5.0048828125,2.1148681640625,38.07861328125,-167.5030517578125
1758787242.0503504,-0.6259765625,-0.025390625,0.76025390625,0.3662109375,4.21142578125,-5.0048828125,2.0819091796875,38.12255859375,-167.5634765625
1758787242.0600486,-0.6484375,0.005859375,0.80712890625,4.82177734375,3.72314453125,-4.82177734375,2.0654296875,38.16650390625,-167.62939453125
1758787242.069615,-0.6484375,0.005859375,0.80712890625,4.82177734375,3.72314453125,-4.82177734375,2.076416015625,38.2049560546875,-167.6898193359375
1758787242.0796697,-0.66064453125,0.04296875,0.77099609375,4.39453125,2.9296875,-4.638671875,2.0819091796875,38.2379150390625,-167.750244140625
1758787242.090021,-0.66064453125,0.04296875,0.77099609375,4.39453125,2.9296875,-4.638671875,2.08740234375,38.2708740234375,-167.8106689453125
1758787242.0999787,-0.62255859375,0.03564453125,0.75732421875,-4.150390625,2.01416015625,-3.96728515625,2.054443359375,38.3038330078125,-167.8656005859375
1758787242.1096942,-0.62255859375,0.03564453125,0.75732421875,-4.150390625,2.01416015625,-3.96728515625,1.9830322265625,38.3258056640625,-167.9150390625
1758787242.119684,-0.6201171875,0.03662109375,0.82568359375,-10.1318359375,1.46484375,-3.5400390625,1.878662109375,38.3477783203125,-167.958984375
1758787242.1296904,-0.6201171875,0.03662109375,0.82568359375,-10.1318359375,1.46484375,-3.5400390625,1.7523193359375,38.3642578125,-168.0084228515625
1758787242.1397526,-0.5869140625,0.01025390625,0.74560546875,-9.27734375,1.15966796875,-2.685546875,1.636962890625,38.3807373046875,-168.046875
1758787242.1497161,-0.5869140625,0.01025390625,0.74560546875,-9.27734375,1.15966796875,-2.685546875,1.5216064453125,38.397216796875,-168.079833984375
1758787242.159711,-0.62158203125,-0.0048828125,0.80322265625,2.50244140625,-0.3662109375,-2.62451171875,1.47216796875,38.397216796875,-168.1182861328125
1758787242.169791,-0.62158203125,-0.0048828125,0.80322265625,2.50244140625,-0.3662109375,-2.62451171875,1.4776611328125,38.397216796875,-168.15673828125
1758787242.180247,-0.634765625,-0.00048828125,0.7763671875,3.173828125,-0.18310546875,-2.25830078125,1.483154296875,38.3917236328125,-168.189697265625
1758787242.1900756,-0.634765625,-0.00048828125,0.7763671875,3.173828125,-0.18310546875,-2.25830078125,1.494140625,38.3917236328125,-168.2281494140625
1758787242.199861,-0.61279296875,0.0498046875,0.73681640625,-6.04248046875,0.06103515625,-1.953125,1.461181640625,38.3917236328125,-168.255615234375
1758787242.2098117,-0.61279296875,0.0498046875,0.73681640625,-6.04248046875,0.06103515625,-1.953125,1.3897705078125,38.397216796875,-168.2830810546875
1758787242.2198293,-0.64453125,0.05029296875,0.77734375,-9.1552734375,0.79345703125,-1.03759765625,1.3018798828125,38.4027099609375,-168.3050537109375
1758787242.230306,-0.64453125,0.05029296875,0.77734375,-9.1552734375,0.79345703125,-1.03759765625,1.20849609375,38.4136962890625,-168.3160400390625
1758787242.2398255,-0.6201171875,0.021484375,0.80810546875,-8.056640625,1.28173828125,-1.46484375,1.1151123046875,38.4246826171875,-168.3270263671875
1758787242.2498074,-0.6201171875,0.021484375,0.80810546875,-8.056640625,1.28173828125,-1.46484375,1.0272216796875,38.441162109375,-168.343505859375
1758787242.259854,-0.595703125,0.0078125,0.7900390625,-7.8125,1.708984375,-1.15966796875,0.94482421875,38.4576416015625,-168.3599853515625
1758787242.270308,-0.595703125,0.0078125,0.7900390625,-7.8125,1.708984375,-1.15966796875,0.8624267578125,38.47412109375,-168.37646484375
1758787242.280212,-0.59326171875,0.00732421875,0.71630859375,-9.46044921875,2.685546875,-1.40380859375,0.7635498046875,38.5015869140625,-168.3929443359375
1758787242.2899942,-0.59326171875,0.00732421875,0.71630859375,-9.46044921875,2.685546875,-1.40380859375,0.6646728515625,38.529052734375,-168.4149169921875
1758787242.2999134,-0.63623046875,0.0009765625,0.81982421875,-3.5400390625,2.13623046875,-1.3427734375,0.6207275390625,38.551025390625,-168.431396484375
1758787242.3099313,-0.63623046875,0.0009765625,0.81982421875,-3.5400390625,2.13623046875,-1.3427734375,0.582275390625,38.572998046875,-168.453369140625
1758787242.3200881,-0.673828125,0.0107421875,0.82470703125,-3.41796875,2.44140625,-0.54931640625,0.5438232421875,38.594970703125,-168.4588623046875
1758787242.330326,-0.673828125,0.0107421875,0.82470703125,-3.41796875,2.44140625,-0.54931640625,0.5108642578125,38.6224365234375,-168.4698486328125
1758787242.3399582,-0.6171875,0.04052734375,0.72265625,-11.53564453125,1.5869140625,-0.6103515625,0.3955078125,38.638916015625,-168.475341796875
1758787242.3499417,-0.6171875,0.04052734375,0.72265625,-11.53564453125,1.5869140625,-0.6103515625,0.28564453125,38.6553955078125,-168.4808349609375
1758787242.359986,-0.63134765625,0.0166015625,0.76416015625,-14.22119140625,0.9765625,-0.42724609375,0.142822265625,38.6663818359375,-168.486328125
1758787242.3702972,-0.63134765625,0.0166015625,0.76416015625,-14.22119140625,0.9765625,-0.42724609375,0.0054931640625,38.6773681640625,-168.486328125
1758787242.3800106,-0.6181640625,-0.0185546875,0.78125,-12.5732421875,0.8544921875,-0.3662109375,-0.1043701171875,38.6883544921875,-168.486328125
1758787242.3900526,-0.6181640625,-0.0185546875,0.78125,-12.5732421875,0.8544921875,-0.3662109375,-0.230712890625,38.6993408203125,-168.486328125
1758787242.4000747,-0.63037109375,-0.05517578125,0.7841796875,1.8310546875,-0.06103515625,-0.18310546875,-0.208740234375,38.6993408203125,-168.486328125
1758787242.4100332,-0.63037109375,-0.05517578125,0.7841796875,1.8310546875,-0.06103515625,-0.18310546875,-0.186767578125,38.6993408203125,-168.4918212890625
1758787242.4203904,-0.6044921875,-0.0908203125,0.7568359375,18.1884765625,0.06103515625,-1.03759765625,-0.0164794921875,38.6993408203125,-168.50830078125
1758787242.4300687,-0.6044921875,-0.0908203125,0.7568359375,18.1884765625,0.06103515625,-1.03759765625,0.142822265625,38.704833984375,-168.5302734375
1758787242.4401205,-0.671875,-0.0126953125,0.81201171875,24.2919921875,-1.220703125,-1.708984375,0.362548828125,38.69384765625,-168.563232421875
1758787242.450082,-0.671875,-0.0126953125,0.81201171875,24.2919921875,-1.220703125,-1.708984375,0.582275390625,38.682861328125,-168.5906982421875
1758787242.4603512,-0.68017578125,0.068359375,0.794921875,11.71875,-0.48828125,-1.220703125,0.68115234375,38.682861328125,-168.6126708984375
1758787242.470221,-0.68017578125,0.068359375,0.794921875,11.71875,-0.48828125,-1.220703125,0.7855224609375,38.6773681640625,-168.629150390625
1758787242.4801412,-0.6220703125,0.12744140625,0.7275390625,-7.32421875,-0.91552734375,-0.3662109375,0.7086181640625,38.671875,-168.6346435546875
1758787242.4901853,-0.6220703125,0.12744140625,0.7275390625,-7.32421875,-0.91552734375,-0.3662109375,0.63720703125,38.671875,-168.629150390625
1758787242.5001602,-0.62353515625,0.0625,0.7939453125,-13.427734375,0.0,0.0,0.5108642578125,38.671875,-168.6236572265625
1758787242.5107043,-0.62353515625,0.0625,0.7939453125,-13.427734375,0.0,0.0,0.384521484375,38.6773681640625,-168.6126708984375
1758787242.5202286,-0.63525390625,-0.0205078125,0.7705078125,-20.32470703125,0.67138671875,0.1220703125,0.1922607421875,38.6883544921875,-168.6016845703125
1758787242.5302272,-0.63525390625,-0.0205078125,0.7705078125,-20.32470703125,0.67138671875,0.1220703125,0.0,38.6993408203125,-168.59619140625
1758787242.5402608,-0.63232421875,-0.05615234375,0.76611328125,-10.07080078125,0.8544921875,0.6103515625,-0.0823974609375,38.7103271484375,-168.5797119140625
1758787242.5515437,-0.63232421875,-0.05615234375,0.76611328125,-10.07080078125,0.8544921875,0.6103515625,-0.17578125,38.7213134765625,-168.5687255859375
1758787242.562704,-0.60400390625,-0.07275390625,0.7333984375,7.50732421875,0.732421875,0.30517578125,-0.0933837890625,38.7322998046875,-168.563232421875
1758787242.570224,-0.60400390625,-0.07275390625,0.7333984375,7.50732421875,0.732421875,0.30517578125,-0.02197265625,38.7432861328125,-168.563232421875
1758787242.5802865,-0.65673828125,-0.0283203125,0.8193359375,11.8408203125,0.30517578125,0.18310546875,0.087890625,38.7542724609375,-168.563232421875
1758787242.5902824,-0.65673828125,-0.0283203125,0.8193359375,11.8408203125,0.30517578125,0.18310546875,0.2032470703125,38.759765625,-168.5687255859375
1758787242.6003356,-0.6708984375,-0.01171875,0.82080078125,16.2353515625,0.0,0.06103515625,0.3570556640625,38.759765625,-168.57421875
1758787242.6102536,-0.6708984375,-0.01171875,0.82080078125,16.2353515625,0.0,0.06103515625,0.516357421875,38.7652587890625,-168.5797119140625
1758787242.6203651,-0.61376953125,0.00048828125,0.7158203125,13.48876953125,-0.30517578125,0.18310546875,0.6427001953125,38.7652587890625,-168.5797119140625
1758787242.6303368,-0.61376953125,0.00048828125,0.7158203125,13.48876953125,-0.30517578125,0.18310546875,0.76904296875,38.7652587890625,-168.585205078125
1758787242.6406112,-0.58984375,0.03564453125,0.708984375,8.6669921875,-0.244140625,0.0,0.8514404296875,38.7652587890625,-168.585205078125
1758787242.6508024,-0.58984375,0.03564453125,0.708984375,8.6669921875,-0.244140625,0.0,0.9283447265625,38.770751953125,-168.5906982421875
1758787242.660401,-0.63671875,0.02685546875,0.83740234375,10.31494140625,-0.30517578125,0.30517578125,1.0272216796875,38.770751953125,-168.585205078125
1758787242.6703694,-0.63671875,0.02685546875,0.83740234375,10.31494140625,-0.30517578125,0.30517578125,1.131591796875,38.770751953125,-168.585205078125
1758787242.68047,-0.63671875,0.02685546875,0.83740234375,8.72802734375,-0.54931640625,0.1220703125,1.2139892578125,38.7652587890625,-168.5906982421875
1758787242.6912038,-0.63232421875,0.01806640625,0.81005859375,8.72802734375,-0.54931640625,0.1220703125,1.29638671875,38.759765625,-168.5906982421875
1758787242.700468,-0.6259765625,0.0263671875,0.76123046875,5.2490234375,-1.220703125,0.06103515625,1.3458251953125,38.748779296875,-168.59619140625
1758787242.710415,-0.6259765625,0.0263671875,0.76123046875,5.2490234375,-1.220703125,0.06103515625,1.395263671875,38.73779296875,-168.6016845703125
1758787242.7204304,-0.619140625,0.0185546875,0.8076171875,9.58251953125,-1.64794921875,-0.48828125,1.483154296875,38.7213134765625,-168.6126708984375
1758787242.7307673,-0.619140625,0.0185546875,0.8076171875,9.58251953125,-1.64794921875,-0.48828125,1.571044921875,38.704833984375,-168.6236572265625
1758787242.7408562,-0.60009765625,0.029296875,0.77587890625,5.43212890625,-1.28173828125,-0.30517578125,1.614990234375,38.69384765625,-168.64013671875
1758787242.7504873,-0.60009765625,0.029296875,0.77587890625,5.43212890625,-1.28173828125,-0.30517578125,1.6644287109375,38.6773681640625,-168.651123046875
1758787242.7604954,-0.59326171875,0.06103515625,0.80078125,0.0,-0.91552734375,-0.1220703125,1.658935546875,38.6663818359375,-168.6566162109375
1758787242.7705042,-0.59326171875,0.06103515625,0.80078125,0.0,-0.91552734375,-0.1220703125,1.658935546875,38.6553955078125,-168.6676025390625
1758787242.7813218,-0.58984375,0.05078125,0.7978515625,-4.33349609375,-0.8544921875,0.06103515625,1.6204833984375,38.6444091796875,-168.673095703125
1758787242.790675,-0.58984375,0.05078125,0.7978515625,-4.33349609375,-0.8544921875,0.06103515625,1.5765380859375,38.6334228515625,-168.6785888671875
1758787242.8005803,-0.619140625,0.01708984375,0.81396484375,-4.0283203125,-0.732421875,0.1220703125,1.5435791015625,38.616943359375,-168.68408203125
1758787242.8105707,-0.619140625,0.01708984375,0.81396484375,-4.0283203125,-0.732421875,0.1220703125,1.505126953125,38.60595703125,-168.6895751953125
1758787242.8207831,-0.59375,-0.01806640625,0.75,1.708984375,-0.8544921875,-0.42724609375,1.51611328125,38.594970703125,-168.7060546875
1758787242.8306508,-0.59375,-0.01806640625,0.75,1.708984375,-0.8544921875,-0.42724609375,1.5325927734375,38.5784912109375,-168.7225341796875
1758787242.8407395,-0.6162109375,0.00732421875,0.791015625,3.41796875,-1.28173828125,-0.8544921875,1.5545654296875,38.56201171875,-168.7445068359375
1758787242.8515282,-0.6162109375,0.00732421875,0.791015625,3.41796875,-1.28173828125,-0.8544921875,1.58203125,38.5455322265625,-168.760986328125
1758787242.863997,-0.63330078125,0.0390625,0.82421875,0.42724609375,-1.03759765625,-0.67138671875,1.5765380859375,38.529052734375,-168.782958984375
1758787242.8708026,-0.63330078125,0.0390625,0.82421875,0.42724609375,-1.03759765625,-0.67138671875,1.5765380859375,38.51806640625,-168.7994384765625
1758787242.8808084,-0.6005859375,0.0654296875,0.77197265625,-6.4697265625,-0.9765625,-0.3662109375,1.5106201171875,38.5015869140625,-168.8104248046875
1758787242.8906722,-0.6005859375,0.0654296875,0.77197265625,-6.4697265625,-0.9765625,-0.3662109375,1.4447021484375,38.4906005859375,-168.81591796875
1758787242.9008422,-0.6318359375,0.00634765625,0.79541015625,-7.75146484375,-0.244140625,-0.18310546875,1.3677978515625,38.485107421875,-168.826904296875
1758787242.9111335,-0.6318359375,0.00634765625,0.79541015625,-7.75146484375,-0.244140625,-0.18310546875,1.2908935546875,38.47412109375,-168.8323974609375
1758787242.9207678,-0.6318359375,0.00634765625,0.79541015625,5.43212890625,0.67138671875,-1.03759765625,1.34033203125,38.4796142578125,-168.848876953125
1758787242.9306836,-0.62744140625,-0.0283203125,0.736328125,5.43212890625,0.67138671875,-1.03759765625,1.38427734375,38.485107421875,-168.870849609375
1758787242.9407518,-0.65087890625,-0.03173828125,0.75,23.92578125,0.8544921875,-2.685546875,1.5985107421875,38.49609375,-168.9093017578125
1758787242.9511569,-0.65087890625,-0.03173828125,0.75,23.92578125,0.8544921875,-2.685546875,1.812744140625,38.507080078125,-168.94775390625
1758787242.9608757,-0.7099609375,0.02685546875,0.859375,15.93017578125,0.91552734375,-3.0517578125,1.9390869140625,38.51806640625,-168.99169921875
1758787242.9711046,-0.7099609375,0.02685546875,0.859375,15.93017578125,0.91552734375,-3.0517578125,2.0654296875,38.5345458984375,-169.03564453125
1758787242.9808726,-0.6259765625,0.12646484375,0.71923828125,-4.5166015625,2.38037109375,-1.52587890625,2.0050048828125,38.56201171875,-169.0576171875
1758787242.9908476,-0.6259765625,0.12646484375,0.71923828125,-4.5166015625,2.38037109375,-1.52587890625,1.9500732421875,38.5894775390625,-169.0740966796875
1758787243.0013468,-0.57177734375,0.1103515625,0.67236328125,-16.7236328125,3.23486328125,-0.244140625,1.7852783203125,38.6279296875,-169.068603515625
1758787243.0108023,-0.57177734375,0.1103515625,0.67236328125,-16.7236328125,3.23486328125,-0.244140625,1.6259765625,38.6663818359375,-169.0576171875
1758787243.0208387,-0.626953125,0.00390625,0.89794921875,-20.1416015625,3.96728515625,0.30517578125,1.439208984375,38.704833984375,-169.046630859375
1758787243.030866,-0.626953125,0.00390625,0.89794921875,-20.1416015625,3.96728515625,0.30517578125,1.25244140625,38.748779296875,-169.03564453125
1758787243.0411234,-0.61865234375,-0.06787109375,0.80224609375,-6.89697265625,4.45556640625,-0.244140625,1.1865234375,38.7872314453125,-169.0411376953125
1758787243.050846,-0.61865234375,-0.06787109375,0.80224609375,-6.89697265625,4.45556640625,-0.244140625,1.12060546875,38.8311767578125,-169.046630859375
1758787243.0608468,-0.61474609375,-0.02880859375,0.75439453125,6.40869140625,3.41796875,-1.77001953125,1.1700439453125,38.8641357421875,-169.0740966796875
1758787243.070873,-0.61474609375,-0.02880859375,0.75439453125,6.40869140625,3.41796875,-1.77001953125,1.2139892578125,38.8970947265625,-169.1015625
1758787243.0808318,-0.63916015625,0.052734375,0.7958984375,4.150390625,3.7841796875,-2.25830078125,1.241455078125,38.9300537109375,-169.1400146484375
1758787243.0916178,-0.63916015625,0.052734375,0.7958984375,4.150390625,3.7841796875,-2.25830078125,1.263427734375,38.968505859375,-169.1729736328125
1758787243.1009443,-0.63427734375,0.13330078125,0.759765625,-16.845703125,4.08935546875,-1.52587890625,1.087646484375,39.0069580078125,-169.1949462890625
1758787243.1109478,-0.63427734375,0.13330078125,0.759765625,-16.845703125,4.08935546875,-1.52587890625,0.9173583984375,39.04541015625,-169.21142578125
1758787243.120961,-0.61474609375,0.07958984375,0.74951171875,-27.4658203125,2.99072265625,-0.732421875,0.6536865234375,39.0728759765625,-169.2169189453125
1758787243.1310067,-0.61474609375,0.07958984375,0.74951171875,-27.4658203125,2.99072265625,-0.732421875,0.3900146484375,39.1058349609375,-169.2169189453125
1758787243.1412997,-0.6259765625,-0.048828125,0.828125,-23.01025390625,1.89208984375,-0.1220703125,0.17578125,39.122314453125,-169.21142578125
1758787243.151017,-0.6259765625,-0.048828125,0.828125,-23.01025390625,1.89208984375,-0.1220703125,-0.0384521484375,39.1387939453125,-169.21142578125
1758787243.1609666,-0.60009765625,-0.11181640625,0.7607421875,2.13623046875,1.40380859375,-0.732421875,-0.0164794921875,39.144287109375,-169.2279052734375
1758787243.171021,-0.60009765625,-0.11181640625,0.7607421875,2.13623046875,1.40380859375,-0.732421875,0.0,39.1552734375,-169.244384765625
1758787243.1813133,-0.59814453125,-0.1240234375,0.7470703125,31.494140625,1.03759765625,-2.0751953125,0.2911376953125,39.166259765625,-169.27734375
1758787243.1910725,-0.59814453125,-0.1240234375,0.7470703125,31.494140625,1.03759765625,-2.0751953125,0.5767822265625,39.1717529296875,-169.3212890625
1758787243.2009802,-0.61328125,-0.0517578125,0.77587890625,43.5791015625,1.03759765625,-2.99072265625,0.9722900390625,39.17724609375,-169.376220703125
1758787243.2110226,-0.61328125,-0.0517578125,0.77587890625,43.5791015625,1.03759765625,-2.99072265625,1.3677978515625,39.1827392578125,-169.4366455078125
1758787243.2210429,-0.6533203125,0.09814453125,0.8115234375,28.50341796875,0.18310546875,-2.8076171875,1.6094970703125,39.1827392578125,-169.4915771484375
1758787243.2315629,-0.6533203125,0.09814453125,0.8115234375,28.50341796875,0.18310546875,-2.8076171875,1.8621826171875,39.1827392578125,-169.541015625
1758787243.24106,-0.66552734375,0.17236328125,0.822265625,2.86865234375,-0.67138671875,-1.220703125,1.8731689453125,39.1717529296875,-169.5684814453125
1758787243.2511017,-0.66552734375,0.17236328125,0.822265625,2.86865234375,-0.67138671875,-1.220703125,1.8896484375,39.166259765625,-169.5849609375
1758787243.2611103,-0.61669921875,0.12109375,0.76953125,-16.41845703125,-0.8544921875,-0.244140625,1.7303466796875,39.1497802734375,-169.5904541015625
1758787243.2715087,-0.61669921875,0.12109375,0.76953125,-16.41845703125,-0.8544921875,-0.244140625,1.571044921875,39.1387939453125,-169.5904541015625
1758787243.2811265,-0.583984375,-0.00244140625,0.7275390625,-24.169921875,-1.03759765625,0.1220703125,1.34033203125,39.1278076171875,-169.5904541015625
1758787243.2911425,-0.583984375,-0.00244140625,0.7275390625,-24.169921875,-1.03759765625,0.1220703125,1.109619140625,39.111328125,-169.5904541015625
1758787243.3011608,-0.62841796875,-0.02001953125,0.779296875,-19.22607421875,-1.52587890625,0.8544921875,0.933837890625,39.0948486328125,-169.5794677734375
1758787243.3111525,-0.62841796875,-0.02001953125,0.779296875,-19.22607421875,-1.52587890625,0.8544921875,0.758056640625,39.078369140625,-169.573974609375
1758787243.3216248,-0.68994140625,-0.060546875,0.8310546875,1.40380859375,-2.3193359375,0.8544921875,0.780029296875,39.0509033203125,-169.56298828125
1758787243.3311589,-0.64697265625,-0.07568359375,0.75390625,15.80810546875,-2.5634765625,0.3662109375,0.8734130859375,39.0289306640625,-169.56298828125
1758787243.3415358,-0.64697265625,-0.07568359375,0.75390625,15.80810546875,-2.5634765625,0.3662109375,1.0272216796875,39.00146484375,-169.5684814453125
1758787243.351295,-0.6318359375,-0.03515625,0.69482421875,22.705078125,-2.8076171875,-0.06103515625,1.2139892578125,38.9794921875,-169.573974609375
1758787243.3614774,-0.6318359375,-0.03515625,0.69482421875,22.705078125,-2.8076171875,-0.06103515625,1.42822265625,38.9520263671875,-169.5849609375
1758787243.3712537,-0.66845703125,0.0283203125,0.7626953125,23.4375,-2.3193359375,-0.06103515625,1.64794921875,38.9300537109375,-169.595947265625
1758787243.381251,-0.66845703125,0.0283203125,0.7626953125,23.4375,-2.3193359375,-0.06103515625,1.86767578125,38.91357421875,-169.6014404296875
1758787243.391267,-0.681640625,0.08837890625,0.830078125,13.00048828125,-2.01416015625,0.0,2.0379638671875,38.902587890625,-169.6124267578125
1758787243.4012249,-0.681640625,0.08837890625,0.830078125,13.00048828125,-2.01416015625,0.0,2.1588134765625,38.8861083984375,-169.617919921875
1758787243.41163,-0.62744140625,0.07763671875,0.71240234375,2.74658203125,-1.220703125,0.8544921875,2.230224609375,38.8751220703125,-169.6124267578125
1758787243.421246,-0.62744140625,0.07763671875,0.71240234375,2.74658203125,-1.220703125,0.8544921875,2.26318359375,38.86962890625,-169.6014404296875
1758787243.4313366,-0.63623046875,0.02685546875,0.72119140625,2.38037109375,-1.0986328125,1.28173828125,2.296142578125,38.8641357421875,-169.5904541015625
1758787243.441268,-0.63623046875,0.02685546875,0.72119140625,2.38037109375,-1.0986328125,1.28173828125,2.3291015625,38.8641357421875,-169.5684814453125
1758787243.4537597,-0.66650390625,-0.01171875,0.83203125,7.26318359375,-0.79345703125,0.9765625,2.384033203125,38.8641357421875,-169.552001953125
1758787243.4636533,-0.66650390625,-0.01171875,0.83203125,7.26318359375,-0.79345703125,0.9765625,2.4554443359375,38.8641357421875,-169.541015625
1758787243.471292,-0.63623046875,0.05224609375,0.73193359375,6.16455078125,-0.67138671875,1.46484375,2.52685546875,38.8641357421875,-169.530029296875
1758787243.4813666,-0.63623046875,0.05224609375,0.73193359375,6.16455078125,-0.67138671875,1.46484375,2.5982666015625,38.8641357421875,-169.508056640625
1758787243.491372,-0.59814453125,0.10400390625,0.71728515625,-1.46484375,-1.220703125,1.5869140625,2.625732421875,38.858642578125,-169.486083984375
1758787243.5016658,-0.59814453125,0.10400390625,0.71728515625,-1.46484375,-1.220703125,1.5869140625,2.625732421875,38.8531494140625,-169.464111328125
1758787243.5114613,-0.62353515625,0.06640625,0.80859375,-6.89697265625,-1.03759765625,2.38037109375,2.603759765625,38.84765625,-169.43115234375
1758787243.5213723,-0.62353515625,0.06640625,0.80859375,-6.89697265625,-1.03759765625,2.38037109375,2.5543212890625,38.8421630859375,-169.398193359375
1758787243.53145,-0.630859375,0.009765625,0.7705078125,-9.33837890625,-0.8544921875,2.74658203125,2.4993896484375,38.836669921875,-169.3597412109375
1758787243.5418363,-0.630859375,0.009765625,0.7705078125,-9.33837890625,-0.8544921875,2.74658203125,2.4334716796875,38.8311767578125,-169.3267822265625
1758787243.5514443,-0.623046875,0.0224609375,0.75244140625,-6.65283203125,-2.0751953125,2.62451171875,2.3785400390625,38.8201904296875,-169.288330078125
1758787243.5615268,-0.623046875,0.0224609375,0.75244140625,-6.65283203125,-2.0751953125,2.62451171875,2.3345947265625,38.8037109375,-169.25537109375
1758787243.5714054,-0.67333984375,0.02294921875,0.80126953125,-2.74658203125,-2.13623046875,2.62451171875,2.30712890625,38.7872314453125,-169.222412109375
1758787243.581898,-0.67333984375,0.02294921875,0.80126953125,-2.74658203125,-2.13623046875,2.62451171875,2.3016357421875,38.770751953125,-169.189453125
1758787243.5917668,-0.63916015625,0.0419921875,0.73876953125,-7.6904296875,-2.13623046875,3.173828125,2.274169921875,38.7542724609375,-169.1510009765625
1758787243.6014335,-0.63916015625,0.0419921875,0.73876953125,-7.6904296875,-2.13623046875,3.173828125,2.2247314453125,38.73779296875,-169.112548828125
1758787243.6114504,-0.62060546875,0.06103515625,0.79296875,-12.939453125,-2.62451171875,3.11279296875,2.1478271484375,38.7158203125,-169.068603515625
1758787243.621548,-0.62060546875,0.06103515625,0.79296875,-12.939453125,-2.62451171875,3.11279296875,2.0489501953125,38.69384765625,-169.0301513671875
1758787243.6320071,-0.62548828125,0.009765625,0.8076171875,-10.3759765625,-1.89208984375,3.173828125,1.9610595703125,38.6773681640625,-168.9862060546875
1758787243.6414726,-0.62548828125,0.009765625,0.8076171875,-10.3759765625,-1.89208984375,3.173828125,1.8841552734375,38.660888671875,-168.94775390625
1758787243.6515598,-0.61572265625,-0.02197265625,0.7392578125,0.6103515625,-1.77001953125,2.74658203125,1.8621826171875,38.6444091796875,-168.914794921875
1758787243.661566,-0.61572265625,-0.02197265625,0.7392578125,0.6103515625,-1.77001953125,2.74658203125,1.8896484375,38.6334228515625,-168.8818359375
1758787243.6719096,-0.62841796875,-0.001953125,0.75537109375,10.19287109375,-1.64794921875,2.197265625,1.9610595703125,38.616943359375,-168.8543701171875
1758787243.6815827,-0.62841796875,-0.001953125,0.75537109375,10.19287109375,-1.64794921875,2.197265625,2.0819091796875,38.60595703125,-168.8323974609375
1758787243.6915865,-0.64892578125,0.052734375,0.82080078125,4.0283203125,-1.15966796875,2.197265625,2.164306640625,38.594970703125,-168.804931640625
1758787243.701597,-0.64892578125,0.052734375,0.82080078125,4.0283203125,-1.15966796875,2.197265625,2.21923828125,38.583984375,-168.782958984375
1758787243.711576,-0.6298828125,0.09228515625,0.73388671875,-2.44140625,-0.30517578125,2.197265625,2.2412109375,38.583984375,-168.7554931640625
1758787243.7220073,-0.6298828125,0.09228515625,0.73388671875,-2.44140625,-0.30517578125,2.197265625,2.2357177734375,38.583984375,-168.72802734375
1758787243.7315857,-0.64013671875,0.07958984375,0.7939453125,-12.5732421875,-0.48828125,2.685546875,2.186279296875,38.583984375,-168.6895751953125
1758787243.7415931,-0.64013671875,0.07958984375,0.7939453125,-12.5732421875,-0.48828125,2.685546875,2.08740234375,38.5784912109375,-168.651123046875
1758787243.753893,-0.5849609375,0.02685546875,0.79443359375,-10.009765625,0.244140625,2.9296875,2.0050048828125,38.583984375,-168.607177734375
1758787243.7646477,-0.5849609375,0.02685546875,0.79443359375,-10.009765625,0.244140625,2.9296875,1.93359375,38.583984375,-168.5687255859375
1758787243.7717714,-0.59521484375,-0.03369140625,0.75048828125,-4.39453125,0.18310546875,2.5634765625,1.8896484375,38.5894775390625,-168.5302734375
1758787243.7816708,-0.59521484375,-0.03369140625,0.75048828125,-4.39453125,0.18310546875,2.5634765625,1.8731689453125,38.5894775390625,-168.5028076171875
1758787243.7918475,-0.60009765625,0.03466796875,0.828125,0.0,1.0986328125,2.25830078125,1.86767578125,38.594970703125,-168.475341796875
1758787243.8017638,-0.60009765625,0.03466796875,0.828125,0.0,1.0986328125,2.25830078125,1.8896484375,38.60595703125,-168.4478759765625
1758787243.8119678,-0.6181640625,0.0771484375,0.80029296875,-5.37109375,0.67138671875,2.01416015625,1.878662109375,38.6114501953125,-168.4259033203125
1758787243.8216803,-0.6181640625,0.0771484375,0.80029296875,-5.37109375,0.67138671875,2.01416015625,1.845703125,38.6114501953125,-168.4039306640625
1758787243.8318548,-0.63720703125,0.130859375,0.8046875,-24.84130859375,0.42724609375,3.5400390625,1.724853515625,38.616943359375,-168.365478515625
1758787243.8417716,-0.63720703125,0.130859375,0.8046875,-24.84130859375,0.42724609375,3.5400390625,1.51611328125,38.616943359375,-168.3160400390625
1758787243.8517911,-0.62060546875,0.05419921875,0.78857421875,-33.26416015625,-0.244140625,3.84521484375,1.2744140625,38.6114501953125,-168.2611083984375
1758787243.8625088,-0.62060546875,0.05419921875,0.78857421875,-33.26416015625,-0.244140625,3.84521484375,0.98876953125,38.60595703125,-168.2061767578125
1758787243.8718011,-0.55908203125,-0.04638671875,0.75927734375,-28.38134765625,-0.1220703125,4.57763671875,0.7305908203125,38.6004638671875,-168.145751953125
1758787243.8817813,-0.55908203125,-0.04638671875,0.75927734375,-28.38134765625,-0.1220703125,4.57763671875,0.4998779296875,38.594970703125,-168.0853271484375
1758787243.891883,-0.5771484375,-0.037109375,0.79052734375,-15.869140625,-0.18310546875,4.150390625,0.32958984375,38.5894775390625,-168.0303955078125
1758787243.9019082,-0.5771484375,-0.037109375,0.79052734375,-15.869140625,-0.18310546875,4.150390625,0.2142333984375,38.5784912109375,-167.9754638671875
1758787243.9119039,-0.61083984375,-0.060546875,0.87353515625,3.173828125,-0.67138671875,2.99072265625,0.186767578125,38.5675048828125,-167.93701171875
1758787243.9217865,-0.61083984375,-0.060546875,0.87353515625,3.173828125,-0.67138671875,2.99072265625,0.2471923828125,38.551025390625,-167.9095458984375
1758787243.9318192,-0.56298828125,-0.0380859375,0.80615234375,14.83154296875,-1.220703125,2.197265625,0.3570556640625,38.5345458984375,-167.89306640625
1758787243.9417996,-0.56298828125,-0.0380859375,0.80615234375,14.83154296875,-1.220703125,2.197265625,0.5218505859375,38.5125732421875,-167.882080078125
1758787243.9522505,-0.552734375,0.015625,0.7841796875,16.78466796875,-1.46484375,2.3193359375,0.692138671875,38.485107421875,-167.87109375
1758787243.9618495,-0.552734375,0.015625,0.7841796875,16.78466796875,-1.46484375,2.3193359375,0.8734130859375,38.4576416015625,-167.860107421875
1758787243.9718683,-0.638671875,0.0322265625,0.8994140625,18.12744140625,-2.13623046875,1.3427734375,1.0546875,38.43017578125,-167.8546142578125
1758787243.9818223,-0.638671875,0.0322265625,0.8994140625,18.12744140625,-2.13623046875,1.3427734375,1.241455078125,38.3917236328125,-167.8546142578125
1758787243.9918916,-0.59033203125,0.095703125,0.82470703125,6.4697265625,-1.953125,1.8310546875,1.373291015625,38.3587646484375,-167.8546142578125
1758787244.002311,-0.59033203125,0.095703125,0.82470703125,6.4697265625,-1.953125,1.8310546875,1.4501953125,38.3258056640625,-167.8436279296875
1758787244.0118845,-0.54345703125,0.09716796875,0.759765625,-11.962890625,-2.5634765625,1.46484375,1.439208984375,38.2928466796875,-167.838134765625
1758787244.0218549,-0.54345703125,0.09716796875,0.759765625,-11.962890625,-2.5634765625,1.46484375,1.3348388671875,38.2489013671875,-167.8326416015625
1758787244.0318754,-0.58740234375,0.03857421875,0.83349609375,-21.8505859375,-2.13623046875,1.953125,1.1865234375,38.21044921875,-167.816162109375
1758787244.0423,-0.58740234375,0.03857421875,0.83349609375,-21.8505859375,-2.13623046875,1.953125,0.9942626953125,38.177490234375,-167.7996826171875
1758787244.0519342,-0.62060546875,-0.02392578125,0.80126953125,-15.68603515625,-1.77001953125,1.52587890625,0.8294677734375,38.14453125,-167.7886962890625
1758787244.0618904,-0.62060546875,-0.02392578125,0.80126953125,-15.68603515625,-1.77001953125,1.52587890625,0.692138671875,38.111572265625,-167.7777099609375
1758787244.0629008,-0.62060546875,-0.02392578125,0.80126953125,-15.68603515625,-1.77001953125,1.52587890625,1.318359375,-66.09375,121.4044189453125
1758787244.0726318,-0.66552734375,-0.072265625,0.86083984375,3.11279296875,-1.708984375,0.30517578125,0.6427001953125,38.0841064453125,-167.772216796875
1758787244.0819292,-0.66552734375,-0.072265625,0.86083984375,3.11279296875,-1.708984375,0.30517578125,0.6756591796875,38.056640625,-167.7777099609375
1758787244.0922806,-0.57568359375,-0.07861328125,0.6650390625,25.45166015625,0.0,-1.708984375,0.81298828125,38.0401611328125,-167.7996826171875
1758787244.1019394,-0.57568359375,-0.07861328125,0.6650390625,25.45166015625,0.0,-1.708984375,1.043701171875,38.03466796875,-167.8326416015625
1758787244.1119902,-0.60595703125,0.0234375,0.6943359375,21.42333984375,0.91552734375,-2.8076171875,1.25244140625,38.03466796875,-167.8765869140625
1758787244.1219397,-0.60595703125,0.0234375,0.6943359375,21.42333984375,0.91552734375,-2.8076171875,1.4337158203125,38.0401611328125,-167.9205322265625
1758787244.1319962,-0.6875,0.06103515625,0.92529296875,22.64404296875,2.0751953125,-3.41796875,1.6204833984375,38.056640625,-167.9644775390625
1758787244.1424026,-0.6875,0.06103515625,0.92529296875,22.64404296875,2.0751953125,-3.41796875,1.812744140625,38.07861328125,-168.013916015625
1758787244.1519835,-0.671875,0.07470703125,0.77734375,10.25390625,3.7841796875,-3.11279296875,1.944580078125,38.1060791015625,-168.0633544921875
1758787244.1620345,-0.671875,0.07470703125,0.77734375,10.25390625,3.7841796875,-3.11279296875,2.021484375,38.14453125,-168.101806640625
1758787244.1721675,-0.671875,0.07470703125,0.77734375,12.20703125,4.57763671875,-3.23486328125,2.1038818359375,38.1884765625,-168.1402587890625
1758787244.182485,-0.64599609375,0.04296875,0.73291015625,12.20703125,4.57763671875,-3.23486328125,2.2027587890625,38.232421875,-168.1787109375
1758787244.192121,-0.650390625,0.00146484375,0.771484375,14.58740234375,6.591796875,-4.0283203125,2.30712890625,38.2928466796875,-168.2171630859375
1758787244.2020555,-0.650390625,0.00146484375,0.771484375,14.58740234375,6.591796875,-4.0283203125,2.4169921875,38.3642578125,-168.2611083984375
1758787244.2121732,-0.60107421875,0.07568359375,0.70556640625,5.0048828125,8.056640625,-4.2724609375,2.4774169921875,38.4466552734375,-168.310546875
1758787244.2222924,-0.60107421875,0.07568359375,0.70556640625,5.0048828125,8.056640625,-4.2724609375,2.493896484375,38.529052734375,-168.3544921875
1758787244.2324314,-0.6298828125,0.0791015625,0.7578125,-2.5634765625,7.87353515625,-4.0283203125,2.4774169921875,38.616943359375,-168.3984375
1758787244.2420754,-0.6298828125,0.0791015625,0.7578125,-2.5634765625,7.87353515625,-4.0283203125,2.4224853515625,38.6993408203125,-168.4423828125
1758787244.2520885,-0.68212890625,0.0146484375,0.80029296875,-1.03759765625,6.8359375,-3.41796875,2.384033203125,38.78173828125,-168.4808349609375
1758787244.2620997,-0.68212890625,0.0146484375,0.80029296875,-1.03759765625,6.8359375,-3.41796875,2.35107421875,38.8531494140625,-168.5137939453125
1758787244.2725437,-0.6708984375,0.00537109375,0.7578125,-3.2958984375,5.615234375,-2.5634765625,2.30712890625,38.9190673828125,-168.541259765625
1758787244.282121,-0.6708984375,0.00537109375,0.7578125,-3.2958984375,5.615234375,-2.5634765625,2.252197265625,38.9849853515625,-168.5687255859375
1758787244.2922437,-0.62109375,0.0166015625,0.671875,-2.8076171875,4.33349609375,-2.0751953125,2.208251953125,39.0399169921875,-168.5906982421875
1758787244.3021667,-0.62109375,0.0166015625,0.671875,-2.8076171875,4.33349609375,-2.0751953125,2.164306640625,39.08935546875,-168.6126708984375
1758787244.3124528,-0.67822265625,0.02880859375,0.8134765625,-9.521484375,2.86865234375,-2.01416015625,2.08740234375,39.13330078125,-168.629150390625
1758787244.3221965,-0.67822265625,0.02880859375,0.8134765625,-9.521484375,2.86865234375,-2.01416015625,1.9775390625,39.1717529296875,-168.651123046875
1758787244.3322577,-0.7333984375,0.03173828125,0.87060546875,-5.37109375,2.9296875,-1.5869140625,1.8896484375,39.2047119140625,-168.6676025390625
1758787244.34224,-0.7333984375,0.03173828125,0.87060546875,-5.37109375,2.9296875,-1.5869140625,1.82373046875,39.2431640625,-168.68408203125
1758787244.3553007,-0.60986328125,-0.0107421875,0.60302734375,3.2958984375,2.74658203125,-2.13623046875,1.8017578125,39.276123046875,-168.7005615234375
1758787244.365372,-0.60986328125,-0.0107421875,0.60302734375,3.2958984375,2.74658203125,-2.13623046875,1.8182373046875,39.3145751953125,-168.7225341796875
1758787244.3722417,-0.63818359375,-0.00537109375,0.6865234375,13.671875,2.3193359375,-3.60107421875,1.8731689453125,39.35302734375,-168.75
1758787244.3822336,-0.63818359375,-0.00537109375,0.6865234375,13.671875,2.3193359375,-3.60107421875,1.9775390625,39.385986328125,-168.7939453125
1758787244.3923457,-0.66845703125,0.005859375,0.78369140625,12.6953125,3.0517578125,-3.84521484375,2.076416015625,39.429931640625,-168.8323974609375
1758787244.4025273,-0.66845703125,0.005859375,0.78369140625,12.6953125,3.0517578125,-3.84521484375,2.1697998046875,39.4683837890625,-168.8763427734375
1758787244.412363,-0.63525390625,0.0947265625,0.75146484375,5.615234375,1.77001953125,-3.72314453125,2.2247314453125,39.5068359375,-168.9202880859375
1758787244.422328,-0.63525390625,0.0947265625,0.75146484375,5.615234375,1.77001953125,-3.72314453125,2.2467041015625,39.5343017578125,-168.9642333984375
1758787244.432384,-0.6181640625,0.05810546875,0.78369140625,-5.0048828125,0.9765625,-2.44140625,2.17529296875,39.55078125,-168.99169921875
1758787244.4423554,-0.6181640625,0.05810546875,0.78369140625,-5.0048828125,0.9765625,-2.44140625,2.109375,39.57275390625,-169.0191650390625
1758787244.4524176,-0.61865234375,0.0244140625,0.81005859375,-9.27734375,0.42724609375,-1.77001953125,2.0050048828125,39.5782470703125,-169.0411376953125
1758787244.462355,-0.61865234375,0.0244140625,0.81005859375,-9.27734375,0.42724609375,-1.77001953125,1.8951416015625,39.5892333984375,-169.0631103515625
1758787244.4724886,-0.61669921875,-0.0087890625,0.78564453125,-1.708984375,-0.244140625,-1.708984375,1.86767578125,39.583740234375,-169.090576171875
1758787244.4823754,-0.61669921875,-0.0087890625,0.78564453125,-1.708984375,-0.244140625,-1.708984375,1.834716796875,39.583740234375,-169.1180419921875
1758787244.4924028,-0.625,0.02587890625,0.79052734375,1.5869140625,-0.732421875,-2.38037109375,1.8292236328125,39.5782470703125,-169.156494140625
1758787244.502781,-0.625,0.02587890625,0.79052734375,1.5869140625,-0.732421875,-2.38037109375,1.82373046875,39.5672607421875,-169.189453125
1758787244.5124927,-0.638671875,0.09765625,0.74658203125,-10.986328125,-0.6103515625,-2.3193359375,1.6973876953125,39.561767578125,-169.2279052734375
1758787244.5224538,-0.638671875,0.09765625,0.74658203125,-10.986328125,-0.6103515625,-2.3193359375,1.5765380859375,39.5562744140625,-169.25537109375
1758787244.532475,-0.66259765625,0.10693359375,0.7666015625,-27.7099609375,-0.732421875,-1.220703125,1.3018798828125,39.55078125,-169.266357421875
1758787244.5428932,-0.66259765625,0.10693359375,0.7666015625,-27.7099609375,-0.732421875,-1.220703125,1.0272216796875,39.5452880859375,-169.27734375
1758787244.5525503,-0.654296875,0.01806640625,0.77685546875,-32.958984375,0.0,-0.3662109375,0.714111328125,39.5452880859375,-169.27734375
1758787244.5624957,-0.654296875,0.01806640625,0.77685546875,-32.958984375,0.0,-0.3662109375,0.3955078125,39.55078125,-169.2718505859375
1758787244.5725093,-0.634765625,-0.04443359375,0.732421875,-21.728515625,0.6103515625,-0.48828125,0.1922607421875,39.5562744140625,-169.2718505859375
1758787244.582509,-0.634765625,-0.04443359375,0.732421875,-21.728515625,0.6103515625,-0.48828125,-0.010986328125,39.5672607421875,-169.2718505859375
1758787244.592579,-0.607421875,-0.072265625,0.705078125,-4.150390625,1.3427734375,-1.77001953125,-0.0604248046875,39.583740234375,-169.2938232421875
1758787244.6025147,-0.607421875,-0.072265625,0.705078125,-4.150390625,1.3427734375,-1.77001953125,-0.10986328125,39.6002197265625,-169.3157958984375
1758787244.6125634,-0.67041015625,-0.068359375,0.78662109375,14.404296875,1.220703125,-2.74658203125,0.010986328125,39.61669921875,-169.3487548828125
1758787244.6226156,-0.67041015625,-0.068359375,0.78662109375,14.404296875,1.220703125,-2.74658203125,0.1263427734375,39.6331787109375,-169.38720703125
1758787244.632617,-0.66796875,-0.0517578125,0.80810546875,29.296875,1.3427734375,-3.41796875,0.384521484375,39.649658203125,-169.4366455078125
1758787244.642623,-0.66796875,-0.0517578125,0.80810546875,29.296875,1.3427734375,-3.41796875,0.6427001953125,39.6661376953125,-169.4915771484375
1758787244.6544282,-0.68359375,0.02783203125,0.77099609375,21.66748046875,0.0,-2.86865234375,0.823974609375,39.6661376953125,-169.530029296875
1758787244.664447,-0.68359375,0.02783203125,0.77099609375,21.66748046875,0.0,-2.86865234375,1.0107421875,39.671630859375,-169.573974609375
1758787244.6726997,-0.67333984375,0.107421875,0.79248046875,2.5634765625,-1.0986328125,-2.13623046875,1.0107421875,39.6661376953125,-169.6014404296875
1758787244.6831956,-0.67333984375,0.107421875,0.79248046875,2.5634765625,-1.0986328125,-2.13623046875,1.021728515625,39.66064453125,-169.62890625
1758787244.692935,-0.62939453125,0.130859375,0.71728515625,-12.0849609375,-1.15966796875,-0.6103515625,0.90087890625,39.6551513671875,-169.62890625
1758787244.7026827,-0.62939453125,0.130859375,0.71728515625,-12.0849609375,-1.15966796875,-0.6103515625,0.7855224609375,39.649658203125,-169.62890625
1758787244.7133408,-0.63818359375,-0.00341796875,0.74560546875,-18.00537109375,-1.5869140625,0.06103515625,0.615234375,39.638671875,-169.617919921875
1758787244.7227082,-0.63818359375,-0.00341796875,0.74560546875,-18.00537109375,-1.5869140625,0.06103515625,0.4449462890625,39.627685546875,-169.60693359375
1758787244.7331548,-0.63916015625,-0.06494140625,0.7734375,-17.88330078125,-1.28173828125,0.42724609375,0.2801513671875,39.61669921875,-169.595947265625
1758787244.7427626,-0.63916015625,-0.06494140625,0.7734375,-17.88330078125,-1.28173828125,0.42724609375,0.10986328125,39.6112060546875,-169.5849609375
1758787244.752727,-0.6416015625,-0.05029296875,0.73095703125,-0.3662109375,-1.46484375,0.79345703125,0.1153564453125,39.6002197265625,-169.573974609375
1758787244.7629778,-0.6416015625,-0.05029296875,0.73095703125,-0.3662109375,-1.46484375,0.79345703125,0.1153564453125,39.5892333984375,-169.56298828125
1758787244.7731872,-0.67626953125,-0.03955078125,0.76904296875,7.50732421875,-1.77001953125,0.42724609375,0.1922607421875,39.5782470703125,-169.5574951171875
1758787244.7828546,-0.67626953125,-0.03955078125,0.76904296875,7.50732421875,-1.77001953125,0.42724609375,0.263671875,39.5672607421875,-169.552001953125
1758787244.7927911,-0.64111328125,-0.00244140625,0.7451171875,10.19287109375,-1.0986328125,0.06103515625,0.362548828125,39.561767578125,-169.552001953125
1758787244.802786,-0.64111328125,-0.00244140625,0.7451171875,10.19287109375,-1.0986328125,0.06103515625,0.46142578125,39.561767578125,-169.552001953125
1758787244.812796,-0.64794921875,0.0048828125,0.73291015625,9.82666015625,-1.708984375,-0.06103515625,0.5548095703125,39.55078125,-169.552001953125
1758787244.8230672,-0.64794921875,0.0048828125,0.73291015625,9.82666015625,-1.708984375,-0.06103515625,0.6427001953125,39.539794921875,-169.552001953125
1758787244.832969,-0.65673828125,-0.01171875,0.791015625,11.474609375,-0.91552734375,-0.06103515625,0.7525634765625,39.539794921875,-169.552001953125
1758787244.8428915,-0.65673828125,-0.01171875,0.791015625,11.474609375,-0.91552734375,-0.06103515625,0.85693359375,39.5343017578125,-169.5574951171875
1758787244.85294,-0.66357421875,0.04541015625,0.765625,5.06591796875,-0.8544921875,0.42724609375,0.9063720703125,39.5343017578125,-169.5465087890625
1758787244.863252,-0.66357421875,0.04541015625,0.765625,5.06591796875,-0.8544921875,0.42724609375,0.955810546875,39.5343017578125,-169.541015625
1758787244.8731136,-0.650390625,0.03759765625,0.75732421875,3.35693359375,-0.9765625,0.54931640625,0.98876953125,39.52880859375,-169.530029296875
1758787244.8829474,-0.650390625,0.03759765625,0.75732421875,3.35693359375,-0.9765625,0.54931640625,1.0272216796875,39.5233154296875,-169.51904296875
1758787244.892993,-0.63671875,0.01611328125,0.7734375,1.0986328125,-0.79345703125,0.91552734375,1.043701171875,39.5233154296875,-169.5025634765625
1758787244.9029307,-0.63671875,0.01611328125,0.7734375,1.0986328125,-0.79345703125,0.91552734375,1.0601806640625,39.5233154296875,-169.4915771484375
1758787244.9134705,-0.62744140625,0.00537109375,0.76416015625,1.5869140625,-0.9765625,1.220703125,1.087646484375,39.517822265625,-169.4696044921875
1758787244.9229505,-0.62744140625,0.00537109375,0.76416015625,1.5869140625,-0.9765625,1.220703125,1.109619140625,39.5123291015625,-169.453125
1758787244.932952,-0.67041015625,0.01806640625,0.8251953125,0.42724609375,-1.8310546875,1.40380859375,1.12060546875,39.495849609375,-169.4366455078125
1758787244.9430373,-0.67041015625,0.01806640625,0.8251953125,0.42724609375,-1.8310546875,1.40380859375,1.1370849609375,39.4793701171875,-169.420166015625
1758787244.9533668,-0.6494140625,0.03125,0.7861328125,-1.708984375,-1.89208984375,1.64794921875,1.131591796875,39.462890625,-169.398193359375
1758787244.963069,-0.6494140625,0.03125,0.7861328125,-1.708984375,-1.89208984375,1.64794921875,1.1260986328125,39.4464111328125,-169.376220703125
1758787244.9730513,-0.60498046875,0.02880859375,0.7197265625,-1.52587890625,-1.89208984375,2.0751953125,1.131591796875,39.429931640625,-169.3487548828125
1758787244.9830773,-0.60498046875,0.02880859375,0.7197265625,-1.52587890625,-1.89208984375,2.0751953125,1.131591796875,39.4189453125,-169.3212890625
1758787244.993348,-0.591796875,0.0048828125,0.75830078125,0.1220703125,-1.708984375,2.01416015625,1.1480712890625,39.4024658203125,-169.2938232421875
1758787245.0032344,-0.591796875,0.0048828125,0.75830078125,0.1220703125,-1.708984375,2.01416015625,1.1700439453125,39.385986328125,-169.2718505859375
1758787245.0130405,-0.62890625,0.00830078125,0.79736328125,-1.46484375,-1.64794921875,2.13623046875,1.1700439453125,39.3695068359375,-169.2498779296875
1758787245.0230944,-0.62890625,0.00830078125,0.79736328125,-1.46484375,-1.64794921875,2.13623046875,1.1700439453125,39.35302734375,-169.222412109375
1758787245.033097,-0.6708984375,0.0302734375,0.79248046875,-3.7841796875,-1.708984375,2.0751953125,1.1480712890625,39.3365478515625,-169.200439453125
1758787245.043471,-0.6708984375,0.0302734375,0.79248046875,-3.7841796875,-1.708984375,2.0751953125,1.131591796875,39.320068359375,-169.178466796875
1758787245.053196,-0.6025390625,0.0380859375,0.7138671875,-6.8359375,-2.13623046875,2.01416015625,1.07666015625,39.298095703125,-169.1510009765625
1758787245.0631518,-0.6025390625,0.0380859375,0.7138671875,-6.8359375,-2.13623046875,2.01416015625,1.03271484375,39.276123046875,-169.12353515625
1758787245.0731344,-0.6142578125,0.0078125,0.79345703125,-5.859375,-2.3193359375,2.25830078125,0.9942626953125,39.254150390625,-169.0960693359375
1758787245.0835893,-0.6142578125,0.0078125,0.79345703125,-5.859375,-2.3193359375,2.25830078125,0.955810546875,39.232177734375,-169.068603515625
1758787245.0931993,-0.64013671875,0.0166015625,0.798828125,-5.9814453125,-2.0751953125,2.0751953125,0.911865234375,39.210205078125,-169.046630859375
1758787245.1032665,-0.64013671875,0.0166015625,0.798828125,-5.9814453125,-2.0751953125,2.0751953125,0.8734130859375,39.188232421875,-169.0191650390625
1758787245.1132197,-0.61669921875,0.017578125,0.787109375,-11.41357421875,-2.86865234375,2.197265625,0.780029296875,39.1607666015625,-168.99169921875
1758787245.1236424,-0.61669921875,0.017578125,0.787109375,-11.41357421875,-2.86865234375,2.197265625,0.6866455078125,39.13330078125,-168.9697265625
1758787245.1331956,-0.6025390625,0.0029296875,0.818359375,-7.01904296875,-3.11279296875,2.13623046875,0.63720703125,39.100341796875,-168.9422607421875
1758787245.1432261,-0.6025390625,0.0029296875,0.818359375,-7.01904296875,-3.11279296875,2.13623046875,0.5877685546875,39.0618896484375,-168.9202880859375
1758787245.1532128,-0.587890625,-0.03369140625,0.7705078125,-2.62451171875,-2.86865234375,2.44140625,0.582275390625,39.0289306640625,-168.892822265625
1758787245.1633315,-0.587890625,-0.03369140625,0.7705078125,-2.62451171875,-2.86865234375,2.44140625,0.5767822265625,38.9959716796875,-168.870849609375
1758787245.1737144,-0.59912109375,-0.00390625,0.77734375,4.69970703125,-2.9296875,2.01416015625,0.63720703125,38.9630126953125,-168.8543701171875
1758787245.183298,-0.59912109375,-0.00390625,0.77734375,4.69970703125,-2.9296875,2.01416015625,0.6976318359375,38.9300537109375,-168.837890625
1758787245.1933353,-0.6162109375,0.02978515625,0.80712890625,4.21142578125,-2.685546875,1.77001953125,0.7525634765625,38.8970947265625,-168.8214111328125
1758787245.2033653,-0.6162109375,0.02978515625,0.80712890625,4.21142578125,-2.685546875,1.77001953125,0.8074951171875,38.8641357421875,-168.804931640625
1758787245.2137449,-0.60498046875,0.0615234375,0.748046875,-1.89208984375,-2.62451171875,2.0751953125,0.8074951171875,38.8311767578125,-168.782958984375
1758787245.2233775,-0.60498046875,0.0615234375,0.748046875,-1.89208984375,-2.62451171875,2.0751953125,0.8074951171875,38.8037109375,-168.760986328125
1758787245.233356,-0.6474609375,0.03759765625,0.810546875,-14.2822265625,-2.44140625,2.197265625,0.6866455078125,38.7762451171875,-168.7335205078125
1758787245.2433653,-0.6474609375,0.03759765625,0.810546875,-14.2822265625,-2.44140625,2.197265625,0.5657958984375,38.748779296875,-168.7115478515625
1758787245.2552485,-0.6220703125,0.056640625,0.8125,-19.59228515625,-1.3427734375,3.47900390625,0.406494140625,38.7322998046875,-168.662109375
1758787245.2671337,-0.6220703125,0.056640625,0.8125,-19.59228515625,-1.3427734375,3.47900390625,0.2471923828125,38.7103271484375,-168.6181640625
1758787245.2734654,-0.62353515625,-0.048828125,0.78173828125,-13.18359375,-0.244140625,2.99072265625,0.1483154296875,38.704833984375,-168.5797119140625
1758787245.2835238,-0.62353515625,-0.048828125,0.78173828125,-13.18359375,-0.244140625,2.99072265625,0.0494384765625,38.6993408203125,-168.5467529296875
1758787245.293461,-0.6142578125,-0.0498046875,0.81005859375,-2.44140625,0.8544921875,1.953125,0.0439453125,38.704833984375,-168.5247802734375
1758787245.3034546,-0.6142578125,-0.0498046875,0.81005859375,-2.44140625,0.8544921875,1.953125,0.0384521484375,38.7103271484375,-168.5028076171875
1758787245.3140059,-0.6044921875,-0.02978515625,0.7705078125,11.90185546875,1.46484375,0.8544921875,0.1593017578125,38.7213134765625,-168.497314453125
1758787245.3234673,-0.6044921875,-0.02978515625,0.7705078125,11.90185546875,1.46484375,0.8544921875,0.28564453125,38.7322998046875,-168.497314453125
1758787245.33347,-0.60888671875,0.0498046875,0.787109375,5.92041015625,1.3427734375,0.79345703125,0.3460693359375,38.73779296875,-168.4918212890625
1758787245.3434608,-0.60888671875,0.0498046875,0.787109375,5.92041015625,1.3427734375,0.79345703125,0.4119873046875,38.748779296875,-168.486328125
1758787245.3534582,-0.61865234375,0.091796875,0.80810546875,-9.21630859375,1.0986328125,1.5869140625,0.3350830078125,38.7542724609375,-168.46435546875
1758787245.363978,-0.61865234375,0.091796875,0.80810546875,-9.21630859375,1.0986328125,1.5869140625,0.263671875,38.759765625,-168.4478759765625
1758787245.3734787,-0.587890625,0.0537109375,0.736328125,-21.3623046875,1.0986328125,1.77001953125,0.076904296875,38.7652587890625,-168.42041015625
1758787245.383514,-0.587890625,0.0537109375,0.736328125,-21.3623046875,1.0986328125,1.77001953125,-0.1043701171875,38.770751953125,-168.3929443359375
1758787245.3934956,-0.62841796875,-0.0224609375,0.80810546875,-19.1650390625,0.0,2.0751953125,-0.2691650390625,38.7652587890625,-168.365478515625
1758787245.4038632,-0.62841796875,-0.0224609375,0.80810546875,-19.1650390625,0.0,2.0751953125,-0.4339599609375,38.7652587890625,-168.33251953125
1758787245.4135933,-0.626953125,-0.1201171875,0.82470703125,6.8359375,0.6103515625,1.40380859375,-0.3460693359375,38.7652587890625,-168.321533203125
1758787245.423607,-0.626953125,-0.1201171875,0.82470703125,6.8359375,0.6103515625,1.40380859375,-0.2691650390625,38.7652587890625,-168.310546875
1758787245.4335845,-0.6123046875,-0.08203125,0.71923828125,22.4609375,0.54931640625,-0.48828125,-0.0494384765625,38.7652587890625,-168.321533203125
1758787245.4436102,-0.6123046875,-0.08203125,0.71923828125,22.4609375,0.54931640625,-0.48828125,0.15380859375,38.7652587890625,-168.3380126953125
1758787245.4540398,-0.60302734375,0.01416015625,0.779296875,25.69580078125,0.91552734375,-1.0986328125,0.3900146484375,38.7762451171875,-168.365478515625
1758787245.463614,-0.60302734375,0.01416015625,0.779296875,25.69580078125,0.91552734375,-1.0986328125,0.6317138671875,38.78173828125,-168.387451171875
1758787245.4736078,-0.64599609375,0.0693359375,0.8525390625,19.47021484375,0.48828125,-1.0986328125,0.8074951171875,38.78173828125,-168.4149169921875
1758787245.4836733,-0.65380859375,0.0751953125,0.80615234375,5.4931640625,0.1220703125,-0.3662109375,0.9228515625,38.78173828125,-168.431396484375
1758787245.4937642,-0.65380859375,0.0751953125,0.80615234375,5.4931640625,0.1220703125,-0.3662109375,0.9722900390625,38.7762451171875,-168.4368896484375
1758787245.5037918,-0.603515625,0.06884765625,0.7890625,-3.23486328125,-0.91552734375,0.42724609375,0.9832763671875,38.770751953125,-168.4423828125
1758787245.5136356,-0.603515625,0.06884765625,0.7890625,-3.23486328125,-0.91552734375,0.42724609375,0.955810546875,38.7542724609375,-168.4368896484375
1758787245.52368,-0.63134765625,0.00732421875,0.771484375,-1.708984375,-1.5869140625,0.48828125,0.9393310546875,38.73779296875,-168.431396484375
1758787245.5337512,-0.63134765625,0.00732421875,0.771484375,-1.708984375,-1.5869140625,0.48828125,0.9283447265625,38.7213134765625,-168.4259033203125
1758787245.544215,-0.59814453125,-0.02099609375,0.7451171875,-7.99560546875,-1.8310546875,0.8544921875,0.8843994140625,38.6993408203125,-168.42041015625
1758787245.5538018,-0.59814453125,-0.02099609375,0.7451171875,-7.99560546875,-1.8310546875,0.8544921875,0.81298828125,38.682861328125,-168.4149169921875
1758787245.564199,-0.60205078125,0.02783203125,0.76611328125,-10.25390625,-2.685546875,1.77001953125,0.736083984375,38.6553955078125,-168.3984375
1758787245.5737686,-0.60205078125,0.02783203125,0.76611328125,-10.25390625,-2.685546875,1.77001953125,0.648193359375,38.6279296875,-168.3819580078125
1758787245.5838122,-0.64208984375,0.02099609375,0.77099609375,-10.009765625,-3.11279296875,1.953125,0.5657958984375,38.594970703125,-168.3544921875
1758787245.5941055,-0.64208984375,0.02099609375,0.77099609375,-10.009765625,-3.11279296875,1.953125,0.4833984375,38.5675048828125,-168.33251953125
1758787245.6038027,-0.63671875,-0.0634765625,0.828125,5.859375,-3.47900390625,1.40380859375,0.4779052734375,38.5345458984375,-168.310546875
1758787245.6137614,-0.63671875,-0.0634765625,0.828125,5.859375,-3.47900390625,1.40380859375,0.54931640625,38.49609375,-168.2940673828125
1758787245.6238253,-0.6220703125,-0.08349609375,0.74609375,23.25439453125,-3.60107421875,0.244140625,0.6976318359375,38.463134765625,-168.28857421875
1758787245.6347094,-0.6220703125,-0.08349609375,0.74609375,23.25439453125,-3.60107421875,0.244140625,0.9228515625,38.4246826171875,-168.2940673828125
1758787245.6439013,-0.59228515625,0.02099609375,0.70654296875,20.8740234375,-3.2958984375,-0.06103515625,1.131591796875,38.3917236328125,-168.3050537109375
1758787245.653872,-0.59228515625,0.02099609375,0.70654296875,20.8740234375,-3.2958984375,-0.06103515625,1.3238525390625,38.3642578125,-168.310546875
1758787245.663903,-0.642578125,0.078125,0.81787109375,19.71435546875,-3.72314453125,-0.18310546875,1.51611328125,38.331298828125,-168.3160400390625
1758787245.6738923,-0.642578125,0.078125,0.81787109375,19.71435546875,-3.72314453125,-0.18310546875,1.702880859375,38.29833984375,-168.321533203125
1758787245.684261,-0.66650390625,0.05126953125,0.8310546875,11.71875,-3.5400390625,0.18310546875,1.8511962890625,38.265380859375,-168.321533203125
1758787245.6938944,-0.66650390625,0.05126953125,0.8310546875,11.71875,-3.5400390625,0.18310546875,1.9610595703125,38.232421875,-168.321533203125
1758787245.7039425,-0.666015625,0.04052734375,0.77587890625,10.498046875,-4.2724609375,0.3662109375,2.0709228515625,38.1939697265625,-168.3160400390625
1758787245.7139914,-0.666015625,0.04052734375,0.77587890625,10.498046875,-4.2724609375,0.3662109375,2.1697998046875,38.155517578125,-168.310546875
1758787245.7243998,-0.640625,0.02685546875,0.75390625,10.986328125,-3.662109375,0.0,2.274169921875,38.12255859375,-168.3050537109375
1758787245.734081,-0.640625,0.02685546875,0.75390625,10.986328125,-3.662109375,0.0,2.3785400390625,38.0950927734375,-168.3050537109375
1758787245.7440488,-0.63427734375,0.07275390625,0.7509765625,-0.48828125,-3.41796875,0.42724609375,2.427978515625,38.067626953125,-168.2940673828125
1758787245.754066,-0.63427734375,0.07275390625,0.7509765625,-0.48828125,-3.41796875,0.42724609375,2.4224853515625,38.0401611328125,-168.2830810546875
1758787245.7640579,-0.61181640625,0.1083984375,0.7216796875,-12.63427734375,-2.13623046875,1.5869140625,2.362060546875,38.0181884765625,-168.2611083984375
1758787245.7743647,-0.61181640625,0.1083984375,0.7216796875,-12.63427734375,-2.13623046875,1.5869140625,2.252197265625,38.0072021484375,-168.2281494140625
1758787245.784029,-0.6083984375,0.08203125,0.751953125,-29.9072265625,-1.89208984375,2.8076171875,2.0654296875,37.9962158203125,-168.1842041015625
1758787245.794041,-0.6083984375,0.08203125,0.751953125,-29.9072265625,-1.89208984375,2.8076171875,1.7962646484375,37.9852294921875,-168.1292724609375
1758787245.8041165,-0.6748046875,0.0078125,0.814453125,-24.10888671875,-0.54931640625,2.99072265625,1.5655517578125,37.979736328125,-168.0743408203125
1758787245.814491,-0.6748046875,0.0078125,0.814453125,-24.10888671875,-0.54931640625,2.99072265625,1.3568115234375,37.9852294921875,-168.0194091796875
1758787245.824083,-0.6328125,-0.076171875,0.76611328125,-4.39453125,-0.54931640625,1.64794921875,1.2469482421875,37.99072265625,-167.9754638671875
1758787245.83414,-0.6328125,-0.076171875,0.76611328125,-4.39453125,-0.54931640625,1.64794921875,1.219482421875,37.99072265625,-167.93701171875
1758787245.8440924,-0.654296875,-0.03173828125,0.79296875,5.7373046875,-1.0986328125,0.8544921875,1.2359619140625,37.99072265625,-167.9150390625
1758787245.8544078,-0.654296875,-0.03173828125,0.79296875,5.7373046875,-1.0986328125,0.8544921875,1.3018798828125,37.99072265625,-167.89306640625
1758787245.8642101,-0.6845703125,0.0361328125,0.7802734375,12.26806640625,-1.46484375,0.42724609375,1.3897705078125,37.9852294921875,-167.8765869140625
1758787245.8741674,-0.6845703125,0.0361328125,0.7802734375,12.26806640625,-1.46484375,0.42724609375,1.51611328125,37.9852294921875,-167.8656005859375
1758787245.8842082,-0.6416015625,0.0458984375,0.74462890625,6.103515625,-1.5869140625,1.0986328125,1.6094970703125,37.979736328125,-167.8436279296875
1758787245.8941827,-0.6416015625,0.0458984375,0.74462890625,6.103515625,-1.5869140625,1.0986328125,1.6754150390625,37.9742431640625,-167.816162109375
1758787245.9046571,-0.5859375,0.03515625,0.78076171875,-7.8125,-1.708984375,1.77001953125,1.680908203125,37.96875,-167.7886962890625
1758787245.914197,-0.5859375,0.03515625,0.78076171875,-7.8125,-1.708984375,1.77001953125,1.614990234375,37.9632568359375,-167.7557373046875
1758787245.9242089,-0.5859375,0.03515625,0.78076171875,-4.150390625,-1.3427734375,1.3427734375,1.571044921875,37.957763671875,-167.7227783203125
1758787245.9341974,-0.60546875,0.048828125,0.787109375,-4.150390625,-1.3427734375,1.3427734375,1.5380859375,37.94677734375,-167.6953125
1758787245.9444811,-0.6201171875,0.0,0.8046875,-2.62451171875,-1.52587890625,0.9765625,1.51611328125,37.9412841796875,-167.67333984375
1758787245.9542744,-0.6201171875,0.0,0.8046875,-2.62451171875,-1.52587890625,0.9765625,1.4996337890625,37.9302978515625,-167.6513671875
1758787245.9643364,-0.6181640625,0.01025390625,0.80419921875,-2.13623046875,-1.5869140625,0.8544921875,1.483154296875,37.9193115234375,-167.6348876953125
1758787245.97427,-0.6181640625,0.01025390625,0.80419921875,-2.13623046875,-1.5869140625,0.8544921875,1.47216796875,37.9083251953125,-167.618408203125
1758787245.9847069,-0.60986328125,0.02978515625,0.759765625,0.0,-1.220703125,1.28173828125,1.4666748046875,37.8973388671875,-167.6019287109375
1758787245.9947972,-0.60986328125,0.02978515625,0.759765625,0.0,-1.220703125,1.28173828125,1.4776611328125,37.891845703125,-167.5799560546875
1758787246.0043786,-0.60888671875,0.05029296875,0.763671875,-6.9580078125,-0.79345703125,1.3427734375,1.4556884765625,37.8863525390625,-167.5579833984375
1758787246.0143056,-0.60888671875,0.05029296875,0.763671875,-6.9580078125,-0.79345703125,1.3427734375,1.4007568359375,37.880859375,-167.530517578125
1758787246.0243657,-0.60888671875,0.04638671875,0.77392578125,-9.765625,-0.244140625,1.46484375,1.329345703125,37.880859375,-167.508544921875
1758787246.0343888,-0.60888671875,0.04638671875,0.77392578125,-9.765625,-0.244140625,1.46484375,1.25244140625,37.880859375,-167.4755859375
1758787246.044371,-0.6181640625,0.04833984375,0.80419921875,-13.48876953125,0.0,1.77001953125,1.153564453125,37.880859375,-167.4481201171875
1758787246.0544372,-0.6181640625,0.04833984375,0.80419921875,-13.48876953125,0.0,1.77001953125,1.0382080078125,37.8863525390625,-167.4151611328125
1758787246.0644398,-0.576171875,0.01904296875,0.82177734375,-8.97216796875,0.0,1.15966796875,0.9503173828125,37.8863525390625,-167.3876953125
1758787246.0746858,-0.576171875,0.01904296875,0.82177734375,-8.97216796875,0.0,1.15966796875,0.87890625,37.8863525390625,-167.36572265625
1758787246.084725,-0.6025390625,-0.02978515625,0.8193359375,-5.859375,0.244140625,0.6103515625,0.8184814453125,37.8863525390625,-167.3492431640625
1758787246.0944176,-0.6025390625,-0.02978515625,0.8193359375,-5.859375,0.244140625,0.6103515625,0.76904296875,37.8863525390625,-167.3382568359375
1758787246.104487,-0.57958984375,-0.0107421875,0.8037109375,-5.0048828125,0.42724609375,0.54931640625,0.72509765625,37.8863525390625,-167.3272705078125
1758787246.1144443,-0.57958984375,-0.0107421875,0.8037109375,-5.0048828125,0.42724609375,0.54931640625,0.68115234375,37.8863525390625,-167.32177734375
1758787246.1247823,-0.57080078125,0.0126953125,0.76806640625,2.99072265625,0.48828125,0.42724609375,0.6756591796875,37.8863525390625,-167.32177734375
1758787246.1345644,-0.57080078125,0.0126953125,0.76806640625,2.99072265625,0.48828125,0.42724609375,0.714111328125,37.8863525390625,-167.3162841796875
1758787246.1444762,-0.6015625,0.0341796875,0.841796875,-0.06103515625,0.0,0.3662109375,0.7305908203125,37.8863525390625,-167.3162841796875
1758787246.1545997,-0.6015625,0.0341796875,0.841796875,-0.06103515625,0.0,0.3662109375,0.736083984375,37.880859375,-167.310791015625
1758787246.1646442,-0.5947265625,0.08447265625,0.818359375,-11.3525390625,0.18310546875,0.67138671875,0.6866455078125,37.8753662109375,-167.310791015625
1758787246.1747632,-0.5947265625,0.08447265625,0.818359375,-11.3525390625,0.18310546875,0.67138671875,0.5877685546875,37.869873046875,-167.2998046875
1758787246.184618,-0.58203125,0.05224609375,0.78564453125,-21.97265625,-0.54931640625,1.28173828125,0.439453125,37.85888671875,-167.288818359375
1758787246.1946054,-0.58203125,0.05224609375,0.78564453125,-21.97265625,-0.54931640625,1.28173828125,0.24169921875,37.847900390625,-167.266845703125
1758787246.2046344,-0.59228515625,-0.00146484375,0.853515625,-26.18408203125,-1.3427734375,1.3427734375,0.02197265625,37.825927734375,-167.244873046875
1758787246.2149167,-0.59228515625,-0.00146484375,0.853515625,-26.18408203125,-1.3427734375,1.3427734375,-0.208740234375,37.803955078125,-167.2283935546875
1758787246.2247238,-0.5556640625,-0.04638671875,0.77685546875,-16.7236328125,-1.0986328125,1.708984375,-0.3955078125,37.781982421875,-167.2064208984375
1758787246.2346034,-0.5556640625,-0.04638671875,0.77685546875,-16.7236328125,-1.0986328125,1.708984375,-0.538330078125,37.7655029296875,-167.1844482421875
1758787246.2446234,-0.5751953125,-0.0751953125,0.8232421875,-0.42724609375,-2.25830078125,0.732421875,-0.604248046875,37.738037109375,-167.1734619140625
1758787246.254636,-0.5751953125,-0.0751953125,0.8232421875,-0.42724609375,-2.25830078125,0.732421875,-0.5987548828125,37.705078125,-167.16796875
1758787246.2648032,-0.5859375,-0.05908203125,0.8369140625,9.765625,-1.46484375,0.1220703125,-0.54931640625,37.6776123046875,-167.1734619140625
1758787246.2747223,-0.5859375,-0.05908203125,0.8369140625,9.765625,-1.46484375,0.1220703125,-0.450439453125,37.650146484375,-167.178955078125
1758787246.2847228,-0.544921875,0.00048828125,0.74072265625,11.53564453125,-1.64794921875,-0.18310546875,-0.3460693359375,37.6226806640625,-167.1954345703125
1758787246.2947052,-0.544921875,0.00048828125,0.74072265625,11.53564453125,-1.64794921875,-0.18310546875,-0.2362060546875,37.59521484375,-167.2064208984375
1758787246.304912,-0.580078125,0.02978515625,0.8330078125,8.48388671875,-1.5869140625,-0.42724609375,-0.142822265625,37.5677490234375,-167.222900390625
