timestamp,acc_x,acc_y,acc_z,gyro_x,gyro_y,gyro_z,angle_x,angle_y,angle_z
1758876726.8844314,-0.76318359375,-0.12744140625,0.66650390625,-5.79833984375,-0.79345703125,-2.38037109375,-5.51513671875,48.9605712890625,-4.9713134765625
1758876726.8932052,-0.75537109375,-0.1201171875,0.6494140625,3.23486328125,-0.3662109375,-1.220703125,-5.5535888671875,48.955078125,-4.998779296875
1758876726.9071403,-0.75537109375,-0.1201171875,0.6494140625,3.23486328125,-0.3662109375,-1.220703125,-5.5426025390625,48.955078125,-5.020751953125
1758876726.922252,-0.7734375,-0.0625,0.63916015625,4.638671875,0.244140625,-0.732421875,-5.526123046875,48.9495849609375,-5.0372314453125
1758876726.9349327,-0.7734375,-0.0625,0.63916015625,4.638671875,0.244140625,-0.732421875,-5.4931640625,48.955078125,-5.0537109375
1758876726.9442735,-0.75732421875,-0.05029296875,0.64013671875,2.74658203125,1.03759765625,-0.91552734375,-5.4766845703125,48.966064453125,-5.0701904296875
1758876726.9533587,-0.75732421875,-0.05029296875,0.64013671875,2.74658203125,1.03759765625,-0.91552734375,-5.4656982421875,48.97705078125,-5.086669921875
1758876726.9628792,-0.7470703125,-0.06689453125,0.66162109375,-0.42724609375,1.3427734375,-1.15966796875,-5.47119140625,48.988037109375,-5.1031494140625
1758876726.9697285,-0.7470703125,-0.06689453125,0.66162109375,-0.42724609375,1.3427734375,-1.15966796875,-5.4986572265625,49.0045166015625,-5.1251220703125
1758876726.97673,-0.75732421875,-0.07080078125,0.66845703125,0.0,1.89208984375,-1.5869140625,-5.5206298828125,49.02099609375,-5.1470947265625
1758876726.9830933,-0.75732421875,-0.07080078125,0.66845703125,0.0,1.89208984375,-1.5869140625,-5.548095703125,49.0374755859375,-5.174560546875
1758876726.990588,-0.75,-0.06689453125,0.63427734375,0.18310546875,2.13623046875,-1.8310546875,-5.570068359375,49.053955078125,-5.2020263671875
1758876727.000673,-0.75,-0.06689453125,0.63427734375,0.18310546875,2.13623046875,-1.8310546875,-5.5975341796875,49.075927734375,-5.2349853515625
1758876727.0107126,-0.75830078125,-0.08056640625,0.64892578125,-0.30517578125,3.0517578125,-1.0986328125,-5.6195068359375,49.097900390625,-5.2569580078125
1758876727.0207403,-0.75830078125,-0.08056640625,0.64892578125,-0.30517578125,3.0517578125,-1.0986328125,-5.6414794921875,49.130859375,-5.2789306640625
1758876727.0306473,-0.75732421875,-0.12353515625,0.671875,3.47900390625,4.8828125,0.244140625,-5.6414794921875,49.1693115234375,-5.2899169921875
1758876727.0406375,-0.75732421875,-0.12353515625,0.671875,3.47900390625,4.8828125,0.244140625,-5.6195068359375,49.21875,-5.29541015625
1758876727.0509062,-0.75146484375,-0.13525390625,0.6923828125,14.46533203125,5.126953125,0.91552734375,-5.537109375,49.2626953125,-5.29541015625
1758876727.061127,-0.75146484375,-0.13525390625,0.6923828125,14.46533203125,5.126953125,0.91552734375,-5.3997802734375,49.3121337890625,-5.2899169921875
1758876727.0706832,-0.767578125,-0.0859375,0.59912109375,23.86474609375,2.62451171875,-0.244140625,-5.2239990234375,49.3505859375,-5.29541015625
1758876727.080701,-0.767578125,-0.0859375,0.59912109375,23.86474609375,2.62451171875,-0.244140625,-5.009765625,49.37255859375,-5.3118896484375
1758876727.090705,-0.771484375,-0.0185546875,0.58935546875,26.91650390625,1.64794921875,-2.44140625,-4.7900390625,49.3890380859375,-5.3448486328125
1758876727.1006997,-0.771484375,-0.0185546875,0.58935546875,26.91650390625,1.64794921875,-2.44140625,-4.5703125,49.405517578125,-5.3887939453125
1758876727.1131947,-0.76025390625,-0.03369140625,0.6396484375,23.92578125,0.54931640625,-3.84521484375,-4.3670654296875,49.41650390625,-5.44921875
1758876727.120732,-0.76025390625,-0.03369140625,0.6396484375,23.92578125,0.54931640625,-3.84521484375,-4.185791015625,49.4219970703125,-5.51513671875
1758876727.1307666,-0.79638671875,-0.0078125,0.64892578125,13.3056640625,-0.1220703125,-3.35693359375,-4.053955078125,49.4219970703125,-5.5755615234375
1758876727.1407824,-0.79638671875,-0.0078125,0.64892578125,13.3056640625,-0.1220703125,-3.35693359375,-3.966064453125,49.4219970703125,-5.625
1758876727.150756,-0.75341796875,-0.03173828125,0.6171875,9.521484375,-0.42724609375,-3.41796875,-3.900146484375,49.4219970703125,-5.679931640625
1758876727.1607842,-0.75341796875,-0.03173828125,0.6171875,9.521484375,-0.42724609375,-3.41796875,-3.8507080078125,49.4219970703125,-5.73486328125
1758876727.1708322,-0.75732421875,-0.05712890625,0.62158203125,6.7138671875,-1.03759765625,-3.72314453125,-3.8177490234375,49.41650390625,-5.789794921875
1758876727.1808052,-0.75732421875,-0.05712890625,0.62158203125,6.7138671875,-1.03759765625,-3.72314453125,-3.7957763671875,49.405517578125,-5.8447265625
1758876727.1908092,-0.78271484375,-0.064453125,0.67333984375,6.2255859375,-1.28173828125,-4.08935546875,-3.790283203125,49.39453125,-5.91064453125
1758876727.2008312,-0.78271484375,-0.064453125,0.67333984375,6.2255859375,-1.28173828125,-4.08935546875,-3.779296875,49.383544921875,-5.9710693359375
1758876727.210828,-0.73583984375,-0.0537109375,0.640625,17.27294921875,-2.5634765625,-5.859375,-3.680419921875,49.3560791015625,-6.0589599609375
1758876727.2208521,-0.73583984375,-0.0537109375,0.640625,17.27294921875,-2.5634765625,-5.859375,-3.58154296875,49.3341064453125,-6.1468505859375
1758876727.2308688,-0.69873046875,-0.060546875,0.66943359375,26.67236328125,-3.23486328125,-6.89697265625,-3.4002685546875,49.295654296875,-6.251220703125
1758876727.2408714,-0.69873046875,-0.060546875,0.66943359375,26.67236328125,-3.23486328125,-6.89697265625,-3.2244873046875,49.2572021484375,-6.35009765625
1758876727.2508965,-0.71484375,-0.06201171875,0.7314453125,28.076171875,-3.5400390625,-7.38525390625,-3.0377197265625,49.21875,-6.4599609375
1758876727.2609012,-0.71484375,-0.06201171875,0.7314453125,28.076171875,-3.5400390625,-7.38525390625,-2.8509521484375,49.1748046875,-6.5643310546875
1758876727.2709157,-0.728515625,-0.08251953125,0.76220703125,38.6962890625,-4.5166015625,-7.6904296875,-2.5653076171875,49.1143798828125,-6.668701171875
1758876727.280945,-0.728515625,-0.08251953125,0.76220703125,38.6962890625,-4.5166015625,-7.6904296875,-2.28515625,49.0594482421875,-6.778564453125
1758876727.2909355,-0.72021484375,-0.1005859375,0.7705078125,61.03515625,-5.43212890625,-7.50732421875,-1.77978515625,48.988037109375,-6.8829345703125
1758876727.3009577,-0.72021484375,-0.1005859375,0.7705078125,61.03515625,-5.43212890625,-7.50732421875,-1.2799072265625,48.9166259765625,-6.9927978515625
1758876727.3109717,-0.6572265625,-0.14013671875,0.767578125,87.2802734375,-7.01904296875,-8.60595703125,-0.5328369140625,48.8287353515625,-7.1136474609375
1758876727.320988,-0.6572265625,-0.14013671875,0.767578125,87.2802734375,-7.01904296875,-8.60595703125,0.1922607421875,48.7353515625,-7.2454833984375
1758876727.3309932,-0.65087890625,-0.09716796875,0.7783203125,101.5625,-8.6669921875,-7.8125,1.0711669921875,48.6309814453125,-7.36083984375
1758876727.3409998,-0.65087890625,-0.09716796875,0.7783203125,101.5625,-8.6669921875,-7.8125,1.944580078125,48.5211181640625,-7.481689453125
1758876727.3510072,-0.63134765625,0.01123046875,0.83642578125,117.73681640625,-11.16943359375,-9.521484375,2.955322265625,48.3837890625,-7.6300048828125
1758876727.3610446,-0.63134765625,0.01123046875,0.83642578125,117.73681640625,-11.16943359375,-9.521484375,3.9605712890625,48.2464599609375,-7.7783203125
1758876727.371048,-0.64697265625,0.1142578125,0.86083984375,127.685546875,-12.63427734375,-8.9111328125,5.0701904296875,48.0926513671875,-7.9156494140625
1758876727.3810732,-0.64697265625,0.1142578125,0.86083984375,127.685546875,-12.63427734375,-8.9111328125,6.185302734375,47.9388427734375,-8.052978515625
1758876727.3911135,-0.708984375,0.19921875,0.77392578125,124.755859375,-14.09912109375,-10.7421875,7.2454833984375,47.7740478515625,-8.2177734375
1758876727.4010937,-0.708984375,0.19921875,0.77392578125,124.755859375,-14.09912109375,-10.7421875,8.3056640625,47.61474609375,-8.382568359375
1758876727.411149,-0.6962890625,0.29150390625,0.75341796875,94.42138671875,-15.380859375,-6.65283203125,9.1131591796875,47.43896484375,-8.4869384765625
1758876727.4211671,-0.6962890625,0.29150390625,0.75341796875,94.42138671875,-15.380859375,-6.65283203125,9.9261474609375,47.26318359375,-8.59130859375
1758876727.4312465,-0.64013671875,0.275390625,0.60693359375,49.072265625,-16.4794921875,-6.28662109375,10.294189453125,47.0819091796875,-8.6956787109375
1758876727.441192,-0.64013671875,0.275390625,0.60693359375,49.072265625,-16.4794921875,-6.28662109375,10.667724609375,46.9061279296875,-8.7945556640625
1758876727.4512339,-0.6796875,0.1826171875,0.72119140625,-35.94970703125,-14.7705078125,-6.65283203125,10.2008056640625,46.746826171875,-8.887939453125
1758876727.4612825,-0.6796875,0.1826171875,0.72119140625,-35.94970703125,-14.7705078125,-6.65283203125,9.7393798828125,46.5875244140625,-8.98681640625
1758876727.471265,-0.40234375,0.17724609375,0.3291015625,-79.2236328125,-12.26806640625,-2.01416015625,8.909912109375,46.4447021484375,-9.0032958984375
1758876727.4815855,-0.40234375,0.17724609375,0.3291015625,-79.2236328125,-12.26806640625,-2.01416015625,8.096923828125,46.307373046875,-9.019775390625
1758876727.4914002,-0.40234375,0.17724609375,0.3291015625,-65.7958984375,-8.7890625,-8.48388671875,7.36083984375,46.219482421875,-9.11865234375
1758876727.5014062,-0.611328125,0.05859375,0.4990234375,-65.7958984375,-8.7890625,-8.48388671875,6.624755859375,46.131591796875,-9.2230224609375
1758876727.5112834,-0.611328125,0.05859375,0.4990234375,-78.0029296875,-13.24462890625,-8.4228515625,5.767822265625,45.999755859375,-9.3328857421875
1758876727.5217638,-1.17919921875,0.09765625,1.1826171875,-78.0029296875,-13.24462890625,-8.4228515625,4.910888671875,45.867919921875,-9.4482421875
1758876727.5320406,-0.85107421875,0.0009765625,0.79931640625,-69.3359375,-12.6953125,-2.3193359375,4.2022705078125,45.7415771484375,-9.47021484375
1758876727.5413616,-0.85107421875,0.0009765625,0.79931640625,-69.3359375,-12.6953125,-2.3193359375,3.4991455078125,45.6097412109375,-9.4976806640625
1758876727.551338,-0.6318359375,-0.0205078125,0.42578125,-58.65478515625,-12.0849609375,-1.77001953125,2.911376953125,45.494384765625,-9.51416015625
1758876727.5614085,-0.6318359375,-0.0205078125,0.42578125,-58.65478515625,-12.0849609375,-1.77001953125,2.318115234375,45.3790283203125,-9.5416259765625
1758876727.5717256,-0.66943359375,0.0283203125,0.43408203125,-60.9130859375,-7.38525390625,-3.173828125,1.6973876953125,45.318603515625,-9.580078125
1758876727.5815077,-0.66943359375,0.0283203125,0.43408203125,-60.9130859375,-7.38525390625,-3.173828125,1.0821533203125,45.263671875,-9.6240234375
1758876727.5913916,-0.78271484375,0.02099609375,0.59765625,-43.15185546875,-4.94384765625,-2.86865234375,0.648193359375,45.230712890625,-9.66796875
1758876727.6016479,-0.78271484375,0.02099609375,0.59765625,-43.15185546875,-4.94384765625,-2.86865234375,0.2142333984375,45.2032470703125,-9.7064208984375
1758876727.6119964,-0.875,-0.03369140625,0.78271484375,-36.62109375,-5.615234375,-0.244140625,-0.120849609375,45.1702880859375,-9.7119140625
1758876727.6217616,-0.875,-0.03369140625,0.78271484375,-36.62109375,-5.615234375,-0.244140625,-0.4669189453125,45.1373291015625,-9.7174072265625
1758876727.6314585,-0.79345703125,-0.0537109375,0.6669921875,-44.98291015625,-5.18798828125,2.9296875,-0.867919921875,45.10986328125,-9.678955078125
1758876727.641459,-0.79345703125,-0.0537109375,0.6669921875,-44.98291015625,-5.18798828125,2.9296875,-1.2689208984375,45.0823974609375,-9.64599609375
1758876727.6519651,-0.7685546875,-0.02685546875,0.60205078125,-48.76708984375,-6.2255859375,4.94384765625,-1.6864013671875,45.0494384765625,-9.580078125
1758876727.6617086,-0.7685546875,-0.02685546875,0.60205078125,-48.76708984375,-6.2255859375,4.94384765625,-2.1038818359375,45.0164794921875,-9.5196533203125
1758876727.6714745,-0.77099609375,-0.017578125,0.60986328125,-43.9453125,-5.4931640625,6.04248046875,-2.4609375,44.989013671875,-9.4427490234375
1758876727.6814792,-0.77099609375,-0.017578125,0.60986328125,-43.9453125,-5.4931640625,6.04248046875,-2.8179931640625,44.967041015625,-9.3658447265625
1758876727.6920676,-0.73486328125,-0.01904296875,0.6181640625,-49.1943359375,-4.69970703125,7.62939453125,-3.2080078125,44.9560546875,-9.2669677734375
1758876727.7016447,-0.73486328125,-0.01904296875,0.6181640625,-49.1943359375,-4.69970703125,7.62939453125,-3.5980224609375,44.945068359375,-9.1680908203125
1758876727.7115963,-0.7255859375,-0.0263671875,0.6689453125,-64.14794921875,-4.21142578125,9.27734375,-4.1253662109375,44.9395751953125,-9.041748046875
1758876727.721648,-0.7255859375,-0.0263671875,0.6689453125,-64.14794921875,-4.21142578125,9.27734375,-4.6417236328125,44.9285888671875,-8.9154052734375
1758876727.73206,-0.72998046875,-0.03857421875,0.72412109375,-71.35009765625,-3.96728515625,9.94873046875,-5.2294921875,44.923095703125,-8.778076171875
1758876727.741722,-0.72998046875,-0.03857421875,0.72412109375,-71.35009765625,-3.96728515625,9.94873046875,-5.811767578125,44.9176025390625,-8.63525390625
1758876727.7519763,-0.68896484375,-0.10107421875,0.69189453125,-57.7392578125,-3.23486328125,10.31494140625,-6.2567138671875,44.9176025390625,-8.4869384765625
1758876727.761641,-0.68896484375,-0.10107421875,0.69189453125,-57.7392578125,-3.23486328125,10.31494140625,-6.70166015625,44.9176025390625,-8.3441162109375
1758876727.7721238,-0.642578125,-0.17333984375,0.611328125,-39.48974609375,-2.0751953125,8.97216796875,-6.9818115234375,44.923095703125,-8.2232666015625
1758876727.7816648,-0.642578125,-0.17333984375,0.611328125,-39.48974609375,-2.0751953125,8.97216796875,-7.2674560546875,44.9285888671875,-8.1024169921875
1758876727.7916594,-0.63623046875,-0.17578125,0.60546875,-11.3525390625,-0.3662109375,6.89697265625,-7.305908203125,44.9505615234375,-8.02001953125
1758876727.8016586,-0.63623046875,-0.17578125,0.60546875,-11.3525390625,-0.3662109375,6.89697265625,-7.3443603515625,44.967041015625,-7.9376220703125
1758876727.8118591,-0.6572265625,-0.20166015625,0.68505859375,24.658203125,1.3427734375,5.2490234375,-7.0477294921875,45.0,-7.8826904296875
1758876727.8217285,-0.6572265625,-0.20166015625,0.68505859375,24.658203125,1.3427734375,5.2490234375,-6.7620849609375,45.032958984375,-7.833251953125
1758876727.831731,-0.65771484375,-0.18994140625,0.71435546875,43.212890625,1.64794921875,4.08935546875,-6.30615234375,45.0604248046875,-7.8057861328125
1758876727.8417003,-0.65771484375,-0.18994140625,0.71435546875,43.212890625,1.64794921875,4.08935546875,-5.855712890625,45.0823974609375,-7.7728271484375
1758876727.851841,-0.689453125,-0.11181640625,0.7177734375,41.3818359375,1.708984375,2.8076171875,-5.4437255859375,45.1043701171875,-7.75634765625
1758876727.861757,-0.689453125,-0.11181640625,0.7177734375,41.3818359375,1.708984375,2.8076171875,-5.03173828125,45.1263427734375,-7.745361328125
1758876727.8717425,-0.82568359375,0.00634765625,0.69287109375,12.0849609375,1.0986328125,1.89208984375,-4.9163818359375,45.142822265625,-7.7398681640625
1758876727.8817625,-0.82568359375,0.00634765625,0.69287109375,12.0849609375,1.0986328125,1.89208984375,-4.7955322265625,45.1593017578125,-7.734375
1758876727.8921762,-1.1064453125,0.1796875,0.80029296875,-29.60205078125,-1.77001953125,3.60107421875,-5.0592041015625,45.1593017578125,-7.6959228515625
1758876727.9017687,-1.1064453125,0.1796875,0.80029296875,-29.60205078125,-1.77001953125,3.60107421875,-5.3118896484375,45.164794921875,-7.657470703125
1758876727.9118097,-0.99072265625,0.083984375,0.5146484375,-57.31201171875,-2.50244140625,5.79833984375,-5.8062744140625,45.1702880859375,-7.58056640625
1758876727.921962,-0.99072265625,0.083984375,0.5146484375,-57.31201171875,-2.50244140625,5.79833984375,-6.2896728515625,45.1812744140625,-7.503662109375
1758876727.9322157,-0.80712890625,-0.13916015625,0.3779296875,-62.98828125,-2.01416015625,6.7138671875,-6.8280029296875,45.208740234375,-7.4267578125
1758876727.9421299,-0.80712890625,-0.13916015625,0.3779296875,-62.98828125,-2.01416015625,6.7138671875,-7.3663330078125,45.2471923828125,-7.349853515625
1758876727.9519174,-0.7314453125,-0.23486328125,0.42138671875,-39.00146484375,0.54931640625,5.18798828125,-7.6849365234375,45.3076171875,-7.31689453125
1758876727.9620197,-0.7314453125,-0.23486328125,0.42138671875,-39.00146484375,0.54931640625,5.18798828125,-8.0145263671875,45.3680419921875,-7.2894287109375
1758876727.9721682,-0.7470703125,-0.2626953125,0.6171875,0.3662109375,1.52587890625,4.0283203125,-7.97607421875,45.439453125,-7.283935546875
1758876727.9825253,-0.7470703125,-0.2626953125,0.6171875,0.3662109375,1.52587890625,4.0283203125,-7.9376220703125,45.5108642578125,-7.283935546875
1758876727.991959,-0.72705078125,-0.189453125,0.6982421875,30.45654296875,2.62451171875,3.90625,-7.613525390625,45.582275390625,-7.283935546875
1758876728.0024636,-0.72705078125,-0.189453125,0.6982421875,30.45654296875,2.62451171875,3.90625,-7.294921875,45.6536865234375,-7.2894287109375
1758876728.0120163,-0.6826171875,-0.07861328125,0.7861328125,29.296875,1.64794921875,4.57763671875,-6.976318359375,45.7086181640625,-7.27294921875
1758876728.021974,-0.6826171875,-0.07861328125,0.7861328125,29.296875,1.64794921875,4.57763671875,-6.65771484375,45.7525634765625,-7.2509765625
1758876728.0322082,-0.65185546875,0.060546875,0.84033203125,-6.04248046875,0.244140625,5.7373046875,-6.6741943359375,45.780029296875,-7.2015380859375
1758876728.0422254,-0.65185546875,0.060546875,0.84033203125,-6.04248046875,0.244140625,5.7373046875,-6.6796875,45.802001953125,-7.1356201171875
1758876728.0521245,-0.6533203125,0.0341796875,0.8173828125,-29.84619140625,-0.1220703125,5.615234375,-6.9158935546875,45.81298828125,-7.0587158203125
1758876728.0620065,-0.6533203125,0.0341796875,0.8173828125,-29.84619140625,-0.1220703125,5.615234375,-7.1466064453125,45.8184814453125,-6.976318359375
1758876728.0721192,-0.6591796875,-0.09326171875,0.74267578125,-33.3251953125,-0.6103515625,4.45556640625,-7.4212646484375,45.8184814453125,-6.910400390625
1758876728.0825934,-0.6591796875,-0.09326171875,0.74267578125,-33.3251953125,-0.6103515625,4.45556640625,-7.6959228515625,45.81298828125,-6.8389892578125
1758876728.0920923,-0.693359375,-0.146484375,0.74658203125,-34.72900390625,-0.9765625,3.84521484375,-7.987060546875,45.802001953125,-6.7730712890625
1758876728.1020775,-0.693359375,-0.146484375,0.74658203125,-34.72900390625,-0.9765625,3.84521484375,-8.28369140625,45.791015625,-6.712646484375
1758876728.1125906,-0.72802734375,-0.12890625,0.7177734375,-32.1044921875,-0.67138671875,2.99072265625,-8.5638427734375,45.7855224609375,-6.6632080078125
1758876728.1220894,-0.72802734375,-0.12890625,0.7177734375,-32.1044921875,-0.67138671875,2.99072265625,-8.843994140625,45.7745361328125,-6.61376953125
1758876728.1321359,-0.77685546875,-0.1328125,0.66162109375,-15.19775390625,-0.67138671875,2.38037109375,-8.96484375,45.7635498046875,-6.580810546875
1758876728.1420774,-0.77685546875,-0.1328125,0.66162109375,-15.19775390625,-0.67138671875,2.38037109375,-9.0802001953125,45.758056640625,-6.5478515625
1758876728.152594,-0.771484375,-0.1884765625,0.5576171875,15.5029296875,-0.54931640625,1.3427734375,-8.909912109375,45.758056640625,-6.5313720703125
1758876728.162334,-0.771484375,-0.1884765625,0.5576171875,15.5029296875,-0.54931640625,1.3427734375,-8.7451171875,45.758056640625,-6.5313720703125
1758876728.1721725,-0.77490234375,-0.22900390625,0.541015625,52.001953125,0.1220703125,0.42724609375,-8.2342529296875,45.7745361328125,-6.5478515625
1758876728.1822443,-0.77490234375,-0.22900390625,0.541015625,52.001953125,0.1220703125,0.42724609375,-7.7288818359375,45.7855224609375,-6.5753173828125
1758876728.1925297,-0.751953125,-0.21630859375,0.55517578125,89.111328125,1.46484375,-0.42724609375,-6.87744140625,45.8184814453125,-6.624755859375
1758876728.2021942,-0.77490234375,-0.17138671875,0.66064453125,125.8544921875,1.77001953125,-0.42724609375,-5.8447265625,45.8514404296875,-6.6796875
1758876728.2122731,-0.77490234375,-0.17138671875,0.66064453125,125.8544921875,1.77001953125,-0.42724609375,-4.6417236328125,45.8843994140625,-6.734619140625
1758876728.2226176,-0.7294921875,-0.021484375,0.755859375,130.55419921875,2.62451171875,-0.06103515625,-3.4112548828125,45.9283447265625,-6.7950439453125
1758876728.2324562,-0.7294921875,-0.021484375,0.755859375,130.55419921875,2.62451171875,-0.06103515625,-2.164306640625,45.966796875,-6.844482421875
1758876728.242178,-0.6845703125,0.06982421875,0.7001953125,124.755859375,1.40380859375,0.3662109375,-0.9393310546875,45.999755859375,-6.8829345703125
1758876728.2523277,-0.6845703125,0.06982421875,0.7001953125,124.755859375,1.40380859375,0.3662109375,0.252685546875,46.0272216796875,-6.9158935546875
1758876728.2627764,-0.685546875,0.13916015625,0.7080078125,77.20947265625,1.77001953125,1.5869140625,1.2249755859375,46.0491943359375,-6.932373046875
1758876728.2724516,-0.685546875,0.13916015625,0.7080078125,77.20947265625,1.77001953125,1.5869140625,1.9720458984375,46.07666015625,-6.932373046875
1758876728.282261,-0.6826171875,0.17919921875,0.71044921875,22.27783203125,0.9765625,2.62451171875,2.4554443359375,46.0931396484375,-6.92138671875
1758876728.2923381,-0.6826171875,0.17919921875,0.71044921875,22.27783203125,0.9765625,2.62451171875,2.6806640625,46.1041259765625,-6.8939208984375
1758876728.3028474,-0.708984375,0.11279296875,0.72314453125,10.7421875,1.220703125,2.3193359375,2.8564453125,46.1151123046875,-6.866455078125
1758876728.31247,-0.708984375,0.11279296875,0.72314453125,10.7421875,1.220703125,2.3193359375,2.9718017578125,46.1260986328125,-6.83349609375
1758876728.3224282,-0.7197265625,-0.021484375,0.7548828125,26.18408203125,0.67138671875,1.708984375,3.1695556640625,46.131591796875,-6.8060302734375
1758876728.3327076,-0.7197265625,-0.021484375,0.7548828125,26.18408203125,0.67138671875,1.708984375,3.4332275390625,46.1370849609375,-6.7840576171875
1758876728.3423762,-0.71728515625,-0.046875,0.74267578125,39.55078125,-0.1220703125,1.03759765625,3.75732421875,46.131591796875,-6.7730712890625
1758876728.3524203,-0.71728515625,-0.046875,0.74267578125,39.55078125,-0.1220703125,1.03759765625,4.141845703125,46.1260986328125,-6.767578125
1758876728.362448,-0.71484375,0.0078125,0.74462890625,68.05419921875,-0.8544921875,-0.3662109375,4.6527099609375,46.1151123046875,-6.778564453125
1758876728.3725264,-0.71484375,0.0078125,0.74462890625,68.05419921875,-0.8544921875,-0.3662109375,5.29541015625,46.1041259765625,-6.800537109375
1758876728.3824732,-0.6953125,0.072265625,0.78955078125,92.8955078125,-1.708984375,-1.28173828125,6.0589599609375,46.087646484375,-6.8280029296875
1758876728.392475,-0.6953125,0.072265625,0.78955078125,92.8955078125,-1.708984375,-1.28173828125,6.932373046875,46.0601806640625,-6.8609619140625
1758876728.4025104,-0.68603515625,0.119140625,0.7333984375,78.9794921875,-2.74658203125,0.0,7.745361328125,46.0272216796875,-6.8829345703125
1758876728.412838,-0.68603515625,0.119140625,0.7333984375,78.9794921875,-2.74658203125,0.0,8.492431640625,45.98876953125,-6.8994140625
1758876728.4224205,-0.705078125,0.16162109375,0.59521484375,44.5556640625,-3.662109375,1.708984375,9.07470703125,45.94482421875,-6.9049072265625
1758876728.432666,-0.705078125,0.16162109375,0.59521484375,44.5556640625,-3.662109375,1.708984375,9.4976806640625,45.90087890625,-6.8994140625
1758876728.4430313,-0.7412109375,0.19287109375,0.55712890625,17.63916015625,-4.21142578125,1.8310546875,9.7943115234375,45.85693359375,-6.8939208984375
1758876728.4524815,-0.7412109375,0.19287109375,0.55712890625,17.63916015625,-4.21142578125,1.8310546875,9.9591064453125,45.81298828125,-6.8829345703125
1758876728.462594,-0.748046875,0.2197265625,0.56787109375,-8.85009765625,-3.0517578125,3.11279296875,10.0030517578125,45.7745361328125,-6.866455078125
1758876728.4733894,-0.748046875,0.2197265625,0.56787109375,-8.85009765625,-3.0517578125,3.11279296875,9.931640625,45.7470703125,-6.8389892578125
1758876728.48253,-0.72900390625,0.171875,0.541015625,-55.48095703125,-1.77001953125,5.06591796875,9.64599609375,45.72509765625,-6.78955078125
1758876728.4926782,-0.72900390625,0.171875,0.541015625,-55.48095703125,-1.77001953125,5.06591796875,9.1461181640625,45.7086181640625,-6.7236328125
1758876728.503119,-0.7265625,0.173828125,0.55078125,-96.6796875,-0.42724609375,5.79833984375,8.448486328125,45.7086181640625,-6.6522216796875
1758876728.512638,-0.7265625,0.173828125,0.55078125,-96.6796875,-0.42724609375,5.79833984375,7.55859375,45.714111328125,-6.56982421875
1758876728.5227497,-0.72705078125,0.1474609375,0.6337890625,-121.4599609375,0.244140625,6.40869140625,6.5643310546875,45.7196044921875,-6.48193359375
1758876728.5328193,-0.72705078125,0.1474609375,0.6337890625,-121.4599609375,0.244140625,6.40869140625,5.44921875,45.736083984375,-6.3885498046875
1758876728.5426693,-0.6953125,0.07080078125,0.66064453125,-147.705078125,0.91552734375,6.7138671875,4.2132568359375,45.7525634765625,-6.2841796875
1758876728.5526514,-0.6953125,0.07080078125,0.66064453125,-147.705078125,0.91552734375,6.7138671875,2.8509521484375,45.7745361328125,-6.1798095703125
1758876728.563131,-0.70263671875,-0.0078125,0.70703125,-165.1611328125,1.15966796875,7.14111328125,1.4117431640625,45.7965087890625,-6.0699462890625
1758876728.5727375,-0.70263671875,-0.0078125,0.70703125,-165.1611328125,1.15966796875,7.14111328125,-0.1043701171875,45.8184814453125,-5.95458984375
1758876728.5826287,-0.72802734375,-0.0810546875,0.82470703125,-150.146484375,0.0,6.8359375,-1.5545654296875,45.8404541015625,-5.8392333984375
1758876728.5927582,-0.72802734375,-0.0810546875,0.82470703125,-150.146484375,0.0,6.8359375,-2.933349609375,45.845947265625,-5.7293701171875
1758876728.6031413,-0.68994140625,-0.2060546875,0.9228515625,-84.8388671875,-1.220703125,5.2490234375,-3.9935302734375,45.8514404296875,-5.6304931640625
1758876728.6128218,-0.68994140625,-0.2060546875,0.9228515625,-84.8388671875,-1.220703125,5.2490234375,-4.74609375,45.8349609375,-5.5426025390625
1758876728.6227937,-0.6513671875,-0.23779296875,0.8935546875,-35.21728515625,-1.03759765625,5.126953125,-5.2569580078125,45.823974609375,-5.4547119140625
1758876728.6329334,-0.6513671875,-0.23779296875,0.8935546875,-35.21728515625,-1.03759765625,5.126953125,-5.526123046875,45.802001953125,-5.3668212890625
1758876728.6427758,-0.67626953125,-0.02685546875,0.72607421875,-48.76708984375,-1.77001953125,5.615234375,-5.8721923828125,45.7745361328125,-5.2789306640625
1758876728.6528418,-0.67626953125,-0.02685546875,0.72607421875,-48.76708984375,-1.77001953125,5.615234375,-6.273193359375,45.7470703125,-5.1800537109375
1758876728.6633303,-0.6982421875,0.08740234375,0.75927734375,-99.06005859375,-2.685546875,5.92041015625,-6.92138671875,45.714111328125,-5.07568359375
1758876728.6731153,-0.6982421875,0.08740234375,0.75927734375,-99.06005859375,-2.685546875,5.92041015625,-7.811279296875,45.68115234375,-4.9603271484375
1758876728.6831412,-0.66455078125,0.06591796875,0.85009765625,-132.6904296875,-5.06591796875,6.89697265625,-8.8494873046875,45.63720703125,-4.8284912109375
1758876728.6928484,-0.66455078125,0.06591796875,0.85009765625,-132.6904296875,-5.06591796875,6.89697265625,-10.0360107421875,45.582275390625,-4.68017578125
1758876728.7031872,-0.603515625,-0.08154296875,0.9267578125,-145.8740234375,-7.32421875,7.6904296875,-11.27197265625,45.5108642578125,-4.515380859375
1758876728.712811,-0.603515625,-0.08154296875,0.9267578125,-145.8740234375,-7.32421875,7.6904296875,-12.5628662109375,45.4339599609375,-4.3341064453125
1758876728.722923,-0.51513671875,-0.1689453125,0.84716796875,-156.31103515625,-8.85009765625,8.85009765625,-13.8922119140625,45.3460693359375,-4.1363525390625
1758876728.7333202,-0.51513671875,-0.1689453125,0.84716796875,-156.31103515625,-8.85009765625,8.85009765625,-15.260009765625,45.2471923828125,-3.922119140625
1758876728.7428563,-0.60400390625,-0.33056640625,0.92431640625,-168.15185546875,-13.3056640625,9.27734375,-16.67724609375,45.1318359375,-3.69140625
1758876728.752946,-0.60400390625,-0.33056640625,0.92431640625,-168.15185546875,-13.3056640625,9.27734375,-18.1494140625,44.9945068359375,-3.4442138671875
1758876728.763356,-0.4970703125,-0.47900390625,0.8798828125,-135.009765625,-11.65771484375,4.638671875,-19.478759765625,44.857177734375,-3.2354736328125
1758876728.7729504,-0.4970703125,-0.47900390625,0.8798828125,-135.009765625,-11.65771484375,4.638671875,-20.6707763671875,44.71435546875,-3.05419921875
1758876728.7828941,-0.484375,-0.201171875,0.599609375,-66.2841796875,-14.16015625,5.79833984375,-21.51123046875,44.5660400390625,-2.8619384765625
1758876728.7930164,-0.484375,-0.201171875,0.599609375,-66.2841796875,-14.16015625,5.79833984375,-22.0001220703125,44.40673828125,-2.6531982421875
1758876728.8033457,-0.42236328125,-0.23828125,0.5458984375,17.822265625,-9.6435546875,2.197265625,-22.093505859375,44.263916015625,-2.48291015625
1758876728.812944,-0.42236328125,-0.23828125,0.5458984375,17.822265625,-9.6435546875,2.197265625,-21.8023681640625,44.132080078125,-2.3455810546875
1758876728.823145,-0.42919921875,-0.36865234375,0.595703125,89.90478515625,-7.26318359375,2.3193359375,-21.15966796875,44.0167236328125,-2.2247314453125
1758876728.8333783,-0.42919921875,-0.36865234375,0.595703125,89.90478515625,-7.26318359375,2.3193359375,-20.181884765625,43.9068603515625,-2.1148681640625
1758876728.843067,-0.529296875,-0.5947265625,0.85546875,134.46044921875,-2.99072265625,-1.708984375,-19.0283203125,43.8079833984375,-2.0489501953125
1758876728.8530633,-0.529296875,-0.5947265625,0.85546875,134.46044921875,-2.99072265625,-1.708984375,-17.6934814453125,43.7200927734375,-2.0269775390625
1758876728.8631213,-0.3740234375,-0.47265625,0.46923828125,155.09033203125,2.0751953125,-4.150390625,-16.3037109375,43.6431884765625,-2.0379638671875
1758876728.8734245,-0.3740234375,-0.47265625,0.46923828125,155.09033203125,2.0751953125,-4.150390625,-14.8480224609375,43.59375,-2.08740234375
1758876728.8830822,-0.41455078125,-0.27685546875,0.2880859375,148.25439453125,8.60595703125,-5.31005859375,-13.458251953125,43.57177734375,-2.164306640625
1758876728.8930745,-0.41455078125,-0.27685546875,0.2880859375,148.25439453125,8.60595703125,-5.31005859375,-12.1343994140625,43.5882568359375,-2.274169921875
1758876728.9031098,-0.7421875,-0.13916015625,0.4404296875,137.39013671875,10.7421875,-4.08935546875,-10.865478515625,43.626708984375,-2.3895263671875
1758876728.9135525,-0.7421875,-0.13916015625,0.4404296875,137.39013671875,10.7421875,-4.08935546875,-9.6514892578125,43.6981201171875,-2.5103759765625
1758876728.9231415,-1.24267578125,-0.10595703125,1.72802734375,233.154296875,1.40380859375,-9.46044921875,-7.97607421875,43.7255859375,-2.6641845703125
1758876728.933242,-1.24267578125,-0.10595703125,1.72802734375,233.154296875,1.40380859375,-9.46044921875,-5.82275390625,43.6981201171875,-2.823486328125
1758876728.9431283,-1.12548828125,-0.10791015625,1.12353515625,216.61376953125,-2.5634765625,-9.1552734375,-3.7408447265625,43.6541748046875,-2.96630859375
1758876728.9532375,-1.12548828125,-0.10791015625,1.12353515625,216.61376953125,-2.5634765625,-9.1552734375,-1.7413330078125,43.604736328125,-3.1146240234375
1758876728.9631193,-0.80712890625,0.3125,0.63916015625,85.14404296875,-8.85009765625,-8.544921875,-0.4010009765625,43.5333251953125,-3.262939453125
1758876728.9731371,-0.80712890625,0.3125,0.63916015625,85.14404296875,-8.85009765625,-8.544921875,0.296630859375,43.4344482421875,-3.40576171875
1758876728.9831216,-0.7333984375,0.28125,0.3662109375,-54.443359375,-8.544921875,-4.7607421875,0.3350830078125,43.3465576171875,-3.515625
1758876728.9940434,-0.7333984375,0.28125,0.3662109375,-54.443359375,-8.544921875,-4.7607421875,-0.2801513671875,43.2696533203125,-3.603515625
1758876729.0031493,-0.74658203125,0.16455078125,0.30126953125,-90.576171875,-6.2255859375,-0.18310546875,-1.043701171875,43.2147216796875,-3.6529541015625
1758876729.0131383,-0.74658203125,0.16455078125,0.30126953125,-90.576171875,-6.2255859375,-0.18310546875,-1.944580078125,43.1817626953125,-3.6749267578125
1758876729.0234528,-0.8798828125,-0.07177734375,0.455078125,-29.9072265625,-5.126953125,2.44140625,-2.52685546875,43.1597900390625,-3.6859130859375
1758876729.03381,-0.8798828125,-0.07177734375,0.455078125,-29.9072265625,-5.126953125,2.44140625,-2.79052734375,43.154296875,-3.680419921875
1758876729.0431871,-0.8095703125,-0.24609375,0.55517578125,37.78076171875,-5.0048828125,1.708984375,-2.724609375,43.1597900390625,-3.69140625
1758876729.0531638,-0.8095703125,-0.24609375,0.55517578125,37.78076171875,-5.0048828125,1.708984375,-2.3291015625,43.1597900390625,-3.7188720703125
1758876729.0631707,-0.7294921875,-0.22998046875,0.49462890625,70.00732421875,-2.685546875,0.06103515625,-1.8017578125,43.1817626953125,-3.768310546875
1758876729.073698,-0.7294921875,-0.22998046875,0.49462890625,70.00732421875,-2.685546875,0.06103515625,-1.1260986328125,43.209228515625,-3.8397216796875
1758876729.083252,-0.70458984375,-0.18603515625,0.50830078125,68.115234375,-1.15966796875,0.1220703125,-0.472412109375,43.253173828125,-3.9166259765625
1758876729.0932527,-0.70458984375,-0.18603515625,0.50830078125,68.115234375,-1.15966796875,0.1220703125,0.1593017578125,43.3026123046875,-4.0045166015625
1758876729.1034214,-0.70849609375,-0.08837890625,0.7119140625,72.08251953125,-0.30517578125,0.0,0.81298828125,43.3575439453125,-4.0924072265625
1758876729.113613,-0.70849609375,-0.08837890625,0.7119140625,72.08251953125,-0.30517578125,0.0,1.4776611328125,43.406982421875,-4.185791015625
1758876729.1233122,-0.68994140625,0.00244140625,0.73876953125,85.51025390625,0.67138671875,-0.3662109375,2.208251953125,43.4619140625,-4.273681640625
1758876729.1332898,-0.68994140625,0.00244140625,0.73876953125,85.51025390625,0.67138671875,-0.3662109375,3.0047607421875,43.5113525390625,-4.3560791015625
1758876729.1436784,-0.65966796875,0.07177734375,0.6748046875,83.740234375,1.0986328125,-0.3662109375,3.790283203125,43.5662841796875,-4.4329833984375
1758876729.153306,-0.65966796875,0.07177734375,0.6748046875,83.740234375,1.0986328125,-0.3662109375,4.5703125,43.6102294921875,-4.50439453125
1758876729.163284,-0.7333984375,0.263671875,0.8984375,38.51318359375,0.42724609375,0.244140625,5.130615234375,43.6541748046875,-4.5648193359375
1758876729.173315,-0.7333984375,0.263671875,0.8984375,38.51318359375,0.42724609375,0.244140625,5.4766845703125,43.681640625,-4.603271484375
1758876729.1837158,-0.7080078125,0.41015625,0.8564453125,-37.53662109375,0.06103515625,3.662109375,5.4766845703125,43.70361328125,-4.603271484375
1758876729.193314,-0.7080078125,0.41015625,0.8564453125,-37.53662109375,0.06103515625,3.662109375,5.130615234375,43.7091064453125,-4.5703125
1758876729.2033184,-0.625,0.31494140625,0.67041015625,-80.6884765625,-0.9765625,8.056640625,4.6087646484375,43.7091064453125,-4.4879150390625
1758876729.2137349,-0.625,0.31494140625,0.67041015625,-80.6884765625,-0.9765625,8.056640625,3.900146484375,43.6981201171875,-4.3670654296875
1758876729.2233727,-0.67578125,0.05078125,0.63330078125,-90.63720703125,-0.54931640625,9.82666015625,3.1201171875,43.6981201171875,-4.21875
1758876729.2333872,-0.67578125,0.05078125,0.63330078125,-90.63720703125,-0.54931640625,9.82666015625,2.3455810546875,43.692626953125,-4.0704345703125
1758876729.2433631,-0.7138671875,-0.1845703125,0.76611328125,-54.99267578125,-1.220703125,8.85009765625,1.9061279296875,43.6871337890625,-3.9495849609375
1758876729.2536392,-0.7138671875,-0.1845703125,0.76611328125,-54.99267578125,-1.220703125,8.85009765625,1.4556884765625,43.681640625,-3.8287353515625
1758876729.263497,-0.76220703125,-0.294921875,0.83056640625,1.0986328125,-1.52587890625,7.87353515625,1.5435791015625,43.6651611328125,-3.7353515625
1758876729.273513,-0.76220703125,-0.294921875,0.83056640625,1.0986328125,-1.52587890625,7.87353515625,1.614990234375,43.6541748046875,-3.6529541015625
1758876729.2839057,-0.671875,-0.19482421875,0.65087890625,36.0107421875,-1.40380859375,6.591796875,2.010498046875,43.6431884765625,-3.592529296875
1758876729.2935174,-0.671875,-0.19482421875,0.65087890625,36.0107421875,-1.40380859375,6.591796875,2.4005126953125,43.6376953125,-3.5430908203125
1758876729.3035526,-0.84912109375,-0.029296875,0.6298828125,61.70654296875,-0.9765625,6.4697265625,3.0377197265625,43.6322021484375,-3.4991455078125
1758876729.3138194,-0.84912109375,-0.029296875,0.6298828125,61.70654296875,-0.9765625,6.4697265625,3.6749267578125,43.6376953125,-3.4552001953125
1758876729.3238158,-0.826171875,0.07568359375,0.68896484375,87.09716796875,-0.9765625,5.7373046875,4.559326171875,43.6431884765625,-3.427734375
1758876729.3335195,-0.826171875,0.07568359375,0.68896484375,87.09716796875,-0.9765625,5.7373046875,5.4437255859375,43.6541748046875,-3.394775390625
1758876729.34356,-0.75830078125,0.09814453125,0.6396484375,80.50537109375,-0.48828125,5.06591796875,6.2567138671875,43.6651611328125,-3.372802734375
1758876729.353538,-0.75830078125,0.09814453125,0.6396484375,80.50537109375,-0.48828125,5.06591796875,7.0697021484375,43.681640625,-3.350830078125
1758876729.3641124,-0.7587890625,0.19775390625,0.65478515625,33.75244140625,0.0,6.2255859375,7.4322509765625,43.6981201171875,-3.306884765625
1758876729.3735225,-0.7587890625,0.19775390625,0.65478515625,33.75244140625,0.0,6.2255859375,7.80029296875,43.714599609375,-3.2574462890625
1758876729.383547,-0.7431640625,0.267578125,0.6865234375,6.34765625,0.54931640625,6.8359375,7.9156494140625,43.736572265625,-3.1915283203125
1758876729.3938017,-0.7431640625,0.267578125,0.6865234375,6.34765625,0.54931640625,6.8359375,8.031005859375,43.758544921875,-3.1201171875
1758876729.4040513,-0.73583984375,0.16015625,0.681640625,-0.30517578125,0.3662109375,7.6904296875,8.096923828125,43.76953125,-3.0377197265625
1758876729.4135683,-0.73583984375,0.16015625,0.681640625,-0.30517578125,0.3662109375,7.6904296875,8.1683349609375,43.7860107421875,-2.9498291015625
1758876729.423692,-0.7109375,0.06640625,0.6845703125,-3.0517578125,0.06103515625,8.11767578125,8.2122802734375,43.7969970703125,-2.8564453125
1758876729.433618,-0.7109375,0.06640625,0.6845703125,-3.0517578125,0.06103515625,8.11767578125,8.2562255859375,43.8079833984375,-2.7685546875
1758876729.4441438,-0.7021484375,0.0625,0.646484375,0.8544921875,-0.42724609375,7.26318359375,8.32763671875,43.8134765625,-2.691650390625
1758876729.453748,-0.7021484375,0.0625,0.646484375,0.8544921875,-0.42724609375,7.26318359375,8.3990478515625,43.8189697265625,-2.61474609375
1758876729.4636488,-0.6953125,0.08544921875,0.64892578125,13.671875,-0.54931640625,6.103515625,8.5858154296875,43.824462890625,-2.559814453125
1758876729.4738715,-0.6953125,0.08544921875,0.64892578125,13.671875,-0.54931640625,6.103515625,8.7725830078125,43.8299560546875,-2.4993896484375
1758876729.4841127,-0.69189453125,0.11767578125,0.70703125,20.93505859375,-0.67138671875,4.8828125,9.0142822265625,43.8299560546875,-2.4609375
1758876729.4939172,-0.69189453125,0.11767578125,0.70703125,20.93505859375,-0.67138671875,4.8828125,9.261474609375,43.83544921875,-2.4169921875
1758876729.5037029,-0.70703125,0.1513671875,0.73681640625,14.5263671875,-1.40380859375,4.2724609375,9.437255859375,43.8299560546875,-2.3785400390625
1758876729.5142393,-0.70703125,0.1513671875,0.73681640625,14.5263671875,-1.40380859375,4.2724609375,9.613037109375,43.8189697265625,-2.340087890625
1758876729.524172,-0.693359375,0.20458984375,0.74658203125,3.23486328125,-1.953125,3.2958984375,9.66796875,43.8079833984375,-2.3126220703125
1758876729.5338016,-0.693359375,0.20458984375,0.74658203125,3.23486328125,-1.953125,3.2958984375,9.7283935546875,43.79150390625,-2.2796630859375
1758876729.5437186,-0.66455078125,0.16796875,0.720703125,-8.23974609375,-2.25830078125,2.5634765625,9.6734619140625,43.76953125,-2.2576904296875
1758876729.5539913,-0.66455078125,0.16796875,0.720703125,-8.23974609375,-2.25830078125,2.5634765625,9.613037109375,43.74755859375,-2.230224609375
1758876729.564276,-0.66015625,0.15185546875,0.76611328125,-15.68603515625,-2.25830078125,1.46484375,9.4757080078125,43.7255859375,-2.2137451171875
1758876729.5737596,-0.66015625,0.15185546875,0.76611328125,-15.68603515625,-2.25830078125,1.46484375,9.3328857421875,43.70361328125,-2.197265625
1758876729.583792,-0.634765625,0.14306640625,0.78271484375,-16.78466796875,-2.13623046875,0.48828125,9.173583984375,43.681640625,-2.1917724609375
1758876729.5941303,-0.634765625,0.14306640625,0.78271484375,-16.78466796875,-2.13623046875,0.48828125,9.019775390625,43.6541748046875,-2.186279296875
1758876729.603937,-0.61279296875,0.1435546875,0.74462890625,-18.310546875,-1.89208984375,-0.6103515625,8.8385009765625,43.626708984375,-2.186279296875
1758876729.6138017,-0.61279296875,0.1435546875,0.74462890625,-18.310546875,-1.89208984375,-0.6103515625,8.6572265625,43.604736328125,-2.186279296875
1758876729.6238737,-0.59375,0.1328125,0.78564453125,-12.51220703125,-1.953125,-1.5869140625,8.525390625,43.5772705078125,-2.197265625
1758876729.633949,-0.59375,0.1328125,0.78564453125,-12.51220703125,-1.953125,-1.5869140625,8.3990478515625,43.5443115234375,-2.208251953125
1758876729.6438353,-0.58056640625,0.12890625,0.7919921875,-24.10888671875,-1.89208984375,-1.77001953125,8.15185546875,43.5113525390625,-2.2137451171875
1758876729.6538298,-0.58056640625,0.12890625,0.7919921875,-24.10888671875,-1.89208984375,-1.77001953125,7.9046630859375,43.472900390625,-2.21923828125
1758876729.6638591,-0.552734375,0.14306640625,0.77294921875,-34.72900390625,-1.708984375,-2.3193359375,7.547607421875,43.43994140625,-2.230224609375
1758876729.6741564,-0.552734375,0.14306640625,0.77294921875,-34.72900390625,-1.708984375,-2.3193359375,7.196044921875,43.4014892578125,-2.2357177734375
1758876729.684173,-0.525390625,0.119140625,0.74365234375,-34.85107421875,-0.79345703125,-2.25830078125,6.8499755859375,43.3685302734375,-2.2357177734375
1758876729.6939173,-0.525390625,0.119140625,0.74365234375,-34.85107421875,-0.79345703125,-2.25830078125,6.50390625,43.3355712890625,-2.2357177734375
1758876729.7039697,-0.4931640625,0.05322265625,0.705078125,-35.15625,0.30517578125,-2.0751953125,6.15234375,43.3135986328125,-2.230224609375
1758876729.7144966,-0.4931640625,0.05322265625,0.705078125,-35.15625,0.30517578125,-2.0751953125,5.8062744140625,43.2861328125,-2.21923828125
1758876729.724574,-0.630859375,-0.02099609375,0.8515625,-27.28271484375,-0.244140625,-2.25830078125,5.5316162109375,43.253173828125,-2.21923828125
1758876729.7339754,-0.630859375,-0.02099609375,0.8515625,-27.28271484375,-0.244140625,-2.25830078125,5.25146484375,43.22021484375,-2.2247314453125
1758876729.7443163,-0.7392578125,-0.0693359375,0.88623046875,8.30078125,-0.6103515625,-2.9296875,5.3118896484375,43.187255859375,-2.2412109375
1758876729.7540195,-0.7392578125,-0.0693359375,0.88623046875,8.30078125,-0.6103515625,-2.9296875,5.361328125,43.154296875,-2.26318359375
1758876729.7645416,-0.7763671875,-0.06689453125,0.8203125,52.42919921875,-1.220703125,-3.84521484375,5.8392333984375,43.1158447265625,-2.30712890625
1758876729.7740548,-0.7763671875,-0.06689453125,0.8203125,52.42919921875,-1.220703125,-3.84521484375,6.30615234375,43.08837890625,-2.3565673828125
1758876729.7844696,-0.759765625,0.046875,0.71142578125,62.92724609375,-3.2958984375,-5.2490234375,6.8609619140625,43.0389404296875,-2.43896484375
1758876729.7940593,-0.759765625,0.046875,0.71142578125,62.92724609375,-3.2958984375,-5.2490234375,7.4102783203125,43.00048828125,-2.5213623046875
1758876729.8040721,-0.73779296875,0.158203125,0.7255859375,35.15625,-2.86865234375,-5.37109375,7.6849365234375,42.967529296875,-2.603759765625
1758876729.8141148,-0.73779296875,0.158203125,0.7255859375,35.15625,-2.86865234375,-5.37109375,7.9595947265625,42.9345703125,-2.691650390625
1758876729.824398,-0.708984375,0.166015625,0.59521484375,13.5498046875,-2.3193359375,-4.2724609375,8.0364990234375,42.91259765625,-2.7630615234375
1758876729.8342023,-0.708984375,0.166015625,0.59521484375,13.5498046875,-2.3193359375,-4.2724609375,8.118896484375,42.8961181640625,-2.8289794921875
1758876729.8440764,-0.75927734375,0.1474609375,0.59912109375,10.43701171875,-1.64794921875,-3.96728515625,8.173828125,42.890625,-2.8948974609375
1758876729.8541703,-0.75927734375,0.1474609375,0.59912109375,10.43701171875,-1.64794921875,-3.96728515625,8.2342529296875,42.8851318359375,-2.96630859375
1758876729.8644629,-0.79638671875,0.1064453125,0.66357421875,9.3994140625,-0.732421875,-3.60107421875,8.294677734375,42.8961181640625,-3.0267333984375
1758876729.8741214,-0.79638671875,0.1064453125,0.66357421875,9.3994140625,-0.732421875,-3.60107421875,8.349609375,42.9071044921875,-3.0926513671875
1758876729.8841426,-0.79638671875,0.09423828125,0.6904296875,-1.46484375,-1.03759765625,-3.41796875,8.3001708984375,42.9180908203125,-3.1640625
1758876729.894128,-0.79638671875,0.09423828125,0.6904296875,-1.46484375,-1.03759765625,-3.41796875,8.250732421875,42.9345703125,-3.22998046875
1758876729.9042475,-0.75634765625,0.15234375,0.712890625,-19.775390625,-1.28173828125,-1.8310546875,8.0364990234375,42.9400634765625,-3.27392578125
1758876729.9141412,-0.75634765625,0.15234375,0.712890625,-19.775390625,-1.28173828125,-1.8310546875,7.822265625,42.9510498046875,-3.31787109375
1758876729.924241,-0.70263671875,0.15625,0.63671875,-29.72412109375,-1.28173828125,-1.0986328125,7.5201416015625,42.95654296875,-3.350830078125
1758876729.9342039,-0.70263671875,0.15625,0.63671875,-29.72412109375,-1.28173828125,-1.0986328125,7.2235107421875,42.967529296875,-3.3782958984375
1758876729.9446723,-0.671875,0.1279296875,0.62158203125,-32.04345703125,-0.67138671875,-0.54931640625,6.9158935546875,42.978515625,-3.394775390625
1758876729.9542353,-0.671875,0.1279296875,0.62158203125,-32.04345703125,-0.67138671875,-0.54931640625,6.6082763671875,42.9949951171875,-3.4112548828125
1758876729.9642537,-0.6767578125,0.0927734375,0.681640625,-24.5361328125,-0.06103515625,-0.1220703125,6.383056640625,43.011474609375,-3.4222412109375
1758876729.974229,-0.6767578125,0.0927734375,0.681640625,-24.5361328125,-0.06103515625,-0.1220703125,6.15234375,43.0279541015625,-3.4332275390625
1758876729.9845147,-0.66357421875,0.04248046875,0.71484375,-13.18359375,0.54931640625,-0.42724609375,6.0369873046875,43.055419921875,-3.4442138671875
1758876729.994486,-0.66357421875,0.04248046875,0.71484375,-13.18359375,0.54931640625,-0.42724609375,5.9161376953125,43.0718994140625,-3.4552001953125
1758876730.0042796,-0.6357421875,0.01708984375,0.75146484375,-7.87353515625,0.54931640625,-0.91552734375,5.8392333984375,43.0938720703125,-3.4771728515625
1758876730.0142815,-0.6357421875,0.01708984375,0.75146484375,-7.87353515625,0.54931640625,-0.91552734375,5.7623291015625,43.1048583984375,-3.4991455078125
1758876730.0246298,-0.63623046875,0.02490234375,0.77001953125,-0.1220703125,0.732421875,-1.15966796875,5.7568359375,43.121337890625,-3.5211181640625
1758876730.0343437,-0.63623046875,0.02490234375,0.77001953125,-0.1220703125,0.732421875,-1.15966796875,5.745849609375,43.13232421875,-3.5430908203125
1758876730.0443294,-0.62548828125,0.0263671875,0.748046875,11.474609375,1.03759765625,-2.5634765625,5.833740234375,43.1488037109375,-3.5870361328125
1758876730.0543914,-0.62548828125,0.0263671875,0.748046875,11.474609375,1.03759765625,-2.5634765625,5.921630859375,43.1597900390625,-3.62548828125
1758876730.06478,-0.6767578125,0.0078125,0.7080078125,26.06201171875,1.953125,-3.5400390625,6.1468505859375,43.1817626953125,-3.680419921875
1758876730.0743973,-0.6767578125,0.0078125,0.7080078125,26.06201171875,1.953125,-3.5400390625,6.361083984375,43.2037353515625,-3.7353515625
1758876730.0844302,-0.73291015625,0.03564453125,0.6806640625,43.51806640625,2.5634765625,-3.60107421875,6.7510986328125,43.2366943359375,-3.7957763671875
1758876730.0943875,-0.73291015625,0.03564453125,0.6806640625,43.51806640625,2.5634765625,-3.60107421875,7.14111328125,43.2696533203125,-3.8616943359375
1758876730.104831,-0.73779296875,0.02734375,0.7275390625,57.67822265625,2.50244140625,-5.79833984375,7.646484375,43.3026123046875,-3.955078125
1758876730.1143708,-0.73779296875,0.02734375,0.7275390625,57.67822265625,2.50244140625,-5.79833984375,8.1463623046875,43.341064453125,-4.053955078125
1758876730.124446,-0.76318359375,0.0498046875,0.732421875,63.96484375,1.77001953125,-5.615234375,8.7066650390625,43.3740234375,-4.15283203125
1758876730.1343987,-0.76318359375,0.0498046875,0.732421875,63.96484375,1.77001953125,-5.615234375,9.2669677734375,43.406982421875,-4.251708984375
1758876730.1448598,-0.68701171875,0.11962890625,0.689453125,58.837890625,1.0986328125,-7.32421875,9.755859375,43.43994140625,-4.3780517578125
1758876730.1544573,-0.68701171875,0.11962890625,0.689453125,58.837890625,1.0986328125,-7.32421875,10.2447509765625,43.4674072265625,-4.4989013671875
1758876730.1644726,-0.68994140625,0.15771484375,0.6943359375,42.17529296875,1.77001953125,-6.89697265625,10.5743408203125,43.505859375,-4.6142578125
1758876730.1745203,-0.68994140625,0.15771484375,0.6943359375,42.17529296875,1.77001953125,-6.89697265625,10.909423828125,43.5443115234375,-4.72412109375
1758876730.1849442,-0.66064453125,0.20947265625,0.74853515625,31.8603515625,2.3193359375,-7.38525390625,11.14013671875,43.582763671875,-4.8394775390625
1758876730.1945016,-0.66064453125,0.20947265625,0.74853515625,31.8603515625,2.3193359375,-7.38525390625,11.370849609375,43.6212158203125,-4.94384765625
1758876730.204999,-0.658203125,0.2607421875,0.7646484375,23.5595703125,2.50244140625,-6.7138671875,11.53564453125,43.65966796875,-5.03173828125
1758876730.2145858,-0.658203125,0.2607421875,0.7646484375,23.5595703125,2.50244140625,-6.7138671875,11.700439453125,43.692626953125,-5.11962890625
1758876730.224571,-0.63720703125,0.20166015625,0.78466796875,15.31982421875,2.3193359375,-7.14111328125,11.788330078125,43.7255859375,-5.2020263671875
1758876730.2345324,-0.61376953125,0.1494140625,0.77685546875,5.7373046875,2.197265625,-7.2021484375,11.8267822265625,43.7530517578125,-5.2899169921875
1758876730.244875,-0.61376953125,0.1494140625,0.77685546875,5.7373046875,2.197265625,-7.2021484375,11.8157958984375,43.7750244140625,-5.372314453125
1758876730.2545803,-0.6123046875,0.1337890625,0.7509765625,-3.60107421875,2.197265625,-7.38525390625,11.75537109375,43.7969970703125,-5.44921875
1758876730.264679,-0.6123046875,0.1337890625,0.7509765625,-3.60107421875,2.197265625,-7.38525390625,11.6510009765625,43.8189697265625,-5.5316162109375
1758876730.2746544,-0.6171875,0.2001953125,0.76953125,-14.16015625,1.708984375,-6.53076171875,11.4971923828125,43.83544921875,-5.6085205078125
1758876730.2847557,-0.6171875,0.2001953125,0.76953125,-14.16015625,1.708984375,-6.53076171875,11.2939453125,43.846435546875,-5.6744384765625
1758876730.294638,-0.65380859375,0.22607421875,0.82275390625,-31.31103515625,0.8544921875,-6.89697265625,11.0137939453125,43.846435546875,-5.7403564453125
1758876730.3046985,-0.65380859375,0.22607421875,0.82275390625,-31.31103515625,0.8544921875,-6.89697265625,10.645751953125,43.846435546875,-5.8062744140625
1758876730.3146932,-0.703125,0.255859375,0.87158203125,-60.85205078125,-1.52587890625,-4.39453125,10.1458740234375,43.8299560546875,-5.855712890625
1758876730.3251948,-0.703125,0.255859375,0.87158203125,-60.85205078125,-1.52587890625,-4.39453125,9.51416015625,43.7969970703125,-5.888671875
1758876730.3346486,-0.7109375,0.25537109375,0.72900390625,-93.56689453125,-2.38037109375,-2.3193359375,8.734130859375,43.758544921875,-5.899658203125
1758876730.3446302,-0.7109375,0.25537109375,0.72900390625,-93.56689453125,-2.38037109375,-2.3193359375,7.811279296875,43.7200927734375,-5.8941650390625
1758876730.3547292,-0.71435546875,0.15234375,0.66748046875,-106.93359375,-2.86865234375,-1.28173828125,6.83349609375,43.6761474609375,-5.8831787109375
1758876730.365205,-0.71435546875,0.15234375,0.66748046875,-106.93359375,-2.86865234375,-1.28173828125,5.80078125,43.6322021484375,-5.86669921875
1758876730.374681,-0.6796875,0.08056640625,0.673828125,-99.365234375,-2.25830078125,-0.244140625,4.81201171875,43.59375,-5.8392333984375
1758876730.3847246,-0.6796875,0.08056640625,0.673828125,-99.365234375,-2.25830078125,-0.244140625,3.8726806640625,43.560791015625,-5.8062744140625
1758876730.3951354,-0.6357421875,0.09912109375,0.60546875,-68.78662109375,-0.67138671875,0.18310546875,3.0926513671875,43.538818359375,-5.7733154296875
1758876730.4049761,-0.6357421875,0.09912109375,0.60546875,-68.78662109375,-0.67138671875,0.18310546875,2.4664306640625,43.52783203125,-5.7403564453125
1758876730.414748,-0.63232421875,-0.00830078125,0.65234375,-38.2080078125,1.5869140625,-0.67138671875,1.988525390625,43.52783203125,-5.7073974609375
1758876730.4248478,-0.63232421875,-0.00830078125,0.65234375,-38.2080078125,1.5869140625,-0.67138671875,1.6534423828125,43.5443115234375,-5.6854248046875
1758876730.435525,-0.5078125,0.0048828125,0.65234375,-30.029296875,4.39453125,0.30517578125,1.3623046875,43.57177734375,-5.6634521484375
1758876730.4448035,-0.5078125,0.0048828125,0.65234375,-30.029296875,4.39453125,0.30517578125,1.1151123046875,43.6102294921875,-5.6304931640625
1758876730.4548452,-0.64013671875,0.02734375,0.71630859375,-25.634765625,5.92041015625,-0.67138671875,0.87890625,43.6541748046875,-5.60302734375
1758876730.464872,-0.64013671875,0.02734375,0.71630859375,-25.634765625,5.92041015625,-0.67138671875,0.6646728515625,43.70361328125,-5.5865478515625
1758876730.4752219,-0.58447265625,-0.0439453125,0.83984375,-38.4521484375,6.4697265625,-1.220703125,0.37353515625,43.7530517578125,-5.570068359375
1758876730.484873,-0.58447265625,-0.0439453125,0.83984375,-38.4521484375,6.4697265625,-1.220703125,0.010986328125,43.8079833984375,-5.55908203125
1758876730.4948592,-0.58447265625,-0.0439453125,0.83984375,-53.5888671875,6.65283203125,-1.28173828125,-0.4229736328125,43.8519287109375,-5.5535888671875
1758876730.5048892,-0.52490234375,-0.0458984375,0.72314453125,-53.5888671875,6.65283203125,-1.28173828125,-0.9393310546875,43.8958740234375,-5.5426025390625
1758876730.5151265,-0.5224609375,-0.0068359375,0.5341796875,-30.70068359375,9.33837890625,-2.25830078125,-1.351318359375,43.956298828125,-5.537109375
1758876730.524964,-0.5224609375,-0.0068359375,0.5341796875,-30.70068359375,9.33837890625,-2.25830078125,-1.64794921875,44.0277099609375,-5.548095703125
1758876730.5349317,-0.66650390625,-0.064453125,0.66552734375,-1.64794921875,10.07080078125,-2.01416015625,-1.8072509765625,44.1046142578125,-5.5535888671875
1758876730.544931,-0.66650390625,-0.064453125,0.66552734375,-1.64794921875,10.07080078125,-2.01416015625,-1.82373046875,44.18701171875,-5.5645751953125
1758876730.5553958,-1.017578125,-0.12353515625,0.966796875,56.0302734375,7.2021484375,-3.35693359375,-1.56005859375,44.2584228515625,-5.592041015625
1758876730.564972,-1.017578125,-0.12353515625,0.966796875,56.0302734375,7.2021484375,-3.35693359375,-1.0272216796875,44.31884765625,-5.635986328125
1758876730.5749664,-1.08251953125,-0.20947265625,1.0654296875,88.80615234375,-0.732421875,-7.38525390625,-0.362548828125,44.3408203125,-5.7073974609375
1758876730.5850039,-1.08251953125,-0.20947265625,1.0654296875,88.80615234375,-0.732421875,-7.38525390625,0.4339599609375,44.3243408203125,-5.82275390625
1758876730.5955176,-0.9033203125,-0.01171875,0.65869140625,-0.54931640625,-2.8076171875,-6.89697265625,0.780029296875,44.307861328125,-5.9381103515625
1758876730.6050117,-0.9033203125,-0.01171875,0.65869140625,-0.54931640625,-2.8076171875,-6.89697265625,0.68115234375,44.2803955078125,-6.053466796875
1758876730.615188,-0.71435546875,0.08056640625,0.3984375,-68.4814453125,-1.953125,-7.99560546875,0.2471923828125,44.2694091796875,-6.1798095703125
1758876730.6255937,-0.71435546875,0.08056640625,0.3984375,-68.4814453125,-1.953125,-7.99560546875,-0.5218505859375,44.263916015625,-6.317138671875
1758876730.6355164,-0.68896484375,0.00341796875,0.2353515625,-61.8896484375,1.8310546875,-7.4462890625,-1.2469482421875,44.285888671875,-6.448974609375
1758876730.6450949,-0.68896484375,0.00341796875,0.2353515625,-61.8896484375,1.8310546875,-7.4462890625,-1.9390869140625,44.329833984375,-6.580810546875
1758876730.6552894,-0.84814453125,-0.06201171875,0.365234375,-19.6533203125,5.0048828125,-7.50732421875,-2.4114990234375,44.4012451171875,-6.7236328125
1758876730.6653037,-0.84814453125,-0.06201171875,0.365234375,-19.6533203125,5.0048828125,-7.50732421875,-2.6751708984375,44.5001220703125,-6.8719482421875
1758876730.675101,-0.9140625,-0.08056640625,0.724609375,6.77490234375,3.60107421875,-6.8359375,-2.8070068359375,44.593505859375,-7.020263671875
1758876730.6851585,-0.9140625,-0.08056640625,0.724609375,6.77490234375,3.60107421875,-6.8359375,-2.801513671875,44.6759033203125,-7.1630859375
1758876730.695453,-0.833984375,-0.08740234375,0.68212890625,-4.5166015625,2.3193359375,-4.7607421875,-2.845458984375,44.7528076171875,-7.294921875
1758876730.705217,-0.833984375,-0.08740234375,0.68212890625,-4.5166015625,2.3193359375,-4.7607421875,-2.9388427734375,44.82421875,-7.4102783203125
1758876730.7151895,-0.7373046875,-0.0498046875,0.52392578125,-7.99560546875,1.220703125,-3.662109375,-3.0487060546875,44.8846435546875,-7.5146484375
1758876730.7252235,-0.7373046875,-0.0498046875,0.52392578125,-7.99560546875,1.220703125,-3.662109375,-3.1640625,44.945068359375,-7.613525390625
1758876730.7359242,-0.728515625,-0.04150390625,0.607421875,-4.638671875,0.9765625,-3.47900390625,-3.262939453125,45.0,-7.7069091796875
1758876730.7452347,-0.728515625,-0.04150390625,0.607421875,-4.638671875,0.9765625,-3.47900390625,-3.3453369140625,45.054931640625,-7.80029296875
1758876730.7552402,-0.71142578125,-0.0517578125,0.75,-3.11279296875,0.67138671875,-3.47900390625,-3.4222412109375,45.098876953125,-7.88818359375
1758876730.7657003,-0.71142578125,-0.0517578125,0.75,-3.11279296875,0.67138671875,-3.47900390625,-3.4881591796875,45.142822265625,-7.97607421875
1758876730.775914,-0.67333984375,-0.05810546875,0.76953125,-1.708984375,0.0,-3.35693359375,-3.548583984375,45.17578125,-8.052978515625
1758876730.7852716,-0.67333984375,-0.05810546875,0.76953125,-1.708984375,0.0,-3.35693359375,-3.603515625,45.19775390625,-8.1298828125
1758876730.7952633,-0.6591796875,-0.0576171875,0.76318359375,-0.9765625,-0.30517578125,-3.35693359375,-3.6529541015625,45.2197265625,-8.2012939453125
1758876730.8055663,-0.6591796875,-0.0576171875,0.76318359375,-0.9765625,-0.30517578125,-3.35693359375,-3.6968994140625,45.230712890625,-8.2672119140625
1758876730.8159254,-0.68994140625,-0.056640625,0.74560546875,-2.13623046875,0.06103515625,-3.11279296875,-3.746337890625,45.2362060546875,-8.32763671875
1758876730.825353,-0.68994140625,-0.056640625,0.74560546875,-2.13623046875,0.06103515625,-3.11279296875,-3.80126953125,45.2471923828125,-8.382568359375
1758876730.8353462,-0.70947265625,-0.05712890625,0.71142578125,-0.8544921875,1.40380859375,-3.2958984375,-3.8507080078125,45.2581787109375,-8.4375
1758876730.8456142,-0.70947265625,-0.05712890625,0.71142578125,-0.8544921875,1.40380859375,-3.2958984375,-3.900146484375,45.274658203125,-8.492431640625
1758876730.8554387,-0.7060546875,-0.06396484375,0.70751953125,0.54931640625,3.2958984375,-3.7841796875,-3.9385986328125,45.3021240234375,-8.5528564453125
1758876730.8653936,-0.7060546875,-0.06396484375,0.70751953125,0.54931640625,3.2958984375,-3.7841796875,-3.97705078125,45.3350830078125,-8.6187744140625
1758876730.8754032,-0.67626953125,-0.05419921875,0.72802734375,4.0283203125,4.94384765625,-4.7607421875,-4.0045166015625,45.3790283203125,-8.690185546875
1758876730.8858094,-0.67626953125,-0.05419921875,0.72802734375,4.0283203125,4.94384765625,-4.7607421875,-4.0155029296875,45.4229736328125,-8.76708984375
1758876730.8954074,-0.67724609375,-0.05859375,0.76416015625,11.53564453125,5.615234375,-5.859375,-3.9990234375,45.472412109375,-8.8494873046875
1758876730.9054182,-0.67724609375,-0.05859375,0.76416015625,11.53564453125,5.615234375,-5.859375,-3.9495849609375,45.5218505859375,-8.94287109375
1758876730.9157217,-0.68505859375,-0.06884765625,0.73193359375,20.5078125,5.67626953125,-6.591796875,-3.8616943359375,45.5657958984375,-9.0362548828125
1758876730.9256384,-0.68505859375,-0.06884765625,0.73193359375,20.5078125,5.67626953125,-6.591796875,-3.7298583984375,45.6097412109375,-9.1351318359375
1758876730.935463,-0.701171875,-0.07763671875,0.70068359375,30.1513671875,4.94384765625,-7.26318359375,-3.5595703125,45.6536865234375,-9.239501953125
1758876730.9454784,-0.701171875,-0.07763671875,0.70068359375,30.1513671875,4.94384765625,-7.26318359375,-3.33984375,45.6866455078125,-9.3438720703125
1758876730.9560132,-0.7177734375,-0.080078125,0.68505859375,39.6728515625,3.5400390625,-7.38525390625,-3.0816650390625,45.7196044921875,-9.459228515625
1758876730.9655192,-0.7177734375,-0.080078125,0.68505859375,39.6728515625,3.5400390625,-7.38525390625,-2.7740478515625,45.7415771484375,-9.569091796875
1758876730.9755437,-0.74169921875,-0.0498046875,0.69189453125,41.44287109375,2.8076171875,-7.26318359375,-2.4609375,45.76904296875,-9.6844482421875
1758876730.9857488,-0.74169921875,-0.0498046875,0.69189453125,41.44287109375,2.8076171875,-7.26318359375,-2.142333984375,45.7855224609375,-9.7943115234375
1758876730.9955204,-0.72705078125,-0.00341796875,0.67626953125,43.212890625,1.953125,-7.38525390625,-1.812744140625,45.802001953125,-9.90966796875
1758876731.0055952,-0.72705078125,-0.00341796875,0.67626953125,43.212890625,1.953125,-7.38525390625,-1.4776611328125,45.8184814453125,-10.0250244140625
1758876731.0157573,-0.7353515625,-0.0029296875,0.70654296875,38.87939453125,1.40380859375,-7.080078125,-1.1590576171875,45.8349609375,-10.1348876953125
1758876731.0255885,-0.7353515625,-0.0029296875,0.70654296875,38.87939453125,1.40380859375,-7.080078125,-0.85693359375,45.845947265625,-10.2447509765625
1758876731.0356495,-0.7177734375,0.00341796875,0.6845703125,29.78515625,0.42724609375,-6.65283203125,-0.5987548828125,45.8514404296875,-10.34912109375
1758876731.04599,-0.7177734375,0.00341796875,0.6845703125,29.78515625,0.42724609375,-6.65283203125,-0.3900146484375,45.85693359375,-10.447998046875
1758876731.0557988,-0.7158203125,-0.0009765625,0.65283203125,21.91162109375,-0.30517578125,-6.40869140625,-0.208740234375,45.85693359375,-10.546875
1758876731.0658338,-0.7158203125,-0.0009765625,0.65283203125,21.91162109375,-0.30517578125,-6.40869140625,-0.0714111328125,45.8514404296875,-10.6402587890625
1758876731.0759966,-0.71923828125,0.00732421875,0.66845703125,21.78955078125,-0.42724609375,-6.28662109375,0.0604248046875,45.8514404296875,-10.7391357421875
1758876731.085705,-0.71923828125,0.00732421875,0.66845703125,21.78955078125,-0.42724609375,-6.28662109375,0.2032470703125,45.8514404296875,-10.8380126953125
1758876731.095767,-0.7099609375,-0.00341796875,0.69921875,25.45166015625,-0.54931640625,-6.2255859375,0.362548828125,45.845947265625,-10.931396484375
1758876731.1059766,-0.7099609375,-0.00341796875,0.69921875,25.45166015625,-0.54931640625,-6.2255859375,0.538330078125,45.845947265625,-11.0302734375
1758876731.1158879,-0.7021484375,-0.015625,0.73095703125,26.42822265625,-0.67138671875,-6.103515625,0.72509765625,45.8404541015625,-11.1236572265625
1758876731.1257687,-0.7021484375,-0.015625,0.73095703125,26.42822265625,-0.67138671875,-6.103515625,0.911865234375,45.8349609375,-11.217041015625
1758876731.1358018,-0.68603515625,-0.00244140625,0.73486328125,16.357421875,-0.79345703125,-5.55419921875,1.0491943359375,45.8294677734375,-11.304931640625
1758876731.146024,-0.68603515625,-0.00244140625,0.73486328125,16.357421875,-0.79345703125,-5.55419921875,1.142578125,45.8184814453125,-11.3873291015625
1758876731.155781,-0.70361328125,0.0224609375,0.7216796875,12.14599609375,-0.79345703125,-5.9814453125,1.20849609375,45.8074951171875,-11.4752197265625
1758876731.1657982,-0.70361328125,0.0224609375,0.7216796875,12.14599609375,-0.79345703125,-5.9814453125,1.2579345703125,45.7965087890625,-11.5631103515625
1758876731.1762073,-0.712890625,0.02099609375,0.740234375,22.15576171875,-1.03759765625,-6.04248046875,1.3568115234375,45.7855224609375,-11.6455078125
1758876731.1857831,-0.712890625,0.02099609375,0.740234375,22.15576171875,-1.03759765625,-6.04248046875,1.505126953125,45.76904296875,-11.7333984375
1758876731.1957772,-0.68896484375,0.00830078125,0.74267578125,24.90234375,-1.52587890625,-5.7373046875,1.6644287109375,45.7525634765625,-11.8157958984375
1758876731.2060513,-0.68896484375,0.00830078125,0.74267578125,24.90234375,-1.52587890625,-5.7373046875,1.845703125,45.7305908203125,-11.8927001953125
1758876731.2158823,-0.6630859375,0.0166015625,0.7294921875,3.47900390625,-2.13623046875,-4.5166015625,1.922607421875,45.7086181640625,-11.964111328125
1758876731.225882,-0.6630859375,0.0166015625,0.7294921875,3.47900390625,-2.13623046875,-4.5166015625,1.900634765625,45.68115234375,-12.0245361328125
1758876731.236071,-0.669921875,0.05126953125,0.72900390625,-22.4609375,-2.8076171875,-3.35693359375,1.7523193359375,45.648193359375,-12.073974609375
1758876731.2462006,-0.669921875,0.05126953125,0.72900390625,-22.4609375,-2.8076171875,-3.35693359375,1.4886474609375,45.6097412109375,-12.117919921875
1758876731.2558415,-0.669921875,0.05126953125,0.72900390625,-40.52734375,-3.35693359375,-2.01416015625,1.0601806640625,45.5657958984375,-12.1343994140625
1758876731.266182,-0.66552734375,0.0576171875,0.7451171875,-40.52734375,-3.35693359375,-2.01416015625,0.63720703125,45.516357421875,-12.15087890625
1758876731.2762194,-0.6376953125,0.0517578125,0.81982421875,-78.2470703125,-3.96728515625,0.18310546875,-0.1263427734375,45.4669189453125,-12.12890625
1758876731.2859778,-0.6376953125,0.0517578125,0.81982421875,-78.2470703125,-3.96728515625,0.18310546875,-0.889892578125,45.406494140625,-12.1014404296875
1758876731.2959728,-0.61767578125,0.07958984375,0.79150390625,-114.80712890625,-5.18798828125,1.89208984375,-1.988525390625,45.3350830078125,-12.041015625
1758876731.3062682,-0.61767578125,0.07958984375,0.79150390625,-114.80712890625,-5.18798828125,1.89208984375,-3.0816650390625,45.263671875,-11.9696044921875
1758876731.3159366,-0.61962890625,0.0078125,0.79736328125,-128.60107421875,-4.7607421875,3.11279296875,-4.2901611328125,45.19775390625,-11.8817138671875
1758876731.3259802,-0.61962890625,0.0078125,0.79736328125,-128.60107421875,-4.7607421875,3.11279296875,-5.4931640625,45.1318359375,-11.788330078125
1758876731.3373506,-0.6455078125,-0.03955078125,0.7919921875,-110.90087890625,-4.94384765625,5.55419921875,-6.4874267578125,45.0604248046875,-11.6510009765625
1758876731.346247,-0.6455078125,-0.03955078125,0.7919921875,-110.90087890625,-4.94384765625,5.55419921875,-7.481689453125,44.9945068359375,-11.513671875
1758876731.3559623,-0.62890625,-0.08447265625,0.8291015625,-93.56689453125,-3.7841796875,6.4697265625,-8.2891845703125,44.945068359375,-11.3653564453125
1758876731.3660188,-0.62890625,-0.08447265625,0.8291015625,-93.56689453125,-3.7841796875,6.4697265625,-9.0966796875,44.89013671875,-11.217041015625
1758876731.3763273,-0.587890625,-0.11474609375,0.7109375,-71.47216796875,-2.74658203125,7.080078125,-9.678955078125,44.84619140625,-11.0577392578125
1758876731.386042,-0.587890625,-0.11474609375,0.7109375,-71.47216796875,-2.74658203125,7.080078125,-10.2667236328125,44.80224609375,-10.8984375
1758876731.3960862,-0.5830078125,-0.15087890625,0.6953125,-54.3212890625,-1.220703125,7.080078125,-10.6842041015625,44.7802734375,-10.7501220703125
1758876731.4060702,-0.5830078125,-0.15087890625,0.6953125,-54.3212890625,-1.220703125,7.080078125,-11.1016845703125,44.7528076171875,-10.601806640625
1758876731.4163928,-0.5869140625,-0.1025390625,0.7109375,-55.35888671875,-0.79345703125,8.544921875,-11.524658203125,44.7308349609375,-10.4315185546875
1758876731.4260752,-0.5869140625,-0.1025390625,0.7109375,-55.35888671875,-0.79345703125,8.544921875,-11.942138671875,44.71435546875,-10.2667236328125
1758876731.4361267,-0.615234375,-0.10302734375,0.59130859375,-47.9736328125,0.3662109375,9.6435546875,-12.28271484375,44.71435546875,-10.0909423828125
1758876731.446385,-0.615234375,-0.10302734375,0.59130859375,-47.9736328125,0.3662109375,9.6435546875,-12.6177978515625,44.71435546875,-9.9151611328125
1758876731.4562297,-0.6044921875,-0.09912109375,0.58984375,-31.73828125,0.79345703125,11.474609375,-12.7825927734375,44.7308349609375,-9.722900390625
1758876731.466077,-0.6044921875,-0.09912109375,0.58984375,-31.73828125,0.79345703125,11.474609375,-12.9473876953125,44.7418212890625,-9.5306396484375
1758876731.4762497,-0.615234375,-0.18115234375,0.61181640625,-30.6396484375,1.15966796875,11.474609375,-13.1011962890625,44.7637939453125,-9.349365234375
1758876731.4861054,-0.615234375,-0.18115234375,0.61181640625,-30.6396484375,1.15966796875,11.474609375,-13.2659912109375,44.7857666015625,-9.1680908203125
1758876731.4961395,-0.615234375,-0.18115234375,0.61181640625,6.65283203125,-0.42724609375,10.986328125,-13.0682373046875,44.791259765625,-8.997802734375
1758876731.5061305,-0.8583984375,-0.3388671875,0.79833984375,6.65283203125,-0.42724609375,10.986328125,-12.8759765625,44.80224609375,-8.8385009765625
1758876731.517175,-1.0078125,-0.474609375,0.95703125,89.9658203125,-2.25830078125,6.9580078125,-11.9091796875,44.7802734375,-8.7396240234375
1758876731.5262854,-1.0078125,-0.474609375,0.95703125,89.9658203125,-2.25830078125,6.9580078125,-10.9588623046875,44.7637939453125,-8.6517333984375
1758876731.5362291,-0.74951171875,-0.53173828125,0.4755859375,108.0322265625,-3.41796875,-0.8544921875,-9.9261474609375,44.725341796875,-8.6846923828125
1758876731.5462265,-0.74951171875,-0.53173828125,0.4755859375,108.0322265625,-3.41796875,-0.8544921875,-8.909912109375,44.6923828125,-8.7396240234375
1758876731.556605,-0.7587890625,-0.20458984375,0.49609375,68.66455078125,-1.28173828125,-0.42724609375,-8.3001708984375,44.681396484375,-8.800048828125
1758876731.5662448,-0.7587890625,-0.20458984375,0.49609375,68.66455078125,-1.28173828125,-0.42724609375,-7.6904296875,44.681396484375,-8.8714599609375
1758876731.57626,-0.80126953125,-0.05517578125,0.490234375,82.6416015625,1.5869140625,-3.2958984375,-6.9708251953125,44.71435546875,-8.9923095703125
1758876731.5862246,-0.80126953125,-0.05517578125,0.490234375,82.6416015625,1.5869140625,-3.2958984375,-6.251220703125,44.7528076171875,-9.1131591796875
1758876731.5966382,-0.751953125,-0.0419921875,0.56787109375,110.107421875,2.38037109375,-5.31005859375,-5.2734375,44.80224609375,-9.261474609375
1758876731.6062834,-0.751953125,-0.0419921875,0.56787109375,110.107421875,2.38037109375,-5.31005859375,-4.2901611328125,44.8516845703125,-9.4097900390625
1758876731.6162877,-0.70263671875,-0.0859375,0.685546875,113.28125,1.3427734375,-7.14111328125,-3.2958984375,44.89013671875,-9.580078125
1758876731.6263504,-0.70263671875,-0.0859375,0.685546875,113.28125,1.3427734375,-7.14111328125,-2.3016357421875,44.9285888671875,-9.744873046875
1758876731.6367664,-0.734375,0.06982421875,0.837890625,79.9560546875,-0.732421875,-6.34765625,-1.6259765625,44.9395751953125,-9.8931884765625
1758876731.6463163,-0.734375,0.06982421875,0.837890625,79.9560546875,-0.732421875,-6.34765625,-0.94482421875,44.9505615234375,-10.0250244140625
1758876731.6563618,-0.67529296875,0.1767578125,0.84423828125,35.64453125,-2.0751953125,-4.08935546875,-0.6756591796875,44.945068359375,-10.118408203125
1758876731.6663935,-0.67529296875,0.1767578125,0.84423828125,35.64453125,-2.0751953125,-4.08935546875,-0.3900146484375,44.9285888671875,-10.1953125
1758876731.6766272,-0.65087890625,0.13330078125,0.708984375,-5.126953125,-3.35693359375,-1.15966796875,-0.4779052734375,44.901123046875,-10.2227783203125
1758876731.6863744,-0.65087890625,0.13330078125,0.708984375,-5.126953125,-3.35693359375,-1.15966796875,-0.54931640625,44.8736572265625,-10.2447509765625
1758876731.6964295,-0.64306640625,0.029296875,0.67138671875,-18.61572265625,-3.173828125,0.30517578125,-0.7415771484375,44.8406982421875,-10.2447509765625
1758876731.706394,-0.64306640625,0.029296875,0.67138671875,-18.61572265625,-3.173828125,0.30517578125,-0.9283447265625,44.813232421875,-10.2392578125
1758876731.7166913,-0.64013671875,-0.09033203125,0.72216796875,0.42724609375,-2.01416015625,-0.1220703125,-0.933837890625,44.791259765625,-10.2447509765625
1758876731.7263777,-0.64013671875,-0.09033203125,0.72216796875,0.42724609375,-2.01416015625,-0.1220703125,-0.9393310546875,44.769287109375,-10.250244140625
1758876731.7364128,-0.6416015625,-0.14501953125,0.7666015625,16.845703125,-0.8544921875,-1.8310546875,-0.802001953125,44.75830078125,-10.283203125
1758876731.746539,-0.6416015625,-0.14501953125,0.7666015625,16.845703125,-0.8544921875,-1.8310546875,-0.670166015625,44.7418212890625,-10.316162109375
1758876731.7567747,-0.63427734375,-0.08740234375,0.7275390625,24.23095703125,0.0,-3.173828125,-0.4833984375,44.736328125,-10.37109375
1758876731.7664034,-0.63427734375,-0.08740234375,0.7275390625,24.23095703125,0.0,-3.173828125,-0.3021240234375,44.725341796875,-10.4315185546875
1758876731.7764857,-0.677734375,-0.009765625,0.787109375,27.34375,0.30517578125,-3.7841796875,-0.087890625,44.7198486328125,-10.491943359375
1758876731.7868147,-0.677734375,-0.009765625,0.787109375,27.34375,0.30517578125,-3.7841796875,0.1153564453125,44.7088623046875,-10.5523681640625
1758876731.7965908,-0.69287109375,0.04248046875,0.79248046875,23.86474609375,0.244140625,-3.2958984375,0.296630859375,44.6978759765625,-10.6072998046875
1758876731.8065243,-0.69287109375,0.04248046875,0.79248046875,23.86474609375,0.244140625,-3.2958984375,0.4833984375,44.6868896484375,-10.6512451171875
1758876731.816566,-0.69580078125,0.14013671875,0.8076171875,-4.33349609375,-0.244140625,-1.77001953125,0.4119873046875,44.67041015625,-10.6732177734375
1758876731.8268692,-0.69580078125,0.14013671875,0.8076171875,-4.33349609375,-0.244140625,-1.77001953125,0.3460693359375,44.6539306640625,-10.689697265625
1758876731.8370414,-0.67333984375,0.08544921875,0.65087890625,-25.81787109375,-0.30517578125,-0.3662109375,0.087890625,44.637451171875,-10.6787109375
1758876731.8465185,-0.67333984375,0.08544921875,0.65087890625,-25.81787109375,-0.30517578125,-0.3662109375,-0.1593017578125,44.6209716796875,-10.6732177734375
1758876731.856562,-0.99267578125,-0.125,0.623046875,-24.23095703125,0.48828125,-2.8076171875,-0.428466796875,44.6209716796875,-10.7061767578125
1758876731.866571,-0.99267578125,-0.125,0.623046875,-24.23095703125,0.48828125,-2.8076171875,-0.6976318359375,44.6319580078125,-10.7501220703125
1758876731.877123,-1.07568359375,-0.1728515625,0.3857421875,8.9111328125,1.28173828125,-2.44140625,-0.63720703125,44.6649169921875,-10.810546875
1758876731.8866367,-1.07568359375,-0.1728515625,0.3857421875,8.9111328125,1.28173828125,-2.44140625,-0.582275390625,44.7088623046875,-10.8819580078125
1758876731.8966403,-1.01123046875,-0.0537109375,0.302734375,43.212890625,0.8544921875,-0.42724609375,-0.1702880859375,44.7637939453125,-10.9423828125
1758876731.9067078,-1.01123046875,-0.0537109375,0.302734375,43.212890625,0.8544921875,-0.42724609375,0.2362060546875,44.835205078125,-11.00830078125
1758876731.917245,-0.796875,0.01806640625,0.4921875,20.5078125,0.6103515625,1.52587890625,0.4449462890625,44.901123046875,-11.0467529296875
1758876731.9267013,-0.796875,0.01806640625,0.4921875,20.5078125,0.6103515625,1.52587890625,0.648193359375,44.9725341796875,-11.085205078125
1758876731.9369924,-0.7216796875,0.11767578125,0.6533203125,-27.64892578125,0.732421875,3.84521484375,0.406494140625,45.0384521484375,-11.0797119140625
1758876731.946826,-0.7216796875,0.11767578125,0.6533203125,-27.64892578125,0.732421875,3.84521484375,0.1702880859375,45.1043701171875,-11.0687255859375
1758876731.9566956,-0.65625,0.033203125,0.8037109375,-42.724609375,0.0,5.615234375,-0.1922607421875,45.1483154296875,-11.0302734375
1758876731.9666846,-0.65625,0.033203125,0.8037109375,-42.724609375,0.0,5.615234375,-0.560302734375,45.186767578125,-10.975341796875
1758876731.9767067,-0.62939453125,-0.07861328125,0.890625,-29.4189453125,-0.732421875,5.37109375,-0.791015625,45.208740234375,-10.9259033203125
1758876731.9872768,-0.62939453125,-0.07861328125,0.890625,-29.4189453125,-0.732421875,5.37109375,-1.03271484375,45.2252197265625,-10.8709716796875
1758876731.996725,-0.60986328125,-0.12451171875,0.82421875,-11.41357421875,-0.6103515625,5.55419921875,-1.0931396484375,45.230712890625,-10.810546875
1758876732.0067604,-0.60986328125,-0.12451171875,0.82421875,-11.41357421875,-0.6103515625,5.55419921875,-1.1590576171875,45.230712890625,-10.74462890625
1758876732.0168173,-0.6689453125,0.01025390625,0.7265625,-23.8037109375,-0.3662109375,6.28662109375,-1.34033203125,45.2362060546875,-10.667724609375
1758876732.0274103,-0.6689453125,0.01025390625,0.7265625,-23.8037109375,-0.3662109375,6.28662109375,-1.5216064453125,45.230712890625,-10.5908203125
1758876732.036826,-0.72216796875,0.037109375,0.73046875,-23.98681640625,-0.48828125,5.67626953125,-1.702880859375,45.230712890625,-10.513916015625
1758876732.046903,-0.72216796875,0.037109375,0.73046875,-23.98681640625,-0.48828125,5.67626953125,-1.878662109375,45.2252197265625,-10.43701171875
1758876732.0568511,-0.73583984375,-0.025390625,0.69677734375,-27.2216796875,-0.30517578125,5.92041015625,-2.08740234375,45.2252197265625,-10.3546142578125
1758876732.0667977,-0.73583984375,-0.025390625,0.69677734375,-27.2216796875,-0.30517578125,5.92041015625,-2.296142578125,45.2252197265625,-10.272216796875
1758876732.0769107,-0.72705078125,0.0234375,0.73193359375,-44.49462890625,-1.03759765625,6.40869140625,-2.6641845703125,45.2197265625,-10.184326171875
1758876732.0871098,-0.72705078125,0.0234375,0.73193359375,-44.49462890625,-1.03759765625,6.40869140625,-3.0322265625,45.2142333984375,-10.0909423828125
1758876732.097165,-0.68505859375,-0.02783203125,0.767578125,-48.33984375,-1.40380859375,5.7373046875,-3.438720703125,45.2032470703125,-10.0030517578125
1758876732.1069,-0.68505859375,-0.02783203125,0.767578125,-48.33984375,-1.40380859375,5.7373046875,-3.8507080078125,45.1922607421875,-9.90966796875
1758876732.1169786,-0.66552734375,-0.09814453125,0.7568359375,-51.26953125,-1.77001953125,5.7373046875,-4.28466796875,45.1702880859375,-9.82177734375
1758876732.1285133,-0.66552734375,-0.09814453125,0.7568359375,-51.26953125,-1.77001953125,5.7373046875,-4.72412109375,45.15380859375,-9.7283935546875
1758876732.137038,-0.6748046875,-0.05517578125,0.7265625,-53.52783203125,-1.77001953125,4.7607421875,-5.1910400390625,45.1318359375,-9.6514892578125
1758876732.1468785,-0.6748046875,-0.05517578125,0.7265625,-53.52783203125,-1.77001953125,4.7607421875,-5.6634521484375,45.10986328125,-9.569091796875
1758876732.1569517,-0.7099609375,-0.08154296875,0.69970703125,-53.52783203125,-2.3193359375,4.69970703125,-6.13037109375,45.087890625,-9.4921875
1758876732.1673977,-0.7099609375,-0.08154296875,0.69970703125,-53.52783203125,-2.3193359375,4.69970703125,-6.591796875,45.0604248046875,-9.4097900390625
1758876732.1769397,-0.73291015625,-0.123046875,0.705078125,-67.68798828125,-2.8076171875,4.82177734375,-7.2015380859375,45.0384521484375,-9.3328857421875
1758876732.1869638,-0.73291015625,-0.123046875,0.705078125,-67.68798828125,-2.8076171875,4.82177734375,-7.8057861328125,45.010986328125,-9.25048828125
1758876732.197122,-0.70947265625,-0.126953125,0.68798828125,-65.673828125,-3.7841796875,4.2724609375,-8.3935546875,44.97802734375,-9.1790771484375
1758876732.2069566,-0.70947265625,-0.126953125,0.68798828125,-65.673828125,-3.7841796875,4.2724609375,-8.9813232421875,44.945068359375,-9.107666015625
1758876732.2169838,-0.68359375,-0.080078125,0.58935546875,-39.97802734375,-2.86865234375,4.2724609375,-9.31640625,44.923095703125,-9.041748046875
1758876732.2274082,-0.68359375,-0.080078125,0.58935546875,-39.97802734375,-2.86865234375,4.2724609375,-9.64599609375,44.901123046875,-8.9703369140625
1758876732.2373087,-0.73193359375,-0.1220703125,0.6904296875,-34.3017578125,-2.86865234375,3.35693359375,-9.931640625,44.8846435546875,-8.9154052734375
1758876732.2470286,-0.73193359375,-0.1220703125,0.6904296875,-34.3017578125,-2.86865234375,3.35693359375,-10.2117919921875,44.8626708984375,-8.8604736328125
1758876732.2571564,-0.73193359375,-0.1220703125,0.6904296875,-39.0625,-2.62451171875,3.0517578125,-10.546875,44.84619140625,-8.81103515625
1758876732.267361,-0.67529296875,-0.1123046875,0.67578125,-38.02490234375,-2.74658203125,2.38037109375,-10.8819580078125,44.8297119140625,-8.76708984375
1758876732.2771363,-0.67529296875,-0.1123046875,0.67578125,-38.02490234375,-2.74658203125,2.38037109375,-11.2115478515625,44.8077392578125,-8.72314453125
1758876732.287088,-0.6943359375,-0.1630859375,0.6884765625,-24.84130859375,-1.8310546875,0.48828125,-11.4862060546875,44.791259765625,-8.6956787109375
1758876732.2971468,-0.6943359375,-0.1630859375,0.6884765625,-24.84130859375,-1.8310546875,0.48828125,-11.7059326171875,44.7802734375,-8.6846923828125
1758876732.307421,-0.71435546875,-0.1572265625,0.74462890625,-34.0576171875,-2.685546875,0.48828125,-11.97509765625,44.75830078125,-8.6737060546875
1758876732.3171449,-0.71435546875,-0.1572265625,0.74462890625,-34.0576171875,-2.685546875,0.48828125,-12.2882080078125,44.736328125,-8.6572265625
1758876732.3271024,-0.7021484375,-0.10107421875,0.74560546875,-44.5556640625,-2.8076171875,0.54931640625,-12.6507568359375,44.7088623046875,-8.6407470703125
1758876732.337534,-0.7021484375,-0.10107421875,0.74560546875,-44.5556640625,-2.8076171875,0.54931640625,-13.062744140625,44.681396484375,-8.6187744140625
1758876732.3473063,-0.689453125,-0.16455078125,0.69970703125,-53.28369140625,-3.60107421875,0.42724609375,-13.51318359375,44.6484375,-8.59130859375
1758876732.3572435,-0.689453125,-0.16455078125,0.69970703125,-53.28369140625,-3.60107421875,0.42724609375,-14.007568359375,44.615478515625,-8.5693359375
1758876732.3672414,-0.69873046875,-0.1845703125,0.74169921875,-59.99755859375,-3.96728515625,0.1220703125,-14.534912109375,44.5770263671875,-8.5418701171875
1758876732.3777933,-0.69873046875,-0.1845703125,0.74169921875,-59.99755859375,-3.96728515625,0.1220703125,-15.09521484375,44.5330810546875,-8.514404296875
1758876732.3872147,-0.6767578125,-0.1982421875,0.76318359375,-77.33154296875,-4.638671875,0.9765625,-15.7379150390625,44.49462890625,-8.4814453125
1758876732.3979337,-0.6767578125,-0.1982421875,0.76318359375,-77.33154296875,-4.638671875,0.9765625,-16.45751953125,44.4451904296875,-8.4375
1758876732.4078481,-0.69140625,-0.203125,0.73046875,-91.6748046875,-5.43212890625,0.91552734375,-17.2430419921875,44.395751953125,-8.3935546875
1758876732.4173033,-0.69140625,-0.203125,0.73046875,-91.6748046875,-5.43212890625,0.91552734375,-18.0999755859375,44.3408203125,-8.338623046875
1758876732.4277523,-0.63720703125,-0.3232421875,0.6640625,-98.57177734375,-5.7373046875,0.6103515625,-18.9898681640625,44.2803955078125,-8.2891845703125
1758876732.437515,-0.63720703125,-0.3232421875,0.6640625,-98.57177734375,-5.7373046875,0.6103515625,-19.918212890625,44.219970703125,-8.2452392578125
1758876732.44733,-0.615234375,-0.234375,0.662109375,-86.669921875,-6.591796875,1.64794921875,-20.775146484375,44.1595458984375,-8.1903076171875
1758876732.4573483,-0.615234375,-0.234375,0.662109375,-86.669921875,-6.591796875,1.64794921875,-21.566162109375,44.09912109375,-8.118896484375
1758876732.4673882,-0.6474609375,-0.4052734375,0.61572265625,-43.0908203125,-5.06591796875,0.8544921875,-22.1484375,44.0386962890625,-8.06396484375
1758876732.477555,-0.6474609375,-0.4052734375,0.61572265625,-43.0908203125,-5.06591796875,0.8544921875,-22.52197265625,43.9892578125,-8.02001953125
1758876732.487318,-0.6142578125,-0.3759765625,0.67333984375,1.953125,-4.94384765625,0.48828125,-22.6812744140625,43.934326171875,-7.9815673828125
1758876732.4973922,-0.6142578125,-0.3759765625,0.67333984375,1.953125,-4.94384765625,0.48828125,-22.6263427734375,43.87939453125,-7.9486083984375
1758876732.5075154,-0.587890625,-0.34375,0.62353515625,45.95947265625,-1.64794921875,-0.8544921875,-22.3681640625,43.83544921875,-7.9376220703125
1758876732.5174096,-0.587890625,-0.34375,0.62353515625,45.95947265625,-1.64794921875,-0.8544921875,-21.90673828125,43.8079833984375,-7.943115234375
1758876732.527366,-0.61669921875,-0.3212890625,0.677734375,70.556640625,0.0,-2.0751953125,-21.3409423828125,43.780517578125,-7.9595947265625
1758876732.5374234,-0.61669921875,-0.3212890625,0.677734375,70.556640625,0.0,-2.0751953125,-20.665283203125,43.758544921875,-7.998046875
1758876732.5477133,-0.67919921875,-0.36865234375,0.86181640625,67.9931640625,0.06103515625,-1.5869140625,-20.006103515625,43.736572265625,-8.0255126953125
1758876732.557508,-0.67919921875,-0.36865234375,0.86181640625,67.9931640625,0.06103515625,-1.5869140625,-19.3634033203125,43.7091064453125,-8.052978515625
1758876732.5674968,-0.67578125,-0.19140625,0.8671875,23.0712890625,-2.0751953125,-0.67138671875,-18.9349365234375,43.6761474609375,-8.0694580078125
1758876732.5776708,-0.67578125,-0.19140625,0.8671875,23.0712890625,-2.0751953125,-0.67138671875,-18.720703125,43.626708984375,-8.06396484375
1758876732.5875242,-0.552734375,-0.099609375,0.708984375,20.263671875,-3.11279296875,-1.46484375,-18.5174560546875,43.5772705078125,-8.06396484375
1758876732.597574,-0.552734375,-0.099609375,0.708984375,20.263671875,-3.11279296875,-1.46484375,-18.3251953125,43.516845703125,-8.0584716796875
1758876732.6075168,-0.4990234375,-0.18408203125,0.6552734375,29.541015625,-1.64794921875,-2.0751953125,-18.0889892578125,43.4619140625,-8.0584716796875
1758876732.6182806,-0.4990234375,-0.18408203125,0.6552734375,29.541015625,-1.64794921875,-2.0751953125,-17.808837890625,43.4124755859375,-8.06396484375
1758876732.6275141,-0.5263671875,-0.25390625,0.72802734375,15.869140625,-0.06103515625,-2.25830078125,-17.60009765625,43.3740234375,-8.0694580078125
1758876732.6375382,-0.5263671875,-0.25390625,0.72802734375,15.869140625,-0.06103515625,-2.25830078125,-17.4627685546875,43.3355712890625,-8.0859375
1758876732.648045,-0.54345703125,-0.24951171875,0.72509765625,-0.18310546875,1.46484375,-1.8310546875,-17.413330078125,43.3026123046875,-8.096923828125
1758876732.657742,-0.54345703125,-0.24951171875,0.72509765625,-0.18310546875,1.46484375,-1.8310546875,-17.4407958984375,43.275146484375,-8.10791015625
1758876732.6676066,-0.52685546875,-0.23046875,0.61474609375,11.65771484375,3.173828125,-1.953125,-17.4078369140625,43.2586669921875,-8.1243896484375
1758876732.6776526,-0.52685546875,-0.23046875,0.61474609375,11.65771484375,3.173828125,-1.953125,-17.325439453125,43.2476806640625,-8.1463623046875
1758876732.6878195,-0.6318359375,-0.29150390625,0.63134765625,36.0107421875,3.90625,-2.0751953125,-17.127685546875,43.2476806640625,-8.173828125
1758876732.6976757,-0.6318359375,-0.29150390625,0.63134765625,36.0107421875,3.90625,-2.0751953125,-16.8145751953125,43.2476806640625,-8.2122802734375
1758876732.7076395,-0.8935546875,-0.50732421875,0.8662109375,88.0126953125,3.2958984375,-3.84521484375,-16.248779296875,43.2476806640625,-8.26171875
1758876732.7179847,-0.8935546875,-0.50732421875,0.8662109375,88.0126953125,3.2958984375,-3.84521484375,-15.4522705078125,43.2421875,-8.338623046875
1758876732.727805,-1.14404296875,-0.43701171875,0.83642578125,128.5400390625,1.0986328125,-3.35693359375,-14.4525146484375,43.2366943359375,-8.41552734375
1758876732.7376745,-1.14404296875,-0.43701171875,0.83642578125,128.5400390625,1.0986328125,-3.35693359375,-13.260498046875,43.231201171875,-8.4979248046875
1758876732.7476943,-1.14404296875,-0.43701171875,0.83642578125,151.9775390625,-1.220703125,-0.67138671875,-11.942138671875,43.2257080078125,-8.5748291015625
1758876732.7577815,-1.08349609375,-0.07568359375,0.41748046875,151.9775390625,-1.220703125,-0.67138671875,-10.4974365234375,43.231201171875,-8.6407470703125
1758876732.7676687,-0.7412109375,0.14306640625,0.40185546875,161.0107421875,-4.150390625,-4.8828125,-9.019775390625,43.231201171875,-8.7396240234375
1758876732.7777486,-0.7412109375,0.14306640625,0.40185546875,161.0107421875,-4.150390625,-4.8828125,-7.503662109375,43.22021484375,-8.8604736328125
1758876732.78778,-0.71826171875,-0.07275390625,0.5458984375,95.0927734375,-0.3662109375,-2.5634765625,-6.3116455078125,43.2421875,-8.9703369140625
1758876732.7982798,-0.71826171875,-0.07275390625,0.5458984375,95.0927734375,-0.3662109375,-2.5634765625,-5.438232421875,43.2806396484375,-9.07470703125
1758876732.8078094,-0.7451171875,-0.07958984375,0.44580078125,31.494140625,-0.6103515625,-2.74658203125,-4.8834228515625,43.3245849609375,-9.173583984375
1758876732.8181417,-0.7451171875,-0.07958984375,0.44580078125,31.494140625,-0.6103515625,-2.74658203125,-4.647216796875,43.3685302734375,-9.283447265625
1758876732.82793,-0.80126953125,-0.07568359375,0.68896484375,9.82666015625,0.0,-0.3662109375,-4.50439453125,43.41796875,-9.3768310546875
1758876732.8378048,-0.80126953125,-0.07568359375,0.68896484375,9.82666015625,0.0,-0.3662109375,-4.4549560546875,43.472900390625,-9.4537353515625
1758876732.8477747,-0.7666015625,-0.0712890625,0.6845703125,-2.8076171875,-0.54931640625,0.91552734375,-4.4549560546875,43.5223388671875,-9.51416015625
1758876732.8580172,-0.7666015625,-0.0712890625,0.6845703125,-2.8076171875,-0.54931640625,0.91552734375,-4.5098876953125,43.560791015625,-9.569091796875
1758876732.8681443,-0.69287109375,-0.06591796875,0.62939453125,-0.8544921875,-0.79345703125,1.708984375,-4.5538330078125,43.604736328125,-9.6075439453125
1758876732.8778512,-0.69287109375,-0.06591796875,0.62939453125,-0.8544921875,-0.79345703125,1.708984375,-4.5758056640625,43.6376953125,-9.64599609375
1758876732.8878922,-0.6650390625,-0.09619140625,0.6982421875,5.4931640625,-0.67138671875,1.89208984375,-4.5648193359375,43.6761474609375,-9.6734619140625
1758876732.8982718,-0.6650390625,-0.09619140625,0.6982421875,5.4931640625,-0.67138671875,1.89208984375,-4.5208740234375,43.70361328125,-9.700927734375
1758876732.9079823,-0.677734375,-0.09814453125,0.7666015625,7.4462890625,-0.30517578125,1.52587890625,-4.4659423828125,43.736572265625,-9.7283935546875
1758876732.9180367,-0.677734375,-0.09814453125,0.7666015625,7.4462890625,-0.30517578125,1.52587890625,-4.405517578125,43.758544921875,-9.755859375
1758876732.9280658,-0.67333984375,-0.060546875,0.77001953125,8.1787109375,-0.30517578125,1.28173828125,-4.339599609375,43.780517578125,-9.77783203125
1758876732.9381788,-0.67333984375,-0.060546875,0.77001953125,8.1787109375,-0.30517578125,1.28173828125,-4.273681640625,43.7969970703125,-9.7943115234375
1758876732.9480388,-0.66015625,-0.02978515625,0.775390625,10.009765625,-0.06103515625,1.3427734375,-4.1912841796875,43.8134765625,-9.810791015625
1758876732.9581385,-0.66015625,-0.02978515625,0.775390625,10.009765625,-0.06103515625,1.3427734375,-4.097900390625,43.824462890625,-9.8162841796875
1758876732.9679532,-0.65673828125,-0.0400390625,0.77490234375,11.1083984375,-0.06103515625,1.5869140625,-3.9990234375,43.8299560546875,-9.8162841796875
1758876732.9782043,-0.65673828125,-0.0400390625,0.77490234375,11.1083984375,-0.06103515625,1.5869140625,-3.88916015625,43.83544921875,-9.8162841796875
1758876732.9880314,-0.6611328125,-0.05517578125,0.75390625,12.5732421875,-0.1220703125,1.89208984375,-3.768310546875,43.8409423828125,-9.8052978515625
1758876732.9981127,-0.6611328125,-0.05517578125,0.75390625,12.5732421875,-0.1220703125,1.89208984375,-3.636474609375,43.8409423828125,-9.7943115234375
1758876733.00852,-0.66162109375,-0.0830078125,0.74951171875,8.60595703125,-0.244140625,2.8076171875,-3.5211181640625,43.8409423828125,-9.7723388671875
1758876733.0181143,-0.66162109375,-0.0830078125,0.74951171875,8.60595703125,-0.244140625,2.8076171875,-3.427734375,43.83544921875,-9.744873046875
1758876733.0281365,-0.67138671875,-0.06201171875,0.7548828125,14.0380859375,-0.30517578125,2.38037109375,-3.3013916015625,43.8299560546875,-9.722900390625
1758876733.038287,-0.67138671875,-0.06201171875,0.7548828125,14.0380859375,-0.30517578125,2.38037109375,-3.153076171875,43.824462890625,-9.6954345703125
1758876733.0483174,-0.64013671875,-0.0654296875,0.76806640625,34.1796875,-0.79345703125,0.91552734375,-2.9168701171875,43.8134765625,-9.6844482421875
1758876733.0581763,-0.64013671875,-0.0654296875,0.76806640625,34.1796875,-0.79345703125,0.91552734375,-2.581787109375,43.802490234375,-9.678955078125
1758876733.0680325,-0.60693359375,-0.080078125,0.8212890625,50.96435546875,-1.52587890625,0.0,-2.1697998046875,43.780517578125,-9.678955078125
1758876733.078429,-0.60693359375,-0.080078125,0.8212890625,50.96435546875,-1.52587890625,0.0,-1.6864013671875,43.7530517578125,-9.6844482421875
1758876733.088118,-0.59765625,-0.06396484375,0.83642578125,51.94091796875,-2.197265625,0.54931640625,-1.1920166015625,43.714599609375,-9.6844482421875
1758876733.0981348,-0.59765625,-0.06396484375,0.83642578125,51.94091796875,-2.197265625,0.54931640625,-0.6976318359375,43.6761474609375,-9.678955078125
1758876733.1083977,-0.56494140625,0.0029296875,0.86181640625,65.5517578125,-3.23486328125,-0.18310546875,-0.1373291015625,43.626708984375,-9.678955078125
1758876733.1184278,-0.56494140625,0.0029296875,0.86181640625,65.5517578125,-3.23486328125,-0.18310546875,0.4779052734375,43.5662841796875,-9.678955078125
1758876733.1281986,-0.52001953125,0.03857421875,0.84912109375,86.181640625,-3.60107421875,-1.708984375,1.197509765625,43.505859375,-9.6844482421875
1758876733.1383018,-0.52001953125,0.03857421875,0.84912109375,86.181640625,-3.60107421875,-1.708984375,2.010498046875,43.4344482421875,-9.6954345703125
1758876733.148593,-0.50830078125,-0.00146484375,0.80859375,95.52001953125,-2.9296875,-3.90625,2.8564453125,43.3685302734375,-9.722900390625
1758876733.1582565,-0.50830078125,-0.00146484375,0.80859375,95.52001953125,-2.9296875,-3.90625,3.7408447265625,43.3026123046875,-9.7613525390625
1758876733.1682444,-0.45751953125,0.0,0.73486328125,100.64697265625,-2.01416015625,-5.67626953125,4.6307373046875,43.2366943359375,-9.8162841796875
1758876733.1783834,-0.45751953125,0.0,0.73486328125,100.64697265625,-2.01416015625,-5.67626953125,5.537109375,43.1817626953125,-9.8822021484375
1758876733.1882384,-0.5595703125,0.04736328125,0.9765625,87.21923828125,-1.953125,-6.8359375,6.3665771484375,43.121337890625,-9.95361328125
1758876733.1982825,-0.5595703125,0.04736328125,0.9765625,87.21923828125,-1.953125,-6.8359375,7.1246337890625,43.0609130859375,-10.030517578125
1758876733.2082417,-0.6376953125,0.314453125,0.97021484375,66.2841796875,-3.5400390625,-7.38525390625,7.7728271484375,42.989501953125,-10.1129150390625
1758876733.2184901,-0.6376953125,0.314453125,0.97021484375,66.2841796875,-3.5400390625,-7.38525390625,8.32763671875,42.91259765625,-10.184326171875
1758876733.2283185,-0.52783203125,0.21630859375,0.6240234375,85.14404296875,-2.13623046875,-7.8125,8.9813232421875,42.8466796875,-10.26123046875
1758876733.2382886,-0.52783203125,0.21630859375,0.6240234375,85.14404296875,-2.13623046875,-7.8125,9.7283935546875,42.7862548828125,-10.3326416015625
1758876733.2486753,-0.4736328125,0.0693359375,0.63623046875,57.31201171875,-1.64794921875,-8.30078125,10.338134765625,42.73681640625,-10.4150390625
1758876733.2582808,-0.4736328125,0.0693359375,0.63623046875,57.31201171875,-1.64794921875,-8.30078125,10.8050537109375,42.6873779296875,-10.4974365234375
1758876733.26836,-0.5869140625,0.18212890625,0.62646484375,20.93505859375,-0.18310546875,-9.1552734375,10.9039306640625,42.659912109375,-10.5908203125
1758876733.2783651,-0.5869140625,0.18212890625,0.62646484375,20.93505859375,-0.18310546875,-9.1552734375,11.00830078125,42.637939453125,-10.689697265625
1758876733.288659,-1.0791015625,0.3232421875,0.91650390625,-65.4296875,-3.11279296875,-12.63427734375,10.2227783203125,42.5994873046875,-10.8380126953125
1758876733.2983391,-1.0791015625,0.3232421875,0.91650390625,-65.4296875,-3.11279296875,-12.63427734375,9.4482421875,42.572021484375,-10.9918212890625
1758876733.3083892,-0.7685546875,0.39599609375,0.91650390625,-171.9970703125,-7.568359375,-0.18310546875,7.7398681640625,42.4786376953125,-10.9808349609375
1758876733.3184721,-0.7685546875,0.39599609375,0.91650390625,-171.9970703125,-7.568359375,-0.18310546875,6.0479736328125,42.38525390625,-10.953369140625
1758876733.3288853,-0.64990234375,0.224609375,0.60546875,-152.77099609375,-8.72802734375,3.23486328125,4.5977783203125,42.286376953125,-10.87646484375
1758876733.3384073,-0.64990234375,0.224609375,0.60546875,-152.77099609375,-8.72802734375,3.23486328125,3.1585693359375,42.1875,-10.7940673828125
1758876733.3484693,-0.5947265625,-0.11279296875,0.40185546875,-63.29345703125,-7.14111328125,3.0517578125,2.6092529296875,42.110595703125,-10.7171630859375
1758876733.3588617,-0.5947265625,-0.11279296875,0.40185546875,-63.29345703125,-7.14111328125,3.0517578125,2.054443359375,42.0391845703125,-10.6512451171875
1758876733.3684301,-0.7060546875,-0.3076171875,0.60400390625,-23.37646484375,-3.35693359375,0.3662109375,1.8621826171875,42.0172119140625,-10.634765625
1758876733.3784802,-0.7060546875,-0.3076171875,0.60400390625,-23.37646484375,-3.35693359375,0.3662109375,1.6534423828125,41.9952392578125,-10.634765625
1758876733.3887773,-0.681640625,-0.20361328125,0.7158203125,-17.9443359375,-1.0986328125,-2.685546875,1.461181640625,41.9952392578125,-10.6842041015625
1758876733.3987398,-0.681640625,-0.20361328125,0.7158203125,-17.9443359375,-1.0986328125,-2.685546875,1.25244140625,42.000732421875,-10.7391357421875
1758876733.408481,-0.6943359375,-0.02880859375,0.6318359375,1.220703125,0.9765625,-4.57763671875,1.219482421875,42.022705078125,-10.821533203125
1758876733.4185436,-0.6943359375,-0.02880859375,0.6318359375,1.220703125,0.9765625,-4.57763671875,1.1865234375,42.0501708984375,-10.909423828125
1758876733.4287243,-0.822265625,0.0849609375,0.74169921875,17.02880859375,1.0986328125,-4.8828125,1.307373046875,42.0831298828125,-10.997314453125
1758876733.4385524,-0.822265625,0.0849609375,0.74169921875,17.02880859375,1.0986328125,-4.8828125,1.4337158203125,42.110595703125,-11.0797119140625
1758876733.448526,-0.97607421875,0.09326171875,0.89453125,1.8310546875,-0.54931640625,-4.39453125,1.417236328125,42.132568359375,-11.1566162109375
1758876733.458602,-0.97607421875,0.09326171875,0.89453125,1.8310546875,-0.54931640625,-4.39453125,1.4007568359375,42.1490478515625,-11.22802734375
1758876733.468745,-0.93310546875,-0.00537109375,0.76025390625,15.380859375,-4.5166015625,-3.662109375,1.5216064453125,42.1270751953125,-11.2994384765625
1758876733.4786355,-0.93310546875,-0.00537109375,0.76025390625,15.380859375,-4.5166015625,-3.662109375,1.64794921875,42.110595703125,-11.370849609375
1758876733.488645,-0.7177734375,0.04345703125,0.46728515625,28.86962890625,-3.84521484375,-2.74658203125,1.91162109375,42.1051025390625,-11.4312744140625
1758876733.4986281,-0.7177734375,0.04345703125,0.46728515625,28.86962890625,-3.84521484375,-2.74658203125,2.17529296875,42.1051025390625,-11.4971923828125
1758876733.5090926,-0.7412109375,0.0830078125,0.5283203125,4.33349609375,-3.72314453125,-1.708984375,2.208251953125,42.110595703125,-11.546630859375
1758876733.5186393,-0.7412109375,0.0830078125,0.5283203125,4.33349609375,-3.72314453125,-1.708984375,2.2412109375,42.1160888671875,-11.5960693359375
1758876733.528655,-0.76171875,0.0419921875,0.61767578125,-0.54931640625,-2.13623046875,-0.30517578125,2.2412109375,42.1380615234375,-11.6290283203125
1758876733.5386343,-0.76171875,0.0419921875,0.61767578125,-0.54931640625,-2.13623046875,-0.30517578125,2.2412109375,42.16552734375,-11.6619873046875
1758876733.5488353,-0.75634765625,0.01318359375,0.5947265625,1.220703125,-2.3193359375,0.67138671875,2.2686767578125,42.1875,-11.678466796875
1758876733.5587082,-0.75634765625,0.01318359375,0.5947265625,1.220703125,-2.3193359375,0.67138671875,2.2906494140625,42.20947265625,-11.700439453125
1758876733.5687613,-0.74658203125,0.0556640625,0.630859375,-2.3193359375,-1.89208984375,1.52587890625,2.2906494140625,42.2369384765625,-11.71142578125
1758876733.5787327,-0.74658203125,0.0556640625,0.630859375,-2.3193359375,-1.89208984375,1.52587890625,2.2906494140625,42.264404296875,-11.722412109375
1758876733.5889544,-0.72607421875,0.0380859375,0.6533203125,-2.25830078125,-1.5869140625,1.77001953125,2.2906494140625,42.2918701171875,-11.7279052734375
1758876733.5987618,-0.72607421875,0.0380859375,0.6533203125,-2.25830078125,-1.5869140625,1.77001953125,2.2906494140625,42.3193359375,-11.7279052734375
1758876733.6088114,-0.705078125,0.0283203125,0.689453125,0.91552734375,-1.46484375,1.77001953125,2.3236083984375,42.3468017578125,-11.7333984375
1758876733.6187613,-0.705078125,0.0283203125,0.689453125,0.91552734375,-1.46484375,1.77001953125,2.3565673828125,42.374267578125,-11.7333984375
1758876733.6293228,-0.68115234375,0.04736328125,0.7158203125,1.77001953125,-1.40380859375,1.89208984375,2.39501953125,42.3907470703125,-11.7333984375
1758876733.6387641,-0.68115234375,0.04736328125,0.7158203125,1.77001953125,-1.40380859375,1.89208984375,2.43896484375,42.4127197265625,-11.7333984375
1758876733.6488585,-0.68359375,0.04345703125,0.7333984375,-5.615234375,-1.15966796875,2.38037109375,2.4114990234375,42.42919921875,-11.722412109375
1758876733.6588647,-0.68359375,0.04345703125,0.7333984375,-5.615234375,-1.15966796875,2.38037109375,2.3785400390625,42.4456787109375,-11.7059326171875
1758876733.6693907,-0.66552734375,0.029296875,0.73583984375,-9.765625,-1.15966796875,2.44140625,2.3126220703125,42.4566650390625,-11.689453125
1758876733.678887,-0.66552734375,0.029296875,0.73583984375,-9.765625,-1.15966796875,2.44140625,2.2412109375,42.4676513671875,-11.6729736328125
1758876733.6892383,-0.66064453125,0.02197265625,0.7314453125,-6.89697265625,-1.0986328125,2.25830078125,2.197265625,42.47314453125,-11.656494140625
1758876733.6988719,-0.66064453125,0.02197265625,0.7314453125,-6.89697265625,-1.0986328125,2.25830078125,2.1533203125,42.4786376953125,-11.6400146484375
1758876733.708908,-0.66357421875,0.0126953125,0.74658203125,-0.54931640625,-0.91552734375,1.64794921875,2.164306640625,42.484130859375,-11.6290283203125
1758876733.7189243,-0.66357421875,0.0126953125,0.74658203125,-0.54931640625,-0.91552734375,1.64794921875,2.17529296875,42.4896240234375,-11.6180419921875
1758876733.7293782,-0.66796875,0.0234375,0.73046875,3.11279296875,-0.18310546875,1.77001953125,2.2247314453125,42.5006103515625,-11.6070556640625
1758876733.738909,-0.66796875,0.0234375,0.73046875,3.11279296875,-0.18310546875,1.77001953125,2.274169921875,42.506103515625,-11.590576171875
1758876733.748914,-0.65185546875,0.02734375,0.7490234375,-1.953125,0.91552734375,2.62451171875,2.2796630859375,42.5225830078125,-11.5631103515625
1758876733.7591116,-0.65185546875,0.02734375,0.7490234375,-1.953125,0.91552734375,2.62451171875,2.28515625,42.5390625,-11.53564453125
1758876733.7692933,-0.6533203125,0.0302734375,0.81640625,-8.544921875,1.953125,3.11279296875,2.230224609375,42.56103515625,-11.4971923828125
1758876733.7790089,-0.6533203125,0.0302734375,0.81640625,-8.544921875,1.953125,3.11279296875,2.17529296875,42.5830078125,-11.4532470703125
1758876733.7890222,-0.6103515625,0.05419921875,0.8515625,-9.6435546875,1.8310546875,2.9296875,2.1038818359375,42.593994140625,-11.4093017578125
1758876733.7992055,-0.6103515625,0.05419921875,0.8515625,-9.6435546875,1.8310546875,2.9296875,2.0379638671875,42.60498046875,-11.3653564453125
1758876733.809088,-0.61083984375,0.02978515625,0.83740234375,-5.0048828125,1.40380859375,2.62451171875,2.0159912109375,42.6104736328125,-11.3214111328125
1758876733.8190265,-0.61083984375,0.02978515625,0.83740234375,-5.0048828125,1.40380859375,2.62451171875,1.9940185546875,42.6104736328125,-11.27197265625
1758876733.8291054,-0.6201171875,-0.00341796875,0.814453125,-2.13623046875,1.3427734375,2.685546875,1.99951171875,42.60498046875,-11.2225341796875
1758876733.839217,-0.6201171875,-0.00341796875,0.814453125,-2.13623046875,1.3427734375,2.685546875,2.0050048828125,42.60498046875,-11.173095703125
1758876733.8491025,-0.6376953125,0.03564453125,0.76904296875,-0.6103515625,1.40380859375,2.5634765625,2.021484375,42.5994873046875,-11.129150390625
1758876733.8591135,-0.6376953125,0.03564453125,0.76904296875,-0.6103515625,1.40380859375,2.5634765625,2.04345703125,42.593994140625,-11.0797119140625
1758876733.869194,-0.65478515625,0.02783203125,0.79541015625,1.03759765625,1.15966796875,2.38037109375,2.076416015625,42.5885009765625,-11.0357666015625
1758876733.8795505,-0.65478515625,0.02783203125,0.79541015625,1.03759765625,1.15966796875,2.38037109375,2.109375,42.5830078125,-10.9918212890625
1758876733.8891585,-0.6552734375,-0.009765625,0.771484375,4.39453125,1.03759765625,1.953125,2.1697998046875,42.572021484375,-10.953369140625
1758876733.8991582,-0.6552734375,-0.009765625,0.771484375,4.39453125,1.03759765625,1.953125,2.2247314453125,42.5665283203125,-10.92041015625
1758876733.9091804,-0.64306640625,0.00732421875,0.77099609375,6.53076171875,0.48828125,1.8310546875,2.3016357421875,42.5555419921875,-10.8819580078125
1758876733.9193306,-0.64306640625,0.00732421875,0.77099609375,6.53076171875,0.48828125,1.8310546875,2.3785400390625,42.5390625,-10.8489990234375
1758876733.9295778,-0.63916015625,0.0458984375,0.79052734375,7.9345703125,0.0,1.5869140625,2.4664306640625,42.5225830078125,-10.821533203125
1758876733.9391646,-0.63916015625,0.0458984375,0.79052734375,7.9345703125,0.0,1.5869140625,2.559814453125,42.506103515625,-10.78857421875
1758876733.949225,-0.634765625,0.0810546875,0.7802734375,5.37109375,-0.54931640625,1.8310546875,2.625732421875,42.484130859375,-10.755615234375
1758876733.9595256,-0.634765625,0.0810546875,0.7802734375,5.37109375,-0.54931640625,1.8310546875,2.691650390625,42.4566650390625,-10.7171630859375
1758876733.9692452,-0.6181640625,0.06005859375,0.79248046875,4.33349609375,-0.9765625,1.3427734375,2.74658203125,42.42919921875,-10.6842041015625
1758876733.9792075,-0.6181640625,0.06005859375,0.79248046875,4.33349609375,-0.9765625,1.3427734375,2.8070068359375,42.4017333984375,-10.6512451171875
1758876733.9896345,-0.60205078125,0.02734375,0.7958984375,0.91552734375,-1.15966796875,2.01416015625,2.83447265625,42.3687744140625,-10.61279296875
1758876733.9993,-0.60205078125,0.02734375,0.7958984375,0.91552734375,-1.15966796875,2.01416015625,2.8564453125,42.3358154296875,-10.56884765625
1758876734.0093,-0.58642578125,0.02685546875,0.82958984375,-3.47900390625,-1.40380859375,2.197265625,2.845458984375,42.29736328125,-10.5194091796875
1758876734.019309,-0.58642578125,0.02685546875,0.82958984375,-3.47900390625,-1.40380859375,2.197265625,2.8289794921875,42.2589111328125,-10.4754638671875
1758876734.029393,-0.5751953125,0.0478515625,0.8310546875,-2.685546875,-1.52587890625,1.52587890625,2.8125,42.2149658203125,-10.43701171875
1758876734.0397174,-0.5751953125,0.0478515625,0.8310546875,-2.685546875,-1.52587890625,1.52587890625,2.801513671875,42.1710205078125,-10.39306640625
1758876734.049335,-0.52197265625,0.064453125,0.787109375,-8.60595703125,-0.732421875,1.40380859375,2.724609375,42.132568359375,-10.34912109375
1758876734.0593505,-0.52197265625,0.064453125,0.787109375,-8.60595703125,-0.732421875,1.40380859375,2.65869140625,42.0941162109375,-10.30517578125
1758876734.0697668,-0.57861328125,0.1123046875,0.783203125,-31.06689453125,-0.54931640625,2.01416015625,2.373046875,42.0556640625,-10.2447509765625
1758876734.079485,-0.57861328125,0.1123046875,0.783203125,-31.06689453125,-0.54931640625,2.01416015625,2.0928955078125,42.0172119140625,-10.184326171875
1758876734.089383,-0.4755859375,0.0546875,0.9140625,-39.24560546875,-0.48828125,1.3427734375,1.724853515625,41.978759765625,-10.12939453125
1758876734.0994618,-0.4755859375,0.0546875,0.9140625,-39.24560546875,-0.48828125,1.3427734375,1.3677978515625,41.934814453125,-10.0689697265625
1758876734.1097884,-0.5107421875,0.0927734375,0.73095703125,-49.62158203125,-0.1220703125,1.64794921875,0.9063720703125,41.890869140625,-9.99755859375
1758876734.1197307,-0.5107421875,0.0927734375,0.73095703125,-49.62158203125,-0.1220703125,1.64794921875,0.450439453125,41.846923828125,-9.931640625
1758876734.129438,-0.6181640625,0.00830078125,0.91748046875,-30.82275390625,-0.30517578125,2.44140625,0.1922607421875,41.802978515625,-9.8492431640625
1758876734.1396751,-0.6181640625,0.00830078125,0.91748046875,-30.82275390625,-0.30517578125,2.44140625,-0.0604248046875,41.759033203125,-9.766845703125
1758876734.1494894,-0.556640625,-0.15185546875,0.8994140625,20.8740234375,-0.1220703125,0.54931640625,0.1702880859375,41.715087890625,-9.7174072265625
1758876734.159445,-0.556640625,-0.15185546875,0.8994140625,20.8740234375,-0.1220703125,0.54931640625,0.3900146484375,41.671142578125,-9.66796875
1758876734.169513,-0.5419921875,-0.19140625,0.72119140625,57.43408203125,1.03759765625,-1.220703125,0.9503173828125,41.63818359375,-9.6514892578125
1758876734.1796365,-0.5419921875,-0.19140625,0.72119140625,57.43408203125,1.03759765625,-1.220703125,1.4996337890625,41.605224609375,-9.64599609375
1758876734.1895168,-0.64794921875,-0.1298828125,0.7109375,81.23779296875,1.46484375,-3.41796875,2.2576904296875,41.583251953125,-9.6734619140625
1758876734.199474,-0.64794921875,-0.1298828125,0.7109375,81.23779296875,1.46484375,-3.41796875,3.0047607421875,41.5667724609375,-9.7119140625
1758876734.2095203,-0.80859375,0.1181640625,0.892578125,58.59375,1.40380859375,-4.39453125,3.515625,41.55029296875,-9.766845703125
1758876734.2198372,-0.80859375,0.1181640625,0.892578125,58.59375,1.40380859375,-4.39453125,4.031982421875,41.539306640625,-9.82177734375
1758876734.2297702,-0.92724609375,0.40771484375,0.82080078125,17.7001953125,-1.77001953125,-2.44140625,4.1693115234375,41.50634765625,-9.8492431640625
1758876734.2395675,-0.92724609375,0.40771484375,0.82080078125,17.7001953125,-1.77001953125,-2.44140625,4.3231201171875,41.4788818359375,-9.86572265625
1758876734.2496214,-0.73486328125,0.15625,0.7255859375,11.8408203125,-4.39453125,-0.3662109375,4.4384765625,41.4239501953125,-9.86572265625
1758876734.2599313,-0.73486328125,0.15625,0.7255859375,11.8408203125,-4.39453125,-0.3662109375,4.559326171875,41.3800048828125,-9.8602294921875
1758876734.26964,-0.6826171875,0.0615234375,0.57470703125,47.119140625,-4.21142578125,3.7841796875,5.064697265625,41.33056640625,-9.8052978515625
1758876734.2795844,-0.69482421875,0.0068359375,0.39111328125,89.9658203125,-0.91552734375,3.0517578125,5.77880859375,41.30859375,-9.7613525390625
1758876734.289667,-0.69482421875,0.0068359375,0.39111328125,89.9658203125,-0.91552734375,3.0517578125,6.70166015625,41.30859375,-9.7283935546875
1758876734.3000364,-0.87548828125,-0.09130859375,0.52294921875,69.03076171875,-0.244140625,1.77001953125,7.503662109375,41.319580078125,-9.7174072265625
1758876734.3096352,-0.87548828125,-0.09130859375,0.52294921875,69.03076171875,-0.244140625,1.77001953125,8.184814453125,41.3470458984375,-9.7283935546875
1758876734.319698,-0.91748046875,-0.01708984375,0.806640625,49.62158203125,-1.15966796875,0.18310546875,8.756103515625,41.3800048828125,-9.7613525390625
1758876734.3297462,-0.91748046875,-0.01708984375,0.806640625,49.62158203125,-1.15966796875,0.18310546875,9.2230224609375,41.407470703125,-9.810791015625
1758876734.3399587,-0.78515625,0.14208984375,0.580078125,21.78955078125,-3.173828125,-0.244140625,9.5416259765625,41.4239501953125,-9.8712158203125
1758876734.349788,-0.78515625,0.14208984375,0.580078125,21.78955078125,-3.173828125,-0.244140625,9.7174072265625,41.4404296875,-9.9371337890625
1758876734.3597379,-0.7685546875,0.2177734375,0.57275390625,-3.662109375,-4.0283203125,1.5869140625,9.7833251953125,41.4459228515625,-9.986572265625
1758876734.3697803,-0.7685546875,0.2177734375,0.57275390625,-3.662109375,-4.0283203125,1.5869140625,9.7393798828125,41.451416015625,-10.01953125
1758876734.3801103,-0.77197265625,0.20947265625,0.5478515625,-29.35791015625,-2.9296875,3.60107421875,9.580078125,41.46240234375,-10.0360107421875
1758876734.3897977,-0.77197265625,0.20947265625,0.5478515625,-29.35791015625,-2.9296875,3.60107421875,9.31640625,41.4788818359375,-10.0360107421875
1758876734.3997505,-0.732421875,0.15478515625,0.53857421875,-33.50830078125,-2.44140625,4.7607421875,9.041748046875,41.495361328125,-10.01953125
1758876734.409817,-0.732421875,0.15478515625,0.53857421875,-33.50830078125,-2.44140625,4.7607421875,8.7506103515625,41.517333984375,-9.99755859375
1758876734.4200141,-0.71142578125,0.048828125,0.61328125,-13.3056640625,-1.3427734375,4.7607421875,8.5693359375,41.5447998046875,-9.9755859375
1758876734.4298947,-0.71142578125,0.048828125,0.61328125,-13.3056640625,-1.3427734375,4.7607421875,8.4869384765625,41.5777587890625,-9.9481201171875
1758876734.4398484,-0.6650390625,0.03271484375,0.6689453125,8.11767578125,-0.3662109375,3.41796875,8.50341796875,41.6162109375,-9.9371337890625
1758876734.449902,-0.6650390625,0.03271484375,0.6689453125,8.11767578125,-0.3662109375,3.41796875,8.6187744140625,41.6546630859375,-9.931640625
1758876734.4600732,-0.64111328125,0.12109375,0.6767578125,4.69970703125,0.732421875,2.9296875,8.712158203125,41.6986083984375,-9.9261474609375
1758876734.469912,-0.64111328125,0.12109375,0.6767578125,4.69970703125,0.732421875,2.9296875,8.7835693359375,41.7425537109375,-9.920654296875
1758876734.479906,-0.66552734375,0.1591796875,0.85302734375,6.77490234375,0.732421875,3.23486328125,8.8714599609375,41.781005859375,-9.90966796875
1758876734.4899485,-0.66552734375,0.1591796875,0.85302734375,6.77490234375,0.732421875,3.23486328125,8.9703369140625,41.81396484375,-9.8931884765625
1758876734.5003312,-0.66552734375,0.1591796875,0.85302734375,14.09912109375,0.6103515625,3.5400390625,9.107666015625,41.8359375,-9.86572265625
1758876734.509914,-0.62158203125,0.150390625,0.8310546875,14.09912109375,0.6103515625,3.5400390625,9.2779541015625,41.8524169921875,-9.8382568359375
1758876734.5199144,-0.6171875,0.13232421875,0.8408203125,-2.74658203125,0.0,3.662109375,9.3658447265625,41.8634033203125,-9.7998046875
1758876734.5301225,-0.6171875,0.13232421875,0.8408203125,-2.74658203125,0.0,3.662109375,9.371337890625,41.8634033203125,-9.7613525390625
1758876734.5402992,-0.61767578125,0.1328125,0.82373046875,-10.7421875,-0.67138671875,3.84521484375,9.33837890625,41.85791015625,-9.7174072265625
1758876734.549998,-0.61767578125,0.1328125,0.82373046875,-10.7421875,-0.67138671875,3.84521484375,9.261474609375,41.846923828125,-9.6734619140625
1758876734.5600092,-0.62548828125,0.13720703125,0.787109375,-14.5263671875,-0.732421875,3.90625,9.1680908203125,41.8304443359375,-9.6240234375
1758876734.5700266,-0.62548828125,0.13720703125,0.787109375,-14.5263671875,-0.732421875,3.90625,9.0582275390625,41.81396484375,-9.569091796875
1758876734.5802984,-0.638671875,0.15380859375,0.77294921875,-21.484375,-1.03759765625,3.662109375,8.909912109375,41.7919921875,-9.5196533203125
1758876734.5900285,-0.638671875,0.15380859375,0.77294921875,-21.484375,-1.03759765625,3.662109375,8.734130859375,41.77001953125,-9.47021484375
1758876734.6002443,-0.6630859375,0.1435546875,0.8125,-29.052734375,-1.40380859375,3.7841796875,8.5198974609375,41.7425537109375,-9.415283203125
1758876734.6102362,-0.6630859375,0.1435546875,0.8125,-29.052734375,-1.40380859375,3.7841796875,8.2672119140625,41.715087890625,-9.3603515625
1758876734.6200147,-0.63623046875,0.13916015625,0.79248046875,-39.12353515625,-2.3193359375,3.84521484375,7.9705810546875,41.68212890625,-9.2999267578125
1758876734.6300755,-0.63623046875,0.13916015625,0.79248046875,-39.12353515625,-2.3193359375,3.84521484375,7.62451171875,41.6436767578125,-9.2449951171875
1758876734.6403854,-0.63720703125,0.12353515625,0.79150390625,-46.20361328125,-3.47900390625,3.72314453125,7.239990234375,41.5997314453125,-9.1845703125
1758876734.6502752,-0.63720703125,0.12353515625,0.79150390625,-46.20361328125,-3.47900390625,3.72314453125,6.822509765625,41.5447998046875,-9.1241455078125
1758876734.6600509,-0.6103515625,0.07177734375,0.8076171875,-55.6640625,-4.0283203125,4.57763671875,6.3665771484375,41.495361328125,-9.0582275390625
1758876734.6701767,-0.6103515625,0.07177734375,0.8076171875,-55.6640625,-4.0283203125,4.57763671875,5.86669921875,41.4349365234375,-8.98681640625
1758876734.6805687,-0.61181640625,0.0302734375,0.828125,-67.9931640625,-4.638671875,4.7607421875,5.306396484375,41.37451171875,-8.9154052734375
1758876734.690186,-0.61181640625,0.0302734375,0.828125,-67.9931640625,-4.638671875,4.7607421875,4.68017578125,41.30859375,-8.8385009765625
1758876734.700186,-0.580078125,0.013671875,0.87158203125,-80.322265625,-5.92041015625,4.57763671875,3.9990234375,41.2371826171875,-8.76708984375
1758876734.7103376,-0.580078125,0.013671875,0.87158203125,-80.322265625,-5.92041015625,4.57763671875,3.251953125,41.15478515625,-8.690185546875
1758876734.7202687,-0.53662109375,0.0322265625,0.77734375,-82.51953125,-5.92041015625,4.39453125,2.493896484375,41.0723876953125,-8.6187744140625
1758876734.7303061,-0.53662109375,0.0322265625,0.77734375,-82.51953125,-5.92041015625,4.39453125,1.7303466796875,40.989990234375,-8.536376953125
1758876734.740596,-0.5205078125,0.10888671875,0.80126953125,-85.0830078125,-6.16455078125,4.39453125,0.955810546875,40.9075927734375,-8.45947265625
1758876734.7503693,-0.5205078125,0.10888671875,0.80126953125,-85.0830078125,-6.16455078125,4.39453125,0.1812744140625,40.8197021484375,-8.37158203125
1758876734.7603076,-0.51611328125,0.11083984375,0.88916015625,-88.80615234375,-5.55419921875,4.8828125,-0.604248046875,40.7373046875,-8.272705078125
1758876734.770283,-0.51611328125,0.11083984375,0.88916015625,-88.80615234375,-5.55419921875,4.8828125,-1.4007568359375,40.6549072265625,-8.162841796875
1758876734.780491,-0.46826171875,0.0869140625,0.8701171875,-82.8857421875,-5.859375,5.67626953125,-2.1588134765625,40.5670166015625,-8.0474853515625
1758876734.790321,-0.46826171875,0.0869140625,0.8701171875,-82.8857421875,-5.859375,5.67626953125,-2.87841796875,40.4791259765625,-7.9156494140625
1758876734.8002694,-0.44482421875,-0.0283203125,0.802734375,-55.17578125,-4.21142578125,5.79833984375,-3.4552001953125,40.3912353515625,-7.7783203125
1758876734.8103006,-0.44482421875,-0.0283203125,0.802734375,-55.17578125,-4.21142578125,5.79833984375,-3.900146484375,40.3143310546875,-7.646484375
1758876734.820672,-0.427734375,-0.13427734375,0.71923828125,-35.82763671875,-2.62451171875,4.638671875,-4.2462158203125,40.2484130859375,-7.5146484375
1758876734.830631,-0.427734375,-0.13427734375,0.71923828125,-35.82763671875,-2.62451171875,4.638671875,-4.515380859375,40.1824951171875,-7.3992919921875
1758876734.840293,-0.4580078125,-0.17431640625,0.72705078125,-14.22119140625,0.1220703125,2.3193359375,-4.691162109375,40.133056640625,-7.305908203125
1758876734.8503203,-0.4580078125,-0.17431640625,0.72705078125,-14.22119140625,0.1220703125,2.3193359375,-4.779052734375,40.089111328125,-7.22900390625
1758876734.8605742,-0.72802734375,-0.11669921875,0.9501953125,-15.80810546875,0.3662109375,0.91552734375,-4.888916015625,40.0506591796875,-7.1685791015625
1758876734.8703399,-0.72802734375,-0.11669921875,0.9501953125,-15.80810546875,0.3662109375,0.91552734375,-5.0152587890625,40.0177001953125,-7.119140625
1758876734.8803322,-0.7705078125,-0.0205078125,1.1494140625,-48.095703125,-3.35693359375,1.220703125,-5.3009033203125,39.96826171875,-7.0697021484375
1758876734.890443,-0.7705078125,-0.0205078125,1.1494140625,-48.095703125,-3.35693359375,1.220703125,-5.7403564453125,39.8968505859375,-7.0147705078125
1758876734.900997,-0.59716796875,-0.16552734375,0.78466796875,-25.390625,-3.2958984375,0.6103515625,-6.0699462890625,39.8309326171875,-6.96533203125
