timestamp,acc_x,acc_y,acc_z,gyro_x,gyro_y,gyro_z,angle_x,angle_y,angle_z
1758525321.3102841,0.0,0.0,0.0,0.0,0.0,0.0,3.8397216796875,49.6856689453125,-137.7081298828125
1758525321.3224847,-0.76806640625,0.06005859375,0.6357421875,0.54931640625,0.91552734375,7.99560546875,3.9385986328125,49.6856689453125,-137.5872802734375
1758525321.3346617,-0.7646484375,0.06005859375,0.64404296875,-0.732421875,0.67138671875,7.568359375,4.0155029296875,49.6856689453125,-137.471923828125
1758525321.3493848,-0.7646484375,0.06005859375,0.64404296875,-0.732421875,0.67138671875,7.568359375,4.097900390625,49.6856689453125,-137.3565673828125
1758525321.3636584,-0.7568359375,0.05126953125,0.65234375,-1.40380859375,0.54931640625,7.2021484375,4.163818359375,49.6856689453125,-137.2467041015625
1758525321.3751333,-0.7568359375,0.05126953125,0.65234375,-1.40380859375,0.54931640625,7.2021484375,4.2352294921875,49.6856689453125,-137.1368408203125
1758525321.3899677,-0.75390625,0.05078125,0.6572265625,-0.9765625,0.54931640625,6.7138671875,4.3011474609375,49.6856689453125,-137.0379638671875
1758525321.4017823,-0.75390625,0.05078125,0.6572265625,-0.9765625,0.54931640625,6.7138671875,4.3670654296875,49.6856689453125,-136.9390869140625
1758525321.409525,-0.7509765625,0.05859375,0.65673828125,-0.1220703125,0.54931640625,6.04248046875,4.4384765625,49.68017578125,-136.8511962890625
1758525321.4163249,-0.7509765625,0.05859375,0.65673828125,-0.1220703125,0.54931640625,6.04248046875,4.50439453125,49.68017578125,-136.7578125
1758525321.422721,-0.76220703125,0.06982421875,0.6484375,0.54931640625,0.30517578125,5.2490234375,4.5703125,49.6746826171875,-136.680908203125
1758525321.4291856,-0.76220703125,0.06982421875,0.6484375,0.54931640625,0.30517578125,5.2490234375,4.6417236328125,49.6746826171875,-136.60400390625
1758525321.4355853,-0.76806640625,0.06396484375,0.64404296875,1.03759765625,0.30517578125,4.7607421875,4.7076416015625,49.669189453125,-136.5325927734375
1758525321.4418879,-0.76806640625,0.06396484375,0.64404296875,1.03759765625,0.30517578125,4.7607421875,4.7735595703125,49.669189453125,-136.461181640625
1758525321.4553912,-0.76318359375,0.05615234375,0.6494140625,1.46484375,0.18310546875,4.638671875,4.8394775390625,49.6636962890625,-136.3897705078125
1758525321.461678,-0.76318359375,0.05615234375,0.6494140625,1.46484375,0.18310546875,4.638671875,4.910888671875,49.658203125,-136.3238525390625
1758525321.468692,-0.76220703125,0.056640625,0.65185546875,1.15966796875,0.18310546875,4.69970703125,4.976806640625,49.658203125,-136.25244140625
1758525321.4787621,-0.76220703125,0.056640625,0.65185546875,1.15966796875,0.18310546875,4.69970703125,5.042724609375,49.6527099609375,-136.1810302734375
1758525321.488786,-0.76416015625,0.064453125,0.64697265625,-0.06103515625,0.1220703125,4.638671875,5.0921630859375,49.647216796875,-136.1151123046875
1758525321.4987328,-0.76416015625,0.064453125,0.64697265625,-0.06103515625,0.1220703125,4.638671875,5.1470947265625,49.6417236328125,-136.043701171875
1758525321.5087333,-0.76171875,0.07421875,0.646484375,-1.46484375,0.30517578125,4.39453125,5.185546875,49.6417236328125,-135.977783203125
1758525321.5187395,-0.76171875,0.07421875,0.646484375,-1.46484375,0.30517578125,4.39453125,5.218505859375,49.6417236328125,-135.911865234375
1758525321.5287657,-0.763671875,0.068359375,0.65576171875,-1.708984375,0.48828125,3.90625,5.25146484375,49.6417236328125,-135.8514404296875
1758525321.538797,-0.763671875,0.068359375,0.65576171875,-1.708984375,0.48828125,3.90625,5.2789306640625,49.6417236328125,-135.7965087890625
1758525321.5488544,-0.765625,0.06591796875,0.65185546875,0.0,0.48828125,3.41796875,5.3228759765625,49.6417236328125,-135.7415771484375
1758525321.558805,-0.765625,0.06591796875,0.65185546875,0.0,0.48828125,3.41796875,5.361328125,49.6417236328125,-135.692138671875
1758525321.5688531,-0.771484375,0.07080078125,0.64208984375,1.708984375,0.30517578125,3.11279296875,5.416259765625,49.6417236328125,-135.6427001953125
1758525321.578832,-0.771484375,0.07080078125,0.64208984375,1.708984375,0.30517578125,3.11279296875,5.47119140625,49.63623046875,-135.59326171875
1758525321.588852,-0.7666015625,0.06982421875,0.64111328125,0.732421875,0.244140625,3.23486328125,5.5206298828125,49.63623046875,-135.5438232421875
1758525321.5988576,-0.7666015625,0.06982421875,0.64111328125,0.732421875,0.244140625,3.23486328125,5.5645751953125,49.63623046875,-135.494384765625
1758525321.6089108,-0.75732421875,0.0654296875,0.642578125,-2.38037109375,0.3662109375,3.662109375,5.5865478515625,49.63623046875,-135.439453125
1758525321.6188734,-0.75732421875,0.0654296875,0.642578125,-2.38037109375,0.3662109375,3.662109375,5.6085205078125,49.63623046875,-135.3790283203125
1758525321.6289036,-0.7568359375,0.05859375,0.66552734375,-4.5166015625,0.6103515625,4.150390625,5.6085205078125,49.63623046875,-135.318603515625
1758525321.6389003,-0.7568359375,0.05859375,0.66552734375,-4.5166015625,0.6103515625,4.150390625,5.614013671875,49.63623046875,-135.2581787109375
1758525321.6489239,-0.76220703125,0.06982421875,0.6474609375,-5.0048828125,0.30517578125,3.90625,5.614013671875,49.63623046875,-135.19775390625
1758525321.658936,-0.76220703125,0.06982421875,0.6474609375,-5.0048828125,0.30517578125,3.90625,5.6085205078125,49.63623046875,-135.1373291015625
1758525321.6689432,-0.75390625,0.09375,0.6337890625,-5.79833984375,0.18310546875,2.99072265625,5.5865478515625,49.6307373046875,-135.0933837890625
1758525321.6789517,-0.75390625,0.09375,0.6337890625,-5.79833984375,0.18310546875,2.99072265625,5.570068359375,49.6307373046875,-135.0439453125
1758525321.688969,-0.74853515625,0.0849609375,0.64697265625,-5.859375,0.18310546875,2.13623046875,5.537109375,49.625244140625,-135.010986328125
1758525321.6989744,-0.74853515625,0.0849609375,0.64697265625,-5.859375,0.18310546875,2.13623046875,5.5096435546875,49.625244140625,-134.9725341796875
1758525321.7089977,-0.751953125,0.0517578125,0.669921875,-2.99072265625,0.42724609375,1.52587890625,5.504150390625,49.625244140625,-134.9505615234375
1758525321.7190025,-0.751953125,0.0517578125,0.669921875,-2.99072265625,0.42724609375,1.52587890625,5.4986572265625,49.625244140625,-134.923095703125
1758525321.7290184,-0.763671875,0.05322265625,0.6640625,0.732421875,0.79345703125,1.40380859375,5.526123046875,49.6307373046875,-134.901123046875
1758525321.739028,-0.763671875,0.05322265625,0.6640625,0.732421875,0.79345703125,1.40380859375,5.548095703125,49.63623046875,-134.879150390625
1758525321.7490342,-0.76123046875,0.072265625,0.64208984375,1.28173828125,1.220703125,1.52587890625,5.5810546875,49.6417236328125,-134.857177734375
1758525321.7590637,-0.76123046875,0.072265625,0.64208984375,1.28173828125,1.220703125,1.52587890625,5.6195068359375,49.647216796875,-134.835205078125
1758525321.7690594,-0.7587890625,0.06787109375,0.6474609375,-0.06103515625,1.40380859375,1.5869140625,5.635986328125,49.658203125,-134.8077392578125
1758525321.779104,-0.7587890625,0.06787109375,0.6474609375,-0.06103515625,1.40380859375,1.5869140625,5.657958984375,49.669189453125,-134.7857666015625
1758525321.7893727,-0.75634765625,0.0673828125,0.64892578125,-0.42724609375,1.28173828125,1.52587890625,5.6744384765625,49.68017578125,-134.7637939453125
1758525321.799241,-0.75634765625,0.0673828125,0.64892578125,-0.42724609375,1.28173828125,1.52587890625,5.69091796875,49.6856689453125,-134.736328125
1758525321.809123,-0.7578125,0.06982421875,0.64990234375,-0.30517578125,1.03759765625,1.40380859375,5.7073974609375,49.691162109375,-134.71435546875
1758525321.819166,-0.7578125,0.06982421875,0.64990234375,-0.30517578125,1.03759765625,1.40380859375,5.723876953125,49.6966552734375,-134.6923828125
1758525321.829164,-0.76904296875,0.083984375,0.6494140625,-1.03759765625,0.244140625,0.9765625,5.7293701171875,49.6966552734375,-134.6759033203125
1758525321.8391845,-0.76904296875,0.083984375,0.6494140625,-1.03759765625,0.244140625,0.9765625,5.7293701171875,49.6966552734375,-134.659423828125
1758525321.8492086,-0.75634765625,0.0673828125,0.60498046875,-2.01416015625,-0.48828125,0.79345703125,5.723876953125,49.691162109375,-134.6484375
1758525321.859194,-0.75634765625,0.0673828125,0.60498046875,-2.01416015625,-0.48828125,0.79345703125,5.712890625,49.68017578125,-134.637451171875
1758525321.8693647,-0.77783203125,0.05810546875,0.66748046875,1.28173828125,-0.18310546875,1.3427734375,5.745849609375,49.68017578125,-134.615478515625
1758525321.8792844,-0.77783203125,0.05810546875,0.66748046875,1.28173828125,-0.18310546875,1.3427734375,5.7733154296875,49.6746826171875,-134.593505859375
1758525321.8893306,-0.77783203125,0.05810546875,0.66748046875,-1.77001953125,0.06103515625,1.64794921875,5.77880859375,49.6746826171875,-134.571533203125
1758525321.899262,-0.75244140625,0.060546875,0.67041015625,-1.77001953125,0.06103515625,1.64794921875,5.77880859375,49.669189453125,-134.549560546875
1758525321.9096184,-0.75537109375,0.07666015625,0.6357421875,-2.01416015625,0.42724609375,1.52587890625,5.77880859375,49.669189453125,-134.527587890625
1758525321.919347,-0.75537109375,0.07666015625,0.6357421875,-2.01416015625,0.42724609375,1.52587890625,5.77880859375,49.669189453125,-134.505615234375
1758525321.9294083,-0.775390625,0.07421875,0.6484375,0.0,0.67138671875,1.3427734375,5.7952880859375,49.6746826171875,-134.483642578125
1758525321.9393501,-0.775390625,0.07421875,0.6484375,0.0,0.67138671875,1.3427734375,5.8172607421875,49.68017578125,-134.461669921875
1758525321.9556737,-0.7568359375,0.06640625,0.64501953125,0.79345703125,0.8544921875,1.28173828125,5.8392333984375,49.6856689453125,-134.4451904296875
1758525321.9626415,-0.7568359375,0.06640625,0.64501953125,0.79345703125,0.8544921875,1.28173828125,5.86669921875,49.691162109375,-134.4232177734375
1758525321.9696848,-0.72900390625,0.0712890625,0.6513671875,-0.6103515625,0.8544921875,1.220703125,5.877685546875,49.6966552734375,-134.40673828125
1758525321.979419,-0.72900390625,0.0712890625,0.6513671875,-0.6103515625,0.8544921875,1.220703125,5.888671875,49.7021484375,-134.3902587890625
1758525321.9962714,-0.74853515625,0.0732421875,0.66064453125,-3.41796875,0.91552734375,0.8544921875,5.86669921875,49.7076416015625,-134.373779296875
1758525322.0030005,-0.74853515625,0.0732421875,0.66064453125,-3.41796875,0.91552734375,0.8544921875,5.8447265625,49.713134765625,-134.36279296875
1758525322.0094519,-0.76904296875,0.07177734375,0.6552734375,-2.44140625,0.8544921875,0.54931640625,5.8282470703125,49.713134765625,-134.3572998046875
1758525322.0195527,-0.76904296875,0.07177734375,0.6552734375,-2.44140625,0.8544921875,0.54931640625,5.8172607421875,49.7186279296875,-134.3463134765625
1758525322.0364068,-0.7744140625,0.0673828125,0.63037109375,1.77001953125,0.6103515625,0.42724609375,5.8392333984375,49.72412109375,-134.3408203125
1758525322.0425138,-0.7744140625,0.0673828125,0.63037109375,1.77001953125,0.6103515625,0.42724609375,5.86669921875,49.72412109375,-134.329833984375
1758525322.0494351,-0.775390625,0.06982421875,0.63720703125,2.86865234375,0.42724609375,0.54931640625,5.9051513671875,49.7296142578125,-134.3243408203125
1758525322.0595872,-0.775390625,0.06982421875,0.63720703125,2.86865234375,0.42724609375,0.54931640625,5.9381103515625,49.7296142578125,-134.3133544921875
1758525322.0725393,-0.765625,0.06494140625,0.6435546875,0.79345703125,0.3662109375,1.03759765625,5.9600830078125,49.7296142578125,-134.296875
1758525322.07966,-0.765625,0.06494140625,0.6435546875,0.79345703125,0.3662109375,1.03759765625,5.9820556640625,49.735107421875,-134.2803955078125
1758525322.0898285,-0.759765625,0.064453125,0.64990234375,-0.1220703125,0.6103515625,1.5869140625,6.0040283203125,49.735107421875,-134.2584228515625
1758525322.0995862,-0.759765625,0.064453125,0.64990234375,-0.1220703125,0.6103515625,1.5869140625,6.0205078125,49.7406005859375,-134.23095703125
1758525322.1095486,-0.75732421875,0.06640625,0.6572265625,0.67138671875,1.15966796875,2.0751953125,6.053466796875,49.7515869140625,-134.2034912109375
1758525322.1228495,-0.75732421875,0.06640625,0.6572265625,0.67138671875,1.15966796875,2.0751953125,6.08642578125,49.757080078125,-134.1705322265625
1758525322.1295764,-0.75732421875,0.06640625,0.6572265625,1.64794921875,1.708984375,2.5634765625,6.13037109375,49.76806640625,-134.132080078125
1758525322.1395965,-0.7529296875,0.06396484375,0.65478515625,1.64794921875,1.708984375,2.5634765625,6.1798095703125,49.779052734375,-134.0936279296875
1758525322.1497686,-0.7587890625,0.06396484375,0.6552734375,1.708984375,2.44140625,3.11279296875,6.2347412109375,49.801025390625,-134.0496826171875
1758525322.1637108,-0.7587890625,0.06396484375,0.6552734375,1.708984375,2.44140625,3.11279296875,6.2896728515625,49.8175048828125,-134.0057373046875
1758525322.1703947,-0.76611328125,0.068359375,0.65185546875,1.40380859375,2.99072265625,3.662109375,6.3446044921875,49.8394775390625,-133.9508056640625
1758525322.1802459,-0.76611328125,0.068359375,0.65185546875,1.40380859375,2.99072265625,3.662109375,6.405029296875,49.8614501953125,-133.8958740234375
1758525322.1961637,-0.7666015625,0.07568359375,0.640625,0.79345703125,3.35693359375,4.08935546875,6.4599609375,49.888916015625,-133.83544921875
1758525322.2031474,-0.7666015625,0.07568359375,0.640625,0.79345703125,3.35693359375,4.08935546875,6.5203857421875,49.910888671875,-133.7750244140625
1758525322.2096095,-0.76220703125,0.07958984375,0.64404296875,0.0,3.5400390625,4.21142578125,6.56982421875,49.9383544921875,-133.7091064453125
1758525322.21971,-0.76220703125,0.07958984375,0.64404296875,0.0,3.5400390625,4.21142578125,6.624755859375,49.9658203125,-133.6431884765625
1758525322.2356389,-0.759765625,0.08154296875,0.64453125,-0.1220703125,3.60107421875,4.08935546875,6.6741943359375,49.9932861328125,-133.582763671875
1758525322.242293,-0.759765625,0.08154296875,0.64453125,-0.1220703125,3.60107421875,4.08935546875,6.7236328125,50.020751953125,-133.516845703125
1758525322.2497227,-0.7568359375,0.080078125,0.6455078125,1.03759765625,3.47900390625,4.150390625,6.7840576171875,50.0482177734375,-133.4564208984375
1758525322.2661083,-0.76953125,0.0751953125,0.6435546875,1.5869140625,3.173828125,4.57763671875,6.8499755859375,50.07568359375,-133.3905029296875
1758525322.2726781,-0.76953125,0.0751953125,0.6435546875,1.5869140625,3.173828125,4.57763671875,6.9268798828125,50.09765625,-133.319091796875
1758525322.2797794,-0.7734375,0.07275390625,0.625,0.18310546875,2.5634765625,5.31005859375,6.9927978515625,50.1141357421875,-133.2421875
1758525322.2897654,-0.7734375,0.07275390625,0.625,0.18310546875,2.5634765625,5.31005859375,7.0587158203125,50.130615234375,-133.165283203125
1758525322.3047915,-0.76904296875,0.08984375,0.62548828125,-4.57763671875,2.01416015625,5.67626953125,7.1026611328125,50.1470947265625,-133.0828857421875
1758525322.3108313,-0.76904296875,0.08984375,0.62548828125,-4.57763671875,2.01416015625,5.67626953125,7.1246337890625,50.1580810546875,-133.00048828125
1758525322.3203502,-0.7685546875,0.099609375,0.63037109375,-8.97216796875,1.3427734375,5.18798828125,7.1246337890625,50.16357421875,-132.9180908203125
1758525322.335428,-0.7685546875,0.099609375,0.63037109375,-8.97216796875,1.3427734375,5.18798828125,7.09716796875,50.1690673828125,-132.8411865234375
1758525322.3414316,-0.75537109375,0.09814453125,0.623046875,-7.14111328125,0.3662109375,3.90625,7.0751953125,50.174560546875,-132.769775390625
1758525322.3497813,-0.75537109375,0.09814453125,0.623046875,-7.14111328125,0.3662109375,3.90625,7.05322265625,50.1690673828125,-132.7093505859375
1758525322.366651,-0.73486328125,0.09716796875,0.63134765625,-2.50244140625,-0.3662109375,2.44140625,7.042236328125,50.16357421875,-132.6654052734375
1758525322.372869,-0.73486328125,0.09716796875,0.63134765625,-2.50244140625,-0.3662109375,2.44140625,7.05322265625,50.1580810546875,-132.626953125
1758525322.3798718,-0.7109375,0.1044921875,0.66064453125,-2.8076171875,-1.0986328125,1.220703125,7.0477294921875,50.1470947265625,-132.60498046875
1758525322.395864,-0.7109375,0.1044921875,0.66064453125,-2.8076171875,-1.0986328125,1.220703125,7.042236328125,50.130615234375,-132.5885009765625
1758525322.4019694,-0.68603515625,0.1064453125,0.7080078125,-11.53564453125,-1.3427734375,0.06103515625,6.9818115234375,50.108642578125,-132.5830078125
1758525322.4099371,-0.68603515625,0.1064453125,0.7080078125,-11.53564453125,-1.3427734375,0.06103515625,6.8719482421875,50.086669921875,-132.5885009765625
1758525322.4262478,-0.6689453125,0.09765625,0.73486328125,-21.42333984375,-1.89208984375,-1.5869140625,6.70166015625,50.0592041015625,-132.60498046875
1758525322.4328644,-0.6689453125,0.09765625,0.73486328125,-21.42333984375,-1.89208984375,-1.5869140625,6.4764404296875,50.0262451171875,-132.637939453125
1758525322.4399247,-0.6435546875,0.0986328125,0.767578125,-25.0244140625,-1.15966796875,-3.72314453125,6.21826171875,49.998779296875,-132.6873779296875
1758525322.4498863,-0.6435546875,0.0986328125,0.767578125,-25.0244140625,-1.15966796875,-3.72314453125,5.9381103515625,49.9658203125,-132.7532958984375
1758525322.4604626,-0.62158203125,0.0517578125,0.7998046875,-17.4560546875,-0.48828125,-5.2490234375,5.679931640625,49.9383544921875,-132.835693359375
1758525322.4699247,-0.62158203125,0.0517578125,0.7998046875,-17.4560546875,-0.48828125,-5.2490234375,5.4547119140625,49.9053955078125,-132.9290771484375
1758525322.4799457,-0.58349609375,0.02587890625,0.8603515625,-4.69970703125,-0.48828125,-5.0048828125,5.2899169921875,49.8724365234375,-133.0279541015625
1758525322.4902468,-0.58349609375,0.02587890625,0.8603515625,-4.69970703125,-0.48828125,-5.0048828125,5.1910400390625,49.8284912109375,-133.13232421875
1758525322.4999852,-0.5751953125,-0.00048828125,0.9287109375,-1.0986328125,-2.8076171875,-2.74658203125,5.1141357421875,49.76806640625,-133.231201171875
1758525322.509932,-0.5751953125,-0.00048828125,0.9287109375,-1.0986328125,-2.8076171875,-2.74658203125,5.0592041015625,49.691162109375,-133.3245849609375
1758525322.5200489,-0.56005859375,-0.037109375,0.95263671875,-7.99560546875,-5.2490234375,-0.79345703125,4.976806640625,49.59228515625,-133.41796875
1758525322.5304546,-0.56005859375,-0.037109375,0.95263671875,-7.99560546875,-5.2490234375,-0.79345703125,4.866943359375,49.482421875,-133.505859375
1758525322.5400283,-0.59326171875,-0.0341796875,0.93310546875,-10.6201171875,-7.4462890625,-0.48828125,4.735107421875,49.3505859375,-133.5992431640625
1758525322.5499961,-0.59326171875,-0.0341796875,0.93310546875,-10.6201171875,-7.4462890625,-0.48828125,4.59228515625,49.207763671875,-133.6981201171875
1758525322.5600798,-0.59423828125,0.0498046875,0.95751953125,-7.87353515625,-10.19287109375,0.244140625,4.46044921875,49.053955078125,-133.802490234375
1758525322.5702436,-0.59423828125,0.0498046875,0.95751953125,-7.87353515625,-10.19287109375,0.244140625,4.3505859375,48.878173828125,-133.9013671875
1758525322.5800462,-0.5849609375,0.0673828125,0.89208984375,-5.43212890625,-12.63427734375,0.9765625,4.251708984375,48.6859130859375,-133.9947509765625
1758525322.5900424,-0.5849609375,0.0673828125,0.89208984375,-5.43212890625,-12.63427734375,0.9765625,4.1748046875,48.4881591796875,-134.0826416015625
1758525322.6000578,-0.599609375,-0.076171875,0.68701171875,-1.52587890625,-13.5498046875,1.708984375,4.119873046875,48.2794189453125,-134.1595458984375
1758525322.6104836,-0.599609375,-0.076171875,0.68701171875,-1.52587890625,-13.5498046875,1.708984375,4.0869140625,48.0706787109375,-134.2364501953125
1758525322.6200793,-0.5595703125,-0.07568359375,0.68408203125,9.765625,-14.58740234375,2.197265625,4.1033935546875,47.867431640625,-134.307861328125
1758525322.6300821,-0.5595703125,-0.07568359375,0.68408203125,9.765625,-14.58740234375,2.197265625,4.1802978515625,47.6531982421875,-134.3792724609375
1758525322.6401114,-0.6376953125,0.06787109375,0.72119140625,11.5966796875,-14.0380859375,3.60107421875,4.2681884765625,47.449951171875,-134.439697265625
1758525322.6503286,-0.6376953125,0.06787109375,0.72119140625,11.5966796875,-14.0380859375,3.60107421875,4.3780517578125,47.252197265625,-134.483642578125
1758525322.6602097,-0.7822265625,0.04931640625,0.689453125,-1.5869140625,-12.87841796875,4.638671875,4.4329833984375,47.0599365234375,-134.505615234375
1758525322.6701136,-0.7822265625,0.04931640625,0.689453125,-1.5869140625,-12.87841796875,4.638671875,4.4329833984375,46.8841552734375,-134.5166015625
1758525322.6820793,-0.986328125,-0.001953125,0.53076171875,-3.72314453125,-11.90185546875,6.04248046875,4.427490234375,46.7193603515625,-134.505615234375
1758525322.6915648,-0.986328125,-0.001953125,0.53076171875,-3.72314453125,-11.90185546875,6.04248046875,4.4219970703125,46.571044921875,-134.4671630859375
1758525322.7001429,-0.9072265625,0.0068359375,0.685546875,11.1083984375,-13.48876953125,6.53076171875,4.493408203125,46.42822265625,-134.4232177734375
1758525322.7101715,-0.9072265625,0.0068359375,0.685546875,11.1083984375,-13.48876953125,6.53076171875,4.6417236328125,46.285400390625,-134.3682861328125
1758525322.7201903,-0.81787109375,0.07373046875,0.552734375,16.4794921875,-12.02392578125,6.7138671875,4.8175048828125,46.153564453125,-134.307861328125
1758525322.7301974,-0.81787109375,0.07373046875,0.552734375,16.4794921875,-12.02392578125,6.7138671875,5.020751953125,46.03271484375,-134.241943359375
1758525322.7406452,-0.74462890625,0.11572265625,0.5556640625,6.65283203125,-10.6201171875,6.40869140625,5.1800537109375,45.9283447265625,-134.1705322265625
1758525322.7501922,-0.74462890625,0.11572265625,0.5556640625,6.65283203125,-10.6201171875,6.40869140625,5.284423828125,45.8294677734375,-134.09912109375
1758525322.7602077,-0.646484375,0.1513671875,0.56103515625,8.1787109375,-7.9345703125,6.9580078125,5.4107666015625,45.7470703125,-134.01123046875
1758525322.770314,-0.646484375,0.1513671875,0.56103515625,8.1787109375,-7.9345703125,6.9580078125,5.5535888671875,45.68115234375,-133.912353515625
1758525322.7806025,-0.6025390625,0.11669921875,0.46533203125,2.50244140625,-4.94384765625,6.89697265625,5.6689453125,45.626220703125,-133.8079833984375
1758525322.7902837,-0.6025390625,0.11669921875,0.46533203125,2.50244140625,-4.94384765625,6.89697265625,5.7623291015625,45.59326171875,-133.6981201171875
1758525322.800268,-0.60498046875,0.06005859375,0.86474609375,10.3759765625,-3.47900390625,6.4697265625,5.8941650390625,45.560302734375,-133.5882568359375
1758525322.8106308,-0.60498046875,0.06005859375,0.86474609375,10.3759765625,-3.47900390625,6.4697265625,6.0589599609375,45.5328369140625,-133.4893798828125
1758525322.8205607,-0.63134765625,0.14501953125,1.068359375,10.55908203125,-4.82177734375,5.31005859375,6.21826171875,45.4833984375,-133.406982421875
1758525322.8303165,-0.63134765625,0.14501953125,1.068359375,10.55908203125,-4.82177734375,5.31005859375,6.3720703125,45.4229736328125,-133.341064453125
1758525322.8407173,-0.49853515625,0.2705078125,1.04248046875,-20.08056640625,-5.126953125,5.37109375,6.3775634765625,45.3460693359375,-133.275146484375
1758525322.85036,-0.49853515625,0.2705078125,1.04248046875,-20.08056640625,-5.126953125,5.37109375,6.2347412109375,45.2581787109375,-133.2147216796875
1758525322.8603668,-0.3935546875,0.1328125,0.642578125,-42.8466796875,-2.685546875,4.638671875,5.9820556640625,45.17578125,-133.1488037109375
1758525322.8703494,-0.3935546875,0.1328125,0.642578125,-42.8466796875,-2.685546875,4.638671875,5.614013671875,45.1043701171875,-133.0938720703125
1758525322.880908,-0.28369140625,0.00732421875,0.69140625,-41.93115234375,0.91552734375,3.11279296875,5.25146484375,45.0439453125,-133.04443359375
1758525322.8903604,-0.28369140625,0.00732421875,0.69140625,-41.93115234375,0.91552734375,3.11279296875,4.8834228515625,45.0,-133.0169677734375
1758525322.9003417,-0.33642578125,0.09765625,0.6259765625,-26.85546875,6.103515625,2.38037109375,4.5867919921875,44.9725341796875,-132.9949951171875
1758525322.910412,-0.33642578125,0.09765625,0.6259765625,-26.85546875,6.103515625,2.38037109375,4.361572265625,44.9725341796875,-132.9730224609375
1758525322.920462,-0.53564453125,0.02978515625,0.76611328125,-7.62939453125,10.25390625,0.3662109375,4.229736328125,44.989013671875,-132.967529296875
1758525322.9304426,-0.53564453125,0.02978515625,0.76611328125,-7.62939453125,10.25390625,0.3662109375,4.1802978515625,45.0274658203125,-132.978515625
1758525322.9404907,-0.810546875,-0.11669921875,1.23193359375,32.28759765625,5.859375,-0.91552734375,4.317626953125,45.0439453125,-133.0059814453125
1758525322.9504976,-0.810546875,-0.11669921875,1.23193359375,32.28759765625,5.859375,-0.91552734375,4.6307373046875,45.0384521484375,-133.0609130859375
1758525322.9605358,-0.81005859375,-0.01806640625,1.25537109375,56.09130859375,-0.8544921875,-4.0283203125,5.03173828125,45.0,-133.154296875
1758525322.9704669,-0.81005859375,-0.01806640625,1.25537109375,56.09130859375,-0.8544921875,-4.0283203125,5.526123046875,44.93408203125,-133.2806396484375
1758525322.9823332,-0.65380859375,0.171875,0.8544921875,30.3955078125,-4.21142578125,-4.638671875,5.8831787109375,44.84619140625,-133.41796875
1758525322.9918299,-0.65380859375,0.171875,0.8544921875,30.3955078125,-4.21142578125,-4.638671875,6.1083984375,44.747314453125,-133.5498046875
1758525323.000874,-0.8828125,0.19580078125,0.87890625,2.01416015625,-9.6435546875,-3.23486328125,6.207275390625,44.62646484375,-133.670654296875
1758525323.0105536,-0.8828125,0.19580078125,0.87890625,2.01416015625,-9.6435546875,-3.23486328125,6.17431640625,44.483642578125,-133.7750244140625
1758525323.0205345,-1.029296875,0.2109375,0.8603515625,-14.09912109375,-13.12255859375,-2.86865234375,6.064453125,44.329833984375,-133.8629150390625
1758525323.0306323,-1.029296875,0.2109375,0.8603515625,-14.09912109375,-13.12255859375,-2.86865234375,5.888671875,44.1650390625,-133.934326171875
1758525323.040912,-0.70361328125,0.259765625,0.69287109375,-43.3349609375,-17.7001953125,-2.197265625,5.570068359375,43.9892578125,-133.9947509765625
1758525323.0506682,-0.70361328125,0.259765625,0.69287109375,-43.3349609375,-17.7001953125,-2.197265625,5.11962890625,43.79150390625,-134.033203125
1758525323.0606027,-0.54150390625,0.03662109375,0.240234375,-62.56103515625,-12.5732421875,0.06103515625,4.5977783203125,43.6212158203125,-134.044189453125
1758525323.0707166,-0.54150390625,0.03662109375,0.240234375,-62.56103515625,-12.5732421875,0.06103515625,3.9935302734375,43.4893798828125,-134.022216796875
1758525323.0809984,-0.6611328125,-0.01171875,0.14404296875,-45.5322265625,-6.591796875,-2.62451171875,3.4661865234375,43.39599609375,-134.01123046875
1758525323.090851,-0.6611328125,-0.01171875,0.14404296875,-45.5322265625,-6.591796875,-2.62451171875,3.0157470703125,43.3465576171875,-134.0057373046875
1758525323.10063,-0.904296875,0.1220703125,0.56787109375,-32.3486328125,-2.25830078125,-1.15966796875,2.63671875,43.330078125,-133.9837646484375
1758525323.110594,-0.904296875,0.1220703125,0.56787109375,-32.3486328125,-2.25830078125,-1.15966796875,2.3345947265625,43.341064453125,-133.9398193359375
1758525323.1207209,-1.13232421875,0.12060546875,0.8203125,-28.38134765625,-3.90625,2.9296875,2.076416015625,43.35205078125,-133.8629150390625
1758525323.1310904,-1.13232421875,0.12060546875,0.8203125,-28.38134765625,-3.90625,2.9296875,1.8511962890625,43.3575439453125,-133.758544921875
1758525323.140794,-0.90966796875,-0.0234375,0.78515625,-22.76611328125,-6.89697265625,2.62451171875,1.6534423828125,43.3465576171875,-133.65966796875
1758525323.150697,-0.90966796875,-0.0234375,0.78515625,-22.76611328125,-6.89697265625,2.62451171875,1.4776611328125,43.319091796875,-133.5662841796875
1758525323.1607518,-0.70849609375,0.12451171875,0.4248046875,-22.88818359375,-3.23486328125,4.5166015625,1.307373046875,43.3135986328125,-133.4619140625
1758525323.1711788,-0.70849609375,0.12451171875,0.4248046875,-22.88818359375,-3.23486328125,4.5166015625,1.1480712890625,43.330078125,-133.3355712890625
1758525323.180786,-0.8359375,-0.02587890625,0.24951171875,-15.13671875,0.06103515625,2.01416015625,1.0162353515625,43.3685302734375,-133.22021484375
1758525323.1906888,-0.8359375,-0.02587890625,0.24951171875,-15.13671875,0.06103515625,2.01416015625,0.911865234375,43.4344482421875,-133.1268310546875
1758525323.2007325,-1.1064453125,-0.02880859375,0.71044921875,10.43701171875,0.06103515625,1.40380859375,0.9228515625,43.505859375,-133.0389404296875
1758525323.2108734,-1.1064453125,-0.02880859375,0.71044921875,10.43701171875,0.06103515625,1.40380859375,1.0546875,43.5772705078125,-132.9620361328125
1758525323.2207782,-0.994140625,0.11962890625,0.95654296875,-7.9345703125,-5.859375,2.74658203125,1.0931396484375,43.6212158203125,-132.8741455078125
1758525323.2307463,-0.994140625,0.11962890625,0.95654296875,-7.9345703125,-5.859375,2.74658203125,1.0546875,43.626708984375,-132.78076171875
1758525323.240813,-0.56201171875,-0.10498046875,0.677734375,-19.34814453125,-3.41796875,3.90625,0.966796875,43.6376953125,-132.681884765625
1758525323.2510064,-0.56201171875,-0.10498046875,0.677734375,-19.34814453125,-3.41796875,3.90625,0.8184814453125,43.6541748046875,-132.5775146484375
1758525323.2609086,-0.380859375,0.01416015625,0.40771484375,-22.0947265625,-2.44140625,-0.732421875,0.6317138671875,43.670654296875,-132.51708984375
1758525323.2708313,-0.380859375,0.01416015625,0.40771484375,-22.0947265625,-2.44140625,-0.732421875,0.4119873046875,43.6871337890625,-132.4896240234375
1758525323.2808812,-0.458984375,0.0009765625,0.66650390625,-5.55419921875,6.65283203125,-4.45556640625,0.2581787109375,43.74755859375,-132.484130859375
1758525323.291337,-0.458984375,0.0009765625,0.66650390625,-5.55419921875,6.65283203125,-4.45556640625,0.1702880859375,43.846435546875,-132.5115966796875
1758525323.3008487,-0.546875,0.15185546875,0.951171875,3.11279296875,6.16455078125,-7.01904296875,0.1483154296875,43.9288330078125,-132.5665283203125
1758525323.3108954,-0.546875,0.15185546875,0.951171875,3.11279296875,6.16455078125,-7.01904296875,0.1373291015625,43.9947509765625,-132.626953125
1758525323.3209288,-0.46044921875,-0.0546875,1.251953125,4.2724609375,7.6904296875,-5.67626953125,0.142822265625,44.0606689453125,-132.681884765625
1758525323.3313706,-0.46044921875,-0.0546875,1.251953125,4.2724609375,7.6904296875,-5.67626953125,0.142822265625,44.110107421875,-132.747802734375
1758525323.3409235,-0.42041015625,-0.13427734375,0.9794921875,12.02392578125,8.30078125,-8.60595703125,0.186767578125,44.154052734375,-132.879638671875
1758525323.3508968,-0.42041015625,-0.13427734375,0.9794921875,12.02392578125,8.30078125,-8.60595703125,0.2197265625,44.1925048828125,-133.0224609375
1758525323.3609753,-0.58251953125,-0.05224609375,1.11767578125,21.8505859375,5.67626953125,-11.8408203125,0.318603515625,44.1925048828125,-133.22021484375
1758525323.3711188,-0.58251953125,-0.05224609375,1.11767578125,21.8505859375,5.67626953125,-11.8408203125,0.4119873046875,44.1925048828125,-133.428955078125
1758525323.3809896,-0.97705078125,-0.05322265625,0.86962890625,53.5888671875,1.8310546875,-12.75634765625,0.8074951171875,44.1595458984375,-133.6431884765625
1758525323.3909626,-0.97705078125,-0.05322265625,0.86962890625,53.5888671875,1.8310546875,-12.75634765625,1.2030029296875,44.1375732421875,-133.857421875
1758525323.401008,-0.9443359375,0.2724609375,1.330078125,18.73779296875,-9.8876953125,-12.02392578125,1.263427734375,44.000244140625,-134.0496826171875
1758525323.4111142,-0.9443359375,0.2724609375,1.330078125,18.73779296875,-9.8876953125,-12.02392578125,1.3348388671875,43.857421875,-134.23095703125
1758525323.4210522,-0.51953125,-0.04638671875,0.52783203125,-39.61181640625,-6.40869140625,-5.615234375,0.8843994140625,43.7530517578125,-134.31884765625
1758525323.431065,-0.51953125,-0.04638671875,0.52783203125,-39.61181640625,-6.40869140625,-5.615234375,0.439453125,43.6541748046875,-134.40673828125
1758525323.4410465,-0.5107421875,-0.14501953125,0.123046875,-56.2744140625,-3.0517578125,-7.8125,-0.186767578125,43.5992431640625,-134.5166015625
1758525323.4510477,-0.5107421875,-0.14501953125,0.123046875,-56.2744140625,-3.0517578125,-7.8125,-0.823974609375,43.5498046875,-134.6319580078125
1758525323.46152,-0.61767578125,-0.02294921875,0.38037109375,-0.18310546875,6.40869140625,-7.568359375,-0.90087890625,43.604736328125,-134.736328125
1758525323.4710646,-0.61767578125,-0.02294921875,0.38037109375,-0.18310546875,6.40869140625,-7.568359375,-0.9722900390625,43.6651611328125,-134.835205078125
1758525323.4811559,-0.91748046875,0.1181640625,0.54736328125,21.17919921875,8.23974609375,-3.96728515625,-0.7965087890625,43.7530517578125,-134.8736572265625
1758525323.4911475,-0.91748046875,0.1181640625,0.54736328125,21.17919921875,8.23974609375,-3.96728515625,-0.6207275390625,43.8519287109375,-134.8956298828125
1758525323.5016136,-1.07958984375,-0.13623046875,1.140625,27.9541015625,3.41796875,-0.1220703125,-0.340576171875,43.9013671875,-134.8736572265625
1758525323.5111694,-1.07958984375,-0.13623046875,1.140625,27.9541015625,3.41796875,-0.1220703125,-0.06591796875,43.9453125,-134.857177734375
1758525323.5211394,-0.76416015625,0.07763671875,0.4775390625,10.1318359375,4.39453125,0.91552734375,0.032958984375,44.0057373046875,-134.82421875
1758525323.5312173,-0.76416015625,0.07763671875,0.4775390625,10.1318359375,4.39453125,0.91552734375,0.142822265625,44.0716552734375,-134.7857666015625
1758525323.5412703,-0.87548828125,-0.09765625,0.3916015625,-16.41845703125,4.82177734375,2.74658203125,0.0,44.1485595703125,-134.7198486328125
1758525323.5511765,-0.87548828125,-0.09765625,0.3916015625,-16.41845703125,4.82177734375,2.74658203125,-0.142822265625,44.2364501953125,-134.659423828125
1758525323.5611875,-1.0400390625,-0.0009765625,0.7216796875,-0.30517578125,1.77001953125,3.90625,-0.1153564453125,44.296875,-134.5770263671875
1758525323.5712075,-1.0400390625,-0.0009765625,0.7216796875,-0.30517578125,1.77001953125,3.90625,-0.087890625,44.36279296875,-134.49462890625
1758525323.583914,-0.94482421875,-0.0283203125,0.48974609375,13.97705078125,2.50244140625,5.0048828125,0.0823974609375,44.4342041015625,-134.395751953125
1758525323.5927048,-0.94482421875,-0.0283203125,0.48974609375,13.97705078125,2.50244140625,5.0048828125,0.2581787109375,44.5166015625,-134.296875
1758525323.6012175,-0.740234375,-0.0693359375,0.6337890625,23.98681640625,2.44140625,2.99072265625,0.5108642578125,44.593505859375,-134.23095703125
1758525323.6113262,-0.740234375,-0.0693359375,0.6337890625,23.98681640625,2.44140625,2.99072265625,0.7635498046875,44.6649169921875,-134.1705322265625
1758525323.621672,-0.525390625,0.080078125,0.548828125,10.009765625,3.173828125,-0.9765625,0.8404541015625,44.747314453125,-134.1595458984375
1758525323.6313634,-0.525390625,0.080078125,0.548828125,10.009765625,3.173828125,-0.9765625,0.9173583984375,44.8187255859375,-134.1485595703125
1758525323.6412797,-0.6669921875,0.11328125,0.50537109375,-23.8037109375,6.40869140625,-0.42724609375,0.670166015625,44.9285888671875,-134.1265869140625
1758525323.6513722,-0.6669921875,0.11328125,0.50537109375,-23.8037109375,6.40869140625,-0.42724609375,0.428466796875,45.032958984375,-134.0936279296875
1758525323.6615784,-0.8896484375,0.068359375,0.8701171875,-30.3955078125,0.1220703125,0.79345703125,0.1373291015625,45.0714111328125,-134.044189453125
1758525323.6713748,-0.8896484375,0.068359375,0.8701171875,-30.3955078125,0.1220703125,0.79345703125,-0.142822265625,45.10986328125,-133.9947509765625
1758525323.6813614,-0.79248046875,0.10302734375,1.13720703125,-14.0380859375,-8.6669921875,1.40380859375,-0.252685546875,45.0439453125,-133.934326171875
1758525323.6913626,-0.79248046875,0.10302734375,1.13720703125,-14.0380859375,-8.6669921875,1.40380859375,-0.362548828125,44.9725341796875,-133.8739013671875
1758525323.7015295,-0.287109375,0.08154296875,1.0791015625,-23.92578125,-13.0615234375,1.28173828125,-0.560302734375,44.8406982421875,-133.824462890625
1758525323.7116227,-0.287109375,0.08154296875,1.0791015625,-23.92578125,-13.0615234375,1.28173828125,-0.7635498046875,44.6923828125,-133.780517578125
1758525323.7213848,-0.12109375,0.08203125,0.59619140625,-52.42919921875,-11.71875,1.3427734375,-1.241455078125,44.5440673828125,-133.736572265625
1758525323.7313673,-0.12109375,0.08203125,0.59619140625,-52.42919921875,-11.71875,1.3427734375,-1.7083740234375,44.3902587890625,-133.692626953125
1758525323.7414517,-0.296875,-0.12744140625,0.875,-25.93994140625,-11.04736328125,-1.28173828125,-1.9500732421875,44.23095703125,-133.6981201171875
1758525323.751816,-0.296875,-0.12744140625,0.875,-25.93994140625,-11.04736328125,-1.28173828125,-2.1917724609375,44.0606689453125,-133.7200927734375
1758525323.7614253,-0.390625,-0.1064453125,1.1484375,25.45166015625,-12.14599609375,-3.0517578125,-1.9500732421875,43.8739013671875,-133.7860107421875
1758525323.771465,-0.390625,-0.1064453125,1.1484375,25.45166015625,-12.14599609375,-3.0517578125,-1.7138671875,43.670654296875,-133.868408203125
1758525323.7814867,-0.18701171875,0.03564453125,1.12744140625,23.8037109375,-14.83154296875,-4.45556640625,-1.5106201171875,43.4344482421875,-133.978271484375
1758525323.7915454,-0.18701171875,0.03564453125,1.12744140625,23.8037109375,-14.83154296875,-4.45556640625,-1.318359375,43.187255859375,-134.110107421875
1758525323.801467,-0.1240234375,-0.12890625,0.7724609375,-0.244140625,-11.41357421875,-3.11279296875,-1.3568115234375,42.967529296875,-134.2364501953125
1758525323.8114653,-0.1240234375,-0.12890625,0.7724609375,-0.244140625,-11.41357421875,-3.11279296875,-1.4007568359375,42.7423095703125,-134.373779296875
1758525323.821492,-0.3974609375,-0.24462890625,0.794921875,5.0048828125,-10.92529296875,-3.96728515625,-1.417236328125,42.5225830078125,-134.53857421875
1758525323.8318202,-0.3974609375,-0.24462890625,0.794921875,5.0048828125,-10.92529296875,-3.96728515625,-1.439208984375,42.3028564453125,-134.7088623046875
1758525323.8415434,-0.7685546875,-0.55712890625,1.26904296875,89.7216796875,-13.0615234375,-1.953125,-0.615234375,42.07763671875,-134.8681640625
1758525323.851483,-0.7685546875,-0.55712890625,1.26904296875,89.7216796875,-13.0615234375,-1.953125,0.17578125,41.85791015625,-135.0384521484375
1758525323.8616798,-0.72705078125,0.2041015625,1.18359375,132.62939453125,-19.8974609375,-6.8359375,1.3623046875,41.5777587890625,-135.2691650390625
1758525323.8719704,-0.72705078125,0.2041015625,1.18359375,132.62939453125,-19.8974609375,-6.8359375,2.5543212890625,41.3031005859375,-135.4888916015625
1758525323.886695,-0.65576171875,-0.00537109375,0.6376953125,72.44873046875,-22.216796875,-3.35693359375,3.175048828125,41.011962890625,-135.6536865234375
1758525323.894637,-0.65576171875,-0.00537109375,0.6376953125,72.44873046875,-22.216796875,-3.35693359375,3.7957763671875,40.7318115234375,-135.8074951171875
1758525323.9016829,-0.61181640625,0.44384765625,0.64501953125,-27.03857421875,-18.00537109375,3.23486328125,3.4991455078125,40.49560546875,-135.8514404296875
1758525323.9118245,-0.61181640625,0.44384765625,0.64501953125,-27.03857421875,-18.00537109375,3.23486328125,3.22998046875,40.264892578125,-135.8624267578125
1758525323.9218378,-0.60107421875,0.03662109375,0.53515625,-63.53759765625,-15.380859375,7.4462890625,2.6422119140625,40.067138671875,-135.7965087890625
1758525323.9316611,-0.60107421875,0.03662109375,0.53515625,-63.53759765625,-15.380859375,7.4462890625,2.0599365234375,39.8748779296875,-135.72509765625
1758525323.9422393,-0.71142578125,-0.3642578125,0.56689453125,-11.04736328125,-10.92529296875,3.96728515625,1.966552734375,39.7430419921875,-135.703125
1758525323.951927,-0.71142578125,-0.3642578125,0.56689453125,-11.04736328125,-10.92529296875,3.96728515625,1.856689453125,39.6221923828125,-135.6866455078125
1758525323.9619641,-0.7802734375,0.14404296875,0.7529296875,24.96337890625,-5.9814453125,1.0986328125,2.0819091796875,39.55078125,-135.703125
1758525323.9717095,-0.7802734375,0.14404296875,0.7529296875,24.96337890625,-5.9814453125,1.0986328125,2.318115234375,39.4903564453125,-135.703125
1758525323.9817152,-1.04150390625,0.16064453125,0.986328125,15.13671875,-11.8408203125,2.0751953125,2.471923828125,39.375,-135.68115234375
1758525323.9921718,-1.04150390625,0.16064453125,0.986328125,15.13671875,-11.8408203125,2.0751953125,2.625732421875,39.26513671875,-135.6536865234375
1758525324.0016973,-0.654296875,0.02734375,0.75341796875,16.54052734375,-6.8359375,2.0751953125,2.7960205078125,39.210205078125,-135.615234375
1758525324.0117352,-0.654296875,0.02734375,0.75341796875,16.54052734375,-6.8359375,2.0751953125,2.9718017578125,39.1497802734375,-135.582275390625
1758525324.02173,-0.42724609375,0.140625,0.08251953125,-19.59228515625,-0.6103515625,4.150390625,2.801513671875,39.1607666015625,-135.50537109375
1758525324.032005,-0.42724609375,0.140625,0.08251953125,-19.59228515625,-0.6103515625,4.150390625,2.6422119140625,39.1827392578125,-135.41748046875
1758525324.041742,-0.55029296875,-0.416015625,0.31787109375,-7.87353515625,9.82666015625,0.67138671875,2.5653076171875,39.3145751953125,-135.3790283203125
1758525324.0518188,-0.55029296875,-0.416015625,0.31787109375,-7.87353515625,9.82666015625,0.67138671875,2.4609375,39.451904296875,-135.362548828125
1758525324.0618358,-0.70361328125,0.0390625,0.62744140625,31.18896484375,16.17431640625,0.3662109375,2.74658203125,39.649658203125,-135.3515625
1758525324.0721276,-0.70361328125,0.0390625,0.62744140625,31.18896484375,16.17431640625,0.3662109375,3.0377197265625,39.8529052734375,-135.32958984375
1758525324.0820134,-1.05517578125,0.36767578125,1.18310546875,9.82666015625,10.3759765625,2.99072265625,3.1475830078125,39.9957275390625,-135.2691650390625
1758525324.0918417,-1.05517578125,0.36767578125,1.18310546875,9.82666015625,10.3759765625,2.99072265625,3.27392578125,40.1275634765625,-135.186767578125
1758525324.1018503,-1.12060546875,0.18359375,1.111328125,-28.80859375,7.2021484375,4.94384765625,3.0377197265625,40.2264404296875,-135.0823974609375
1758525324.1119745,-1.12060546875,0.18359375,1.111328125,-28.80859375,7.2021484375,4.94384765625,2.801513671875,40.3253173828125,-134.967041015625
1758525324.121883,-0.966796875,0.10693359375,0.4111328125,-50.78125,7.4462890625,6.2255859375,2.3675537109375,40.4351806640625,-134.8297119140625
1758525324.131876,-0.966796875,0.10693359375,0.4111328125,-50.78125,7.4462890625,6.2255859375,1.9281005859375,40.5560302734375,-134.6868896484375
1758525324.1418967,-1.0087890625,-0.04248046875,0.42578125,-35.400390625,7.14111328125,5.31005859375,1.636962890625,40.682373046875,-134.560546875
1758525324.152304,-1.0087890625,-0.04248046875,0.42578125,-35.400390625,7.14111328125,5.31005859375,1.3458251953125,40.8197021484375,-134.4287109375
1758525324.161946,-0.927734375,0.3349609375,0.57958984375,-3.7841796875,4.08935546875,5.67626953125,1.373291015625,40.93505859375,-134.285888671875
1758525324.1718957,-0.927734375,0.3349609375,0.57958984375,-3.7841796875,4.08935546875,5.67626953125,1.4117431640625,41.0504150390625,-134.1265869140625
1758525324.1819186,-0.8232421875,0.24755859375,0.625,-28.25927734375,3.72314453125,11.04736328125,1.263427734375,41.1602783203125,-133.890380859375
1758525324.192784,-0.8232421875,0.24755859375,0.625,-28.25927734375,3.72314453125,11.04736328125,1.1151123046875,41.2701416015625,-133.6431884765625
1758525324.2019873,-0.81640625,-0.0166015625,0.42578125,-69.3359375,1.953125,13.12255859375,0.5767822265625,41.363525390625,-133.3740234375
1758525324.211998,-0.81640625,-0.0166015625,0.42578125,-69.3359375,1.953125,13.12255859375,0.0384521484375,41.4678955078125,-133.1048583984375
1758525324.2220204,-0.75732421875,0.01611328125,0.47119140625,-87.58544921875,3.23486328125,11.77978515625,-0.692138671875,41.583251953125,-132.8631591796875
1758525324.232327,-0.75732421875,0.01611328125,0.47119140625,-87.58544921875,3.23486328125,11.77978515625,-1.42822265625,41.7041015625,-132.615966796875
1758525324.2422593,-0.6513671875,0.1455078125,0.53076171875,-71.044921875,3.662109375,11.65771484375,-1.9940185546875,41.824951171875,-132.3687744140625
1758525324.2520392,-0.6513671875,0.1455078125,0.53076171875,-71.044921875,3.662109375,11.65771484375,-2.5543212890625,41.94580078125,-132.1160888671875
1758525324.262009,-0.57080078125,-0.03466796875,0.66748046875,-32.8369140625,3.35693359375,10.986328125,-2.7410888671875,42.0611572265625,-131.8798828125
1758525324.2720418,-0.57080078125,-0.03466796875,0.66748046875,-32.8369140625,3.35693359375,10.986328125,-2.9278564453125,42.16552734375,-131.6436767578125
1758525324.2822535,-0.58935546875,-0.01025390625,0.88427734375,3.84521484375,3.60107421875,10.92529296875,-2.74658203125,42.264404296875,-131.4129638671875
1758525324.292129,-0.55078125,0.02783203125,0.92626953125,-1.28173828125,2.99072265625,8.48388671875,-2.6092529296875,42.34130859375,-131.209716796875
1758525324.302083,-0.55078125,0.02783203125,0.92626953125,-1.28173828125,2.99072265625,8.48388671875,-2.5048828125,42.4072265625,-131.02294921875
1758525324.312137,-0.51416015625,-0.130859375,0.90478515625,-5.37109375,3.60107421875,6.591796875,-2.4334716796875,42.462158203125,-130.858154296875
1758525324.3226242,-0.51416015625,-0.130859375,0.90478515625,-5.37109375,3.60107421875,6.591796875,-2.4005126953125,42.5115966796875,-130.7208251953125
1758525324.33219,-0.69677734375,-0.04296875,1.01806640625,14.34326171875,-1.28173828125,4.69970703125,-2.2796630859375,42.5225830078125,-130.60546875
1758525324.3421621,-0.69677734375,-0.04296875,1.01806640625,14.34326171875,-1.28173828125,4.69970703125,-2.076416015625,42.506103515625,-130.5120849609375
1758525324.3521824,-0.58544921875,0.05810546875,1.060546875,38.330078125,-6.53076171875,3.11279296875,-1.7578125,42.4566650390625,-130.4296875
1758525324.3624873,-0.58544921875,0.05810546875,1.060546875,38.330078125,-6.53076171875,3.11279296875,-1.329345703125,42.374267578125,-130.36376953125
1758525324.3722155,-0.33984375,0.171875,0.7919921875,12.8173828125,-7.50732421875,1.89208984375,-1.03271484375,42.275390625,-130.308837890625
1758525324.382162,-0.33984375,0.171875,0.7919921875,12.8173828125,-7.50732421875,1.89208984375,-0.8624267578125,42.1710205078125,-130.2593994140625
1758525324.3922312,-0.2392578125,0.02392578125,0.42529296875,-36.865234375,-1.77001953125,-0.06103515625,-0.94482421875,42.0831298828125,-130.220947265625
1758525324.4025273,-0.2392578125,0.02392578125,0.42529296875,-36.865234375,-1.77001953125,-0.06103515625,-1.285400390625,42.0281982421875,-130.1934814453125
1758525324.4123096,-0.27685546875,-0.18212890625,0.49462890625,-54.3212890625,6.16455078125,-2.25830078125,-1.7193603515625,42.01171875,-130.18798828125
1758525324.4222279,-0.27685546875,-0.18212890625,0.49462890625,-54.3212890625,6.16455078125,-2.25830078125,-2.26318359375,42.0281982421875,-130.2154541015625
1758525324.4323196,-0.5263671875,-0.068359375,0.6015625,-0.244140625,10.43701171875,-4.21142578125,-2.5543212890625,42.066650390625,-130.264892578125
1758525324.4423804,-0.5263671875,-0.068359375,0.6015625,-0.244140625,10.43701171875,-4.21142578125,-2.5872802734375,42.1270751953125,-130.330810546875
1758525324.4522948,-0.89453125,0.033203125,1.59375,37.7197265625,3.11279296875,-3.7841796875,-2.427978515625,42.1490478515625,-130.3912353515625
1758525324.4622777,-0.89453125,0.033203125,1.59375,37.7197265625,3.11279296875,-3.7841796875,-2.076416015625,42.132568359375,-130.4461669921875
1758525324.4723153,-0.7724609375,-0.27392578125,1.15234375,79.9560546875,-3.41796875,-7.2021484375,-1.5325927734375,42.07763671875,-130.5340576171875
1758525324.4853928,-0.7724609375,-0.27392578125,1.15234375,79.9560546875,-3.41796875,-7.2021484375,-0.8074951171875,41.9952392578125,-130.660400390625
1758525324.4950197,-0.81103515625,-0.19091796875,0.9599609375,59.38720703125,-7.2021484375,-10.68115234375,-0.2142333984375,41.890869140625,-130.8197021484375
1758525324.5023038,-0.81103515625,-0.19091796875,0.9599609375,59.38720703125,-7.2021484375,-10.68115234375,0.2471923828125,41.7755126953125,-131.0064697265625
1758525324.5123663,-0.6474609375,0.0654296875,0.80517578125,10.8642578125,-10.19287109375,-12.39013671875,0.4559326171875,41.649169921875,-131.209716796875
1758525324.5223944,-0.6474609375,0.0654296875,0.80517578125,10.8642578125,-10.19287109375,-12.39013671875,0.4229736328125,41.5118408203125,-131.41845703125
1758525324.5328674,-0.646484375,-0.03759765625,0.40087890625,-20.6298828125,-4.5166015625,-13.61083984375,0.2362060546875,41.407470703125,-131.6217041015625
1758525324.5423796,-0.646484375,-0.03759765625,0.40087890625,-20.6298828125,-4.5166015625,-13.61083984375,-0.1043701171875,41.341552734375,-131.824951171875
1758525324.5524917,-0.65771484375,0.17138671875,0.451171875,-28.3203125,0.91552734375,-13.916015625,-0.4888916015625,41.30859375,-132.022705078125
1758525324.5624394,-0.65771484375,0.17138671875,0.451171875,-28.3203125,0.91552734375,-13.916015625,-0.90087890625,41.30859375,-132.2039794921875
1758525324.572622,-0.75390625,-0.13720703125,0.5380859375,9.3994140625,6.65283203125,-14.83154296875,-1.12060546875,41.3470458984375,-132.3797607421875
1758525324.5824127,-0.75390625,-0.13720703125,0.5380859375,9.3994140625,6.65283203125,-14.83154296875,-1.16455078125,41.41845703125,-132.5665283203125
1758525324.5925584,-0.98583984375,0.0625,1.138671875,29.6630859375,8.544921875,-16.7236328125,-1.1151123046875,41.5008544921875,-132.7642822265625
1758525324.6024525,-0.98583984375,0.0625,1.138671875,29.6630859375,8.544921875,-16.7236328125,-0.9722900390625,41.59423828125,-132.9730224609375
1758525324.6127756,-0.833984375,-0.02587890625,0.8603515625,48.15673828125,7.26318359375,-17.27294921875,-0.736083984375,41.6766357421875,-133.187255859375
1758525324.6224496,-0.833984375,-0.02587890625,0.8603515625,48.15673828125,7.26318359375,-17.27294921875,-0.41748046875,41.7535400390625,-133.4014892578125
1758525324.6325717,-0.833984375,-0.02587890625,0.8603515625,72.32666015625,4.45556640625,-21.54541015625,0.0,41.8194580078125,-133.6431884765625
1758525324.6425314,-0.7744140625,-0.18310546875,0.9521484375,72.32666015625,4.45556640625,-21.54541015625,0.5108642578125,41.868896484375,-133.9288330078125
1758525324.6527965,-0.685546875,0.17431640625,0.45458984375,41.32080078125,2.01416015625,-22.15576171875,0.8624267578125,41.9073486328125,-134.2254638671875
1758525324.662539,-0.685546875,0.17431640625,0.45458984375,41.32080078125,2.01416015625,-22.15576171875,1.0601806640625,41.9403076171875,-134.5111083984375
1758525324.6726003,-0.6220703125,0.04638671875,0.12744140625,-18.310546875,7.6904296875,-19.1650390625,0.9832763671875,42.01171875,-134.7637939453125
1758525324.6825874,-0.6220703125,0.04638671875,0.12744140625,-18.310546875,7.6904296875,-19.1650390625,0.6207275390625,42.1160888671875,-134.989013671875
1758525324.693192,-0.81396484375,-0.1015625,0.23779296875,-42.724609375,10.07080078125,-17.333984375,0.1483154296875,42.2479248046875,-135.19775390625
1758525324.7025695,-0.81396484375,-0.1015625,0.23779296875,-42.724609375,10.07080078125,-17.333984375,-0.439453125,42.4017333984375,-135.3955078125
1758525324.7126148,-1.06787109375,-0.3134765625,0.44384765625,-21.8505859375,13.916015625,-13.7939453125,-0.9228515625,42.5775146484375,-135.5767822265625
1758525324.7226088,-1.06787109375,-0.3134765625,0.44384765625,-21.8505859375,13.916015625,-13.7939453125,-1.29638671875,42.7862548828125,-135.7415771484375
1758525324.7327049,-1.18212890625,-0.2001953125,0.6201171875,15.44189453125,12.5732421875,-13.24462890625,-1.4886474609375,42.989501953125,-135.9173583984375
1758525324.7426426,-1.18212890625,-0.2001953125,0.6201171875,15.44189453125,12.5732421875,-13.24462890625,-1.505126953125,43.1927490234375,-136.0931396484375
1758525324.752673,-1.3828125,-0.06005859375,0.73193359375,44.49462890625,5.79833984375,-10.6201171875,-1.3623046875,43.363037109375,-136.2469482421875
1758525324.7627015,-1.3828125,-0.06005859375,0.73193359375,44.49462890625,5.79833984375,-10.6201171875,-1.0601806640625,43.505859375,-136.3787841796875
1758525324.7728388,-1.04248046875,0.052734375,0.970703125,64.88037109375,-5.859375,-8.60595703125,-0.648193359375,43.5882568359375,-136.494140625
1758525324.7844164,-1.04248046875,0.052734375,0.970703125,64.88037109375,-5.859375,-8.60595703125,-0.1153564453125,43.604736328125,-136.5875244140625
1758525324.793939,-0.58740234375,0.2314453125,0.580078125,27.03857421875,-10.55908203125,-3.41796875,0.252685546875,43.59375,-136.6424560546875
1758525324.8027058,-0.58740234375,0.2314453125,0.580078125,27.03857421875,-10.55908203125,-3.41796875,0.4669189453125,43.560791015625,-136.658935546875
1758525324.813077,-0.43310546875,0.076171875,0.3369140625,-65.00244140625,-6.8359375,-0.18310546875,0.2471923828125,43.538818359375,-136.636962890625
1758525324.8227906,-0.43310546875,0.076171875,0.3369140625,-65.00244140625,-6.8359375,-0.18310546875,-0.4010009765625,43.5333251953125,-136.593017578125
1758525324.832732,-0.4482421875,0.0107421875,0.3701171875,-104.30908203125,-0.30517578125,-0.67138671875,-1.2469482421875,43.560791015625,-136.549072265625
1758525324.8427484,-0.4482421875,0.0107421875,0.3701171875,-104.30908203125,-0.30517578125,-0.67138671875,-2.2906494140625,43.6212158203125,-136.4996337890625
1758525324.853242,-0.38232421875,0.080078125,0.43603515625,-75.927734375,4.5166015625,0.91552734375,-3.1805419921875,43.70361328125,-136.4447021484375
1758525324.862931,-0.38232421875,0.080078125,0.43603515625,-75.927734375,4.5166015625,0.91552734375,-3.9111328125,43.8079833984375,-136.373291015625
1758525324.8728368,-0.4541015625,-0.0595703125,0.57568359375,-24.0478515625,11.65771484375,2.44140625,-4.3670654296875,43.9398193359375,-136.2908935546875
1758525324.8828144,-0.4541015625,-0.0595703125,0.57568359375,-24.0478515625,11.65771484375,2.44140625,-4.5703125,44.09912109375,-136.20849609375
1758525324.8930235,-0.5947265625,-0.19677734375,0.99267578125,11.16943359375,11.8408203125,0.67138671875,-4.603271484375,44.2529296875,-136.1480712890625
1758525324.9028323,-0.5947265625,-0.19677734375,0.99267578125,11.16943359375,11.8408203125,0.67138671875,-4.4769287109375,44.384765625,-136.1151123046875
1758525324.9128652,-0.8076171875,-0.11962890625,1.38427734375,26.2451171875,5.92041015625,0.1220703125,-4.28466796875,44.4781494140625,-136.0986328125
1758525324.9229507,-0.8076171875,-0.11962890625,1.38427734375,26.2451171875,5.92041015625,0.1220703125,-4.02099609375,44.5220947265625,-136.0931396484375
1758525324.933309,-0.8408203125,0.01904296875,1.60546875,36.80419921875,-6.8359375,0.30517578125,-3.702392578125,44.49462890625,-136.0931396484375
1758525324.9429328,-0.8408203125,0.01904296875,1.60546875,36.80419921875,-6.8359375,0.30517578125,-3.3233642578125,44.3902587890625,-136.0821533203125
1758525324.9529545,-0.498046875,0.2158203125,1.01318359375,1.40380859375,-13.48876953125,2.25830078125,-3.1036376953125,44.2474365234375,-136.065673828125
1758525324.963042,-0.498046875,0.2158203125,1.01318359375,1.40380859375,-13.48876953125,2.25830078125,-3.043212890625,44.0606689453125,-136.021728515625
1758525324.9730122,-0.3671875,0.01953125,0.4052734375,-60.11962890625,-13.671875,3.2958984375,-3.2794189453125,43.87939453125,-135.966796875
1758525324.9829714,-0.3671875,0.01953125,0.4052734375,-60.11962890625,-13.671875,3.2958984375,-3.812255859375,43.692626953125,-135.8953857421875
1758525324.9930289,-0.453125,-0.154296875,0.54736328125,-53.5888671875,-10.1318359375,4.150390625,-4.306640625,43.5333251953125,-135.8184814453125
1758525325.0033371,-0.453125,-0.154296875,0.54736328125,-53.5888671875,-10.1318359375,4.150390625,-4.76806640625,43.3905029296875,-135.7415771484375
1758525325.0130634,-0.521484375,-0.20654296875,0.57861328125,-5.0048828125,-5.79833984375,5.31005859375,-4.98779296875,43.275146484375,-135.6646728515625
1758525325.0229976,-0.521484375,-0.20654296875,0.57861328125,-5.0048828125,-5.79833984375,5.31005859375,-4.9713134765625,43.1817626953125,-135.5877685546875
1758525325.0330265,-0.5302734375,0.00732421875,0.67333984375,17.7001953125,-4.08935546875,6.53076171875,-4.844970703125,43.1048583984375,-135.5108642578125
1758525325.0432792,-0.5302734375,0.00732421875,0.67333984375,17.7001953125,-4.08935546875,6.53076171875,-4.5977783203125,43.033447265625,-135.4229736328125
1758525325.0532715,-0.61181640625,0.15380859375,0.65625,-3.90625,-1.15966796875,7.32421875,-4.449462890625,42.978515625,-135.3240966796875
1758525325.0630496,-0.61181640625,0.15380859375,0.65625,-3.90625,-1.15966796875,7.32421875,-4.4000244140625,42.945556640625,-135.2032470703125
1758525325.073063,-1.06884765625,-0.1611328125,1.18896484375,-17.333984375,-9.27734375,6.65283203125,-4.41650390625,42.8741455078125,-135.0823974609375
1758525325.0833552,-1.06884765625,-0.1611328125,1.18896484375,-17.333984375,-9.27734375,6.65283203125,-4.50439453125,42.7642822265625,-134.9615478515625
1758525325.0931382,-0.56494140625,-0.0849609375,1.3056640625,-23.49853515625,-14.83154296875,12.02392578125,-4.5977783203125,42.626953125,-134.8077392578125
1758525325.103071,-0.56494140625,-0.0849609375,1.3056640625,-23.49853515625,-14.83154296875,12.02392578125,-4.7021484375,42.4566650390625,-134.62646484375
1758525325.113162,-0.6435546875,-0.05078125,0.6083984375,-25.146484375,-18.73779296875,12.451171875,-4.8065185546875,42.2589111328125,-134.4451904296875
1758525325.1232574,-0.6435546875,-0.05078125,0.6083984375,-25.146484375,-18.73779296875,12.451171875,-4.921875,42.0501708984375,-134.2584228515625
1758525325.1331859,-0.6435546875,-0.05078125,0.6083984375,-8.30078125,-20.81298828125,10.68115234375,-4.954833984375,41.8359375,-134.0716552734375
1758525325.1431527,-0.6435546875,-0.05078125,0.6083984375,-8.30078125,-20.81298828125,10.68115234375,-4.921875,41.6162109375,-133.9068603515625
1758525325.1531782,-0.66552734375,-0.1142578125,0.5849609375,6.53076171875,-15.19775390625,11.474609375,-4.8175048828125,41.4239501953125,-133.736572265625
1758525325.1633778,-0.66552734375,-0.1142578125,0.5849609375,6.53076171875,-15.19775390625,11.474609375,-4.6417236328125,41.2701416015625,-133.5662841796875
1758525325.1731849,-0.724609375,0.07470703125,0.5068359375,3.2958984375,-10.07080078125,10.3759765625,-4.4879150390625,41.143798828125,-133.4014892578125
1758525325.1831589,-0.724609375,0.07470703125,0.5068359375,3.2958984375,-10.07080078125,10.3759765625,-4.3560791015625,41.0504150390625,-133.2421875
1758525325.193207,-0.76513671875,0.0126953125,0.61767578125,-4.5166015625,-5.79833984375,10.25390625,-4.2626953125,40.989990234375,-133.0718994140625
1758525325.2034051,-0.76513671875,0.0126953125,0.61767578125,-4.5166015625,-5.79833984375,10.25390625,-4.207763671875,40.9515380859375,-132.901611328125
1758525325.213279,-0.818359375,-0.07373046875,0.84521484375,8.23974609375,-3.662109375,9.6435546875,-4.0924072265625,40.9295654296875,-132.73681640625
1758525325.2232323,-0.818359375,-0.07373046875,0.84521484375,8.23974609375,-3.662109375,9.6435546875,-3.922119140625,40.9185791015625,-132.572021484375
1758525325.2332442,-0.8037109375,0.064453125,0.79296875,5.9814453125,-3.11279296875,8.6669921875,-3.7628173828125,40.9075927734375,-132.418212890625
1758525325.2437043,-0.8037109375,0.064453125,0.79296875,5.9814453125,-3.11279296875,8.6669921875,-3.6199951171875,40.902099609375,-132.2698974609375
1758525325.2534115,-0.73681640625,-0.0712890625,0.66162109375,-8.36181640625,-1.64794921875,8.9111328125,-3.5430908203125,40.9075927734375,-132.110595703125
1758525325.2632802,-0.73681640625,-0.0712890625,0.66162109375,-8.36181640625,-1.64794921875,8.9111328125,-3.5430908203125,40.9185791015625,-131.956787109375
1758525325.27328,-0.6884765625,-0.12060546875,0.53076171875,-0.79345703125,2.3193359375,9.70458984375,-3.504638671875,40.9515380859375,-131.802978515625
1758525325.283605,-0.6884765625,-0.12060546875,0.53076171875,-0.79345703125,2.3193359375,9.70458984375,-3.4332275390625,41.0064697265625,-131.6436767578125
1758525325.2933273,-0.66455078125,-0.17333984375,0.490234375,19.775390625,5.79833984375,8.4228515625,-3.1695556640625,41.099853515625,-131.517333984375
1758525325.3032765,-0.66455078125,-0.17333984375,0.490234375,19.775390625,5.79833984375,8.4228515625,-2.9168701171875,41.19873046875,-131.396484375
1758525325.3133376,-0.66748046875,0.0361328125,0.4716796875,20.08056640625,10.43701171875,8.6669921875,-2.6641845703125,41.341552734375,-131.2701416015625
1758525325.3236845,-0.66748046875,0.0361328125,0.4716796875,20.08056640625,10.43701171875,8.6669921875,-2.4005126953125,41.4898681640625,-131.1383056640625
1758525325.3335974,-0.67919921875,-0.1259765625,0.51611328125,20.81298828125,13.73291015625,6.77490234375,-2.1588134765625,41.671142578125,-131.0394287109375
1758525325.3434048,-0.67919921875,-0.1259765625,0.51611328125,20.81298828125,13.73291015625,6.77490234375,-1.91162109375,41.8524169921875,-130.9405517578125
1758525325.3533986,-1.03271484375,0.166015625,0.74951171875,10.80322265625,11.90185546875,8.056640625,-1.7523193359375,42.0172119140625,-130.8197021484375
1758525325.3637989,-1.03271484375,0.166015625,0.74951171875,10.80322265625,11.90185546875,8.056640625,-1.58203125,42.1875,-130.682373046875
1758525325.3735597,-1.2724609375,0.23291015625,1.16552734375,-11.29150390625,2.99072265625,12.6953125,-1.5765380859375,42.264404296875,-130.4681396484375
1758525325.3853652,-1.2724609375,0.23291015625,1.16552734375,-11.29150390625,2.99072265625,12.6953125,-1.56005859375,42.34130859375,-130.2484130859375
1758525325.394648,-1.099609375,-0.05126953125,1.16748046875,-4.45556640625,-10.80322265625,16.54052734375,-1.439208984375,42.2808837890625,-129.96826171875
1758525325.4033878,-1.099609375,-0.05126953125,1.16748046875,-4.45556640625,-10.80322265625,16.54052734375,-1.3238525390625,42.20947265625,-129.70458984375
1758525325.4137707,-0.73046875,-0.1826171875,0.75048828125,0.9765625,-12.87841796875,14.95361328125,-1.1700439453125,42.1160888671875,-129.462890625
1758525325.4234514,-0.73046875,-0.1826171875,0.75048828125,0.9765625,-12.87841796875,14.95361328125,-1.0272216796875,42.022705078125,-129.2376708984375
1758525325.4339895,-0.45068359375,-0.24462890625,0.2763671875,-14.404296875,-10.3759765625,8.7890625,-1.1041259765625,41.956787109375,-129.1058349609375
1758525325.4436412,-0.45068359375,-0.24462890625,0.2763671875,-14.404296875,-10.3759765625,8.7890625,-1.1865234375,41.890869140625,-128.9849853515625
1758525325.4534562,-0.42724609375,-0.08935546875,0.37890625,-20.32470703125,-2.99072265625,4.57763671875,-1.373291015625,41.90185546875,-128.924560546875
1758525325.4635665,-0.42724609375,-0.08935546875,0.37890625,-20.32470703125,-2.99072265625,4.57763671875,-1.56005859375,41.912841796875,-128.8641357421875
1758525325.473867,-0.3564453125,0.01953125,0.57373046875,-9.09423828125,3.23486328125,4.33349609375,-1.6314697265625,41.978759765625,-128.8092041015625
1758525325.4842017,-0.3564453125,0.01953125,0.57373046875,-9.09423828125,3.23486328125,4.33349609375,-1.702880859375,42.03369140625,-128.7542724609375
1758525325.4936101,-0.20263671875,-0.142578125,0.73486328125,17.08984375,6.53076171875,2.01416015625,-1.5380859375,42.1160888671875,-128.7432861328125
1758525325.5035448,-0.20263671875,-0.142578125,0.73486328125,17.08984375,6.53076171875,2.01416015625,-1.3787841796875,42.176513671875,-128.7432861328125
1758525325.513679,-0.27490234375,-0.0869140625,0.72412109375,37.53662109375,10.498046875,-1.220703125,-1.0491943359375,42.2698974609375,-128.7982177734375
1758525325.5239549,-0.27490234375,-0.0869140625,0.72412109375,37.53662109375,10.498046875,-1.220703125,-0.7196044921875,42.352294921875,-128.8641357421875
1758525325.5336168,-0.58740234375,-0.20849609375,1.0,53.40576171875,7.62939453125,-5.18798828125,-0.2801513671875,42.396240234375,-128.990478515625
1758525325.5436454,-0.58740234375,-0.20849609375,1.0,53.40576171875,7.62939453125,-5.18798828125,0.1483154296875,42.440185546875,-129.1278076171875
1758525325.554024,-0.48974609375,0.21435546875,1.00537109375,61.03515625,9.09423828125,-8.60595703125,0.63720703125,42.4896240234375,-129.30908203125
1758525325.563693,-0.48974609375,0.21435546875,1.00537109375,61.03515625,9.09423828125,-8.60595703125,1.1370849609375,42.5335693359375,-129.4793701171875
1758525325.5736828,-0.609375,0.09130859375,0.81689453125,7.568359375,5.126953125,-7.8125,1.1151123046875,42.5335693359375,-129.627685546875
1758525325.583641,-0.609375,0.09130859375,0.81689453125,7.568359375,5.126953125,-7.8125,1.0986328125,42.5390625,-129.7705078125
1758525325.5940368,-0.865234375,0.60400390625,1.0224609375,-50.72021484375,2.5634765625,-2.38037109375,0.582275390625,42.51708984375,-129.814453125
1758525325.6037662,-0.865234375,0.60400390625,1.0224609375,-50.72021484375,2.5634765625,-2.38037109375,0.087890625,42.506103515625,-129.814453125
1758525325.6137257,-0.923828125,0.3076171875,0.828125,-68.603515625,-5.2490234375,5.9814453125,-0.4833984375,42.418212890625,-129.6826171875
1758525325.6237435,-0.923828125,0.3076171875,0.828125,-68.603515625,-5.2490234375,5.9814453125,-1.043701171875,42.3468017578125,-129.5343017578125
1758525325.6341043,-0.923828125,0.3076171875,0.828125,-39.85595703125,-11.04736328125,8.60595703125,-1.307373046875,42.220458984375,-129.35302734375
1758525325.6438344,-0.7802734375,-0.1572265625,0.7724609375,-39.85595703125,-11.04736328125,8.60595703125,-1.5765380859375,42.099609375,-129.188232421875
1758525325.6537392,-0.62158203125,-0.2646484375,0.5205078125,-10.31494140625,-10.6201171875,6.4697265625,-1.58203125,41.9842529296875,-129.0618896484375
1758525325.6637933,-0.62158203125,-0.2646484375,0.5205078125,-10.31494140625,-10.6201171875,6.4697265625,-1.60400390625,41.8743896484375,-128.946533203125
1758525325.673883,-0.66943359375,-0.22216796875,0.5517578125,-1.953125,-10.19287109375,4.5166015625,-1.571044921875,41.7755126953125,-128.86962890625
1758525325.685643,-0.66943359375,-0.22216796875,0.5517578125,-1.953125,-10.19287109375,4.5166015625,-1.5435791015625,41.68212890625,-128.8037109375
1758525325.6951149,-0.72021484375,0.18896484375,0.56982421875,1.40380859375,-6.34765625,5.4931640625,-1.4776611328125,41.627197265625,-128.7213134765625
1758525325.7037816,-0.72021484375,0.18896484375,0.56982421875,1.40380859375,-6.34765625,5.4931640625,-1.4007568359375,41.583251953125,-128.616943359375
1758525325.714153,-0.64794921875,0.2333984375,0.68115234375,-11.77978515625,-7.080078125,6.9580078125,-1.4337158203125,41.5338134765625,-128.485107421875
1758525325.723791,-0.64794921875,0.2333984375,0.68115234375,-11.77978515625,-7.080078125,6.9580078125,-1.4556884765625,41.4788818359375,-128.34228515625
1758525325.7339242,-0.64306640625,-0.0751953125,0.60302734375,-20.32470703125,-4.0283203125,6.28662109375,-1.5765380859375,41.46240234375,-128.21044921875
1758525325.7439227,-0.64306640625,-0.0751953125,0.60302734375,-20.32470703125,-4.0283203125,6.28662109375,-1.6973876953125,41.4404296875,-128.0841064453125
1758525325.7545521,-0.66650390625,-0.16357421875,0.58642578125,-15.68603515625,-0.3662109375,4.2724609375,-1.7962646484375,41.46240234375,-127.9962158203125
1758525325.7639346,-0.66650390625,-0.16357421875,0.58642578125,-15.68603515625,-0.3662109375,4.2724609375,-1.9061279296875,41.484375,-127.913818359375
1758525325.7739663,-0.83544921875,0.07861328125,0.41748046875,-16.05224609375,4.57763671875,4.2724609375,-2.021484375,41.561279296875,-127.8314208984375
1758525325.7839596,-0.83544921875,0.07861328125,0.41748046875,-16.05224609375,4.57763671875,4.2724609375,-2.13134765625,41.649169921875,-127.738037109375
1758525325.7943838,-1.04833984375,-0.154296875,0.6962890625,-6.04248046875,5.0048828125,4.7607421875,-2.1478271484375,41.748046875,-127.6446533203125
1758525325.803883,-1.04833984375,-0.154296875,0.6962890625,-6.04248046875,5.0048828125,4.7607421875,-2.164306640625,41.846923828125,-127.5567626953125
1758525325.8139527,-0.87255859375,0.05322265625,0.68212890625,13.36669921875,9.09423828125,4.45556640625,-1.9940185546875,41.9952392578125,-127.474365234375
1758525325.8239348,-0.87255859375,0.05322265625,0.68212890625,13.36669921875,9.09423828125,4.45556640625,-1.8182373046875,42.1380615234375,-127.386474609375
1758525325.8343012,-0.84716796875,-0.0283203125,0.74267578125,-11.29150390625,10.8642578125,3.35693359375,-1.900634765625,42.29736328125,-127.3150634765625
1758525325.8439453,-0.84716796875,-0.0283203125,0.74267578125,-11.29150390625,10.8642578125,3.35693359375,-1.9830322265625,42.4566650390625,-127.24365234375
1758525325.8540454,-0.9775390625,-0.02978515625,0.599609375,-27.52685546875,18.4326171875,1.3427734375,-2.252197265625,42.69287109375,-127.19970703125
1758525325.8642466,-0.9775390625,-0.02978515625,0.599609375,-27.52685546875,18.4326171875,1.3427734375,-2.515869140625,42.9290771484375,-127.1612548828125
1758525325.8742812,-0.75146484375,0.115234375,0.501953125,-39.97802734375,22.64404296875,-0.06103515625,-2.92236328125,43.2147216796875,-127.1392822265625
1758525325.884123,-0.75146484375,0.115234375,0.501953125,-39.97802734375,22.64404296875,-0.06103515625,-3.31787109375,43.494873046875,-127.11181640625
1758525325.8941991,-0.654296875,-0.1875,0.58203125,-22.216796875,24.5361328125,0.18310546875,-3.53759765625,43.79150390625,-127.08984375
1758525325.9040794,-0.654296875,-0.1875,0.58203125,-22.216796875,24.5361328125,0.18310546875,-3.768310546875,44.088134765625,-127.078857421875
1758525325.9140043,-0.73486328125,-0.1923828125,0.74267578125,7.080078125,26.123046875,1.28173828125,-3.702392578125,44.3902587890625,-127.0623779296875
1758525325.924205,-0.73486328125,-0.1923828125,0.74267578125,7.080078125,26.123046875,1.28173828125,-3.6419677734375,44.6868896484375,-127.056884765625
1758525325.9345818,-0.9140625,0.17529296875,0.947265625,14.404296875,19.22607421875,3.173828125,-3.482666015625,44.912109375,-127.012939453125
1758525325.944166,-0.9140625,0.17529296875,0.947265625,14.404296875,19.22607421875,3.173828125,-3.306884765625,45.1318359375,-126.9580078125
1758525325.9541101,-0.73828125,0.19580078125,0.98046875,-10.3759765625,14.892578125,5.126953125,-3.350830078125,45.3021240234375,-126.859130859375
1758525325.9641743,-0.73828125,0.19580078125,0.98046875,-10.3759765625,14.892578125,5.126953125,-3.3837890625,45.46142578125,-126.76025390625
1758525325.9746046,-0.6435546875,-0.03662109375,0.60302734375,-46.69189453125,9.8876953125,6.9580078125,-3.75732421875,45.5712890625,-126.6229248046875
1758525325.9841766,-0.6435546875,-0.03662109375,0.60302734375,-46.69189453125,9.8876953125,6.9580078125,-4.1253662109375,45.68115234375,-126.4910888671875
1758525325.9941976,-0.65185546875,-0.1787109375,0.6572265625,-60.60791015625,9.58251953125,6.8359375,-4.647216796875,45.791015625,-126.375732421875
1758525326.0042272,-0.65185546875,-0.1787109375,0.6572265625,-60.60791015625,9.58251953125,6.8359375,-5.1690673828125,45.8953857421875,-126.265869140625
1758525326.0175765,-0.50634765625,-0.00634765625,0.623046875,-52.06298828125,9.033203125,4.57763671875,-5.625,45.98876953125,-126.18896484375
1758525326.0242355,-0.50634765625,-0.00634765625,0.623046875,-52.06298828125,9.033203125,4.57763671875,-6.0809326171875,46.07666015625,-126.112060546875
1758525326.0341568,-0.3955078125,0.12890625,0.5322265625,-42.1142578125,12.75634765625,4.150390625,-6.4434814453125,46.2030029296875,-126.0406494140625
1758525326.0442564,-0.3955078125,0.12890625,0.5322265625,-42.1142578125,12.75634765625,4.150390625,-6.78955078125,46.3238525390625,-125.958251953125
1758525326.0585709,-0.35986328125,0.1083984375,0.58544921875,-29.6630859375,18.12744140625,3.2958984375,-7.020263671875,46.4886474609375,-125.892333984375
1758525326.06482,-0.35986328125,0.1083984375,0.58544921875,-29.6630859375,18.12744140625,3.2958984375,-7.2454833984375,46.6534423828125,-125.8154296875
1758525326.0742748,-0.5068359375,-0.02734375,0.73681640625,-9.8876953125,21.54541015625,3.5400390625,-7.2784423828125,46.845703125,-125.74951171875
1758525326.0843909,-0.5068359375,-0.02734375,0.73681640625,-9.8876953125,21.54541015625,3.5400390625,-7.305908203125,47.0269775390625,-125.68359375
1758525326.0945385,-0.71240234375,-0.35986328125,0.97998046875,35.46142578125,19.10400390625,-0.18310546875,-6.9378662109375,47.17529296875,-125.694580078125
1758525326.1045268,-0.71240234375,-0.35986328125,0.97998046875,35.46142578125,19.10400390625,-0.18310546875,-6.591796875,47.3236083984375,-125.7330322265625
1758525326.1143417,-0.654296875,-0.1640625,1.22119140625,66.71142578125,14.70947265625,-2.99072265625,-5.965576171875,47.4114990234375,-125.8154296875
1758525326.1243668,-0.654296875,-0.1640625,1.22119140625,66.71142578125,14.70947265625,-2.99072265625,-5.350341796875,47.4884033203125,-125.9197998046875
1758525326.1345468,-0.654296875,-0.1640625,1.22119140625,38.63525390625,9.09423828125,-2.38037109375,-4.998779296875,47.515869140625,-126.002197265625
1758525326.144752,-0.654296875,-0.1640625,1.22119140625,38.63525390625,9.09423828125,-2.38037109375,-4.6527099609375,47.537841796875,-126.090087890625
1758525326.154324,-0.6572265625,-0.01806640625,0.65966796875,11.8408203125,4.82177734375,-2.13623046875,-4.5648193359375,47.515869140625,-126.1669921875
1758525326.1644447,-0.6572265625,-0.01806640625,0.65966796875,11.8408203125,4.82177734375,-2.13623046875,-4.4769287109375,47.5048828125,-126.23291015625
1758525326.1748013,-0.77783203125,0.01416015625,0.6533203125,0.732421875,1.5869140625,0.67138671875,-4.4659423828125,47.4664306640625,-126.2493896484375
1758525326.184394,-0.77783203125,0.01416015625,0.6533203125,0.732421875,1.5869140625,0.67138671875,-4.4439697265625,47.43896484375,-126.2603759765625
1758525326.194415,-0.9208984375,-0.111328125,0.8720703125,13.61083984375,-3.0517578125,2.99072265625,-4.273681640625,47.373046875,-126.2274169921875
1758525326.2044027,-0.9208984375,-0.111328125,0.8720703125,13.61083984375,-3.0517578125,2.99072265625,-4.1033935546875,47.30712890625,-126.199951171875
1758525326.2146554,-0.8798828125,-0.033203125,0.95458984375,20.751953125,-10.80322265625,3.173828125,-3.8507080078125,47.164306640625,-126.1614990234375
1758525326.2245324,-0.8798828125,-0.033203125,0.95458984375,20.751953125,-10.80322265625,3.173828125,-3.603515625,47.0269775390625,-126.123046875
1758525326.234441,-0.6005859375,-0.021484375,0.66064453125,-0.30517578125,-12.451171875,4.2724609375,-3.5540771484375,46.8731689453125,-126.068115234375
1758525326.2445374,-0.6005859375,-0.021484375,0.66064453125,-0.30517578125,-12.451171875,4.2724609375,-3.504638671875,46.724853515625,-126.01318359375
1758525326.2546751,-0.54248046875,-0.03515625,0.42333984375,-33.38623046875,-10.43701171875,5.9814453125,-3.768310546875,46.5985107421875,-125.9307861328125
1758525326.2645235,-0.54248046875,-0.03515625,0.42333984375,-33.38623046875,-10.43701171875,5.9814453125,-4.031982421875,46.4776611328125,-125.848388671875
1758525326.2744582,-0.6552734375,-0.3037109375,0.52685546875,-28.13720703125,-7.99560546875,3.2958984375,-4.2791748046875,46.38427734375,-125.8154296875
1758525326.286669,-0.6552734375,-0.3037109375,0.52685546875,-28.13720703125,-7.99560546875,3.2958984375,-4.537353515625,46.2908935546875,-125.7989501953125
1758525326.295646,-0.7236328125,-0.287109375,0.73193359375,21.1181640625,-6.2255859375,1.46484375,-4.3341064453125,46.219482421875,-125.8154296875
1758525326.304609,-0.78076171875,0.087890625,0.7646484375,46.875,-6.53076171875,2.8076171875,-3.9990234375,46.1480712890625,-125.8319091796875
1758525326.314591,-0.78076171875,0.087890625,0.7646484375,46.875,-6.53076171875,2.8076171875,-3.5211181640625,46.07666015625,-125.826416015625
1758525326.3246322,-0.76611328125,0.1650390625,1.0732421875,15.380859375,-11.65771484375,3.90625,-3.1915283203125,45.977783203125,-125.7989501953125
1758525326.33485,-0.76611328125,0.1650390625,1.0732421875,15.380859375,-11.65771484375,3.90625,-2.9937744140625,45.845947265625,-125.7550048828125
1758525326.3446126,-0.52978515625,0.0322265625,0.8671875,-26.91650390625,-15.380859375,5.7373046875,-2.9937744140625,45.692138671875,-125.68359375
1758525326.354656,-0.52978515625,0.0322265625,0.8671875,-26.91650390625,-15.380859375,5.7373046875,-3.1915283203125,45.516357421875,-125.6011962890625
1758525326.3650193,-0.53662109375,-0.00732421875,0.46484375,-52.55126953125,-16.357421875,7.32421875,-3.4991455078125,45.3350830078125,-125.5078125
1758525326.3746324,-0.53662109375,-0.00732421875,0.46484375,-52.55126953125,-16.357421875,7.32421875,-3.9276123046875,45.1483154296875,-125.3924560546875
1758525326.3846612,-0.759765625,-0.140625,0.6875,-33.26416015625,-15.07568359375,6.77490234375,-4.2626953125,44.97802734375,-125.2825927734375
1758525326.394992,-0.759765625,-0.140625,0.6875,-33.26416015625,-15.07568359375,6.77490234375,-4.50439453125,44.8187255859375,-125.17822265625
1758525326.4047136,-0.80126953125,-0.29638671875,0.95263671875,29.11376953125,-19.22607421875,6.4697265625,-4.4439697265625,44.6429443359375,-125.079345703125
1758525326.4146295,-0.80126953125,-0.29638671875,0.95263671875,29.11376953125,-19.22607421875,6.4697265625,-4.0814208984375,44.4451904296875,-124.991455078125
1758525326.4247432,-0.4248046875,-0.1640625,0.6943359375,51.7578125,-15.44189453125,2.50244140625,-3.6419677734375,44.2584228515625,-124.9530029296875
1758525326.435081,-0.4248046875,-0.1640625,0.6943359375,51.7578125,-15.44189453125,2.50244140625,-3.1201171875,44.088134765625,-124.9530029296875
1758525326.4448452,-0.546875,0.09326171875,0.35107421875,0.48828125,-6.89697265625,3.72314453125,-2.8564453125,43.9617919921875,-124.9530029296875
1758525326.454753,-0.546875,0.09326171875,0.35107421875,0.48828125,-6.89697265625,3.72314453125,-2.83447265625,43.8848876953125,-124.9310302734375
1758525326.4648569,-1.0244140625,-0.28173828125,0.82275390625,-10.8642578125,-6.04248046875,4.82177734375,-2.8619384765625,43.8134765625,-124.8980712890625
1758525326.4749298,-1.0244140625,-0.28173828125,0.82275390625,-10.8642578125,-6.04248046875,4.82177734375,-2.9498291015625,43.758544921875,-124.8651123046875
1758525326.4847414,-0.89404296875,0.015625,1.3505859375,66.83349609375,-10.6201171875,2.197265625,-2.6641845703125,43.681640625,-124.8486328125
1758525326.4947345,-0.89404296875,0.015625,1.3505859375,66.83349609375,-10.6201171875,2.197265625,-1.99951171875,43.57177734375,-124.8486328125
1758525326.505024,-0.59228515625,0.25,0.62109375,35.58349609375,-11.8408203125,5.9814453125,-1.4666748046875,43.450927734375,-124.8211669921875
1758525326.5152025,-0.59228515625,0.25,0.62109375,35.58349609375,-11.8408203125,5.9814453125,-1.065673828125,43.3245849609375,-124.7552490234375
1758525326.5247757,-0.66650390625,-0.03515625,0.67431640625,-12.5732421875,-6.34765625,8.4228515625,-0.8843994140625,43.2257080078125,-124.661865234375
1758525326.5349178,-0.66650390625,-0.03515625,0.67431640625,-12.5732421875,-6.34765625,8.4228515625,-0.9393310546875,43.1597900390625,-124.5574951171875
1758525326.5454886,-0.79736328125,-0.021484375,0.572265625,-16.66259765625,-2.13623046875,8.1787109375,-1.0107421875,43.1158447265625,-124.453125
1758525326.5548382,-0.79736328125,-0.021484375,0.572265625,-16.66259765625,-2.13623046875,8.1787109375,-1.1041259765625,43.099365234375,-124.3487548828125
1758525326.5648592,-0.767578125,0.28515625,0.7734375,-21.66748046875,0.18310546875,10.43701171875,-1.20849609375,43.1048583984375,-124.2169189453125
1758525326.5748959,-0.767578125,0.28515625,0.7734375,-21.66748046875,0.18310546875,10.43701171875,-1.3128662109375,43.1158447265625,-124.0631103515625
1758525326.5880659,-0.650390625,0.25439453125,0.62548828125,-52.18505859375,2.25830078125,16.17431640625,-1.5325927734375,43.143310546875,-123.848876953125
1758525326.596167,-0.650390625,0.25439453125,0.62548828125,-52.18505859375,2.25830078125,16.17431640625,-1.86767578125,43.1817626953125,-123.585205078125
1758525326.604922,-0.64599609375,0.05224609375,0.70703125,-78.857421875,2.38037109375,20.32470703125,-2.30712890625,43.22021484375,-123.277587890625
1758525326.6148925,-0.64599609375,0.05224609375,0.70703125,-78.857421875,2.38037109375,20.32470703125,-2.8564453125,43.26416015625,-122.947998046875
1758525326.6254168,-0.6591796875,-0.28515625,0.63232421875,-40.283203125,1.03759765625,21.30126953125,-3.2080078125,43.3026123046875,-122.6129150390625
1758525326.6349044,-0.6591796875,-0.28515625,0.63232421875,-40.283203125,1.03759765625,21.30126953125,-3.3782958984375,43.3355712890625,-122.288818359375
1758525326.6449518,-0.71240234375,-0.1162109375,0.609375,18.49365234375,0.3662109375,20.751953125,-3.2684326171875,43.363037109375,-121.981201171875
1758525326.6550043,-0.71240234375,-0.1162109375,0.609375,18.49365234375,0.3662109375,20.751953125,-2.87841796875,43.3905029296875,-121.6900634765625
1758525326.6657212,-0.83984375,-0.08447265625,0.7783203125,31.8603515625,-0.79345703125,20.81298828125,-2.4224853515625,43.406982421875,-121.39892578125
1758525326.6749787,-0.83984375,-0.08447265625,0.7783203125,31.8603515625,-0.79345703125,20.81298828125,-1.9061279296875,43.4234619140625,-121.1077880859375
1758525326.6849747,-0.8466796875,0.11767578125,0.82568359375,18.310546875,-0.18310546875,18.73779296875,-1.47216796875,43.43994140625,-120.838623046875
1758525326.695036,-0.8466796875,0.11767578125,0.82568359375,18.310546875,-0.18310546875,18.73779296875,-1.109619140625,43.4564208984375,-120.574951171875
1758525326.7053506,-0.73974609375,-0.02001953125,0.5498046875,-14.46533203125,1.220703125,14.58740234375,-0.9283447265625,43.4783935546875,-120.3387451171875
1758525326.7150111,-0.73974609375,-0.02001953125,0.5498046875,-14.46533203125,1.220703125,14.58740234375,-0.933837890625,43.5113525390625,-120.1300048828125
1758525326.725031,-0.85498046875,-0.0126953125,0.58642578125,-57.06787109375,2.50244140625,13.3056640625,-1.1590576171875,43.5552978515625,-119.9322509765625
1758525326.735368,-0.85498046875,-0.0126953125,0.58642578125,-57.06787109375,2.50244140625,13.3056640625,-1.5985107421875,43.61572265625,-119.739990234375
1758525326.745078,-0.7734375,0.16455078125,0.7607421875,-54.13818359375,1.953125,12.8173828125,-2.021484375,43.670654296875,-119.5477294921875
1758525326.7550466,-0.7734375,0.16455078125,0.7607421875,-54.13818359375,1.953125,12.8173828125,-2.4224853515625,43.7200927734375,-119.3499755859375
1758525326.7651455,-0.6923828125,0.26220703125,0.5849609375,-65.7958984375,-0.48828125,14.95361328125,-2.8619384765625,43.7640380859375,-119.124755859375
1758525326.7754893,-0.6923828125,0.26220703125,0.5849609375,-65.7958984375,-0.48828125,14.95361328125,-3.3343505859375,43.7969970703125,-118.8665771484375
1758525326.7851553,-0.54052734375,0.04443359375,0.62353515625,-77.20947265625,0.0,15.869140625,-3.8507080078125,43.8299560546875,-118.5919189453125
1758525326.7955184,-0.54052734375,0.04443359375,0.62353515625,-77.20947265625,0.0,15.869140625,-4.41650390625,43.868408203125,-118.311767578125
1758525326.8050916,-0.63134765625,-0.01611328125,0.36474609375,-60.36376953125,2.50244140625,15.13671875,-4.89990234375,43.9178466796875,-118.037109375
1758525326.8152306,-0.63134765625,-0.01611328125,0.36474609375,-60.36376953125,2.50244140625,15.13671875,-5.3009033203125,43.9837646484375,-117.7679443359375
1758525326.825294,-0.77587890625,-0.07666015625,0.67529296875,-26.79443359375,3.72314453125,13.61083984375,-5.5535888671875,44.066162109375,-117.5152587890625
1758525326.835598,-0.77587890625,-0.07666015625,0.67529296875,-26.79443359375,3.72314453125,13.61083984375,-5.64697265625,44.1485595703125,-117.2735595703125
1758525326.8456144,-0.98486328125,0.35302734375,0.740234375,-33.38623046875,0.67138671875,16.2353515625,-5.7568359375,44.2144775390625,-117.015380859375
1758525326.8552694,-0.98486328125,0.35302734375,0.740234375,-33.38623046875,0.67138671875,16.2353515625,-5.8721923828125,44.27490234375,-116.7132568359375
1758525326.8651845,-0.8671875,0.095703125,1.09765625,-86.97509765625,-5.7373046875,21.17919921875,-6.21826171875,44.307861328125,-116.3616943359375
1758525326.875242,-0.8671875,0.095703125,1.09765625,-86.97509765625,-5.7373046875,21.17919921875,-6.800537109375,44.307861328125,-115.9661865234375
1758525326.8856366,-0.74462890625,-0.27734375,0.6943359375,-54.26025390625,-9.033203125,23.01025390625,-7.20703125,44.2803955078125,-115.565185546875
1758525326.8953261,-0.74462890625,-0.27734375,0.6943359375,-54.26025390625,-9.033203125,23.01025390625,-7.4542236328125,44.241943359375,-115.15869140625
1758525326.9053156,-0.62109375,-0.10302734375,0.67431640625,-11.962890625,-7.4462890625,19.71435546875,-7.5201416015625,44.208984375,-114.796142578125
1758525326.915269,-0.62109375,-0.10302734375,0.67431640625,-11.962890625,-7.4462890625,19.71435546875,-7.393798828125,44.1815185546875,-114.4610595703125
1758525326.9255474,-0.5830078125,0.1123046875,0.37548828125,-17.51708984375,-2.8076171875,19.04296875,-7.3114013671875,44.1705322265625,-114.136962890625
1758525326.935249,-0.5830078125,0.1123046875,0.37548828125,-17.51708984375,-2.8076171875,19.04296875,-7.2509765625,44.18701171875,-113.818359375
1758525326.945302,-0.66796875,-0.05859375,0.626953125,-23.0712890625,-0.8544921875,18.6767578125,-7.2235107421875,44.219970703125,-113.4942626953125
1758525326.9556484,-0.66796875,-0.05859375,0.626953125,-23.0712890625,-0.8544921875,18.6767578125,-7.22900390625,44.2584228515625,-113.18115234375
1758525326.9654844,-0.8388671875,-0.439453125,1.12841796875,7.568359375,-7.50732421875,15.31982421875,-7.09716796875,44.2584228515625,-112.8955078125
1758525326.9752338,-0.8388671875,-0.439453125,1.12841796875,7.568359375,-7.50732421875,15.31982421875,-6.8499755859375,44.208984375,-112.65380859375
1758525326.9853532,-0.57080078125,-0.3623046875,1.01416015625,37.841796875,-11.04736328125,13.671875,-6.470947265625,44.1375732421875,-112.445068359375
1758525326.9954221,-0.57080078125,-0.3623046875,1.01416015625,37.841796875,-11.04736328125,13.671875,-5.9600830078125,44.033203125,-112.2637939453125
1758525327.0052915,-0.52197265625,0.06103515625,0.88818359375,8.72802734375,-15.31982421875,11.5966796875,-5.6195068359375,43.8958740234375,-112.1044921875
1758525327.0153298,-0.52197265625,0.06103515625,0.88818359375,8.72802734375,-15.31982421875,11.5966796875,-5.4217529296875,43.7310791015625,-111.9561767578125
1758525327.0253868,-0.52734375,0.25439453125,0.92236328125,-29.052734375,-17.02880859375,11.53564453125,-5.4052734375,43.5552978515625,-111.7913818359375
1758525327.0357578,-0.52734375,0.25439453125,0.92236328125,-29.052734375,-17.02880859375,11.53564453125,-5.55908203125,43.3685302734375,-111.610107421875
1758525327.0453973,-0.3984375,-0.0439453125,0.78662109375,-44.677734375,-17.822265625,10.498046875,-5.7843017578125,43.1707763671875,-111.4288330078125
1758525327.0553758,-0.3984375,-0.0439453125,0.78662109375,-44.677734375,-17.822265625,10.498046875,-6.0919189453125,42.967529296875,-111.24755859375
1758525327.0653987,-0.32763671875,-0.2275390625,0.78759765625,-17.822265625,-15.13671875,7.01904296875,-6.2841796875,42.769775390625,-111.0992431640625
1758525327.075824,-0.32763671875,-0.2275390625,0.78759765625,-17.822265625,-15.13671875,7.01904296875,-6.3665771484375,42.5830078125,-110.9893798828125
1758525327.0854554,-0.23193359375,-0.32861328125,0.7548828125,38.51318359375,-9.46044921875,1.28173828125,-6.207275390625,42.4072265625,-110.93994140625
1758525327.0954187,-0.23193359375,-0.32861328125,0.7548828125,38.51318359375,-9.46044921875,1.28173828125,-5.8172607421875,42.25341796875,-110.9564208984375
1758525327.1053886,-0.2685546875,-0.333984375,0.646484375,97.412109375,1.03759765625,-5.859375,-5.185546875,42.1435546875,-111.0498046875
1758525327.116081,-0.2685546875,-0.333984375,0.646484375,97.412109375,1.03759765625,-5.859375,-4.3121337890625,42.0831298828125,-111.2255859375
1758525327.125415,-0.70263671875,0.0732421875,1.21240234375,79.28466796875,0.18310546875,-11.53564453125,-3.5650634765625,42.01171875,-111.4453125
1758525327.135456,-0.70263671875,0.0732421875,1.21240234375,79.28466796875,0.18310546875,-11.53564453125,-2.9278564453125,41.9403076171875,-111.68701171875
1758525327.1457782,-0.70263671875,0.0732421875,1.21240234375,50.23193359375,2.0751953125,-7.75146484375,-2.406005859375,41.8743896484375,-111.884765625
1758525327.1557536,-0.70947265625,0.13623046875,1.17724609375,50.23193359375,2.0751953125,-7.75146484375,-1.99951171875,41.824951171875,-112.049560546875
1758525327.1655087,-0.7939453125,0.033203125,0.51123046875,28.4423828125,5.7373046875,-5.67626953125,-1.69189453125,41.7974853515625,-112.1868896484375
1758525327.1754954,-0.7939453125,0.033203125,0.51123046875,28.4423828125,5.7373046875,-5.67626953125,-1.47216796875,41.802978515625,-112.2967529296875
1758525327.1886055,-0.771484375,-0.212890625,0.548828125,6.8359375,9.033203125,-7.8125,-1.3787841796875,41.8359375,-112.423095703125
1758525327.1975074,-0.771484375,-0.212890625,0.548828125,6.8359375,9.033203125,-7.8125,-1.40625,41.890869140625,-112.56591796875
1758525327.2055433,-0.623046875,-0.09814453125,0.4580078125,0.48828125,14.5263671875,-7.26318359375,-1.4666748046875,41.98974609375,-112.7142333984375
1758525327.2157142,-0.623046875,-0.09814453125,0.4580078125,0.48828125,14.5263671875,-7.26318359375,-1.56005859375,42.1160888671875,-112.8570556640625
1758525327.2259724,-0.73388671875,-0.1962890625,0.63916015625,34.85107421875,15.44189453125,-3.41796875,-1.4666748046875,42.2589111328125,-112.9779052734375
1758525327.2359138,-0.73388671875,-0.1962890625,0.63916015625,34.85107421875,15.44189453125,-3.41796875,-1.197509765625,42.4072265625,-113.0767822265625
1758525327.2455385,-0.96630859375,-0.16357421875,0.943359375,36.4990234375,14.6484375,-1.64794921875,-0.9063720703125,42.5555419921875,-113.170166015625
1758525327.255854,-0.96630859375,-0.16357421875,0.943359375,36.4990234375,14.6484375,-1.64794921875,-0.6097412109375,42.703857421875,-113.2470703125
1758525327.2655919,-1.392578125,0.0,1.1064453125,2.99072265625,4.7607421875,1.953125,-0.4559326171875,42.802734375,-113.302001953125
1758525327.2755926,-1.392578125,0.0,1.1064453125,2.99072265625,4.7607421875,1.953125,-0.450439453125,42.8631591796875,-113.3184814453125
1758525327.285607,-1.19482421875,-0.138671875,0.81494140625,-16.845703125,-4.33349609375,2.62451171875,-0.5328369140625,42.879638671875,-113.323974609375
1758525327.2956553,-1.19482421875,-0.138671875,0.81494140625,-16.845703125,-4.33349609375,2.62451171875,-0.7086181640625,42.8631591796875,-113.323974609375
1758525327.3056014,-1.0126953125,0.091796875,0.5341796875,-31.8603515625,-9.58251953125,6.16455078125,-0.94482421875,42.82470703125,-113.2965087890625
1758525327.3158028,-1.0126953125,0.091796875,0.5341796875,-31.8603515625,-9.58251953125,6.16455078125,-1.23046875,42.769775390625,-113.2305908203125
1758525327.325703,-0.669921875,0.1787109375,0.2578125,-69.15283203125,-10.8642578125,9.33837890625,-1.845703125,42.7093505859375,-113.104248046875
1758525327.3361726,-0.669921875,0.1787109375,0.2578125,-69.15283203125,-10.8642578125,9.33837890625,-2.449951171875,42.6544189453125,-112.972412109375
1758525327.3457303,-0.55859375,-0.04931640625,0.39013671875,-64.8193359375,-6.9580078125,9.3994140625,-3.0047607421875,42.64892578125,-112.82958984375
1758525327.355716,-0.55859375,-0.04931640625,0.39013671875,-64.8193359375,-6.9580078125,9.3994140625,-3.5650634765625,42.6434326171875,-112.6922607421875
1758525327.3657384,-0.49072265625,-0.10791015625,0.30078125,-24.96337890625,-0.244140625,7.568359375,-3.7408447265625,42.703857421875,-112.5823974609375
1758525327.3762028,-0.49072265625,-0.10791015625,0.30078125,-24.96337890625,-0.244140625,7.568359375,-3.9276123046875,42.7642822265625,-112.47802734375
1758525327.3857257,-0.36962890625,-0.18359375,0.40185546875,12.87841796875,7.9345703125,5.31005859375,-3.7628173828125,42.9071044921875,-112.4176025390625
1758525327.395687,-0.36962890625,-0.18359375,0.40185546875,12.87841796875,7.9345703125,5.31005859375,-3.6090087890625,43.0389404296875,-112.3681640625
1758525327.405698,-0.3623046875,-0.0576171875,0.49365234375,28.564453125,16.05224609375,2.197265625,-3.328857421875,43.2476806640625,-112.3681640625
1758525327.4161742,-0.3623046875,-0.0576171875,0.49365234375,28.564453125,16.05224609375,2.197265625,-3.05419921875,43.4454345703125,-112.3681640625
1758525327.425763,-0.462890625,-0.2421875,0.8271484375,43.9453125,21.1181640625,-1.52587890625,-2.669677734375,43.681640625,-112.43408203125
1758525327.4357362,-0.462890625,-0.2421875,0.8271484375,43.9453125,21.1181640625,-1.52587890625,-2.296142578125,43.9068603515625,-112.510986328125
1758525327.4460404,-0.62939453125,-0.033203125,0.96044921875,83.43505859375,16.90673828125,-3.662109375,-1.549072265625,44.0771484375,-112.620849609375
1758525327.4561205,-0.62939453125,-0.033203125,0.96044921875,83.43505859375,16.90673828125,-3.662109375,-0.7965087890625,44.2364501953125,-112.7252197265625
1758525327.4658368,-0.43603515625,-0.005859375,0.89208984375,81.1767578125,15.07568359375,-6.04248046875,-0.087890625,44.3682861328125,-112.862548828125
1758525327.4758315,-0.43603515625,-0.005859375,0.89208984375,81.1767578125,15.07568359375,-6.04248046875,0.615234375,44.4891357421875,-112.9998779296875
1758525327.4885538,-0.6474609375,0.318359375,0.5546875,16.78466796875,15.68603515625,-3.60107421875,0.7196044921875,44.6209716796875,-113.082275390625
1758525327.497432,-0.6474609375,0.318359375,0.5546875,16.78466796875,15.68603515625,-3.60107421875,0.845947265625,44.7528076171875,-113.1427001953125
1758525327.505814,-1.0361328125,0.08740234375,0.90380859375,-28.564453125,9.8876953125,-0.67138671875,0.5548095703125,44.835205078125,-113.148193359375
1758525327.515939,-1.0361328125,0.08740234375,0.90380859375,-28.564453125,9.8876953125,-0.67138671875,0.2691650390625,44.923095703125,-113.1536865234375
1758525327.526107,-1.00244140625,0.203125,1.55322265625,-25.146484375,-5.55419921875,3.2958984375,0.0604248046875,44.84619140625,-113.09326171875
1758525327.5358622,-1.00244140625,0.203125,1.55322265625,-25.146484375,-5.55419921875,3.2958984375,-0.1318359375,44.7637939453125,-113.0328369140625
1758525327.5458658,-0.71923828125,0.29150390625,1.25048828125,-70.068359375,-16.66259765625,9.1552734375,-0.7086181640625,44.5660400390625,-112.8790283203125
1758525327.5558527,-0.71923828125,0.29150390625,1.25048828125,-70.068359375,-16.66259765625,9.1552734375,-1.2689208984375,44.36279296875,-112.708740234375
1758525327.5660093,-0.3623046875,-0.19580078125,0.5537109375,-83.67919921875,-18.85986328125,10.7421875,-1.95556640625,44.1375732421875,-112.52197265625
1758525327.5759344,-0.3623046875,-0.19580078125,0.5537109375,-83.67919921875,-18.85986328125,10.7421875,-2.6422119140625,43.912353515625,-112.3406982421875
1758525327.585973,-0.51416015625,-0.333984375,0.09521484375,-56.33544921875,-12.51220703125,6.77490234375,-3.109130859375,43.758544921875,-112.2308349609375
1758525327.5959396,-0.51416015625,-0.333984375,0.09521484375,-56.33544921875,-12.51220703125,6.77490234375,-3.592529296875,43.6212158203125,-112.1319580078125
1758525327.6063159,-0.70556640625,0.0322265625,0.240234375,-22.03369140625,-4.82177734375,7.080078125,-3.7298583984375,43.57177734375,-112.0330810546875
1758525327.6161356,-0.70556640625,0.0322265625,0.240234375,-22.03369140625,-4.82177734375,7.080078125,-3.8671875,43.538818359375,-111.9232177734375
1758525327.6260374,-0.6953125,0.2080078125,0.43017578125,0.54931640625,0.1220703125,11.71875,-3.7298583984375,43.5662841796875,-111.741943359375
1758525327.6359777,-0.6953125,0.2080078125,0.43017578125,0.54931640625,0.1220703125,11.71875,-3.58154296875,43.5992431640625,-111.544189453125
1758525327.64635,-0.67431640625,0.0693359375,0.810546875,9.521484375,1.3427734375,14.0380859375,-3.3233642578125,43.6431884765625,-111.3079833984375
1758525327.6559918,-0.67431640625,0.0693359375,0.810546875,9.521484375,1.3427734375,14.0380859375,-3.0596923828125,43.6761474609375,-111.0772705078125
1758525327.6660452,-0.69873046875,-0.11962890625,0.96044921875,4.45556640625,0.0,14.46533203125,-2.8509521484375,43.692626953125,-110.841064453125
1758525327.6765292,-0.69873046875,-0.11962890625,0.96044921875,4.45556640625,0.0,14.46533203125,-2.647705078125,43.70361328125,-110.6158447265625
1758525327.6862743,-0.8818359375,-0.30810546875,1.08544921875,22.52197265625,-5.2490234375,12.451171875,-2.296142578125,43.6541748046875,-110.4400634765625
1758525327.6960833,-0.8818359375,-0.30810546875,1.08544921875,22.52197265625,-5.2490234375,12.451171875,-1.9610595703125,43.5992431640625,-110.2752685546875
1758525327.7065794,-0.95703125,-0.0390625,1.13916015625,29.052734375,-12.39013671875,12.3291015625,-1.56005859375,43.472900390625,-110.1214599609375
1758525327.7162135,-0.95703125,-0.0390625,1.13916015625,29.052734375,-12.39013671875,12.3291015625,-1.16455078125,43.3465576171875,-109.9676513671875
1758525327.7261958,-0.81689453125,0.15380859375,1.01220703125,6.9580078125,-16.66259765625,13.18359375,-0.977783203125,43.1707763671875,-109.79736328125
1758525327.7363975,-0.81689453125,0.15380859375,1.01220703125,6.9580078125,-16.66259765625,13.18359375,-0.7855224609375,42.9949951171875,-109.6160888671875
1758525327.7466044,-0.66357421875,0.111328125,0.59375,-32.28759765625,-18.12744140625,14.46533203125,-0.966796875,42.8082275390625,-109.4183349609375
1758525327.756131,-0.66357421875,0.111328125,0.59375,-32.28759765625,-18.12744140625,14.46533203125,-1.142578125,42.626953125,-109.2095947265625
1758525327.7662015,-0.59130859375,0.0146484375,0.55712890625,-52.79541015625,-13.00048828125,14.16015625,-1.5216064453125,42.5006103515625,-109.0008544921875
1758525327.776389,-0.59130859375,0.0146484375,0.55712890625,-52.79541015625,-13.00048828125,14.16015625,-1.900634765625,42.3797607421875,-108.7921142578125
1758525327.786563,-0.72705078125,-0.06591796875,0.5986328125,-30.94482421875,-9.46044921875,13.24462890625,-2.076416015625,42.29736328125,-108.599853515625
1758525327.7962337,-0.72705078125,-0.06591796875,0.5986328125,-30.94482421875,-9.46044921875,13.24462890625,-2.2467041015625,42.220458984375,-108.4075927734375
1758525327.806181,-0.65380859375,0.1650390625,0.70751953125,-24.4140625,-2.9296875,13.36669921875,-2.35107421875,42.20947265625,-108.2098388671875
1758525327.8168592,-0.65380859375,0.1650390625,0.70751953125,-24.4140625,-2.9296875,13.36669921875,-2.449951171875,42.1929931640625,-108.0010986328125
1758525327.8262935,-0.4736328125,-0.00537109375,0.48388671875,-40.71044921875,6.89697265625,14.34326171875,-2.70263671875,42.2808837890625,-107.786865234375
1758525327.836341,-0.4736328125,-0.00537109375,0.48388671875,-40.71044921875,6.89697265625,14.34326171875,-2.955322265625,42.3687744140625,-107.5726318359375
1758525327.8462522,-0.61279296875,-0.15185546875,0.48974609375,-19.47021484375,15.0146484375,13.7939453125,-3.01025390625,42.5390625,-107.3748779296875
1758525327.856635,-0.61279296875,-0.15185546875,0.48974609375,-19.47021484375,15.0146484375,13.7939453125,-3.0706787109375,42.7093505859375,-107.1881103515625
1758525327.8662467,-0.779296875,-0.1982421875,0.55859375,26.0009765625,18.49365234375,12.63427734375,-2.6971435546875,42.9180908203125,-107.02880859375
1758525327.8762524,-0.779296875,-0.1982421875,0.55859375,26.0009765625,18.49365234375,12.63427734375,-2.3345947265625,43.13232421875,-106.8804931640625
1758525327.886358,-0.8603515625,0.09375,0.9736328125,53.22265625,18.4326171875,11.53564453125,-1.702880859375,43.3355712890625,-106.7376708984375
1758525327.896661,-0.8603515625,0.09375,0.9736328125,53.22265625,18.4326171875,11.53564453125,-1.0711669921875,43.538818359375,-106.5838623046875
1758525327.906335,-0.82958984375,0.1611328125,0.8056640625,13.97705078125,15.68603515625,10.6201171875,-0.8294677734375,43.7091064453125,-106.435546875
1758525327.9165235,-0.82958984375,0.1611328125,0.8056640625,13.97705078125,15.68603515625,10.6201171875,-0.582275390625,43.87939453125,-106.28173828125
1758525327.926855,-0.86328125,-0.09912109375,0.7001953125,-23.4375,15.380859375,10.1318359375,-0.714111328125,44.044189453125,-106.1334228515625
1758525327.9364703,-0.86328125,-0.09912109375,0.7001953125,-23.4375,15.380859375,10.1318359375,-0.8514404296875,44.2144775390625,-105.9906005859375
1758525327.9463615,-0.8916015625,-0.0234375,0.583984375,-40.83251953125,14.22119140625,8.4228515625,-1.175537109375,44.3792724609375,-105.875244140625
1758525327.9564247,-0.8916015625,-0.0234375,0.583984375,-40.83251953125,14.22119140625,8.4228515625,-1.505126953125,44.5440673828125,-105.7598876953125
1758525327.9665763,-0.93701171875,0.1982421875,0.6943359375,-33.26416015625,12.26806640625,9.46044921875,-1.73583984375,44.6978759765625,-105.62255859375
1758525327.976415,-0.93701171875,0.1982421875,0.6943359375,-33.26416015625,12.26806640625,9.46044921875,-1.95556640625,44.8516845703125,-105.46875
1758525327.9863725,-0.94921875,0.125,0.70947265625,-13.24462890625,6.591796875,10.80322265625,-1.95556640625,44.9505615234375,-105.29296875
1758525327.996726,-0.94921875,0.125,0.70947265625,-13.24462890625,6.591796875,10.80322265625,-1.95556640625,45.054931640625,-105.1116943359375
1758525328.0067947,-0.88916015625,0.00439453125,0.677734375,11.474609375,0.79345703125,10.07080078125,-1.7083740234375,45.098876953125,-104.9359130859375
1758525328.0165842,-0.88916015625,0.00439453125,0.677734375,11.474609375,0.79345703125,10.07080078125,-1.4666748046875,45.142822265625,-104.765625
1758525328.0265112,-0.73876953125,-0.02783203125,0.76416015625,-7.2021484375,-3.0517578125,9.1552734375,-1.4227294921875,45.142822265625,-104.61181640625
1758525328.0367606,-0.73876953125,-0.02783203125,0.76416015625,-7.2021484375,-3.0517578125,9.1552734375,-1.38427734375,45.142822265625,-104.4580078125
1758525328.0467362,-0.6123046875,-0.0068359375,0.5517578125,-44.12841796875,-4.08935546875,8.4228515625,-1.7193603515625,45.1318359375,-104.315185546875
1758525328.0565505,-0.6123046875,-0.0068359375,0.5517578125,-44.12841796875,-4.08935546875,8.4228515625,-2.054443359375,45.120849609375,-104.17236328125
1758525328.0665412,-0.58837890625,-0.10791015625,0.39501953125,-47.79052734375,-1.220703125,5.92041015625,-2.4554443359375,45.1373291015625,-104.073486328125
1758525328.0770721,-0.58837890625,-0.10791015625,0.39501953125,-47.79052734375,-1.220703125,5.92041015625,-2.8564453125,45.1593017578125,-103.9801025390625
1758525328.0884807,-0.5654296875,-0.00634765625,0.38037109375,-26.91650390625,3.72314453125,3.23486328125,-3.0816650390625,45.230712890625,-103.9251708984375
1758525328.0965686,-0.5654296875,-0.00634765625,0.38037109375,-26.91650390625,3.72314453125,3.23486328125,-3.306884765625,45.3021240234375,-103.8702392578125
1758525328.1065352,-0.53759765625,0.02783203125,0.42236328125,-3.173828125,8.85009765625,1.5869140625,-3.3123779296875,45.428466796875,-103.8427734375
1758525328.116661,-0.53759765625,0.02783203125,0.42236328125,-3.173828125,8.85009765625,1.5869140625,-3.3123779296875,45.54931640625,-103.809814453125
1758525328.1269653,-0.60986328125,-0.0205078125,0.697265625,15.31982421875,11.962890625,0.06103515625,-3.1475830078125,45.6976318359375,-103.8043212890625
1758525328.136659,-0.60986328125,-0.0205078125,0.697265625,15.31982421875,11.962890625,0.06103515625,-2.9827880859375,45.8404541015625,-103.7933349609375
1758525328.1468883,-0.76171875,0.06884765625,0.9443359375,8.97216796875,10.25390625,0.42724609375,-2.87841796875,45.955810546875,-103.77685546875
1758525328.1566832,-0.76171875,0.06884765625,0.9443359375,8.97216796875,10.25390625,0.42724609375,-2.7685546875,46.065673828125,-103.7548828125
1758525328.1666389,-0.724609375,-0.00390625,1.22607421875,11.41357421875,2.62451171875,2.3193359375,-2.6092529296875,46.087646484375,-103.7054443359375
1758525328.1767485,-0.724609375,-0.00390625,1.22607421875,11.41357421875,2.62451171875,2.3193359375,-2.4554443359375,46.0986328125,-103.656005859375
1758525328.1870286,-0.615234375,-0.10302734375,0.96142578125,27.7099609375,-2.13623046875,2.86865234375,-2.13134765625,46.0491943359375,-103.6065673828125
1758525328.196774,-0.615234375,-0.10302734375,0.96142578125,27.7099609375,-2.13623046875,2.86865234375,-1.8182373046875,45.999755859375,-103.5626220703125
1758525328.206645,-0.6806640625,-0.12255859375,0.78125,27.7099609375,-5.67626953125,1.708984375,-1.5216064453125,45.911865234375,-103.546142578125
1758525328.2168872,-0.6806640625,-0.12255859375,0.78125,27.7099609375,-5.67626953125,1.708984375,-1.23046875,45.823974609375,-103.53515625
1758525328.2268999,-0.6865234375,0.126953125,0.92431640625,5.37109375,-7.50732421875,1.708984375,-1.1590576171875,45.714111328125,-103.5186767578125
1758525328.2367284,-0.6865234375,0.126953125,0.92431640625,5.37109375,-7.50732421875,1.708984375,-1.0821533203125,45.6097412109375,-103.502197265625
1758525328.2466848,-0.5419921875,0.03369140625,0.64306640625,-30.6396484375,-7.8125,4.5166015625,-1.3348388671875,45.494384765625,-103.436279296875
1758525328.2570355,-0.5419921875,0.03369140625,0.64306640625,-30.6396484375,-7.8125,4.5166015625,-1.58203125,45.384521484375,-103.3648681640625
1758525328.267077,-0.48779296875,0.150390625,0.5341796875,-61.70654296875,-7.080078125,6.04248046875,-2.1148681640625,45.28564453125,-103.2659912109375
1758525328.2768111,-0.48779296875,0.150390625,0.5341796875,-61.70654296875,-7.080078125,6.04248046875,-2.63671875,45.186767578125,-103.150634765625
1758525328.2868223,-0.7470703125,-0.11572265625,0.5703125,-62.8662109375,-3.96728515625,8.23974609375,-3.153076171875,45.1318359375,-103.0133056640625
1758525328.2971025,-0.7470703125,-0.11572265625,0.5703125,-62.8662109375,-3.96728515625,8.23974609375,-3.66943359375,45.076904296875,-102.8759765625
1758525328.3067486,-0.99267578125,-0.0732421875,1.38916015625,-12.26806640625,-13.61083984375,7.568359375,-3.6859130859375,44.9285888671875,-102.744140625
1758525328.3169854,-0.99267578125,-0.0732421875,1.38916015625,-12.26806640625,-13.61083984375,7.568359375,-3.7078857421875,44.769287109375,-102.623291015625
1758525328.3268175,-0.5908203125,-0.12109375,0.7041015625,25.45166015625,-11.04736328125,6.53076171875,-3.3673095703125,44.6429443359375,-102.5189208984375
1758525328.3372605,-0.61474609375,-0.15771484375,0.66943359375,13.48876953125,-10.8642578125,1.708984375,-3.1201171875,44.5111083984375,-102.45849609375
1758525328.3468418,-0.61474609375,-0.15771484375,0.66943359375,13.48876953125,-10.8642578125,1.708984375,-2.9608154296875,44.3792724609375,-102.4420166015625
1758525328.3570585,-0.53955078125,-0.103515625,0.69482421875,-18.6767578125,-5.9814453125,-2.38037109375,-2.9937744140625,44.2694091796875,-102.4639892578125
1758525328.3668416,-0.53955078125,-0.103515625,0.69482421875,-18.6767578125,-5.9814453125,-2.38037109375,-3.2080078125,44.18701171875,-102.513427734375
1758525328.3773634,-0.37841796875,0.02294921875,0.57958984375,-34.66796875,-3.0517578125,-2.197265625,-3.504638671875,44.1156005859375,-102.5628662109375
1758525328.3886259,-0.37841796875,0.02294921875,0.57958984375,-34.66796875,-3.0517578125,-2.197265625,-3.8671875,44.0606689453125,-102.6123046875
1758525328.3975022,-0.4794921875,-0.02392578125,0.4482421875,-26.7333984375,4.33349609375,-1.220703125,-4.1912841796875,44.0386962890625,-102.6507568359375
1758525328.4069245,-0.4794921875,-0.02392578125,0.4482421875,-26.7333984375,4.33349609375,-1.220703125,-4.4659423828125,44.05517578125,-102.67822265625
1758525328.4171996,-0.87353515625,-0.2275390625,0.83984375,32.8369140625,5.31005859375,0.1220703125,-4.4439697265625,44.0826416015625,-102.7056884765625
1758525328.4274228,-0.87353515625,-0.2275390625,0.83984375,32.8369140625,5.31005859375,0.1220703125,-4.1253662109375,44.1156005859375,-102.7276611328125
1758525328.4371526,-1.28271484375,-0.298828125,1.2158203125,113.58642578125,0.244140625,-3.47900390625,-3.427734375,44.1265869140625,-102.7880859375
1758525328.4469378,-1.28271484375,-0.298828125,1.2158203125,113.58642578125,0.244140625,-3.47900390625,-2.3565673828125,44.12109375,-102.8759765625
1758525328.4573483,-0.81640625,0.35546875,1.23876953125,75.86669921875,-7.01904296875,-5.55419921875,-1.4886474609375,44.0771484375,-102.9803466796875
1758525328.4674635,-0.81640625,0.35546875,1.23876953125,75.86669921875,-7.01904296875,-5.55419921875,-0.802001953125,43.9892578125,-103.0792236328125
1758525328.477042,-0.61474609375,0.23193359375,0.283203125,-48.76708984375,-6.40869140625,-1.28173828125,-0.703125,43.9068603515625,-103.128662109375
1758525328.486982,-0.61474609375,0.23193359375,0.283203125,-48.76708984375,-6.40869140625,-1.28173828125,-1.1920166015625,43.83544921875,-103.1341552734375
1758525328.4971206,-0.7001953125,-0.11962890625,0.447265625,-82.09228515625,-2.99072265625,-2.38037109375,-1.845703125,43.79150390625,-103.1396484375
1758525328.5075326,-0.7001953125,-0.11962890625,0.447265625,-82.09228515625,-2.99072265625,-2.38037109375,-2.6751708984375,43.7640380859375,-103.1561279296875
1758525328.5173187,-0.68994140625,-0.11181640625,0.4404296875,-44.98291015625,3.96728515625,-4.150390625,-3.328857421875,43.780517578125,-103.194580078125
1758525328.5270777,-0.68994140625,-0.11181640625,0.4404296875,-44.98291015625,3.96728515625,-4.150390625,-3.8067626953125,43.83544921875,-103.24951171875
1758525328.537329,-0.591796875,-0.10107421875,0.53564453125,22.705078125,7.75146484375,-2.8076171875,-3.944091796875,43.9178466796875,-103.2989501953125
1758525328.547451,-0.591796875,-0.10107421875,0.53564453125,22.705078125,7.75146484375,-2.8076171875,-3.746337890625,44.01123046875,-103.348388671875
1758525328.557336,-0.5947265625,-0.05322265625,0.52880859375,44.189453125,15.93017578125,-0.18310546875,-3.4332275390625,44.1485595703125,-103.38134765625
1758525328.5671406,-0.5947265625,-0.05322265625,0.52880859375,44.189453125,15.93017578125,-0.18310546875,-3.01025390625,44.329833984375,-103.4033203125
1758525328.5772226,-0.5908203125,0.02490234375,0.6103515625,32.958984375,18.49365234375,-0.91552734375,-2.6422119140625,44.5166015625,-103.4307861328125
1758525328.5871499,-0.5908203125,0.02490234375,0.6103515625,32.958984375,18.49365234375,-0.91552734375,-2.3345947265625,44.7198486328125,-103.458251953125
1758525328.5971327,-0.70654296875,0.0234375,0.7177734375,23.25439453125,19.34814453125,-0.91552734375,-2.0709228515625,44.9176025390625,-103.4857177734375
1758525328.6071591,-0.70654296875,0.0234375,0.7177734375,23.25439453125,19.34814453125,-0.91552734375,-1.856689453125,45.120849609375,-103.5076904296875
1758525328.6174712,-1.01953125,-0.255859375,1.00537109375,24.96337890625,13.00048828125,-3.47900390625,-1.64794921875,45.2911376953125,-103.546142578125
1758525328.6272213,-1.01953125,-0.255859375,1.00537109375,24.96337890625,13.00048828125,-3.47900390625,-1.4501953125,45.428466796875,-103.6175537109375
1758525328.6372333,-0.73046875,-0.216796875,1.3017578125,28.38134765625,1.64794921875,-3.2958984375,-1.241455078125,45.4998779296875,-103.699951171875
1758525328.6472654,-0.73046875,-0.216796875,1.3017578125,28.38134765625,1.64794921875,-3.2958984375,-1.0272216796875,45.50537109375,-103.787841796875
1758525328.6576478,-0.529296875,-0.02783203125,0.6376953125,13.24462890625,-2.13623046875,-3.5400390625,-0.889892578125,45.4779052734375,-103.88671875
1758525328.6672404,-0.529296875,-0.02783203125,0.6376953125,13.24462890625,-2.13623046875,-3.5400390625,-0.823974609375,45.4339599609375,-103.985595703125
1758525328.6772854,-0.5517578125,0.1044921875,0.5,-5.43212890625,-2.01416015625,-5.67626953125,-0.8624267578125,45.3955078125,-104.095458984375
1758525328.6873078,-0.5517578125,0.1044921875,0.5,-5.43212890625,-2.01416015625,-5.67626953125,-0.999755859375,45.3570556640625,-104.2108154296875
1758525328.6977344,-0.654296875,0.017578125,0.462890625,-10.68115234375,0.0,-6.04248046875,-1.153564453125,45.32958984375,-104.3206787109375
1758525328.7072613,-0.654296875,0.017578125,0.462890625,-10.68115234375,0.0,-6.04248046875,-1.3348388671875,45.318603515625,-104.4305419921875
1758525328.7173328,-0.90625,-0.12353515625,0.63525390625,25.69580078125,0.1220703125,-6.16455078125,-1.329345703125,45.3131103515625,-104.534912109375
1758525328.7273839,-0.90625,-0.12353515625,0.63525390625,25.69580078125,0.1220703125,-6.16455078125,-1.153564453125,45.318603515625,-104.644775390625
1758525328.7376413,-0.9267578125,-0.02197265625,1.0771484375,34.60693359375,-5.9814453125,-6.53076171875,-0.933837890625,45.2911376953125,-104.7601318359375
1758525328.747344,-0.9267578125,-0.02197265625,1.0771484375,34.60693359375,-5.9814453125,-6.53076171875,-0.670166015625,45.2362060546875,-104.87548828125
1758525328.7576168,-0.982421875,0.0087890625,1.0185546875,3.96728515625,-13.61083984375,-4.150390625,-0.5438232421875,45.1373291015625,-104.974365234375
1758525328.7679045,-0.982421875,0.0087890625,1.0185546875,3.96728515625,-13.61083984375,-4.150390625,-0.560302734375,45.0,-105.05126953125
1758525328.777545,-0.55712890625,-0.24365234375,0.943359375,-15.5029296875,-20.751953125,-4.45556640625,-0.6756591796875,44.82421875,-105.128173828125
1758525328.7873793,-0.55712890625,-0.24365234375,0.943359375,-15.5029296875,-20.751953125,-4.45556640625,-0.889892578125,44.6099853515625,-105.2215576171875
1758525328.797437,-0.3017578125,-0.0693359375,0.5078125,-19.6533203125,-18.1884765625,-6.7138671875,-1.142578125,44.4012451171875,-105.3369140625
1758525328.8075728,-0.3017578125,-0.0693359375,0.5078125,-19.6533203125,-18.1884765625,-6.7138671875,-1.42822265625,44.197998046875,-105.46875
1758525328.8174915,-0.26416015625,-0.13623046875,0.39599609375,-6.9580078125,-8.4228515625,-10.3759765625,-1.669921875,44.044189453125,-105.6280517578125
1758525328.8277159,-0.26416015625,-0.13623046875,0.39599609375,-6.9580078125,-8.4228515625,-10.3759765625,-1.86767578125,43.9398193359375,-105.8148193359375
1758525328.8377154,-0.29443359375,0.0205078125,0.33740234375,23.92578125,0.06103515625,-12.39013671875,-1.922607421875,43.8739013671875,-106.0235595703125
1758525328.8474708,-0.29443359375,0.0205078125,0.33740234375,23.92578125,0.06103515625,-12.39013671875,-1.8292236328125,43.846435546875,-106.2432861328125
1758525328.8577833,-0.357421875,0.06787109375,0.23681640625,51.20849609375,11.65771484375,-10.498046875,-1.593017578125,43.8848876953125,-106.446533203125
1758525328.8677802,-0.357421875,0.06787109375,0.23681640625,51.20849609375,11.65771484375,-10.498046875,-1.20849609375,43.9837646484375,-106.6278076171875
1758525328.877793,-0.603515625,0.31591796875,0.67919921875,33.99658203125,15.13671875,-7.8125,-0.8843994140625,44.1046142578125,-106.776123046875
1758525328.887534,-0.603515625,0.31591796875,0.67919921875,33.99658203125,15.13671875,-7.8125,-0.6207275390625,44.241943359375,-106.8804931640625
1758525328.8975632,-1.10791015625,0.23046875,1.5751953125,-24.169921875,5.859375,-5.4931640625,-0.615234375,44.329833984375,-106.951904296875
1758525328.9075582,-1.10791015625,0.23046875,1.5751953125,-24.169921875,5.859375,-5.4931640625,-0.87890625,44.36279296875,-106.9903564453125
1758525328.9179761,-1.1015625,-0.171875,1.4677734375,-64.0869140625,-6.34765625,2.3193359375,-1.29638671875,44.329833984375,-106.973876953125
1758525328.9275594,-1.1015625,-0.171875,1.4677734375,-64.0869140625,-6.34765625,2.3193359375,-1.8841552734375,44.2364501953125,-106.9134521484375
1758525328.9376738,-1.037109375,-0.15625,1.00390625,-58.89892578125,-16.6015625,3.2958984375,-2.449951171875,44.0936279296875,-106.8585205078125
1758525328.947938,-1.037109375,-0.15625,1.00390625,-58.89892578125,-16.6015625,3.2958984375,-2.9827880859375,43.9013671875,-106.7926025390625
1758525328.95812,-0.82763671875,-0.01611328125,0.39501953125,-36.31591796875,-15.68603515625,4.2724609375,-3.394775390625,43.7255859375,-106.72119140625
1758525328.9676578,-0.82763671875,-0.01611328125,0.39501953125,-36.31591796875,-15.68603515625,4.2724609375,-3.69140625,43.5662841796875,-106.644287109375
1758525328.9776914,-0.7841796875,-0.23974609375,0.18994140625,-5.92041015625,-11.16943359375,-0.54931640625,-3.8616943359375,43.43994140625,-106.5948486328125
1758525328.9889941,-0.7841796875,-0.23974609375,0.18994140625,-5.92041015625,-11.16943359375,-0.54931640625,-3.9166259765625,43.3465576171875,-106.58935546875
1758525328.9983733,-0.8564453125,-0.19677734375,0.18505859375,65.0634765625,-0.06103515625,-3.35693359375,-3.6419677734375,43.3245849609375,-106.622314453125
1758525329.0076602,-0.8564453125,-0.19677734375,0.18505859375,65.0634765625,-0.06103515625,-3.35693359375,-3.0377197265625,43.3685302734375,-106.6827392578125
1758525329.0177062,-0.80517578125,-0.15673828125,0.36376953125,101.318359375,9.70458984375,-4.39453125,-2.274169921875,43.4674072265625,-106.7596435546875
1758525329.0276926,-0.80517578125,-0.15673828125,0.36376953125,101.318359375,9.70458984375,-4.39453125,-1.34033203125,43.626708984375,-106.8475341796875
1758525329.0380998,-0.845703125,0.04345703125,0.6103515625,53.52783203125,15.68603515625,-3.662109375,-0.648193359375,43.8189697265625,-106.9354248046875
1758525329.0477808,-0.845703125,0.04345703125,0.6103515625,53.52783203125,15.68603515625,-3.662109375,-0.186767578125,44.044189453125,-107.0068359375
1758525329.058008,-0.90869140625,0.0810546875,0.7197265625,-15.93017578125,16.54052734375,-2.0751953125,-0.0604248046875,44.2694091796875,-107.0672607421875
1758525329.068062,-0.90869140625,0.0810546875,0.7197265625,-15.93017578125,16.54052734375,-2.0751953125,-0.263671875,44.4891357421875,-107.105712890625
1758525329.0787838,-0.90478515625,-0.05029296875,0.7333984375,-23.49853515625,11.474609375,-0.30517578125,-0.4888916015625,44.6868896484375,-107.1331787109375
1758525329.08781,-0.90478515625,-0.05029296875,0.7333984375,-23.49853515625,11.474609375,-0.30517578125,-0.7470703125,44.857177734375,-107.149658203125
1758525329.0978577,-0.7900390625,0.18603515625,0.791015625,-32.1044921875,6.16455078125,2.5634765625,-1.0272216796875,44.9945068359375,-107.138671875
1758525329.107783,-0.7900390625,0.18603515625,0.791015625,-32.1044921875,6.16455078125,2.5634765625,-1.3238525390625,45.098876953125,-107.1002197265625
1758525329.1183143,-0.732421875,-0.0302734375,0.53564453125,-45.83740234375,4.45556640625,5.4931640625,-1.669921875,45.1922607421875,-107.0343017578125
1758525329.1278172,-0.732421875,-0.0302734375,0.53564453125,-45.83740234375,4.45556640625,5.4931640625,-2.0654296875,45.2801513671875,-106.9464111328125
1758525329.1378582,-0.732421875,-0.0302734375,0.53564453125,-32.958984375,5.37109375,4.94384765625,-2.4005126953125,45.37353515625,-106.864013671875
1758525329.1479213,-0.77001953125,-0.11962890625,0.57568359375,-32.958984375,5.37109375,4.94384765625,-2.6806640625,45.472412109375,-106.7926025390625
1758525329.1584055,-0.72412109375,-0.13818359375,0.69189453125,-12.451171875,6.4697265625,3.41796875,-2.867431640625,45.5712890625,-106.7376708984375
1758525329.1679096,-0.72412109375,-0.13818359375,0.69189453125,-12.451171875,6.4697265625,3.41796875,-2.96630859375,45.6756591796875,-106.6937255859375
1758525329.1779659,-0.6953125,0.01708984375,0.787109375,-15.0146484375,6.65283203125,1.3427734375,-3.087158203125,45.76904296875,-106.6717529296875
1758525329.1882412,-0.6953125,0.01708984375,0.787109375,-15.0146484375,6.65283203125,1.3427734375,-3.22998046875,45.8624267578125,-106.666259765625
1758525329.198265,-0.64404296875,0.01611328125,0.8291015625,-24.47509765625,6.40869140625,-0.48828125,-3.4222412109375,45.94482421875,-106.6607666015625
1758525329.2079186,-0.64404296875,0.01611328125,0.8291015625,-24.47509765625,6.40869140625,-0.48828125,-3.66943359375,46.021728515625,-106.6717529296875
1758525329.2179742,-0.5546875,-0.10693359375,0.61328125,-9.8876953125,6.9580078125,-3.23486328125,-3.856201171875,46.0931396484375,-106.69921875
1758525329.2282429,-0.5546875,-0.10693359375,0.61328125,-9.8876953125,6.9580078125,-3.23486328125,-3.988037109375,46.16455078125,-106.754150390625
