timestamp,acc_x,acc_y,acc_z,gyro_x,gyro_y,gyro_z,angle_x,angle_y,angle_z
1758877894.9390597,-0.69287109375,0.0146484375,0.73681640625,8.85009765625,-13.00048828125,-7.9345703125,2.6202392578125,44.0277099609375,-76.783447265625
1758877894.9482954,-0.68017578125,0.01318359375,0.740234375,3.47900390625,-11.71875,-5.43212890625,2.61474609375,43.9178466796875,-76.88232421875
1758877894.9568784,-0.68017578125,0.01318359375,0.740234375,3.47900390625,-11.71875,-5.43212890625,2.5872802734375,43.8134765625,-76.9647216796875
1758877894.9670653,-0.67626953125,0.0029296875,0.755859375,2.62451171875,-9.521484375,-3.5400390625,2.57080078125,43.7200927734375,-77.0361328125
1758877894.9775217,-0.67626953125,0.0029296875,0.755859375,2.62451171875,-9.521484375,-3.5400390625,2.5543212890625,43.6322021484375,-77.0965576171875
1758877894.987073,-0.66845703125,0.001953125,0.77587890625,9.6435546875,-6.9580078125,-3.2958984375,2.5762939453125,43.560791015625,-77.1514892578125
1758877894.9971144,-0.66845703125,0.001953125,0.77587890625,9.6435546875,-6.9580078125,-3.2958984375,2.6312255859375,43.494873046875,-77.2064208984375
1758877895.0067542,-0.650390625,0.0166015625,0.7568359375,15.19775390625,-5.31005859375,-3.72314453125,2.713623046875,43.43994140625,-77.266845703125
1758877895.0166268,-0.650390625,0.0166015625,0.7568359375,15.19775390625,-5.31005859375,-3.72314453125,2.8179931640625,43.3905029296875,-77.3272705078125
1758877895.0260162,-0.64794921875,0.05078125,0.76318359375,14.09912109375,-3.60107421875,-4.0283203125,2.9168701171875,43.3465576171875,-77.3876953125
1758877895.0361655,-0.64794921875,0.05078125,0.76318359375,14.09912109375,-3.60107421875,-4.0283203125,3.01025390625,43.3135986328125,-77.4481201171875
1758877895.0461016,-0.63525390625,0.06884765625,0.79248046875,10.07080078125,-1.8310546875,-3.90625,3.087158203125,43.2806396484375,-77.508544921875
1758877895.056119,-0.63525390625,0.06884765625,0.79248046875,10.07080078125,-1.8310546875,-3.90625,3.14208984375,43.2586669921875,-77.5634765625
1758877895.066089,-0.60888671875,0.068359375,0.8046875,6.34765625,-0.67138671875,-4.150390625,3.18603515625,43.2421875,-77.6239013671875
1758877895.0790496,-0.60888671875,0.068359375,0.8046875,6.34765625,-0.67138671875,-4.150390625,3.2080078125,43.2257080078125,-77.6788330078125
1758877895.086271,-0.59619140625,0.0517578125,0.80322265625,2.8076171875,-0.30517578125,-3.96728515625,3.2135009765625,43.209228515625,-77.728271484375
1758877895.0961773,-0.59619140625,0.0517578125,0.80322265625,2.8076171875,-0.30517578125,-3.96728515625,3.2025146484375,43.1927490234375,-77.7777099609375
1758877895.1062372,-0.60693359375,0.041015625,0.79296875,0.91552734375,-0.18310546875,-3.35693359375,3.18603515625,43.17626953125,-77.8216552734375
1758877895.1161509,-0.60693359375,0.041015625,0.79296875,0.91552734375,-0.18310546875,-3.35693359375,3.1640625,43.154296875,-77.8656005859375
1758877895.1261442,-0.62255859375,0.0244140625,0.78076171875,-1.0986328125,-0.06103515625,-2.5634765625,3.131103515625,43.1378173828125,-77.8985595703125
1758877895.1361613,-0.62255859375,0.0244140625,0.78076171875,-1.0986328125,-0.06103515625,-2.5634765625,3.09814453125,43.1158447265625,-77.9315185546875
1758877895.1462965,-0.6474609375,0.0302734375,0.79443359375,-3.2958984375,1.15966796875,-0.244140625,3.0596923828125,43.099365234375,-77.9425048828125
1758877895.1561847,-0.6474609375,0.0302734375,0.79443359375,-3.2958984375,1.15966796875,-0.244140625,3.0267333984375,43.08837890625,-77.9425048828125
1758877895.166199,-0.63525390625,-0.0009765625,0.794921875,-7.87353515625,2.0751953125,2.62451171875,2.977294921875,43.0828857421875,-77.9205322265625
1758877895.1762283,-0.63525390625,-0.0009765625,0.794921875,-7.87353515625,2.0751953125,2.62451171875,2.92236328125,43.0828857421875,-77.882080078125
1758877895.1862178,-0.64306640625,0.0029296875,0.77294921875,-6.8359375,2.0751953125,5.06591796875,2.8839111328125,43.077392578125,-77.8326416015625
1758877895.1962276,-0.64306640625,0.0029296875,0.77294921875,-6.8359375,2.0751953125,5.06591796875,2.8564453125,43.0718994140625,-77.7667236328125
1758877895.2064881,-0.67724609375,-0.01123046875,0.77685546875,-4.57763671875,1.5869140625,7.26318359375,2.8509521484375,43.06640625,-77.684326171875
1758877895.2162635,-0.67724609375,-0.01123046875,0.77685546875,-4.57763671875,1.5869140625,7.26318359375,2.8619384765625,43.055419921875,-77.5909423828125
1758877895.22651,-0.69580078125,0.0087890625,0.69775390625,-2.197265625,0.67138671875,8.4228515625,2.8948974609375,43.04443359375,-77.4920654296875
1758877895.2362766,-0.69580078125,0.0087890625,0.69775390625,-2.197265625,0.67138671875,8.4228515625,2.9388427734375,43.033447265625,-77.3876953125
1758877895.2462878,-0.72265625,0.037109375,0.68212890625,1.77001953125,0.48828125,8.36181640625,3.0047607421875,43.0224609375,-77.2833251953125
1758877895.2563026,-0.72265625,0.037109375,0.68212890625,1.77001953125,0.48828125,8.36181640625,3.0926513671875,43.011474609375,-77.178955078125
1758877895.2663014,-0.6982421875,0.0712890625,0.68017578125,1.15966796875,-0.18310546875,7.38525390625,3.1695556640625,43.00048828125,-77.0855712890625
1758877895.276348,-0.6982421875,0.0712890625,0.68017578125,1.15966796875,-0.18310546875,7.38525390625,3.240966796875,42.989501953125,-76.9921875
1758877895.2870731,-0.66552734375,0.0966796875,0.70361328125,-2.0751953125,-2.01416015625,6.40869140625,3.2958984375,42.9730224609375,-76.904296875
1758877895.2965498,-0.66552734375,0.0966796875,0.70361328125,-2.0751953125,-2.01416015625,6.40869140625,3.3343505859375,42.945556640625,-76.8218994140625
1758877895.3064291,-0.68017578125,0.0703125,0.76025390625,-7.99560546875,-2.86865234375,6.7138671875,3.33984375,42.9180908203125,-76.7340087890625
1758877895.3166692,-0.68017578125,0.0703125,0.76025390625,-7.99560546875,-2.86865234375,6.7138671875,3.3233642578125,42.879638671875,-76.6461181640625
1758877895.32671,-0.66650390625,0.01953125,0.74951171875,-15.5029296875,-2.25830078125,7.87353515625,3.27392578125,42.8466796875,-76.5472412109375
1758877895.3363974,-0.66650390625,0.01953125,0.74951171875,-15.5029296875,-2.25830078125,7.87353515625,3.1915283203125,42.8192138671875,-76.44287109375
1758877895.346414,-0.68505859375,0.0146484375,0.748046875,-14.2822265625,-1.0986328125,7.87353515625,3.1146240234375,42.791748046875,-76.3385009765625
1758877895.3564267,-0.68505859375,0.0146484375,0.748046875,-14.2822265625,-1.0986328125,7.87353515625,3.043212890625,42.7752685546875,-76.234130859375
1758877895.3664382,-0.677734375,0.02001953125,0.73828125,-1.5869140625,0.30517578125,6.89697265625,3.0322265625,42.7642822265625,-76.13525390625
1758877895.376457,-0.677734375,0.02001953125,0.73828125,-1.5869140625,0.30517578125,6.89697265625,3.076171875,42.7642822265625,-76.04736328125
1758877895.3864527,-0.62890625,0.03271484375,0.7421875,3.96728515625,1.220703125,5.43212890625,3.14208984375,42.7642822265625,-75.970458984375
1758877895.3964863,-0.62890625,0.03271484375,0.7421875,3.96728515625,1.220703125,5.43212890625,3.22998046875,42.769775390625,-75.904541015625
1758877895.4064858,-0.6181640625,0.08154296875,0.81201171875,1.5869140625,1.8310546875,4.08935546875,3.3013916015625,42.7752685546875,-75.8441162109375
1758877895.4165187,-0.6181640625,0.08154296875,0.81201171875,1.5869140625,1.8310546875,4.08935546875,3.350830078125,42.7862548828125,-75.7891845703125
1758877895.4265358,-0.5869140625,0.0869140625,0.81494140625,1.46484375,1.64794921875,2.9296875,3.4002685546875,42.7862548828125,-75.7452392578125
1758877895.4365432,-0.5869140625,0.0869140625,0.81494140625,1.46484375,1.64794921875,2.9296875,3.4442138671875,42.7862548828125,-75.7012939453125
1758877895.446598,-0.5654296875,0.04736328125,0.81005859375,3.41796875,0.91552734375,2.0751953125,3.49365234375,42.78076171875,-75.662841796875
1758877895.456561,-0.5654296875,0.04736328125,0.81005859375,3.41796875,0.91552734375,2.0751953125,3.548583984375,42.769775390625,-75.6353759765625
1758877895.4666033,-0.54638671875,0.01806640625,0.83203125,2.8076171875,0.06103515625,1.953125,3.5980224609375,42.7532958984375,-75.6024169921875
1758877895.4767015,-0.54638671875,0.01806640625,0.83203125,2.8076171875,0.06103515625,1.953125,3.6474609375,42.725830078125,-75.574951171875
1758877895.4867043,-0.544921875,0.02490234375,0.830078125,5.859375,-0.30517578125,2.25830078125,3.7188720703125,42.69287109375,-75.5474853515625
1758877895.496753,-0.544921875,0.02490234375,0.830078125,5.859375,-0.30517578125,2.25830078125,3.7957763671875,42.6544189453125,-75.52001953125
1758877895.5067132,-0.54931640625,0.03271484375,0.83837890625,9.58251953125,-0.9765625,2.62451171875,3.9111328125,42.6104736328125,-75.487060546875
1758877895.5168312,-0.54931640625,0.03271484375,0.83837890625,9.58251953125,-0.9765625,2.62451171875,4.02099609375,42.56103515625,-75.4595947265625
1758877895.5267997,-0.54931640625,0.04052734375,0.78173828125,15.5029296875,-0.8544921875,2.9296875,4.19677734375,42.51708984375,-75.421142578125
1758877895.5367785,-0.54931640625,0.04052734375,0.78173828125,15.5029296875,-0.8544921875,2.9296875,4.3670654296875,42.4676513671875,-75.38818359375
1758877895.5473216,-0.58642578125,0.02880859375,0.75830078125,18.61572265625,-0.48828125,3.0517578125,4.5703125,42.4237060546875,-75.355224609375
1758877895.5569596,-0.58642578125,0.02880859375,0.75830078125,18.61572265625,-0.48828125,3.0517578125,4.76806640625,42.38525390625,-75.3277587890625
1758877895.5674262,-0.61767578125,0.05224609375,0.7197265625,16.78466796875,1.708984375,3.90625,4.9603271484375,42.36328125,-75.2838134765625
1758877895.5771112,-0.61767578125,0.05224609375,0.7197265625,16.78466796875,1.708984375,3.90625,5.152587890625,42.3468017578125,-75.2398681640625
1758877895.588306,-0.61865234375,0.0712890625,0.671875,11.16943359375,3.96728515625,5.2490234375,5.3009033203125,42.352294921875,-75.1739501953125
1758877895.5969589,-0.61865234375,0.0712890625,0.671875,11.16943359375,3.96728515625,5.2490234375,5.44921875,42.36328125,-75.113525390625
1758877895.606991,-0.6533203125,0.078125,0.693359375,6.16455078125,5.06591796875,6.34765625,5.5645751953125,42.38525390625,-75.0311279296875
1758877895.6175864,-0.6533203125,0.078125,0.693359375,6.16455078125,5.06591796875,6.34765625,5.6744384765625,42.4072265625,-74.94873046875
1758877895.627112,-0.748046875,0.0673828125,0.80615234375,11.962890625,4.5166015625,6.4697265625,5.8447265625,42.42919921875,-74.871826171875
1758877895.6369216,-0.748046875,0.0673828125,0.80615234375,11.962890625,4.5166015625,6.4697265625,6.0150146484375,42.451171875,-74.7894287109375
1758877895.6480181,-0.75830078125,-0.009765625,0.8115234375,33.87451171875,4.150390625,5.79833984375,6.3995361328125,42.47314453125,-74.7235107421875
1758877895.657586,-0.75830078125,-0.009765625,0.8115234375,33.87451171875,4.150390625,5.79833984375,6.7730712890625,42.4951171875,-74.6685791015625
1758877895.6670678,-0.69140625,0.03662109375,0.646484375,36.4990234375,3.60107421875,5.2490234375,7.1630859375,42.51708984375,-74.619140625
1758877895.6774104,-0.69140625,0.03662109375,0.646484375,36.4990234375,3.60107421875,5.2490234375,7.5531005859375,42.5390625,-74.5697021484375
1758877895.6887076,-0.68359375,0.16552734375,0.615234375,28.25927734375,4.39453125,5.43212890625,7.8717041015625,42.572021484375,-74.520263671875
1758877895.6970518,-0.68359375,0.16552734375,0.615234375,28.25927734375,4.39453125,5.43212890625,8.1903076171875,42.6104736328125,-74.4598388671875
1758877895.7070816,-0.716796875,0.193359375,0.7099609375,14.34326171875,4.08935546875,6.4697265625,8.382568359375,42.6434326171875,-74.3829345703125
1758877895.717794,-0.716796875,0.193359375,0.7099609375,14.34326171875,4.08935546875,6.4697265625,8.580322265625,42.6763916015625,-74.300537109375
1758877895.72711,-0.71435546875,0.16650390625,0.73779296875,1.28173828125,3.35693359375,7.01904296875,8.6517333984375,42.6983642578125,-74.212646484375
1758877895.736998,-0.71435546875,0.16650390625,0.73779296875,1.28173828125,3.35693359375,7.01904296875,8.7286376953125,42.725830078125,-74.11376953125
1758877895.7483585,-0.6767578125,0.14501953125,0.67529296875,-13.671875,1.89208984375,8.056640625,8.668212890625,42.73681640625,-74.0093994140625
1758877895.7572505,-0.6767578125,0.14501953125,0.67529296875,-13.671875,1.89208984375,8.056640625,8.6077880859375,42.7423095703125,-73.905029296875
1758877895.7671525,-0.703125,0.1337890625,0.71533203125,-24.10888671875,0.67138671875,9.33837890625,8.45947265625,42.7423095703125,-73.7786865234375
1758877895.7779942,-0.703125,0.1337890625,0.71533203125,-24.10888671875,0.67138671875,9.33837890625,8.3056640625,42.73681640625,-73.6578369140625
1758877895.7878807,-0.79736328125,0.0439453125,0.81103515625,-0.30517578125,0.18310546875,9.82666015625,8.3935546875,42.7313232421875,-73.531494140625
1758877895.7971883,-0.79736328125,0.0439453125,0.81103515625,-0.30517578125,0.18310546875,9.82666015625,8.4814453125,42.725830078125,-73.41064453125
1758877895.8073246,-0.71142578125,-0.06298828125,0.70556640625,26.2451171875,0.3662109375,9.27734375,8.8165283203125,42.7203369140625,-73.3062744140625
1758877895.817931,-0.71142578125,-0.06298828125,0.70556640625,26.2451171875,0.3662109375,9.27734375,9.1461181640625,42.7203369140625,-73.212890625
1758877895.8272412,-0.66796875,0.03125,0.6015625,39.24560546875,1.03759765625,8.056640625,9.591064453125,42.725830078125,-73.1414794921875
1758877895.8371391,-0.66796875,0.03125,0.6015625,39.24560546875,1.03759765625,8.056640625,10.030517578125,42.73681640625,-73.070068359375
1758877895.8483586,-0.716796875,0.15576171875,0.68017578125,46.08154296875,1.8310546875,7.4462890625,10.535888671875,42.7532958984375,-73.004150390625
1758877895.857391,-0.716796875,0.15576171875,0.68017578125,46.08154296875,1.8310546875,7.4462890625,11.041259765625,42.7752685546875,-72.938232421875
1758877895.867269,-0.74169921875,0.29248046875,0.7470703125,24.5361328125,2.197265625,8.056640625,11.348876953125,42.791748046875,-72.8558349609375
1758877895.877669,-0.74169921875,0.29248046875,0.7470703125,24.5361328125,2.197265625,8.056640625,11.656494140625,42.8082275390625,-72.762451171875
1758877895.8885756,-0.77294921875,0.30078125,0.74853515625,-7.62939453125,1.708984375,8.4228515625,11.6510009765625,42.8192138671875,-72.66357421875
1758877895.8983855,-0.77294921875,0.30078125,0.74853515625,-7.62939453125,1.708984375,8.4228515625,11.656494140625,42.8302001953125,-72.5537109375
1758877895.9073377,-0.7578125,0.2451171875,0.7021484375,-25.0244140625,1.3427734375,9.33837890625,11.502685546875,42.835693359375,-72.4273681640625
1758877895.9180892,-0.7578125,0.2451171875,0.7021484375,-25.0244140625,1.3427734375,9.33837890625,11.348876953125,42.8411865234375,-72.301025390625
1758877895.927351,-0.73828125,0.12109375,0.66796875,-26.2451171875,1.3427734375,10.3759765625,11.195068359375,42.8466796875,-72.158203125
1758877895.9372592,-0.73828125,0.12109375,0.66796875,-26.2451171875,1.3427734375,10.3759765625,11.041259765625,42.857666015625,-72.0208740234375
1758877895.9484947,-0.712890625,0.091796875,0.65966796875,-21.6064453125,1.64794921875,10.55908203125,10.9368896484375,42.86865234375,-71.883544921875
1758877895.957972,-0.712890625,0.091796875,0.65966796875,-21.6064453125,1.64794921875,10.55908203125,10.8270263671875,42.879638671875,-71.7462158203125
1758877895.9673753,-0.72802734375,0.12060546875,0.6748046875,-13.00048828125,2.3193359375,10.25390625,10.799560546875,42.901611328125,-71.6143798828125
1758877895.9784777,-0.72802734375,0.12060546875,0.6748046875,-13.00048828125,2.3193359375,10.25390625,10.7720947265625,42.9180908203125,-71.4825439453125
1758877895.9874296,-0.708984375,0.15283203125,0.669921875,-10.07080078125,2.8076171875,9.94873046875,10.777587890625,42.945556640625,-71.3507080078125
1758877895.997512,-0.708984375,0.15283203125,0.669921875,-10.07080078125,2.8076171875,9.94873046875,10.777587890625,42.9730224609375,-71.224365234375
1758877896.0088997,-0.71826171875,0.19921875,0.67236328125,-15.869140625,3.2958984375,10.3759765625,10.7281494140625,43.00048828125,-71.0870361328125
1758877896.0175633,-0.71826171875,0.19921875,0.67236328125,-15.869140625,3.2958984375,10.3759765625,10.6842041015625,43.033447265625,-70.9442138671875
1758877896.0273907,-0.72216796875,0.1923828125,0.66650390625,-22.94921875,3.96728515625,10.43701171875,10.56884765625,43.06640625,-70.7958984375
1758877896.0377355,-0.72216796875,0.1923828125,0.66650390625,-22.94921875,3.96728515625,10.43701171875,10.458984375,43.1048583984375,-70.6475830078125
1758877896.048584,-0.708984375,0.14990234375,0.6806640625,-27.83203125,4.638671875,10.6201171875,10.30517578125,43.1488037109375,-70.4937744140625
1758877896.05756,-0.708984375,0.14990234375,0.6806640625,-27.83203125,4.638671875,10.6201171875,10.1513671875,43.1927490234375,-70.3399658203125
1758877896.0674703,-0.69775390625,0.115234375,0.697265625,-27.9541015625,5.0048828125,10.55908203125,9.9920654296875,43.2366943359375,-70.1861572265625
1758877896.0786378,-0.69775390625,0.115234375,0.697265625,-27.9541015625,5.0048828125,10.55908203125,9.832763671875,43.2806396484375,-70.0323486328125
1758877896.0874643,-0.6826171875,0.11376953125,0.69970703125,-24.5361328125,4.8828125,10.6201171875,9.7119140625,43.3245849609375,-69.884033203125
1758877896.0977309,-0.6826171875,0.11376953125,0.69970703125,-24.5361328125,4.8828125,10.6201171875,9.5855712890625,43.3685302734375,-69.7357177734375
1758877896.1086588,-0.6669921875,0.1279296875,0.7041015625,-23.4375,4.8828125,10.498046875,9.47021484375,43.406982421875,-69.58740234375
1758877896.1179528,-0.6669921875,0.1279296875,0.7041015625,-23.4375,4.8828125,10.498046875,9.3548583984375,43.450927734375,-69.4390869140625
1758877896.1279478,-0.6484375,0.140625,0.72705078125,-22.8271484375,5.37109375,10.498046875,9.2449951171875,43.4893798828125,-69.290771484375
1758877896.138783,-0.6484375,0.140625,0.72705078125,-22.8271484375,5.37109375,10.498046875,9.140625,43.5333251953125,-69.1424560546875
1758877896.1480985,-0.6279296875,0.12890625,0.77685546875,-19.47021484375,6.103515625,9.8876953125,9.0582275390625,43.5772705078125,-68.9996337890625
1758877896.1577132,-0.6279296875,0.12890625,0.77685546875,-19.47021484375,6.103515625,9.8876953125,8.9813232421875,43.6212158203125,-68.8568115234375
1758877896.1682186,-0.6025390625,0.11279296875,0.78857421875,-19.10400390625,6.9580078125,9.09423828125,8.8934326171875,43.670654296875,-68.719482421875
1758877896.1785955,-0.6025390625,0.11279296875,0.78857421875,-19.10400390625,6.9580078125,9.09423828125,8.81103515625,43.714599609375,-68.5821533203125
1758877896.1879895,-0.59130859375,0.125,0.79248046875,-19.71435546875,7.50732421875,7.75146484375,8.7066650390625,43.7640380859375,-68.466796875
1758877896.1989708,-0.59130859375,0.125,0.79248046875,-19.71435546875,7.50732421875,7.75146484375,8.602294921875,43.8079833984375,-68.3514404296875
1758877896.208817,-0.615234375,0.140625,0.80322265625,-16.4794921875,7.50732421875,5.859375,8.514404296875,43.857421875,-68.2525634765625
1758877896.2177792,-0.615234375,0.140625,0.80322265625,-16.4794921875,7.50732421875,5.859375,8.426513671875,43.9013671875,-68.1591796875
1758877896.2281413,-0.654296875,0.16259765625,0.763671875,-18.37158203125,7.99560546875,4.8828125,8.316650390625,43.9508056640625,-68.0767822265625
1758877896.2385907,-0.654296875,0.16259765625,0.763671875,-18.37158203125,7.99560546875,4.8828125,8.2012939453125,44.000244140625,-67.9888916015625
1758877896.2481112,-0.68359375,0.10302734375,0.779296875,-19.34814453125,6.89697265625,3.60107421875,8.06396484375,44.0386962890625,-67.9229736328125
1758877896.2578487,-0.68359375,0.10302734375,0.779296875,-19.34814453125,6.89697265625,3.60107421875,7.9266357421875,44.0826416015625,-67.8570556640625
1758877896.2681432,-0.6953125,0.083984375,0.775390625,-20.751953125,6.7138671875,3.11279296875,7.7728271484375,44.12109375,-67.796630859375
1758877896.278822,-0.6953125,0.083984375,0.775390625,-20.751953125,6.7138671875,3.11279296875,7.613525390625,44.1650390625,-67.74169921875
1758877896.288272,-0.658203125,0.0673828125,0.7431640625,-11.3525390625,6.04248046875,1.89208984375,7.53662109375,44.197998046875,-67.708740234375
1758877896.2979534,-0.658203125,0.0673828125,0.7431640625,-11.3525390625,6.04248046875,1.89208984375,7.4542236328125,44.2364501953125,-67.67578125
1758877896.3087502,-0.6826171875,0.08935546875,0.65673828125,4.150390625,6.8359375,-0.06103515625,7.5091552734375,44.285888671875,-67.664794921875
1758877896.3179278,-0.6826171875,0.08935546875,0.65673828125,4.150390625,6.8359375,-0.06103515625,7.5640869140625,44.3353271484375,-67.6593017578125
1758877896.3282838,-0.67822265625,0.09228515625,0.7001953125,6.8359375,6.9580078125,-2.62451171875,7.6190185546875,44.3902587890625,-67.6922607421875
1758877896.3383794,-0.67822265625,0.09228515625,0.7001953125,6.8359375,6.9580078125,-2.62451171875,7.6739501953125,44.45068359375,-67.7197265625
1758877896.348377,-0.66845703125,0.1337890625,0.66455078125,9.033203125,8.056640625,-5.67626953125,7.723388671875,44.5220947265625,-67.7911376953125
1758877896.3579502,-0.66845703125,0.1337890625,0.66455078125,9.033203125,8.056640625,-5.67626953125,7.7728271484375,44.5989990234375,-67.8570556640625
1758877896.3682413,-0.68701171875,0.13818359375,0.68798828125,16.41845703125,8.056640625,-8.6669921875,7.8717041015625,44.6759033203125,-67.96142578125
1758877896.3789427,-0.68701171875,0.13818359375,0.68798828125,16.41845703125,8.056640625,-8.6669921875,7.9705810546875,44.75830078125,-68.0657958984375
1758877896.3882265,-0.67529296875,0.12109375,0.6904296875,15.68603515625,7.87353515625,-10.68115234375,8.0419921875,44.8406982421875,-68.1976318359375
1758877896.3983638,-0.67529296875,0.12109375,0.6904296875,15.68603515625,7.87353515625,-10.68115234375,8.10791015625,44.923095703125,-68.3294677734375
1758877896.4087255,-0.70849609375,0.1279296875,0.7421875,5.9814453125,5.92041015625,-12.6953125,8.06396484375,44.989013671875,-68.4942626953125
1758877896.417996,-0.70849609375,0.1279296875,0.7421875,5.9814453125,5.92041015625,-12.6953125,8.0145263671875,45.0494384765625,-68.653564453125
1758877896.4284184,-0.66259765625,0.1689453125,0.7587890625,-9.6435546875,4.21142578125,-12.51220703125,7.811279296875,45.098876953125,-68.8128662109375
1758877896.4384558,-0.66259765625,0.1689453125,0.7587890625,-9.6435546875,4.21142578125,-12.51220703125,7.6080322265625,45.142822265625,-68.97216796875
1758877896.4484289,-0.62060546875,0.1337890625,0.728515625,-10.986328125,3.35693359375,-11.90185546875,7.3992919921875,45.17578125,-69.1204833984375
1758877896.4580922,-0.6083984375,0.05224609375,0.68701171875,-7.080078125,2.86865234375,-11.474609375,7.2125244140625,45.2032470703125,-69.2633056640625
1758877896.4683921,-0.6083984375,0.05224609375,0.68701171875,-7.080078125,2.86865234375,-11.474609375,7.0477294921875,45.2252197265625,-69.4061279296875
1758877896.478899,-0.6279296875,0.02734375,0.70751953125,-4.08935546875,2.01416015625,-11.3525390625,6.8939208984375,45.2471923828125,-69.5489501953125
1758877896.488417,-0.6279296875,0.02734375,0.70751953125,-4.08935546875,2.01416015625,-11.3525390625,6.7510986328125,45.2581787109375,-69.7027587890625
1758877896.49852,-0.65771484375,0.0693359375,0.75927734375,6.04248046875,0.9765625,-10.498046875,6.65771484375,45.2691650390625,-69.8455810546875
1758877896.5090275,-0.65771484375,0.0693359375,0.75927734375,6.04248046875,0.9765625,-10.498046875,6.6192626953125,45.2691650390625,-69.9884033203125
1758877896.5181353,-0.7109375,0.0068359375,0.8037109375,3.2958984375,0.18310546875,-10.009765625,6.56982421875,45.2691650390625,-70.1312255859375
1758877896.5285196,-0.7109375,0.0068359375,0.8037109375,3.2958984375,0.18310546875,-10.009765625,6.50390625,45.2581787109375,-70.2740478515625
1758877896.5387177,-0.748046875,0.05224609375,0.82958984375,-0.42724609375,-1.28173828125,-8.97216796875,6.416015625,45.24169921875,-70.4168701171875
1758877896.5485804,-0.748046875,0.05224609375,0.82958984375,-0.42724609375,-1.28173828125,-8.97216796875,6.317138671875,45.2197265625,-70.55419921875
1758877896.5582328,-0.7998046875,0.1201171875,0.7626953125,-2.0751953125,-2.197265625,-8.1787109375,6.2127685546875,45.1922607421875,-70.68603515625
1758877896.5686736,-0.7998046875,0.1201171875,0.7626953125,-2.0751953125,-2.197265625,-8.1787109375,6.1029052734375,45.164794921875,-70.806884765625
1758877896.5794895,-0.7763671875,0.1396484375,0.671875,-14.892578125,-1.52587890625,-8.4228515625,5.9381103515625,45.1373291015625,-70.927734375
1758877896.5885317,-0.7763671875,0.1396484375,0.671875,-14.892578125,-1.52587890625,-8.4228515625,5.7073974609375,45.120849609375,-71.048583984375
1758877896.5983355,-0.7451171875,0.072265625,0.57080078125,-11.77978515625,-0.18310546875,-7.87353515625,5.504150390625,45.1153564453125,-71.158447265625
1758877896.608962,-0.7451171875,0.072265625,0.57080078125,-11.77978515625,-0.18310546875,-7.87353515625,5.3173828125,45.120849609375,-71.2628173828125
1758877896.61845,-0.75537109375,-0.01708984375,0.50048828125,10.31494140625,1.3427734375,-8.056640625,5.240478515625,45.1318359375,-71.3671875
1758877896.6286464,-0.75537109375,-0.01708984375,0.50048828125,10.31494140625,1.3427734375,-8.056640625,5.2679443359375,45.164794921875,-71.4825439453125
1758877896.638952,-0.7529296875,-0.033203125,0.447265625,24.2919921875,2.44140625,-8.11767578125,5.3668212890625,45.2032470703125,-71.597900390625
1758877896.6487174,-0.7529296875,-0.033203125,0.447265625,24.2919921875,2.44140625,-8.11767578125,5.526123046875,45.252685546875,-71.71875
1758877896.6584048,-0.76953125,0.00146484375,0.48486328125,22.216796875,4.21142578125,-8.1787109375,5.6744384765625,45.318603515625,-71.8450927734375
1758877896.668936,-0.76953125,0.00146484375,0.48486328125,22.216796875,4.21142578125,-8.1787109375,5.811767578125,45.4010009765625,-71.971435546875
1758877896.679277,-0.8076171875,0.07861328125,0.6484375,19.287109375,4.39453125,-8.6669921875,5.9271240234375,45.4833984375,-72.103271484375
1758877896.6886976,-0.8076171875,0.07861328125,0.6484375,19.287109375,4.39453125,-8.6669921875,6.031494140625,45.5657958984375,-72.2406005859375
1758877896.6986318,-0.82373046875,0.1796875,0.73876953125,5.55419921875,4.33349609375,-8.72802734375,6.064453125,45.648193359375,-72.3724365234375
1758877896.7091305,-0.82373046875,0.1796875,0.73876953125,5.55419921875,4.33349609375,-8.72802734375,6.031494140625,45.7305908203125,-72.4932861328125
1758877896.7184389,-0.7646484375,0.19970703125,0.7451171875,-23.49853515625,4.150390625,-8.48388671875,5.86669921875,45.8074951171875,-72.6141357421875
1758877896.7288709,-0.7646484375,0.19970703125,0.7451171875,-23.49853515625,4.150390625,-8.48388671875,5.55908203125,45.87890625,-72.718505859375
1758877896.738889,-0.71875,0.125,0.64404296875,-31.79931640625,4.57763671875,-7.6904296875,5.2239990234375,45.9503173828125,-72.8173828125
1758877896.7488966,-0.71875,0.125,0.64404296875,-31.79931640625,4.57763671875,-7.6904296875,4.8504638671875,46.021728515625,-72.9052734375
1758877896.7585204,-0.7294921875,-0.00634765625,0.65234375,-28.74755859375,4.57763671875,-7.32421875,4.493408203125,46.087646484375,-72.9876708984375
1758877896.7688863,-0.7294921875,-0.00634765625,0.65234375,-28.74755859375,4.57763671875,-7.32421875,4.1583251953125,46.153564453125,-73.0755615234375
1758877896.7790458,-0.71484375,-0.0068359375,0.705078125,-27.34375,3.2958984375,-6.65283203125,3.8232421875,46.2139892578125,-73.1634521484375
1758877896.7888334,-0.71484375,-0.0068359375,0.705078125,-27.34375,3.2958984375,-6.65283203125,3.4991455078125,46.263427734375,-73.245849609375
1758877896.800648,-0.697265625,-0.015625,0.7568359375,-20.751953125,2.3193359375,-4.57763671875,3.2135009765625,46.307373046875,-73.3172607421875
1758877896.809479,-0.697265625,-0.015625,0.7568359375,-20.751953125,2.3193359375,-4.57763671875,2.96630859375,46.34033203125,-73.3831787109375
1758877896.8185725,-0.6728515625,-0.0107421875,0.80615234375,-20.263671875,-0.1220703125,-1.46484375,2.7410888671875,46.3568115234375,-73.421630859375
1758877896.8289335,-0.6728515625,-0.0107421875,0.80615234375,-20.263671875,-0.1220703125,-1.46484375,2.52685546875,46.3568115234375,-73.443603515625
1758877896.8391058,-0.6796875,0.00927734375,0.818359375,-18.61572265625,-2.44140625,1.708984375,2.340087890625,46.34033203125,-73.443603515625
1758877896.8489623,-0.6796875,0.00927734375,0.818359375,-18.61572265625,-2.44140625,1.708984375,2.1697998046875,46.307373046875,-73.4161376953125
1758877896.8586752,-0.67333984375,0.0224609375,0.78466796875,-21.30126953125,-4.69970703125,3.60107421875,1.99951171875,46.2579345703125,-73.377685546875
1758877896.869209,-0.67333984375,0.0224609375,0.78466796875,-21.30126953125,-4.69970703125,3.60107421875,1.8292236328125,46.197509765625,-73.3282470703125
1758877896.8795488,-0.61767578125,0.04345703125,0.716796875,-31.43310546875,-4.08935546875,5.0048828125,1.614990234375,46.1370849609375,-73.2623291015625
1758877896.8889372,-0.61767578125,0.04345703125,0.716796875,-31.43310546875,-4.08935546875,5.0048828125,1.3568115234375,46.0821533203125,-73.1854248046875
1758877896.8987253,-0.61865234375,0.09033203125,0.71923828125,-38.75732421875,-1.953125,4.82177734375,1.065673828125,46.03271484375,-73.10302734375
1758877896.9094834,-0.61865234375,0.09033203125,0.71923828125,-38.75732421875,-1.953125,4.82177734375,0.7415771484375,45.9942626953125,-73.0206298828125
1758877896.9190497,-0.716796875,0.05078125,0.78125,-44.5556640625,-0.06103515625,2.8076171875,0.384521484375,45.966796875,-72.9437255859375
1758877896.928987,-0.716796875,0.05078125,0.78125,-44.5556640625,-0.06103515625,2.8076171875,-0.0054931640625,45.94482421875,-72.88330078125
1758877896.9390626,-0.76806640625,0.00732421875,0.87890625,-53.466796875,0.54931640625,2.685546875,-0.439453125,45.9283447265625,-72.8173828125
1758877896.949417,-0.76806640625,0.00732421875,0.87890625,-53.466796875,0.54931640625,2.685546875,-0.9228515625,45.9173583984375,-72.75146484375
1758877896.9587984,-0.7548828125,0.02587890625,0.7626953125,-63.8427734375,2.197265625,3.47900390625,-1.4501953125,45.911865234375,-72.6800537109375
1758877896.9690187,-0.7548828125,0.02587890625,0.7626953125,-63.8427734375,2.197265625,3.47900390625,-2.0269775390625,45.9173583984375,-72.6031494140625
1758877896.9800713,-0.84033203125,-0.00341796875,0.669921875,-39.306640625,2.25830078125,3.90625,-2.471923828125,45.9228515625,-72.520751953125
1758877896.989027,-0.84033203125,-0.00341796875,0.669921875,-39.306640625,2.25830078125,3.90625,-2.79052734375,45.933837890625,-72.432861328125
1758877896.9989023,-0.8251953125,-0.11279296875,0.64404296875,-4.8828125,2.25830078125,3.96728515625,-2.9443359375,45.955810546875,-72.3504638671875
1758877897.0093794,-0.8251953125,-0.11279296875,0.64404296875,-4.8828125,2.25830078125,3.96728515625,-2.9278564453125,45.977783203125,-72.2735595703125
1758877897.0191767,-0.767578125,-0.14599609375,0.490234375,0.0,1.708984375,3.47900390625,-2.900390625,45.999755859375,-72.213134765625
1758877897.0290368,-0.767578125,-0.14599609375,0.490234375,0.0,1.708984375,3.47900390625,-2.8564453125,46.021728515625,-72.158203125
1758877897.038952,-0.767578125,-0.14599609375,0.490234375,1.64794921875,2.0751953125,2.38037109375,-2.8125,46.0546875,-72.1197509765625
1758877897.0496197,-0.73486328125,-0.06494140625,0.5078125,1.64794921875,2.0751953125,2.38037109375,-2.7740478515625,46.0931396484375,-72.09228515625
1758877897.059045,-0.78369140625,-0.02490234375,0.55859375,6.4697265625,2.62451171875,1.953125,-2.713623046875,46.1370849609375,-72.0648193359375
1758877897.0689657,-0.78369140625,-0.02490234375,0.55859375,6.4697265625,2.62451171875,1.953125,-2.625732421875,46.1810302734375,-72.04833984375
1758877897.0791717,-0.78466796875,-0.07373046875,0.66650390625,13.916015625,3.0517578125,1.52587890625,-2.5103759765625,46.2359619140625,-72.0318603515625
1758877897.0897973,-0.78466796875,-0.07373046875,0.66650390625,13.916015625,3.0517578125,1.52587890625,-2.362060546875,46.2908935546875,-72.0208740234375
1758877897.100448,-0.763671875,-0.08447265625,0.64306640625,20.93505859375,2.86865234375,1.15966796875,-2.1807861328125,46.34033203125,-72.015380859375
1758877897.1090643,-0.763671875,-0.08447265625,0.64306640625,20.93505859375,2.86865234375,1.15966796875,-1.9720458984375,46.3897705078125,-72.015380859375
1758877897.1204276,-0.74072265625,-0.03759765625,0.6591796875,27.2216796875,2.197265625,-0.30517578125,-1.7413330078125,46.439208984375,-72.0263671875
1758877897.1293612,-0.74072265625,-0.03759765625,0.6591796875,27.2216796875,2.197265625,-0.30517578125,-1.4886474609375,46.4776611328125,-72.04833984375
1758877897.1390939,-0.70849609375,-0.021484375,0.697265625,37.17041015625,1.40380859375,-2.62451171875,-1.197509765625,46.51611328125,-72.09228515625
1758877897.1491354,-0.70849609375,-0.021484375,0.697265625,37.17041015625,1.40380859375,-2.62451171875,-0.867919921875,46.5435791015625,-72.147216796875
1758877897.1603677,-0.677734375,-0.0244140625,0.701171875,41.9921875,0.54931640625,-3.0517578125,-0.516357421875,46.5655517578125,-72.2076416015625
1758877897.1691399,-0.677734375,-0.0244140625,0.701171875,41.9921875,0.54931640625,-3.0517578125,-0.1483154296875,46.58203125,-72.26806640625
1758877897.1794202,-0.62890625,-0.00830078125,0.70068359375,36.68212890625,-1.708984375,-4.150390625,0.1812744140625,46.58203125,-72.3394775390625
1758877897.1899133,-0.62890625,-0.00830078125,0.70068359375,36.68212890625,-1.708984375,-4.150390625,0.4833984375,46.571044921875,-72.4163818359375
1758877897.199153,-0.60302734375,0.01123046875,0.7421875,26.7333984375,-3.47900390625,-4.150390625,0.736083984375,46.549072265625,-72.4932861328125
1758877897.209226,-0.60302734375,0.01123046875,0.7421875,26.7333984375,-3.47900390625,-4.150390625,0.9393310546875,46.5106201171875,-72.5701904296875
1758877897.2205234,-0.61328125,0.0673828125,0.7724609375,13.916015625,-5.31005859375,-4.08935546875,1.0821533203125,46.461181640625,-72.6470947265625
1758877897.2292092,-0.61328125,0.0673828125,0.7724609375,13.916015625,-5.31005859375,-4.08935546875,1.16455078125,46.395263671875,-72.7130126953125
1758877897.2392237,-0.6240234375,0.068359375,0.818359375,2.8076171875,-7.568359375,-4.7607421875,1.1865234375,46.318359375,-72.784423828125
1758877897.2496128,-0.6240234375,0.068359375,0.818359375,2.8076171875,-7.568359375,-4.7607421875,1.1590576171875,46.2249755859375,-72.8558349609375
1758877897.2596078,-0.630859375,0.00439453125,0.7734375,3.72314453125,-9.033203125,-5.92041015625,1.131591796875,46.1260986328125,-72.92724609375
1758877897.2692099,-0.630859375,0.00439453125,0.7734375,3.72314453125,-9.033203125,-5.92041015625,1.0986328125,46.0107421875,-73.01513671875
1758877897.2793646,-0.59375,-0.01220703125,0.7333984375,11.53564453125,-9.82666015625,-6.40869140625,1.109619140625,45.8953857421875,-73.0975341796875
1758877897.2900019,-0.59375,-0.01220703125,0.7333984375,11.53564453125,-9.82666015625,-6.40869140625,1.1480712890625,45.7745361328125,-73.19091796875
1758877897.2993731,-0.65087890625,0.04248046875,0.75,7.4462890625,-10.7421875,-5.9814453125,1.175537109375,45.648193359375,-73.2843017578125
1758877897.3094354,-0.65087890625,0.04248046875,0.75,7.4462890625,-10.7421875,-5.9814453125,1.1810302734375,45.5218505859375,-73.36669921875
1758877897.3209004,-0.75390625,0.08349609375,0.72607421875,-9.3994140625,-11.474609375,-3.72314453125,1.12060546875,45.384521484375,-73.4326171875
1758877897.3293638,-0.75390625,0.08349609375,0.72607421875,-9.3994140625,-11.474609375,-3.72314453125,0.98876953125,45.252685546875,-73.4765625
1758877897.3393288,-0.7529296875,0.02880859375,0.63330078125,-11.53564453125,-11.23046875,-1.708984375,0.8624267578125,45.1263427734375,-73.5040283203125
1758877897.3502958,-0.7529296875,0.02880859375,0.63330078125,-11.53564453125,-11.23046875,-1.708984375,0.736083984375,45.0,-73.5205078125
1758877897.3596516,-0.79443359375,-0.05322265625,0.53662109375,5.55419921875,-9.46044921875,-1.5869140625,0.692138671875,44.8956298828125,-73.5369873046875
1758877897.3693101,-0.79443359375,-0.05322265625,0.53662109375,5.55419921875,-9.46044921875,-1.5869140625,0.736083984375,44.80224609375,-73.553466796875
1758877897.37952,-0.8271484375,-0.05419921875,0.498046875,25.08544921875,-5.2490234375,-2.685546875,0.867919921875,44.736328125,-73.58642578125
1758877897.390404,-0.8271484375,-0.05419921875,0.498046875,25.08544921875,-5.2490234375,-2.685546875,1.0821533203125,44.703369140625,-73.6358642578125
1758877897.399483,-0.81591796875,-0.0576171875,0.4892578125,27.83203125,-2.44140625,-2.13623046875,1.318359375,44.6868896484375,-73.685302734375
1758877897.4095347,-0.81591796875,-0.0576171875,0.4892578125,27.83203125,-2.44140625,-2.13623046875,1.56005859375,44.6923828125,-73.729248046875
1758877897.4205568,-0.79736328125,0.009765625,0.642578125,18.73779296875,-0.54931640625,-1.03759765625,1.7633056640625,44.71435546875,-73.773193359375
1758877897.4296153,-0.79736328125,0.009765625,0.642578125,18.73779296875,-0.54931640625,-1.03759765625,1.9281005859375,44.7418212890625,-73.8116455078125
1758877897.439403,-0.77685546875,0.072265625,0.73974609375,3.47900390625,0.0,0.0,1.9500732421875,44.7747802734375,-73.828125
1758877897.4497755,-0.77685546875,0.072265625,0.73974609375,3.47900390625,0.0,0.0,1.9775390625,44.80224609375,-73.839111328125
1758877897.4606562,-0.8271484375,0.125,0.79833984375,-23.193359375,-1.0986328125,1.953125,1.7633056640625,44.8187255859375,-73.8226318359375
1758877897.4694934,-0.8271484375,0.125,0.79833984375,-23.193359375,-1.0986328125,1.953125,1.549072265625,44.8297119140625,-73.795166015625
1758877897.4796822,-0.82861328125,0.0771484375,0.7294921875,-34.85107421875,-3.0517578125,3.72314453125,1.2469482421875,44.82421875,-73.740234375
1758877897.4903202,-0.82861328125,0.0771484375,0.7294921875,-34.85107421875,-3.0517578125,3.72314453125,0.94482421875,44.8187255859375,-73.685302734375
1758877897.4996245,-0.80029296875,-0.04833984375,0.5830078125,-25.634765625,-3.84521484375,4.8828125,0.7470703125,44.80224609375,-73.6138916015625
1758877897.509694,-0.80029296875,-0.04833984375,0.5830078125,-25.634765625,-3.84521484375,4.8828125,0.54931640625,44.791259765625,-73.5479736328125
1758877897.520759,-0.7841796875,-0.1064453125,0.607421875,-9.09423828125,-5.06591796875,4.638671875,0.50537109375,44.7747802734375,-73.4930419921875
1758877897.529873,-0.7841796875,-0.1064453125,0.607421875,-9.09423828125,-5.06591796875,4.638671875,0.46142578125,44.7528076171875,-73.443603515625
1758877897.539537,-0.755859375,-0.04150390625,0.6357421875,5.06591796875,-5.18798828125,3.84521484375,0.5438232421875,44.736328125,-73.4051513671875
1758877897.5500438,-0.755859375,-0.04150390625,0.6357421875,5.06591796875,-5.18798828125,3.84521484375,0.626220703125,44.71435546875,-73.3721923828125
1758877897.5609643,-0.755859375,-0.04150390625,0.6357421875,9.46044921875,-5.31005859375,3.5400390625,0.7470703125,44.6923828125,-73.3392333984375
1758877897.5696442,-0.71630859375,0.02294921875,0.6416015625,9.46044921875,-5.31005859375,3.5400390625,0.867919921875,44.67041015625,-73.3062744140625
1758877897.580783,-0.69482421875,0.06103515625,0.7109375,3.7841796875,-5.55419921875,3.173828125,0.933837890625,44.6429443359375,-73.27880859375
1758877897.5901036,-0.69482421875,0.06103515625,0.7109375,3.7841796875,-5.55419921875,3.173828125,0.999755859375,44.615478515625,-73.2403564453125
1758877897.6000402,-0.67529296875,0.03955078125,0.7451171875,2.01416015625,-6.4697265625,2.8076171875,1.0491943359375,44.571533203125,-73.212890625
1758877897.6104994,-0.67529296875,0.03955078125,0.7451171875,2.01416015625,-6.4697265625,2.8076171875,1.0931396484375,44.5220947265625,-73.179931640625
1758877897.6203203,-0.6767578125,0.0205078125,0.72216796875,-2.13623046875,-7.99560546875,2.38037109375,1.0986328125,44.461669921875,-73.1524658203125
1758877897.6299276,-0.6767578125,0.0205078125,0.72216796875,-2.13623046875,-7.99560546875,2.38037109375,1.0986328125,44.395751953125,-73.125
1758877897.6409006,-0.6669921875,0.0126953125,0.7236328125,1.220703125,-9.33837890625,1.46484375,1.1260986328125,44.3133544921875,-73.114013671875
1758877897.6501942,-0.6669921875,0.0126953125,0.7236328125,1.220703125,-9.33837890625,1.46484375,1.1480712890625,44.23095703125,-73.0975341796875
1758877897.6600916,-0.677734375,0.00830078125,0.73388671875,2.685546875,-10.31494140625,0.8544921875,1.1810302734375,44.1375732421875,-73.092041015625
1758877897.6702387,-0.677734375,0.00830078125,0.73388671875,2.685546875,-10.31494140625,0.8544921875,1.2139892578125,44.044189453125,-73.0865478515625
1758877897.6808276,-0.7021484375,0.0126953125,0.7412109375,-2.25830078125,-10.3759765625,0.67138671875,1.197509765625,43.9453125,-73.0865478515625
1758877897.6899793,-0.7021484375,0.0126953125,0.7412109375,-2.25830078125,-10.3759765625,0.67138671875,1.175537109375,43.846435546875,-73.0865478515625
1758877897.7016566,-0.72119140625,0.052734375,0.71435546875,-2.86865234375,-9.33837890625,0.3662109375,1.153564453125,43.7640380859375,-73.0865478515625
1758877897.7108235,-0.72119140625,0.052734375,0.71435546875,-2.86865234375,-9.33837890625,0.3662109375,1.1260986328125,43.6761474609375,-73.0865478515625
1758877897.7202022,-0.7109375,0.04345703125,0.712890625,-5.06591796875,-6.9580078125,0.18310546875,1.0821533203125,43.61572265625,-73.0810546875
1758877897.7300963,-0.7109375,0.04345703125,0.712890625,-5.06591796875,-6.9580078125,0.18310546875,1.0382080078125,43.5552978515625,-73.0810546875
1758877897.740496,-0.70703125,0.0,0.7265625,-7.14111328125,-3.96728515625,0.54931640625,0.9722900390625,43.5223388671875,-73.0755615234375
1758877897.750091,-0.70703125,0.0,0.7265625,-7.14111328125,-3.96728515625,0.54931640625,0.911865234375,43.494873046875,-73.0645751953125
1758877897.760353,-0.68212890625,-0.02001953125,0.71337890625,-7.99560546875,-1.03759765625,1.0986328125,0.845947265625,43.4893798828125,-73.0535888671875
1758877897.7699769,-0.68212890625,-0.02001953125,0.71337890625,-7.99560546875,-1.03759765625,1.0986328125,0.780029296875,43.4893798828125,-73.0426025390625
1758877897.7811532,-0.6494140625,-0.01318359375,0.75341796875,-6.591796875,1.3427734375,0.91552734375,0.7196044921875,43.505859375,-73.0316162109375
1758877897.7900474,-0.6494140625,-0.01318359375,0.75341796875,-6.591796875,1.3427734375,0.91552734375,0.6646728515625,43.5223388671875,-73.026123046875
1758877897.800403,-0.6162109375,0.0263671875,0.79296875,-2.25830078125,2.9296875,-0.18310546875,0.6427001953125,43.5498046875,-73.0316162109375
1758877897.8109214,-0.6162109375,0.0263671875,0.79296875,-2.25830078125,2.9296875,-0.18310546875,0.6207275390625,43.5772705078125,-73.037109375
1758877897.8204393,-0.5927734375,0.04833984375,0.8369140625,-3.662109375,3.41796875,-0.3662109375,0.582275390625,43.604736328125,-73.0426025390625
1758877897.830076,-0.5927734375,0.04833984375,0.8369140625,-3.662109375,3.41796875,-0.3662109375,0.54931640625,43.626708984375,-73.0426025390625
1758877897.8406296,-0.58056640625,0.02734375,0.8486328125,-14.2822265625,2.50244140625,1.03759765625,0.4229736328125,43.6322021484375,-73.0206298828125
1758877897.8507857,-0.58056640625,0.02734375,0.8486328125,-14.2822265625,2.50244140625,1.03759765625,0.296630859375,43.6376953125,-72.9986572265625
1758877897.860456,-0.58984375,0.00634765625,0.85205078125,-21.42333984375,0.42724609375,3.23486328125,0.120849609375,43.61572265625,-72.9437255859375
1758877897.8701527,-0.58984375,0.00634765625,0.85205078125,-21.42333984375,0.42724609375,3.23486328125,-0.0494384765625,43.59375,-72.8887939453125
1758877897.8810596,-0.5673828125,-0.091796875,0.83251953125,-18.4326171875,-1.03759765625,5.7373046875,-0.17578125,43.5552978515625,-72.8009033203125
1758877897.8902476,-0.5673828125,-0.091796875,0.83251953125,-18.4326171875,-1.03759765625,5.7373046875,-0.3021240234375,43.516845703125,-72.7239990234375
1758877897.9004762,-0.5673828125,-0.12060546875,0.78857421875,-1.28173828125,-2.685546875,6.77490234375,-0.252685546875,43.4564208984375,-72.630615234375
1758877897.9108503,-0.5673828125,-0.12060546875,0.78857421875,-1.28173828125,-2.685546875,6.77490234375,-0.2142333984375,43.39599609375,-72.5482177734375
1758877897.9204926,-0.57373046875,-0.1025390625,0.744140625,22.64404296875,-3.2958984375,6.40869140625,0.054931640625,43.330078125,-72.476806640625
1758877897.930209,-0.57373046875,-0.1025390625,0.744140625,22.64404296875,-3.2958984375,6.40869140625,0.3240966796875,43.26416015625,-72.410888671875
1758877897.9411564,-0.662109375,-0.05078125,0.76708984375,40.10009765625,-5.18798828125,6.4697265625,0.758056640625,43.17626953125,-72.3504638671875
1758877897.9507701,-0.662109375,-0.05078125,0.76708984375,40.10009765625,-5.18798828125,6.4697265625,1.1920166015625,43.0938720703125,-72.2900390625
1758877897.9605079,-0.6435546875,0.021484375,0.775390625,41.44287109375,-6.04248046875,6.40869140625,1.636962890625,43.0059814453125,-72.235107421875
1758877897.970658,-0.6435546875,0.021484375,0.775390625,41.44287109375,-6.04248046875,6.40869140625,2.0819091796875,42.9180908203125,-72.18017578125
1758877897.9805944,-0.6416015625,0.06298828125,0.708984375,23.86474609375,-5.43212890625,6.89697265625,2.3565673828125,42.835693359375,-72.1142578125
1758877897.9902403,-0.6416015625,0.06298828125,0.708984375,23.86474609375,-5.43212890625,6.89697265625,2.63671875,42.7587890625,-72.0428466796875
1758877898.001015,-0.6572265625,0.09619140625,0.689453125,5.0048828125,-4.0283203125,6.2255859375,2.7191162109375,42.6983642578125,-71.982421875
1758877898.010745,-0.6572265625,0.09619140625,0.689453125,5.0048828125,-4.0283203125,6.2255859375,2.8125,42.637939453125,-71.91650390625
1758877898.0206704,-0.66845703125,0.13525390625,0.6904296875,-1.46484375,-2.13623046875,3.90625,2.823486328125,42.5994873046875,-71.8780517578125
1758877898.0303597,-0.66845703125,0.13525390625,0.6904296875,-1.46484375,-2.13623046875,3.90625,2.8399658203125,42.5665283203125,-71.82861328125
1758877898.0415125,-0.66845703125,0.13525390625,0.6904296875,-20.1416015625,-0.732421875,2.25830078125,2.65869140625,42.550048828125,-71.8011474609375
1758877898.050712,-0.72509765625,0.14697265625,0.72705078125,-20.1416015625,-0.732421875,2.25830078125,2.4884033203125,42.5335693359375,-71.7626953125
1758877898.060617,-0.77587890625,0.1552734375,0.77294921875,-40.771484375,1.220703125,0.54931640625,2.098388671875,42.5390625,-71.74072265625
1758877898.070338,-0.77587890625,0.1552734375,0.77294921875,-40.771484375,1.220703125,0.54931640625,1.7193603515625,42.550048828125,-71.71875
1758877898.0814958,-0.73486328125,0.107421875,0.716796875,-60.85205078125,3.41796875,-0.18310546875,1.1370849609375,42.5830078125,-71.69677734375
1758877898.090747,-0.73486328125,0.107421875,0.716796875,-60.85205078125,3.41796875,-0.18310546875,0.560302734375,42.615966796875,-71.6748046875
1758877898.100729,-0.7099609375,0.02978515625,0.6640625,-54.6875,5.126953125,-1.953125,0.0274658203125,42.6708984375,-71.6748046875
1758877898.1105764,-0.7099609375,0.02978515625,0.6640625,-54.6875,5.126953125,-1.953125,-0.4998779296875,42.7313232421875,-71.6748046875
1758877898.1214378,-0.734375,-0.072265625,0.6669921875,-26.67236328125,5.4931640625,-4.57763671875,-0.7745361328125,42.791748046875,-71.7132568359375
1758877898.1305146,-0.734375,-0.072265625,0.6669921875,-26.67236328125,5.4931640625,-4.57763671875,-1.0601806640625,42.8521728515625,-71.7626953125
1758877898.140799,-0.76904296875,-0.1474609375,0.748046875,-0.244140625,4.5166015625,-5.9814453125,-1.0986328125,42.9071044921875,-71.8341064453125
1758877898.1513653,-0.76904296875,-0.1474609375,0.748046875,-0.244140625,4.5166015625,-5.9814453125,-1.142578125,42.9620361328125,-71.91650390625
1758877898.1608703,-0.7353515625,-0.14013671875,0.68896484375,26.2451171875,3.60107421875,-6.8359375,-0.9393310546875,43.0059814453125,-72.015380859375
1758877898.1704798,-0.7353515625,-0.14013671875,0.68896484375,26.2451171875,3.60107421875,-6.8359375,-0.7470703125,43.055419921875,-72.1197509765625
1758877898.180884,-0.66015625,-0.0703125,0.62353515625,41.50390625,2.86865234375,-7.99560546875,-0.4119873046875,43.0938720703125,-72.24609375
1758877898.1913338,-0.66015625,-0.0703125,0.62353515625,41.50390625,2.86865234375,-7.99560546875,-0.087890625,43.1378173828125,-72.3724365234375
1758877898.2008789,-0.6376953125,-0.00830078125,0.625,45.166015625,4.08935546875,-8.7890625,0.263671875,43.1927490234375,-72.5152587890625
1758877898.2106388,-0.6376953125,-0.00830078125,0.625,45.166015625,4.08935546875,-8.7890625,0.6207275390625,43.2476806640625,-72.652587890625
1758877898.2212617,-0.6875,0.03857421875,0.66943359375,38.330078125,4.39453125,-8.97216796875,0.90087890625,43.3026123046875,-72.79541015625
1758877898.2306795,-0.6875,0.03857421875,0.66943359375,38.330078125,4.39453125,-8.97216796875,1.1920166015625,43.363037109375,-72.9327392578125
1758877898.2409928,-0.7548828125,0.09521484375,0.7119140625,26.67236328125,4.69970703125,-8.48388671875,1.3677978515625,43.4234619140625,-73.05908203125
1758877898.251335,-0.7548828125,0.09521484375,0.7119140625,26.67236328125,4.69970703125,-8.48388671875,1.549072265625,43.48388671875,-73.179931640625
1758877898.2610922,-0.7919921875,0.12353515625,0.6669921875,8.60595703125,5.79833984375,-7.8125,1.56005859375,43.560791015625,-73.289794921875
1758877898.270613,-0.7919921875,0.12353515625,0.6669921875,8.60595703125,5.79833984375,-7.8125,1.5765380859375,43.6376953125,-73.388671875
1758877898.2814097,-0.822265625,0.0849609375,0.6328125,-4.57763671875,7.4462890625,-7.8125,1.4666748046875,43.7310791015625,-73.487548828125
1758877898.2913768,-0.822265625,0.0849609375,0.6328125,-4.57763671875,7.4462890625,-7.8125,1.3568115234375,43.8299560546875,-73.58642578125
1758877898.3010361,-0.83154296875,0.029296875,0.64501953125,-2.38037109375,8.30078125,-9.09423828125,1.2579345703125,43.9398193359375,-73.7017822265625
1758877898.3112643,-0.83154296875,0.029296875,0.64501953125,-2.38037109375,8.30078125,-9.09423828125,1.1590576171875,44.05517578125,-73.817138671875
1758877898.3212326,-0.8095703125,-0.02490234375,0.61279296875,0.79345703125,8.9111328125,-9.27734375,1.087646484375,44.1705322265625,-73.9434814453125
1758877898.330763,-0.8095703125,-0.02490234375,0.61279296875,0.79345703125,8.9111328125,-9.27734375,1.0162353515625,44.2913818359375,-74.0643310546875
1758877898.341886,-0.7900390625,-0.02685546875,0.63134765625,0.18310546875,9.3994140625,-8.48388671875,0.9393310546875,44.417724609375,-74.1796875
1758877898.3511376,-0.7900390625,-0.02685546875,0.63134765625,0.18310546875,9.3994140625,-8.48388671875,0.8624267578125,44.5440673828125,-74.300537109375
1758877898.3610895,-0.78955078125,-0.0107421875,0.6689453125,2.50244140625,9.27734375,-7.75146484375,0.8184814453125,44.67041015625,-74.410400390625
1758877898.3712304,-0.78955078125,-0.0107421875,0.6689453125,2.50244140625,9.27734375,-7.75146484375,0.76904296875,44.791259765625,-74.520263671875
1758877898.3811631,-0.77685546875,0.013671875,0.6455078125,1.8310546875,9.1552734375,-6.9580078125,0.7196044921875,44.912109375,-74.6246337890625
1758877898.3909147,-0.77685546875,0.013671875,0.6455078125,1.8310546875,9.1552734375,-6.9580078125,0.670166015625,45.032958984375,-74.7235107421875
1758877898.4012706,-0.77197265625,0.0146484375,0.6318359375,-2.685546875,9.1552734375,-5.92041015625,0.5877685546875,45.15380859375,-74.805908203125
1758877898.4117486,-0.77490234375,-0.00146484375,0.65576171875,-4.7607421875,9.765625,-4.82177734375,0.4998779296875,45.2801513671875,-74.8828125
1758877898.4211338,-0.77490234375,-0.00146484375,0.65576171875,-4.7607421875,9.765625,-4.82177734375,0.406494140625,45.406494140625,-74.9542236328125
1758877898.4309292,-0.77490234375,-0.0302734375,0.6494140625,-4.7607421875,10.19287109375,-3.60107421875,0.318603515625,45.5328369140625,-75.0146484375
1758877898.4418278,-0.77490234375,-0.0302734375,0.6494140625,-4.7607421875,10.19287109375,-3.60107421875,0.2362060546875,45.6591796875,-75.069580078125
1758877898.4512808,-0.76806640625,-0.02392578125,0.62744140625,-2.44140625,10.3759765625,-3.0517578125,0.1702880859375,45.7855224609375,-75.1190185546875
1758877898.4612286,-0.76806640625,-0.02392578125,0.62744140625,-2.44140625,10.3759765625,-3.0517578125,0.10986328125,45.9173583984375,-75.16845703125
1758877898.4713469,-0.7509765625,-0.00439453125,0.65234375,0.91552734375,10.31494140625,-2.86865234375,0.0714111328125,46.043701171875,-75.2178955078125
1758877898.4814746,-0.7509765625,-0.00439453125,0.65234375,0.91552734375,10.31494140625,-2.86865234375,0.0494384765625,46.1700439453125,-75.2618408203125
1758877898.491026,-0.72607421875,0.00341796875,0.68896484375,-0.42724609375,10.3759765625,-2.38037109375,0.02197265625,46.29638671875,-75.3057861328125
1758877898.5012393,-0.72607421875,0.00341796875,0.68896484375,-0.42724609375,10.3759765625,-2.38037109375,0.0,46.417236328125,-75.34423828125
1758877898.5116372,-0.7041015625,0.00341796875,0.7109375,-3.47900390625,10.19287109375,-1.89208984375,-0.0439453125,46.5380859375,-75.377197265625
1758877898.52182,-0.7041015625,0.00341796875,0.7109375,-3.47900390625,10.19287109375,-1.89208984375,-0.098876953125,46.64794921875,-75.41015625
1758877898.531079,-0.6962890625,-0.0078125,0.7099609375,-3.662109375,9.8876953125,-1.52587890625,-0.15380859375,46.7578125,-75.43212890625
1758877898.5412517,-0.6962890625,-0.0078125,0.7099609375,-3.662109375,9.8876953125,-1.52587890625,-0.2032470703125,46.86767578125,-75.4541015625
1758877898.5515034,-0.693359375,-0.0185546875,0.72216796875,-3.11279296875,9.6435546875,-1.220703125,-0.252685546875,46.966552734375,-75.47607421875
1758877898.5619738,-0.693359375,-0.0185546875,0.72216796875,-3.11279296875,9.6435546875,-1.220703125,-0.3021240234375,47.0654296875,-75.498046875
1758877898.571208,-0.7080078125,-0.01171875,0.71875,-1.77001953125,9.46044921875,-1.3427734375,-0.340576171875,47.1588134765625,-75.5145263671875
1758877898.5813105,-0.7080078125,-0.01171875,0.71875,-1.77001953125,9.46044921875,-1.3427734375,-0.37353515625,47.252197265625,-75.5364990234375
1758877898.5929542,-0.71826171875,0.00634765625,0.67822265625,0.1220703125,8.97216796875,-1.5869140625,-0.3955078125,47.340087890625,-75.5584716796875
1758877898.6018426,-0.71826171875,0.00634765625,0.67822265625,0.1220703125,8.97216796875,-1.5869140625,-0.4119873046875,47.4224853515625,-75.5804443359375
1758877898.611234,-0.73388671875,-0.00048828125,0.6650390625,-2.13623046875,8.056640625,-1.28173828125,-0.439453125,47.4993896484375,-75.6024169921875
1758877898.6212847,-0.73388671875,-0.00048828125,0.6650390625,-2.13623046875,8.056640625,-1.28173828125,-0.4779052734375,47.5762939453125,-75.618896484375
1758877898.6324358,-0.7275390625,-0.0205078125,0.669921875,-3.5400390625,6.9580078125,-0.6103515625,-0.516357421875,47.647705078125,-75.6298828125
1758877898.6412785,-0.7275390625,-0.0205078125,0.669921875,-3.5400390625,6.9580078125,-0.6103515625,-0.5548095703125,47.713623046875,-75.6353759765625
1758877898.6591654,-0.7236328125,-0.02099609375,0.6767578125,-6.2255859375,5.43212890625,-0.1220703125,-0.6097412109375,47.7685546875,-75.640869140625
1758877898.6673195,-0.7236328125,-0.02099609375,0.6767578125,-6.2255859375,5.43212890625,-0.1220703125,-0.6756591796875,47.8179931640625,-75.6463623046875
1758877898.6757898,-0.72412109375,0.001953125,0.6787109375,-4.638671875,4.45556640625,-0.3662109375,-0.7305908203125,47.8619384765625,-75.6463623046875
1758877898.6830945,-0.72412109375,0.001953125,0.6787109375,-4.638671875,4.45556640625,-0.3662109375,-0.780029296875,47.900390625,-75.65185546875
1758877898.6937287,-0.7236328125,-0.00244140625,0.69970703125,-3.23486328125,4.8828125,-0.79345703125,-0.8294677734375,47.9388427734375,-75.6573486328125
1758877898.7013435,-0.7236328125,-0.00244140625,0.69970703125,-3.23486328125,4.8828125,-0.79345703125,-0.867919921875,47.9827880859375,-75.662841796875
1758877898.7150192,-0.7099609375,-0.01953125,0.71923828125,-1.708984375,5.43212890625,-0.91552734375,-0.90087890625,48.021240234375,-75.673828125
1758877898.7212846,-0.7099609375,-0.01953125,0.71923828125,-1.708984375,5.43212890625,-0.91552734375,-0.9283447265625,48.0706787109375,-75.684814453125
1758877898.7327852,-0.70166015625,-0.0224609375,0.70751953125,-3.47900390625,5.06591796875,-0.54931640625,-0.9613037109375,48.109130859375,-75.6903076171875
1758877898.7413235,-0.70166015625,-0.0224609375,0.70751953125,-3.47900390625,5.06591796875,-0.54931640625,-0.999755859375,48.1475830078125,-75.69580078125
1758877898.7514617,-0.69189453125,0.0029296875,0.7080078125,-5.37109375,4.0283203125,-0.9765625,-1.0546875,48.1805419921875,-75.7012939453125
1758877898.7621317,-0.69189453125,0.0029296875,0.7080078125,-5.37109375,4.0283203125,-0.9765625,-1.1151123046875,48.2080078125,-75.7122802734375
1758877898.7714615,-0.68603515625,0.00732421875,0.7236328125,-4.57763671875,3.0517578125,-1.52587890625,-1.1810302734375,48.2244873046875,-75.7232666015625
1758877898.7825403,-0.68603515625,0.00732421875,0.7236328125,-4.57763671875,3.0517578125,-1.52587890625,-1.2359619140625,48.240966796875,-75.7342529296875
1758877898.791856,-0.67919921875,-0.0029296875,0.736328125,-4.69970703125,1.77001953125,-1.8310546875,-1.29638671875,48.2464599609375,-75.750732421875
1758877898.8014185,-0.67919921875,-0.0029296875,0.736328125,-4.69970703125,1.77001953125,-1.8310546875,-1.3623046875,48.240966796875,-75.76171875
1758877898.8123162,-0.67822265625,-0.02197265625,0.7451171875,-3.23486328125,0.18310546875,-2.01416015625,-1.417236328125,48.22998046875,-75.7781982421875
1758877898.8222916,-0.67822265625,-0.02197265625,0.7451171875,-3.23486328125,0.18310546875,-2.01416015625,-1.461181640625,48.2080078125,-75.794677734375
1758877898.8314564,-0.67919921875,-0.0419921875,0.73095703125,-4.150390625,-1.28173828125,-1.64794921875,-1.51611328125,48.1805419921875,-75.8056640625
1758877898.841568,-0.67919921875,-0.0419921875,0.73095703125,-4.150390625,-1.28173828125,-1.64794921875,-1.571044921875,48.14208984375,-75.816650390625
1758877898.8527622,-0.6748046875,-0.02783203125,0.73291015625,-3.90625,-2.3193359375,-1.15966796875,-1.6204833984375,48.09814453125,-75.82763671875
1758877898.8614705,-0.6748046875,-0.02783203125,0.73291015625,-3.90625,-2.3193359375,-1.15966796875,-1.669921875,48.05419921875,-75.82763671875
1758877898.8716342,-0.68603515625,-0.0361328125,0.73388671875,1.52587890625,-2.50244140625,-0.732421875,-1.69189453125,48.0047607421875,-75.8331298828125
1758877898.8823855,-0.68603515625,-0.0361328125,0.73388671875,1.52587890625,-2.50244140625,-0.732421875,-1.680908203125,47.9498291015625,-75.8331298828125
1758877898.8917785,-0.697265625,-0.0634765625,0.7236328125,7.50732421875,-2.13623046875,-0.67138671875,-1.6424560546875,47.900390625,-75.8331298828125
1758877898.902443,-0.697265625,-0.0634765625,0.7236328125,7.50732421875,-2.13623046875,-0.67138671875,-1.5765380859375,47.8564453125,-75.8331298828125
1758877898.9140599,-0.7080078125,-0.04150390625,0.68212890625,10.986328125,-1.5869140625,-0.732421875,-1.494140625,47.8125,-75.838623046875
1758877898.922197,-0.7080078125,-0.04150390625,0.68212890625,10.986328125,-1.5869140625,-0.732421875,-1.4007568359375,47.7740478515625,-75.849609375
1758877898.9316995,-0.7001953125,-0.0087890625,0.65771484375,13.18359375,-1.40380859375,-0.732421875,-1.2908935546875,47.735595703125,-75.860595703125
1758877898.9418418,-0.7001953125,-0.0087890625,0.65771484375,13.18359375,-1.40380859375,-0.732421875,-1.175537109375,47.70263671875,-75.8660888671875
1758877898.9528754,-0.7021484375,-0.01123046875,0.69677734375,10.1318359375,-1.64794921875,-0.244140625,-1.0711669921875,47.669677734375,-75.87158203125
1758877898.961694,-0.7021484375,-0.01123046875,0.69677734375,10.1318359375,-1.64794921875,-0.244140625,-0.977783203125,47.63671875,-75.8770751953125
1758877898.9717965,-0.71337890625,0.013671875,0.70556640625,2.3193359375,-1.64794921875,0.8544921875,-0.9173583984375,47.603759765625,-75.87158203125
1758877898.9821582,-0.71337890625,0.013671875,0.70556640625,2.3193359375,-1.64794921875,0.8544921875,-0.889892578125,47.57080078125,-75.8551025390625
1758877898.9918287,-0.71484375,0.01123046875,0.6650390625,-4.21142578125,-1.953125,1.46484375,-0.889892578125,47.5323486328125,-75.8331298828125
1758877899.0018404,-0.71484375,0.01123046875,0.6650390625,-4.21142578125,-1.953125,1.46484375,-0.9173583984375,47.4993896484375,-75.8056640625
1758877899.013098,-0.697265625,-0.0068359375,0.68017578125,-12.02392578125,-2.44140625,2.13623046875,-0.977783203125,47.4664306640625,-75.772705078125
1758877899.0222716,-0.697265625,-0.0068359375,0.68017578125,-12.02392578125,-2.44140625,2.13623046875,-1.0711669921875,47.427978515625,-75.7342529296875
1758877899.0318415,-0.701171875,-0.02783203125,0.68115234375,-17.4560546875,-2.197265625,2.62451171875,-1.1920166015625,47.39501953125,-75.6903076171875
1758877899.0422122,-0.701171875,-0.02783203125,0.68115234375,-17.4560546875,-2.197265625,2.62451171875,-1.3348388671875,47.362060546875,-75.6463623046875
1758877899.052992,-0.7109375,-0.01513671875,0.68310546875,-19.83642578125,-2.3193359375,2.74658203125,-1.4886474609375,47.3291015625,-75.6024169921875
1758877899.0618186,-0.7109375,-0.01513671875,0.68310546875,-19.83642578125,-2.3193359375,2.74658203125,-1.6534423828125,47.296142578125,-75.552978515625
1758877899.0723155,-0.7109375,-0.01513671875,0.68310546875,-6.16455078125,-2.197265625,2.50244140625,-1.7523193359375,47.26318359375,-75.509033203125
1758877899.0824971,-0.73779296875,-0.0693359375,0.6787109375,-6.16455078125,-2.197265625,2.50244140625,-1.7852783203125,47.230224609375,-75.4705810546875
1758877899.0922678,-0.7568359375,-0.142578125,0.64599609375,24.96337890625,-1.953125,1.0986328125,-1.6754150390625,47.2027587890625,-75.443115234375
1758877899.1020036,-0.7568359375,-0.142578125,0.64599609375,24.96337890625,-1.953125,1.0986328125,-1.4227294921875,47.1807861328125,-75.4376220703125
1758877899.1133478,-0.744140625,-0.078125,0.62548828125,31.43310546875,-2.01416015625,0.732421875,-1.1480712890625,47.1588134765625,-75.443115234375
1758877899.1220093,-0.744140625,-0.078125,0.62548828125,31.43310546875,-2.01416015625,0.732421875,-0.845947265625,47.1368408203125,-75.4486083984375
1758877899.1324203,-0.73095703125,0.08056640625,0.6630859375,18.24951171875,-0.79345703125,0.54931640625,-0.6097412109375,47.120361328125,-75.4595947265625
1758877899.1423826,-0.73095703125,0.08056640625,0.6630859375,18.24951171875,-0.79345703125,0.54931640625,-0.439453125,47.1148681640625,-75.4705810546875
1758877899.1523545,-0.734375,0.08642578125,0.63623046875,-5.43212890625,-0.732421875,1.3427734375,-0.37353515625,47.109375,-75.465087890625
1758877899.1624205,-0.734375,0.08642578125,0.63623046875,-5.43212890625,-0.732421875,1.3427734375,-0.41748046875,47.1038818359375,-75.443115234375
1758877899.172804,-0.8056640625,0.048828125,0.78955078125,-4.45556640625,-2.5634765625,2.197265625,-0.450439453125,47.0928955078125,-75.4156494140625
1758877899.18244,-0.8056640625,0.048828125,0.78955078125,-4.45556640625,-2.5634765625,2.197265625,-0.4669189453125,47.0654296875,-75.377197265625
1758877899.1922853,-0.80078125,-0.0703125,0.7109375,0.18310546875,-3.173828125,2.13623046875,-0.46142578125,47.0379638671875,-75.3387451171875
1758877899.202652,-0.80078125,-0.0703125,0.7109375,0.18310546875,-3.173828125,2.13623046875,-0.4339599609375,47.010498046875,-75.3057861328125
1758877899.2131612,-0.76025390625,-0.064453125,0.625,-3.11279296875,-3.60107421875,2.01416015625,-0.4339599609375,46.9775390625,-75.2783203125
1758877899.2221487,-0.76025390625,-0.064453125,0.625,-3.11279296875,-3.60107421875,2.01416015625,-0.4449462890625,46.9500732421875,-75.2508544921875
1758877899.2324514,-0.7529296875,0.00244140625,0.642578125,3.7841796875,-2.99072265625,2.685546875,-0.4229736328125,46.922607421875,-75.2288818359375
1758877899.2429981,-0.7529296875,0.00244140625,0.642578125,3.7841796875,-2.99072265625,2.685546875,-0.362548828125,46.900634765625,-75.1959228515625
1758877899.252445,-0.751953125,0.0244140625,0.62939453125,1.03759765625,-2.99072265625,3.0517578125,-0.3131103515625,46.878662109375,-75.157470703125
1758877899.2623363,-0.751953125,0.0244140625,0.62939453125,1.03759765625,-2.99072265625,3.0517578125,-0.274658203125,46.8621826171875,-75.1190185546875
1758877899.2727125,-0.7626953125,0.009765625,0.64013671875,-4.7607421875,-2.685546875,3.41796875,-0.263671875,46.8402099609375,-75.0750732421875
1758877899.2823744,-0.7626953125,0.009765625,0.64013671875,-4.7607421875,-2.685546875,3.41796875,-0.274658203125,46.8292236328125,-75.0311279296875
1758877899.2925487,-0.763671875,-0.01611328125,0.6650390625,-1.89208984375,-2.25830078125,3.2958984375,-0.274658203125,46.812744140625,-74.981689453125
1758877899.3022192,-0.763671875,-0.01611328125,0.6650390625,-1.89208984375,-2.25830078125,3.2958984375,-0.2581787109375,46.8072509765625,-74.937744140625
1758877899.3132074,-0.7568359375,-0.0234375,0.6484375,2.9296875,-1.40380859375,2.99072265625,-0.2197265625,46.8017578125,-74.8992919921875
1758877899.3222706,-0.7568359375,-0.0234375,0.6484375,2.9296875,-1.40380859375,2.99072265625,-0.164794921875,46.7962646484375,-74.86083984375
1758877899.3325334,-0.74853515625,-0.01123046875,0.65185546875,4.5166015625,-1.03759765625,2.74658203125,-0.098876953125,46.8017578125,-74.827880859375
1758877899.3430684,-0.74853515625,-0.01123046875,0.65185546875,4.5166015625,-1.03759765625,2.74658203125,-0.032958984375,46.8017578125,-74.794921875
1758877899.352558,-0.744140625,0.0068359375,0.6689453125,6.40869140625,-1.03759765625,2.50244140625,0.0439453125,46.8017578125,-74.761962890625
1758877899.3624218,-0.744140625,0.0068359375,0.6689453125,6.40869140625,-1.03759765625,2.50244140625,0.1263427734375,46.8072509765625,-74.7344970703125
1758877899.3725965,-0.74853515625,0.01953125,0.67138671875,7.14111328125,-1.28173828125,2.44140625,0.2197265625,46.8072509765625,-74.70703125
1758877899.3830054,-0.74853515625,0.01953125,0.67138671875,7.14111328125,-1.28173828125,2.44140625,0.3131103515625,46.8072509765625,-74.674072265625
1758877899.3925884,-0.75537109375,0.01318359375,0.6806640625,6.28662109375,-1.708984375,2.44140625,0.3955078125,46.8017578125,-74.64111328125
1758877899.4026356,-0.75537109375,0.01318359375,0.6806640625,6.28662109375,-1.708984375,2.44140625,0.4833984375,46.790771484375,-74.6136474609375
1758877899.4134102,-0.7587890625,0.01171875,0.6650390625,5.9814453125,-1.8310546875,2.0751953125,0.560302734375,46.7852783203125,-74.586181640625
1758877899.422387,-0.7587890625,0.01171875,0.6650390625,5.9814453125,-1.8310546875,2.0751953125,0.6427001953125,46.77978515625,-74.564208984375
1758877899.4327135,-0.76953125,0.00927734375,0.6494140625,3.84521484375,-2.13623046875,1.89208984375,0.6976318359375,46.768798828125,-74.542236328125
1758877899.4432402,-0.76953125,0.00927734375,0.6494140625,3.84521484375,-2.13623046875,1.89208984375,0.7525634765625,46.7578125,-74.520263671875
1758877899.4527159,-0.787109375,0.021484375,0.6591796875,1.40380859375,-2.0751953125,1.220703125,0.7745361328125,46.7523193359375,-74.5037841796875
1758877899.4623992,-0.787109375,0.021484375,0.6591796875,1.40380859375,-2.0751953125,1.220703125,0.802001953125,46.7413330078125,-74.4927978515625
1758877899.472745,-0.77734375,0.0361328125,0.6201171875,0.42724609375,-2.0751953125,0.48828125,0.81298828125,46.73583984375,-74.4873046875
1758877899.4830148,-0.77734375,0.0361328125,0.6201171875,0.42724609375,-2.0751953125,0.48828125,0.8184814453125,46.7303466796875,-74.4818115234375
1758877899.4929695,-0.76708984375,0.02099609375,0.61669921875,-0.67138671875,-2.13623046875,0.30517578125,0.8184814453125,46.7303466796875,-74.4818115234375
1758877899.5033536,-0.76708984375,0.02099609375,0.61669921875,-0.67138671875,-2.13623046875,0.30517578125,0.8184814453125,46.724853515625,-74.4818115234375
1758877899.5132165,-0.75634765625,-0.00244140625,0.65380859375,-0.244140625,-2.197265625,0.1220703125,0.8184814453125,46.7193603515625,-74.4818115234375
1758877899.522535,-0.75634765625,-0.00244140625,0.65380859375,-0.244140625,-2.197265625,0.1220703125,0.8184814453125,46.7193603515625,-74.4818115234375
1758877899.5328379,-0.7529296875,0.00146484375,0.6591796875,0.8544921875,-2.25830078125,-0.1220703125,0.823974609375,46.7138671875,-74.4873046875
1758877899.5432684,-0.7529296875,0.00146484375,0.6591796875,0.8544921875,-2.25830078125,-0.1220703125,0.8294677734375,46.7083740234375,-74.4927978515625
1758877899.552859,-0.73779296875,0.021484375,0.67431640625,1.46484375,-2.3193359375,-0.3662109375,0.8404541015625,46.6973876953125,-74.5037841796875
1758877899.5627413,-0.73779296875,0.021484375,0.67431640625,1.46484375,-2.3193359375,-0.3662109375,0.8514404296875,46.69189453125,-74.50927734375
1758877899.572909,-0.7294921875,0.0263671875,0.6875,-0.9765625,-2.25830078125,-0.30517578125,0.8404541015625,46.680908203125,-74.5147705078125
1758877899.583091,-0.7294921875,0.0263671875,0.6875,-0.9765625,-2.25830078125,-0.30517578125,0.8294677734375,46.6754150390625,-74.520263671875
1758877899.5928526,-0.7158203125,0.0166015625,0.69873046875,-1.5869140625,-2.3193359375,-0.1220703125,0.81298828125,46.658935546875,-74.5257568359375
1758877899.6030328,-0.7158203125,0.0166015625,0.69873046875,-1.5869140625,-2.3193359375,-0.1220703125,0.802001953125,46.64794921875,-74.5257568359375
1758877899.6133487,-0.7080078125,-0.001953125,0.70751953125,-1.46484375,-2.38037109375,0.06103515625,0.791015625,46.6314697265625,-74.5257568359375
1758877899.6227515,-0.7080078125,-0.001953125,0.70751953125,-1.46484375,-2.38037109375,0.06103515625,0.7745361328125,46.614990234375,-74.5257568359375
1758877899.6330593,-0.70654296875,-0.00244140625,0.71435546875,-0.42724609375,-2.50244140625,0.1220703125,0.7745361328125,46.593017578125,-74.5257568359375
1758877899.643374,-0.70654296875,-0.00244140625,0.71435546875,-0.42724609375,-2.50244140625,0.1220703125,0.76904296875,46.571044921875,-74.53125
1758877899.6530254,-0.70654296875,0.01171875,0.705078125,-0.06103515625,-2.44140625,0.0,0.76904296875,46.549072265625,-74.53125
1758877899.662707,-0.70654296875,0.01171875,0.705078125,-0.06103515625,-2.44140625,0.0,0.76904296875,46.527099609375,-74.53125
1758877899.6729836,-0.705078125,0.0244140625,0.71337890625,-0.244140625,-2.50244140625,-0.06103515625,0.7635498046875,46.4996337890625,-74.5367431640625
1758877899.6833901,-0.705078125,0.0244140625,0.71337890625,-0.244140625,-2.50244140625,-0.06103515625,0.7635498046875,46.47216796875,-74.5367431640625
1758877899.6929746,-0.70263671875,0.01611328125,0.72314453125,-0.8544921875,-2.0751953125,0.06103515625,0.758056640625,46.4501953125,-74.5367431640625
1758877899.7028713,-0.70263671875,0.01611328125,0.72314453125,-0.8544921875,-2.0751953125,0.06103515625,0.7470703125,46.42822265625,-74.53125
1758877899.7137728,-0.701171875,0.001953125,0.72412109375,-1.3427734375,-2.0751953125,0.18310546875,0.7415771484375,46.4007568359375,-74.53125
1758877899.7227783,-0.701171875,0.001953125,0.72412109375,-1.3427734375,-2.0751953125,0.18310546875,0.7305908203125,46.3787841796875,-74.5257568359375
1758877899.7332964,-0.708984375,0.0048828125,0.708984375,-1.3427734375,-1.953125,0.244140625,0.7196044921875,46.351318359375,-74.5257568359375
1758877899.743369,-0.708984375,0.0048828125,0.708984375,-1.3427734375,-1.953125,0.244140625,0.7086181640625,46.329345703125,-74.520263671875
1758877899.7531612,-0.72265625,0.013671875,0.7041015625,-2.8076171875,-1.77001953125,0.3662109375,0.6866455078125,46.3018798828125,-74.5147705078125
1758877899.7629104,-0.72265625,0.013671875,0.7041015625,-2.8076171875,-1.77001953125,0.3662109375,0.6591796875,46.2799072265625,-74.5147705078125
1758877899.7731953,-0.7314453125,0.0185546875,0.697265625,-7.01904296875,-1.220703125,0.732421875,0.5987548828125,46.263427734375,-74.498291015625
1758877899.7834013,-0.7314453125,0.0185546875,0.697265625,-7.01904296875,-1.220703125,0.732421875,0.538330078125,46.2469482421875,-74.4873046875
1758877899.7934556,-0.73583984375,0.0205078125,0.6708984375,-9.3994140625,-1.03759765625,0.732421875,0.4559326171875,46.2359619140625,-74.476318359375
1758877899.8043845,-0.73583984375,0.0205078125,0.6708984375,-9.3994140625,-1.03759765625,0.732421875,0.37353515625,46.2249755859375,-74.46533203125
1758877899.814607,-0.73779296875,0.00341796875,0.6650390625,-6.591796875,-1.0986328125,0.42724609375,0.318603515625,46.2139892578125,-74.4598388671875
1758877899.8230581,-0.73779296875,0.00341796875,0.6650390625,-6.591796875,-1.0986328125,0.42724609375,0.2581787109375,46.2030029296875,-74.4488525390625
1758877899.8334646,-0.74267578125,-0.00634765625,0.658203125,-3.0517578125,-1.28173828125,0.18310546875,0.2362060546875,46.1920166015625,-74.4488525390625
1758877899.8437462,-0.74267578125,-0.00634765625,0.658203125,-3.0517578125,-1.28173828125,0.18310546875,0.208740234375,46.1810302734375,-74.4488525390625
1758877899.853251,-0.7421875,-0.0029296875,0.66455078125,-3.5400390625,-1.40380859375,0.3662109375,0.1812744140625,46.175537109375,-74.443359375
1758877899.8630965,-0.7421875,-0.0029296875,0.66455078125,-3.5400390625,-1.40380859375,0.3662109375,0.15380859375,46.16455078125,-74.4378662109375
1758877899.8732984,-0.73876953125,0.0068359375,0.658203125,-4.21142578125,-1.3427734375,0.3662109375,0.1153564453125,46.153564453125,-74.432373046875
1758877899.8835535,-0.73876953125,0.0068359375,0.658203125,-4.21142578125,-1.3427734375,0.3662109375,0.076904296875,46.1480712890625,-74.4268798828125
1758877899.8933053,-0.736328125,0.00146484375,0.6708984375,-3.7841796875,-1.15966796875,0.54931640625,0.0494384765625,46.142578125,-74.42138671875
1758877899.9034588,-0.736328125,0.00146484375,0.6708984375,-3.7841796875,-1.15966796875,0.54931640625,0.02197265625,46.142578125,-74.4158935546875
1758877899.9138415,-0.73388671875,-0.00146484375,0.68115234375,-4.8828125,-0.8544921875,0.67138671875,-0.010986328125,46.1370849609375,-74.4049072265625
1758877899.9274983,-0.73388671875,-0.00146484375,0.68115234375,-4.8828125,-0.8544921875,0.67138671875,-0.054931640625,46.1370849609375,-74.3939208984375
1758877899.9347274,-0.72607421875,0.00341796875,0.67919921875,-4.39453125,-0.67138671875,0.48828125,-0.087890625,46.1370849609375,-74.388427734375
1758877899.9438856,-0.72607421875,0.00341796875,0.67919921875,-4.39453125,-0.67138671875,0.48828125,-0.1263427734375,46.1370849609375,-74.3829345703125
1758877899.9533627,-0.71826171875,0.0009765625,0.68994140625,-3.90625,-0.54931640625,0.48828125,-0.15380859375,46.1370849609375,-74.37744140625
1758877899.9634037,-0.71826171875,0.0009765625,0.68994140625,-3.90625,-0.54931640625,0.48828125,-0.186767578125,46.1370849609375,-74.366455078125
1758877899.9736042,-0.712890625,-0.0029296875,0.7021484375,-5.79833984375,-0.732421875,0.79345703125,-0.2362060546875,46.1370849609375,-74.35546875
1758877899.9836118,-0.712890625,-0.0029296875,0.7021484375,-5.79833984375,-0.732421875,0.79345703125,-0.2801513671875,46.131591796875,-74.344482421875
1758877899.9934423,-0.70849609375,-0.0068359375,0.70361328125,-6.04248046875,-0.91552734375,0.8544921875,-0.32958984375,46.1260986328125,-74.3280029296875
1758877900.0036502,-0.70849609375,-0.0068359375,0.70361328125,-6.04248046875,-0.91552734375,0.8544921875,-0.3790283203125,46.12060546875,-74.3170166015625
1758877900.014034,-0.6982421875,-0.00146484375,0.7109375,-5.55419921875,-1.220703125,0.6103515625,-0.4229736328125,46.109619140625,-74.3060302734375
1758877900.0233033,-0.6982421875,-0.00146484375,0.7109375,-5.55419921875,-1.220703125,0.6103515625,-0.472412109375,46.0931396484375,-74.300537109375
1758877900.0334685,-0.6953125,-0.0009765625,0.72607421875,-5.37109375,-1.3427734375,0.48828125,-0.516357421875,46.0821533203125,-74.28955078125
1758877900.0435824,-0.6953125,-0.0009765625,0.72607421875,-5.37109375,-1.3427734375,0.48828125,-0.560302734375,46.065673828125,-74.278564453125
1758877900.05375,-0.689453125,-0.00537109375,0.734375,-5.126953125,-1.40380859375,0.3662109375,-0.604248046875,46.0491943359375,-74.2730712890625
1758877900.063318,-0.689453125,-0.00537109375,0.734375,-5.126953125,-1.40380859375,0.3662109375,-0.648193359375,46.0272216796875,-74.267578125
1758877900.0733933,-0.689453125,-0.00537109375,0.734375,-5.67626953125,-1.40380859375,0.30517578125,-0.6976318359375,46.0107421875,-74.256591796875
1758877900.084915,-0.6865234375,-0.0068359375,0.7333984375,-5.67626953125,-1.40380859375,0.30517578125,-0.7470703125,45.98876953125,-74.2510986328125
1758877900.0935097,-0.68408203125,-0.00146484375,0.73388671875,-6.65283203125,-1.3427734375,0.244140625,-0.8074951171875,45.966796875,-74.24560546875
1758877900.1034727,-0.68408203125,-0.00146484375,0.73388671875,-6.65283203125,-1.3427734375,0.244140625,-0.867919921875,45.94482421875,-74.234619140625
1758877900.1144812,-0.685546875,-0.01123046875,0.7265625,-6.4697265625,-1.15966796875,0.18310546875,-0.9283447265625,45.9228515625,-74.2291259765625
1758877900.1236722,-0.685546875,-0.01123046875,0.7265625,-6.4697265625,-1.15966796875,0.18310546875,-0.9832763671875,45.90087890625,-74.2181396484375
1758877900.1334407,-0.677734375,-0.01806640625,0.74169921875,-5.18798828125,-1.0986328125,-0.06103515625,-1.03271484375,45.87890625,-74.2181396484375
1758877900.1434407,-0.677734375,-0.01806640625,0.74169921875,-5.18798828125,-1.0986328125,-0.06103515625,-1.0821533203125,45.85693359375,-74.212646484375
1758877900.1543376,-0.669921875,-0.009765625,0.73486328125,-5.0048828125,-1.220703125,-0.244140625,-1.131591796875,45.8349609375,-74.212646484375
1758877900.163845,-0.669921875,-0.009765625,0.73486328125,-5.0048828125,-1.220703125,-0.244140625,-1.1810302734375,45.8074951171875,-74.2071533203125
1758877900.173348,-0.66455078125,-0.0078125,0.74267578125,-4.45556640625,-1.5869140625,-0.3662109375,-1.2249755859375,45.780029296875,-74.2071533203125
1758877900.1837237,-0.66455078125,-0.0078125,0.74267578125,-4.45556640625,-1.5869140625,-0.3662109375,-1.2689208984375,45.7470703125,-74.2071533203125
1758877900.1942844,-0.6513671875,-0.01806640625,0.73486328125,-3.90625,-1.8310546875,-0.42724609375,-1.307373046875,45.714111328125,-74.2071533203125
1758877900.2037091,-0.6513671875,-0.01806640625,0.73486328125,-3.90625,-1.8310546875,-0.42724609375,-1.3458251953125,45.68115234375,-74.2071533203125
1758877900.2136507,-0.650390625,-0.0244140625,0.74267578125,-3.11279296875,-1.5869140625,-0.42724609375,-1.373291015625,45.648193359375,-74.2071533203125
1758877900.224733,-0.650390625,-0.0244140625,0.74267578125,-3.11279296875,-1.5869140625,-0.42724609375,-1.40625,45.615234375,-74.2071533203125
1758877900.2335496,-0.65673828125,-0.03076171875,0.72998046875,-0.1220703125,-1.15966796875,-0.30517578125,-1.40625,45.582275390625,-74.20166015625
1758877900.2436268,-0.65673828125,-0.03076171875,0.72998046875,-0.1220703125,-1.15966796875,-0.30517578125,-1.4117431640625,45.5548095703125,-74.20166015625
1758877900.2543075,-0.6484375,-0.03759765625,0.73388671875,3.173828125,-0.91552734375,-0.6103515625,-1.38427734375,45.52734375,-74.2071533203125
1758877900.2637951,-0.6484375,-0.03759765625,0.73388671875,3.173828125,-0.91552734375,-0.6103515625,-1.3623046875,45.4998779296875,-74.212646484375
1758877900.2735078,-0.658203125,-0.0283203125,0.734375,5.92041015625,-0.54931640625,-0.67138671875,-1.307373046875,45.472412109375,-74.2236328125
1758877900.283996,-0.658203125,-0.0283203125,0.734375,5.92041015625,-0.54931640625,-0.67138671875,-1.2579345703125,45.450439453125,-74.2291259765625
1758877900.2943501,-0.65966796875,-0.00830078125,0.7080078125,5.31005859375,-0.42724609375,-0.79345703125,-1.2139892578125,45.4229736328125,-74.2401123046875
1758877900.3037744,-0.65966796875,-0.00830078125,0.7080078125,5.31005859375,-0.42724609375,-0.79345703125,-1.1700439453125,45.4010009765625,-74.2510986328125
1758877900.3137357,-0.69189453125,0.00146484375,0.72509765625,3.5400390625,-0.244140625,-0.732421875,-1.1480712890625,45.3790283203125,-74.2620849609375
1758877900.3252041,-0.69189453125,0.00146484375,0.72509765625,3.5400390625,-0.244140625,-0.732421875,-1.12060546875,45.362548828125,-74.267578125
1758877900.33373,-0.69677734375,-0.00927734375,0.748046875,2.8076171875,-0.244140625,-0.18310546875,-1.0931396484375,45.3460693359375,-74.267578125
1758877900.3436759,-0.73388671875,-0.0068359375,0.73193359375,-1.52587890625,-0.732421875,0.0,-1.087646484375,45.3240966796875,-74.267578125
1758877900.354263,-0.73388671875,-0.0068359375,0.73193359375,-1.52587890625,-0.732421875,0.0,-1.1041259765625,45.3021240234375,-74.2620849609375
1758877900.364019,-0.734375,-0.00341796875,0.70556640625,-3.41796875,-0.732421875,0.1220703125,-1.1260986328125,45.2801513671875,-74.256591796875
1758877900.373716,-0.734375,-0.00341796875,0.70556640625,-3.41796875,-0.732421875,0.1220703125,-1.153564453125,45.263671875,-74.256591796875
1758877900.385215,-0.73974609375,-0.02197265625,0.66064453125,-4.0283203125,-0.54931640625,0.54931640625,-1.1865234375,45.2471923828125,-74.24560546875
1758877900.3938637,-0.73974609375,-0.02197265625,0.66064453125,-4.0283203125,-0.54931640625,0.54931640625,-1.219482421875,45.2362060546875,-74.234619140625
1758877900.405489,-0.73388671875,-0.0458984375,0.6572265625,-2.0751953125,-0.244140625,0.6103515625,-1.2469482421875,45.230712890625,-74.2291259765625
1758877900.41417,-0.73388671875,-0.0458984375,0.6572265625,-2.0751953125,-0.244140625,0.6103515625,-1.2579345703125,45.2252197265625,-74.2236328125
1758877900.4239724,-0.7490234375,-0.041015625,0.673828125,1.77001953125,-0.42724609375,0.54931640625,-1.2579345703125,45.2252197265625,-74.2181396484375
1758877900.4340105,-0.7490234375,-0.041015625,0.673828125,1.77001953125,-0.42724609375,0.54931640625,-1.2359619140625,45.2197265625,-74.212646484375
1758877900.4451704,-0.75830078125,-0.0244140625,0.66650390625,1.28173828125,-0.67138671875,0.54931640625,-1.219482421875,45.2197265625,-74.212646484375
1758877900.4545546,-0.75830078125,-0.0244140625,0.66650390625,1.28173828125,-0.67138671875,0.54931640625,-1.20849609375,45.2142333984375,-74.212646484375
1758877900.4639323,-0.76220703125,0.00146484375,0.677734375,-2.5634765625,-0.79345703125,0.732421875,-1.20849609375,45.2142333984375,-74.212646484375
1758877900.4739795,-0.76220703125,0.00146484375,0.677734375,-2.5634765625,-0.79345703125,0.732421875,-1.23046875,45.2142333984375,-74.2071533203125
1758877900.485167,-0.7685546875,0.01416015625,0.6728515625,-7.080078125,-1.03759765625,1.28173828125,-1.2689208984375,45.2142333984375,-74.1961669921875
1758877900.4939663,-0.7685546875,0.01416015625,0.6728515625,-7.080078125,-1.03759765625,1.28173828125,-1.329345703125,45.2142333984375,-74.1796875
1758877900.503932,-0.76416015625,0.0087890625,0.6455078125,-9.8876953125,-1.40380859375,1.220703125,-1.395263671875,45.2142333984375,-74.1632080078125
1758877900.5141594,-0.76416015625,0.0087890625,0.6455078125,-9.8876953125,-1.40380859375,1.220703125,-1.4776611328125,45.2142333984375,-74.146728515625
1758877900.5254517,-0.75927734375,-0.0205078125,0.650390625,-8.6669921875,-1.46484375,1.28173828125,-1.5545654296875,45.2142333984375,-74.1302490234375
1758877900.5341086,-0.75927734375,-0.0205078125,0.650390625,-8.6669921875,-1.46484375,1.28173828125,-1.6259765625,45.2197265625,-74.11376953125
1758877900.5448887,-0.751953125,-0.0380859375,0.6513671875,-4.7607421875,-1.5869140625,0.9765625,-1.6754150390625,45.2197265625,-74.0972900390625
1758877900.554634,-0.751953125,-0.0380859375,0.6513671875,-4.7607421875,-1.5869140625,0.9765625,-1.7083740234375,45.2197265625,-74.0863037109375
1758877900.5646715,-0.73779296875,-0.03369140625,0.669921875,-1.77001953125,-1.46484375,0.6103515625,-1.7303466796875,45.2197265625,-74.0753173828125
1758877900.5740445,-0.73779296875,-0.03369140625,0.669921875,-1.77001953125,-1.46484375,0.6103515625,-1.7413330078125,45.2252197265625,-74.06982421875
1758877900.584562,-0.72705078125,-0.017578125,0.6865234375,-0.8544921875,-1.40380859375,0.244140625,-1.746826171875,45.2252197265625,-74.06982421875
1758877900.5948632,-0.72705078125,-0.017578125,0.6865234375,-0.8544921875,-1.40380859375,0.244140625,-1.7523193359375,45.230712890625,-74.06982421875
1758877900.6040685,-0.72314453125,-0.00732421875,0.6982421875,-0.8544921875,-1.46484375,0.0,-1.7578125,45.230712890625,-74.06982421875
1758877900.6141136,-0.72314453125,-0.00732421875,0.6982421875,-0.8544921875,-1.46484375,0.0,-1.7633056640625,45.230712890625,-74.06982421875
1758877900.6248078,-0.71240234375,-0.0078125,0.69921875,-1.46484375,-1.64794921875,-0.48828125,-1.77978515625,45.2252197265625,-74.0753173828125
1758877900.6349092,-0.71240234375,-0.0078125,0.69921875,-1.46484375,-1.64794921875,-0.48828125,-1.7962646484375,45.2252197265625,-74.0863037109375
1758877900.644082,-0.712890625,-0.01318359375,0.70458984375,-1.0986328125,-1.708984375,-0.9765625,-1.8072509765625,45.2142333984375,-74.0972900390625
1758877900.654448,-0.712890625,-0.01318359375,0.70458984375,-1.0986328125,-1.708984375,-0.9765625,-1.8292236328125,45.208740234375,-74.1082763671875
1758877900.6652863,-0.7099609375,-0.02294921875,0.7001953125,-0.1220703125,-1.77001953125,-1.5869140625,-1.8402099609375,45.2032470703125,-74.124755859375
1758877900.674218,-0.7099609375,-0.02294921875,0.7001953125,-0.1220703125,-1.77001953125,-1.5869140625,-1.856689453125,45.1922607421875,-74.146728515625
1758877900.6841176,-0.7060546875,-0.02783203125,0.70654296875,2.13623046875,-1.5869140625,-2.13623046875,-1.8621826171875,45.1812744140625,-74.1741943359375
1758877900.6957808,-0.7060546875,-0.02783203125,0.70654296875,2.13623046875,-1.5869140625,-2.13623046875,-1.856689453125,45.1702880859375,-74.2071533203125
1758877900.706573,-0.69775390625,-0.0244140625,0.7109375,4.57763671875,-1.40380859375,-2.62451171875,-1.845703125,45.164794921875,-74.2401123046875
1758877900.714414,-0.69775390625,-0.0244140625,0.7109375,4.57763671875,-1.40380859375,-2.62451171875,-1.82373046875,45.15380859375,-74.2730712890625
1758877900.72475,-0.693359375,-0.0224609375,0.728515625,5.9814453125,-1.3427734375,-3.0517578125,-1.7962646484375,45.142822265625,-74.3170166015625
1758877900.7351377,-0.693359375,-0.0224609375,0.728515625,5.9814453125,-1.3427734375,-3.0517578125,-1.768798828125,45.1318359375,-74.3609619140625
1758877900.7446258,-0.6875,-0.01806640625,0.732421875,7.080078125,-1.3427734375,-3.41796875,-1.73583984375,45.1153564453125,-74.4049072265625
1758877900.7544978,-0.6875,-0.01806640625,0.732421875,7.080078125,-1.3427734375,-3.41796875,-1.6973876953125,45.1043701171875,-74.454345703125
1758877900.7654877,-0.68310546875,-0.00634765625,0.72900390625,5.92041015625,-1.3427734375,-3.60107421875,-1.6644287109375,45.087890625,-74.5037841796875
1758877900.774368,-0.68310546875,-0.00634765625,0.72900390625,5.92041015625,-1.3427734375,-3.60107421875,-1.6424560546875,45.0714111328125,-74.5477294921875
1758877900.7853518,-0.6845703125,-0.021484375,0.72900390625,7.87353515625,-1.0986328125,-3.7841796875,-1.6094970703125,45.054931640625,-74.6026611328125
1758877900.795016,-0.6845703125,-0.021484375,0.72900390625,7.87353515625,-1.0986328125,-3.7841796875,-1.5655517578125,45.0439453125,-74.652099609375
1758877900.8046505,-0.67236328125,-0.03564453125,0.74267578125,9.58251953125,-0.9765625,-4.08935546875,-1.51611328125,45.0274658203125,-74.70703125
1758877900.8148482,-0.67236328125,-0.03564453125,0.74267578125,9.58251953125,-0.9765625,-4.08935546875,-1.461181640625,45.010986328125,-74.761962890625
1758877900.8250737,-0.6796875,-0.0283203125,0.73583984375,10.19287109375,-0.79345703125,-3.96728515625,-1.40625,44.9945068359375,-74.81689453125
1758877900.834526,-0.6796875,-0.0283203125,0.73583984375,10.19287109375,-0.79345703125,-3.96728515625,-1.3458251953125,44.97802734375,-74.8773193359375
1758877900.8449337,-0.67919921875,-0.009765625,0.74609375,9.46044921875,-0.732421875,-3.90625,-1.2908935546875,44.9615478515625,-74.9322509765625
1758877900.8551373,-0.67919921875,-0.009765625,0.74609375,9.46044921875,-0.732421875,-3.90625,-1.2359619140625,44.945068359375,-74.9871826171875
1758877900.864865,-0.68701171875,-0.0029296875,0.72412109375,7.01904296875,-0.54931640625,-3.60107421875,-1.1920166015625,44.9285888671875,-75.03662109375
1758877900.8744414,-0.68701171875,-0.0029296875,0.72412109375,7.01904296875,-0.54931640625,-3.60107421875,-1.1590576171875,44.9176025390625,-75.0860595703125
1758877900.8848996,-0.693359375,-0.01513671875,0.73095703125,7.14111328125,-0.244140625,-3.35693359375,-1.1260986328125,44.901123046875,-75.135498046875
1758877900.895437,-0.693359375,-0.01513671875,0.73095703125,7.14111328125,-0.244140625,-3.35693359375,-1.087646484375,44.89013671875,-75.179443359375
1758877900.904774,-0.69921875,-0.0302734375,0.72412109375,8.85009765625,0.30517578125,-3.2958984375,-1.043701171875,44.879150390625,-75.223388671875
1758877900.9146514,-0.69921875,-0.0302734375,0.72412109375,8.85009765625,0.30517578125,-3.2958984375,-0.98876953125,44.8736572265625,-75.2728271484375
1758877900.9255147,-0.705078125,-0.021484375,0.71826171875,8.6669921875,0.9765625,-3.23486328125,-0.9393310546875,44.8736572265625,-75.322265625
1758877900.9346814,-0.705078125,-0.021484375,0.71826171875,8.6669921875,0.9765625,-3.23486328125,-0.889892578125,44.8736572265625,-75.3662109375
1758877900.9449017,-0.7158203125,-0.00146484375,0.70556640625,8.11767578125,1.3427734375,-3.0517578125,-0.8404541015625,44.879150390625,-75.4156494140625
1758877900.9554489,-0.7158203125,-0.00146484375,0.70556640625,8.11767578125,1.3427734375,-3.0517578125,-0.791015625,44.89013671875,-75.4595947265625
1758877900.9648967,-0.7275390625,-0.00244140625,0.70361328125,5.79833984375,1.8310546875,-2.74658203125,-0.7525634765625,44.901123046875,-75.498046875
1758877900.9748666,-0.7275390625,-0.00244140625,0.70361328125,5.79833984375,1.8310546875,-2.74658203125,-0.72509765625,44.912109375,-75.5419921875
1758877900.9854786,-0.73291015625,-0.00341796875,0.689453125,1.8310546875,2.62451171875,-2.197265625,-0.714111328125,44.93408203125,-75.574951171875
1758877900.9947436,-0.73291015625,-0.00341796875,0.689453125,1.8310546875,2.62451171875,-2.197265625,-0.7196044921875,44.9560546875,-75.60791015625
1758877901.0048857,-0.73291015625,-0.0029296875,0.68017578125,-1.46484375,3.2958984375,-1.8310546875,-0.7415771484375,44.9835205078125,-75.6353759765625
1758877901.0156295,-0.73291015625,-0.0029296875,0.68017578125,-1.46484375,3.2958984375,-1.8310546875,-0.7745361328125,45.0164794921875,-75.662841796875
1758877901.0251043,-0.734375,-0.0107421875,0.67822265625,-1.8310546875,3.96728515625,-1.708984375,-0.81298828125,45.054931640625,-75.684814453125
1758877901.034792,-0.734375,-0.0107421875,0.67822265625,-1.8310546875,3.96728515625,-1.708984375,-0.845947265625,45.098876953125,-75.7122802734375
1758877901.045394,-0.734375,-0.0107421875,0.67822265625,-3.72314453125,4.45556640625,-1.40380859375,-0.889892578125,45.142822265625,-75.7342529296875
1758877901.0553753,-0.73388671875,-0.01416015625,0.671875,-3.72314453125,4.45556640625,-1.40380859375,-0.9393310546875,45.1922607421875,-75.7562255859375
1758877901.0650563,-0.72607421875,-0.02490234375,0.67041015625,-4.08935546875,4.94384765625,-1.3427734375,-0.9942626953125,45.24169921875,-75.772705078125
1758877901.0749974,-0.72607421875,-0.02490234375,0.67041015625,-4.08935546875,4.94384765625,-1.3427734375,-1.0491943359375,45.296630859375,-75.794677734375
1758877901.085573,-0.7265625,-0.01708984375,0.67822265625,-3.2958984375,5.126953125,-1.0986328125,-1.0986328125,45.3515625,-75.816650390625
1758877901.0948143,-0.7265625,-0.01708984375,0.67822265625,-3.2958984375,5.126953125,-1.0986328125,-1.1480712890625,45.4119873046875,-75.8331298828125
1758877901.1050491,-0.7177734375,-0.0166015625,0.6943359375,-2.0751953125,5.2490234375,-1.5869140625,-1.1865234375,45.4669189453125,-75.8551025390625
1758877901.1156292,-0.7177734375,-0.0166015625,0.6943359375,-2.0751953125,5.2490234375,-1.5869140625,-1.2249755859375,45.5218505859375,-75.882568359375
1758877901.125162,-0.70703125,-0.009765625,0.697265625,-1.46484375,5.126953125,-2.3193359375,-1.263427734375,45.5767822265625,-75.9100341796875
1758877901.1349216,-0.70703125,-0.009765625,0.697265625,-1.46484375,5.126953125,-2.3193359375,-1.3018798828125,45.6317138671875,-75.948486328125
1758877901.145203,-0.7021484375,-0.0087890625,0.7109375,1.8310546875,4.69970703125,-3.173828125,-1.329345703125,45.6866455078125,-75.9869384765625
1758877901.1556554,-0.7021484375,-0.0087890625,0.7109375,1.8310546875,4.69970703125,-3.173828125,-1.3458251953125,45.7305908203125,-76.0308837890625
1758877901.1651714,-0.6826171875,-0.0087890625,0.73046875,3.11279296875,3.90625,-4.150390625,-1.3568115234375,45.7745361328125,-76.080322265625
1758877901.17569,-0.6826171875,-0.0087890625,0.73046875,3.11279296875,3.90625,-4.150390625,-1.3677978515625,45.8074951171875,-76.1407470703125
1758877901.1854088,-0.67333984375,-0.00244140625,0.7568359375,1.3427734375,3.11279296875,-5.06591796875,-1.3897705078125,45.8404541015625,-76.201171875
1758877901.1949217,-0.67333984375,-0.00244140625,0.7568359375,1.3427734375,3.11279296875,-5.06591796875,-1.4227294921875,45.8624267578125,-76.2725830078125
1758877901.2052443,-0.666015625,-0.0009765625,0.7802734375,2.5634765625,2.197265625,-6.40869140625,-1.461181640625,45.87890625,-76.343994140625
1758877901.2157242,-0.666015625,-0.0009765625,0.7802734375,2.5634765625,2.197265625,-6.40869140625,-1.4996337890625,45.889892578125,-76.431884765625
1758877901.2252784,-0.64794921875,-0.0068359375,0.7685546875,5.37109375,1.28173828125,-7.9345703125,-1.527099609375,45.8953857421875,-76.519775390625
1758877901.235133,-0.64794921875,-0.0068359375,0.7685546875,5.37109375,1.28173828125,-7.9345703125,-1.549072265625,45.889892578125,-76.6241455078125
1758877901.2457879,-0.63671875,-0.021484375,0.76513671875,10.986328125,0.30517578125,-9.521484375,-1.5545654296875,45.87890625,-76.739501953125
1758877901.2551844,-0.63671875,-0.021484375,0.76513671875,10.986328125,0.30517578125,-9.521484375,-1.5325927734375,45.8624267578125,-76.8603515625
1758877901.265383,-0.6455078125,-0.025390625,0.75146484375,16.11328125,-0.30517578125,-10.6201171875,-1.4996337890625,45.8349609375,-76.9921875
1758877901.2759714,-0.6455078125,-0.025390625,0.75146484375,16.11328125,-0.30517578125,-10.6201171875,-1.4447021484375,45.81298828125,-77.135009765625
1758877901.2853923,-0.66357421875,-0.01416015625,0.7802734375,22.3388671875,-1.3427734375,-11.8408203125,-1.3623046875,45.780029296875,-77.2833251953125
1758877901.2959585,-0.66357421875,-0.01416015625,0.7802734375,22.3388671875,-1.3427734375,-11.8408203125,-1.2579345703125,45.736083984375,-77.442626953125
1758877901.3057287,-0.671875,-0.01513671875,0.7568359375,22.52197265625,-2.01416015625,-11.962890625,-1.153564453125,45.6976318359375,-77.6019287109375
1758877901.3158145,-0.671875,-0.01513671875,0.7568359375,22.52197265625,-2.01416015625,-11.962890625,-1.0491943359375,45.648193359375,-77.76123046875
1758877901.3254387,-0.681640625,-0.0029296875,0.744140625,15.44189453125,-2.74658203125,-11.8408203125,-0.9832763671875,45.604248046875,-77.9150390625
1758877901.3352551,-0.681640625,-0.0029296875,0.744140625,15.44189453125,-2.74658203125,-11.8408203125,-0.9503173828125,45.54931640625,-78.0743408203125
1758877901.3460054,-0.70458984375,-0.0009765625,0.72607421875,11.8408203125,-2.86865234375,-11.5966796875,-0.94482421875,45.4998779296875,-78.2281494140625
1758877901.3560016,-0.70458984375,-0.0009765625,0.72607421875,11.8408203125,-2.86865234375,-11.5966796875,-0.94482421875,45.450439453125,-78.3819580078125
1758877901.3654678,-0.69775390625,-0.013671875,0.69091796875,10.7421875,-2.62451171875,-10.986328125,-0.94482421875,45.4010009765625,-78.5247802734375
1758877901.3761082,-0.69775390625,-0.013671875,0.69091796875,10.7421875,-2.62451171875,-10.986328125,-0.9503173828125,45.362548828125,-78.6676025390625
1758877901.385516,-0.6953125,-0.041015625,0.6884765625,13.0615234375,-1.64794921875,-10.1318359375,-0.9228515625,45.32958984375,-78.804931640625
1758877901.3952289,-0.6953125,-0.041015625,0.6884765625,13.0615234375,-1.64794921875,-10.1318359375,-0.8953857421875,45.296630859375,-78.9422607421875
1758877901.405513,-0.7041015625,-0.06201171875,0.669921875,20.5078125,-0.42724609375,-9.521484375,-0.791015625,45.2801513671875,-79.0740966796875
1758877901.41618,-0.7041015625,-0.06201171875,0.669921875,20.5078125,-0.42724609375,-9.521484375,-0.6866455078125,45.2691650390625,-79.21142578125
1758877901.4255214,-0.7109375,-0.0595703125,0.67724609375,25.81787109375,0.1220703125,-9.1552734375,-0.5328369140625,45.2581787109375,-79.34326171875
1758877901.4353747,-0.7109375,-0.0595703125,0.67724609375,25.81787109375,0.1220703125,-9.1552734375,-0.3790283203125,45.252685546875,-79.47509765625
1758877901.4460313,-0.71240234375,-0.02783203125,0.68408203125,25.87890625,0.48828125,-8.30078125,-0.2197265625,45.252685546875,-79.6014404296875
1758877901.455425,-0.71240234375,-0.02783203125,0.68408203125,25.87890625,0.48828125,-8.30078125,-0.054931640625,45.252685546875,-79.727783203125
1758877901.4655566,-0.72607421875,-0.001953125,0.68017578125,20.08056640625,0.732421875,-7.32421875,0.0494384765625,45.2581787109375,-79.837646484375
1758877901.4760454,-0.72607421875,-0.001953125,0.68017578125,20.08056640625,0.732421875,-7.32421875,0.164794921875,45.263671875,-79.947509765625
1758877901.485634,-0.72802734375,0.0224609375,0.68359375,8.4228515625,1.0986328125,-6.7138671875,0.1702880859375,45.274658203125,-80.04638671875
1758877901.4954052,-0.72802734375,0.0224609375,0.68359375,8.4228515625,1.0986328125,-6.7138671875,0.17578125,45.28564453125,-80.145263671875
1758877901.505654,-0.75341796875,0.0263671875,0.66357421875,2.50244140625,2.38037109375,-5.92041015625,0.1318359375,45.3131103515625,-80.233154296875
1758877901.515746,-0.75341796875,0.0263671875,0.66357421875,2.50244140625,2.38037109375,-5.92041015625,0.0933837890625,45.340576171875,-80.3155517578125
1758877901.5256252,-0.77783203125,0.00732421875,0.61962890625,-2.86865234375,3.96728515625,-5.0048828125,0.010986328125,45.384521484375,-80.3814697265625
1758877901.5358446,-0.77783203125,0.00732421875,0.61962890625,-2.86865234375,3.96728515625,-5.0048828125,-0.06591796875,45.4339599609375,-80.452880859375
1758877901.546124,-0.78515625,-0.0029296875,0.607421875,-5.4931640625,6.103515625,-4.57763671875,-0.1702880859375,45.50537109375,-80.5133056640625
1758877901.5557992,-0.78515625,-0.0029296875,0.607421875,-5.4931640625,6.103515625,-4.57763671875,-0.274658203125,45.582275390625,-80.5792236328125
1758877901.5655894,-0.763671875,-0.029296875,0.62841796875,-0.244140625,8.23974609375,-4.69970703125,-0.32958984375,45.68115234375,-80.6451416015625
1758877901.5760984,-0.763671875,-0.029296875,0.62841796875,-0.244140625,8.23974609375,-4.69970703125,-0.3790283203125,45.780029296875,-80.7110595703125
1758877901.5856378,-0.74462890625,-0.0322265625,0.64404296875,5.31005859375,9.27734375,-4.7607421875,-0.3790283203125,45.8843994140625,-80.782470703125
1758877901.5969791,-0.74462890625,-0.0322265625,0.64404296875,5.31005859375,9.27734375,-4.7607421875,-0.384521484375,45.9942626953125,-80.8538818359375
1758877901.606487,-0.72900390625,0.00537109375,0.6826171875,4.45556640625,9.1552734375,-4.45556640625,-0.3900146484375,46.0986328125,-80.9197998046875
1758877901.6167142,-0.72900390625,0.00537109375,0.6826171875,4.45556640625,9.1552734375,-4.45556640625,-0.3955078125,46.2030029296875,-80.9857177734375
1758877901.6256466,-0.71728515625,0.02490234375,0.6953125,-1.89208984375,8.23974609375,-3.2958984375,-0.450439453125,46.29638671875,-81.0296630859375
1758877901.6358392,-0.71728515625,0.02490234375,0.6953125,-1.89208984375,8.23974609375,-3.2958984375,-0.50537109375,46.3897705078125,-81.0736083984375
1758877901.6460748,-0.712890625,0.01513671875,0.70263671875,-12.5732421875,7.14111328125,-1.64794921875,-0.6427001953125,46.4666748046875,-81.090087890625
1758877901.6556792,-0.712890625,0.01513671875,0.70263671875,-12.5732421875,7.14111328125,-1.64794921875,-0.7855224609375,46.5435791015625,-81.1065673828125
1758877901.6656911,-0.7158203125,0.0009765625,0.70458984375,-20.3857421875,6.103515625,-0.30517578125,-0.98876953125,46.6094970703125,-81.10107421875
1758877901.676192,-0.7158203125,0.0009765625,0.70458984375,-20.3857421875,6.103515625,-0.30517578125,-1.1865234375,46.669921875,-81.0955810546875
1758877901.6857474,-0.7236328125,-0.01416015625,0.6767578125,-23.5595703125,5.55419921875,0.42724609375,-1.4117431640625,46.7303466796875,-81.0791015625
1758877901.6955667,-0.7236328125,-0.01416015625,0.6767578125,-23.5595703125,5.55419921875,0.42724609375,-1.636962890625,46.7852783203125,-81.0626220703125
1758877901.7060363,-0.72314453125,-0.0234375,0.66552734375,-21.484375,5.37109375,0.42724609375,-1.8402099609375,46.8402099609375,-81.046142578125
1758877901.715867,-0.72314453125,-0.0234375,0.66552734375,-21.484375,5.37109375,0.42724609375,-2.04345703125,46.8951416015625,-81.03515625
1758877901.7256653,-0.72314453125,-0.03564453125,0.67041015625,-17.333984375,5.55419921875,0.30517578125,-2.208251953125,46.9500732421875,-81.0186767578125
1758877901.7361248,-0.72314453125,-0.03564453125,0.67041015625,-17.333984375,5.55419921875,0.30517578125,-2.373046875,47.010498046875,-81.0076904296875
1758877901.746167,-0.7158203125,-0.04443359375,0.67333984375,-14.2822265625,5.615234375,0.30517578125,-2.5048828125,47.0654296875,-80.9912109375
1758877901.7557936,-0.7158203125,-0.04443359375,0.67333984375,-14.2822265625,5.615234375,0.30517578125,-2.6422119140625,47.120361328125,-80.980224609375
1758877901.7656868,-0.70703125,-0.044921875,0.69970703125,-11.71875,5.2490234375,0.30517578125,-2.7520751953125,47.1697998046875,-80.96923828125
1758877901.7767904,-0.70703125,-0.044921875,0.69970703125,-11.71875,5.2490234375,0.30517578125,-2.8619384765625,47.21923828125,-80.958251953125
1758877901.785954,-0.70556640625,-0.05615234375,0.7158203125,-6.53076171875,5.06591796875,0.0,-2.9278564453125,47.2686767578125,-80.9527587890625
1758877901.7956717,-0.70556640625,-0.05615234375,0.7158203125,-6.53076171875,5.06591796875,0.0,-2.98828125,47.3126220703125,-80.947265625
1758877901.8060544,-0.75927734375,-0.0615234375,0.69140625,1.89208984375,5.31005859375,-0.79345703125,-2.9827880859375,47.362060546875,-80.958251953125
1758877901.817146,-0.75927734375,-0.0615234375,0.69140625,1.89208984375,5.31005859375,-0.79345703125,-2.9718017578125,47.406005859375,-80.9637451171875
1758877901.8256974,-0.693359375,-0.060546875,0.642578125,10.009765625,6.34765625,-1.708984375,-2.8948974609375,47.4664306640625,-80.9912109375
1758877901.8358424,-0.693359375,-0.060546875,0.642578125,10.009765625,6.34765625,-1.708984375,-2.823486328125,47.5213623046875,-81.0186767578125
1758877901.846172,-0.7275390625,-0.0537109375,0.67138671875,20.5078125,6.4697265625,-3.11279296875,-2.65869140625,47.5762939453125,-81.068115234375
1758877901.8559082,-0.7275390625,-0.0537109375,0.67138671875,20.5078125,6.4697265625,-3.11279296875,-2.493896484375,47.63671875,-81.1175537109375
1758877901.8658338,-0.724609375,-0.04443359375,0.71240234375,26.55029296875,6.28662109375,-3.662109375,-2.2796630859375,47.691650390625,-81.177978515625
1758877901.8768587,-0.724609375,-0.04443359375,0.71240234375,26.55029296875,6.28662109375,-3.662109375,-2.0654296875,47.74658203125,-81.2384033203125
1758877901.8860834,-0.73046875,-0.0078125,0.6884765625,25.2685546875,5.79833984375,-3.96728515625,-1.86767578125,47.7960205078125,-81.298828125
1758877901.8958652,-0.73046875,-0.0078125,0.6884765625,25.2685546875,5.79833984375,-3.96728515625,-1.669921875,47.845458984375,-81.36474609375
1758877901.9064622,-0.7431640625,0.00244140625,0.6640625,24.90234375,5.0048828125,-4.150390625,-1.4776611328125,47.8839111328125,-81.4251708984375
1758877901.916105,-0.7431640625,0.00244140625,0.6640625,24.90234375,5.0048828125,-4.150390625,-1.2799072265625,47.9278564453125,-81.485595703125
1758877901.9258676,-0.74853515625,0.00634765625,0.64892578125,26.55029296875,4.33349609375,-4.21142578125,-1.0711669921875,47.96630859375,-81.5460205078125
1758877901.9362044,-0.74853515625,0.00634765625,0.64892578125,26.55029296875,4.33349609375,-4.21142578125,-0.8624267578125,48.0047607421875,-81.6064453125
1758877901.946249,-0.7646484375,-0.00927734375,0.6533203125,26.30615234375,3.2958984375,-4.69970703125,-0.6536865234375,48.0322265625,-81.67236328125
1758877901.9561799,-0.7646484375,-0.00927734375,0.6533203125,26.30615234375,3.2958984375,-4.69970703125,-0.4559326171875,48.0596923828125,-81.73828125
1758877901.965975,-0.78369140625,0.00927734375,0.68505859375,17.02880859375,2.13623046875,-4.638671875,-0.340576171875,48.0816650390625,-81.8096923828125
1758877901.9769578,-0.78369140625,0.00927734375,0.68505859375,17.02880859375,2.13623046875,-4.638671875,-0.230712890625,48.09814453125,-81.8756103515625
1758877901.9861715,-0.7890625,0.04736328125,0.65869140625,5.06591796875,1.28173828125,-4.45556640625,-0.230712890625,48.1146240234375,-81.93603515625
1758877901.9960203,-0.7890625,0.04736328125,0.65869140625,5.06591796875,1.28173828125,-4.45556640625,-0.230712890625,48.1256103515625,-81.990966796875
1758877902.0064125,-0.7822265625,0.0458984375,0.6220703125,-7.8125,0.6103515625,-3.72314453125,-0.3515625,48.1365966796875,-82.034912109375
1758877902.0162148,-0.7822265625,0.0458984375,0.6220703125,-7.8125,0.6103515625,-3.72314453125,-0.4669189453125,48.14208984375,-82.078857421875
1758877902.0259798,-0.76806640625,0.01953125,0.62060546875,-16.6015625,0.06103515625,-2.99072265625,-0.6591796875,48.153076171875,-82.1063232421875
1758877902.0361488,-0.76806640625,0.01953125,0.62060546875,-16.6015625,0.06103515625,-2.99072265625,-0.845947265625,48.1585693359375,-82.1337890625
1758877902.0463736,-0.76806640625,0.01953125,0.62060546875,-20.44677734375,-0.54931640625,-2.3193359375,-1.0711669921875,48.1585693359375,-82.1502685546875
1758877902.056135,-0.75732421875,-0.0234375,0.6484375,-20.44677734375,-0.54931640625,-2.3193359375,-1.2908935546875,48.1585693359375,-82.1722412109375
1758877902.0661278,-0.75537109375,-0.04345703125,0.65185546875,-20.6298828125,-0.91552734375,-1.52587890625,-1.505126953125,48.1585693359375,-82.177734375
1758877902.0771592,-0.75537109375,-0.04345703125,0.65185546875,-20.6298828125,-0.91552734375,-1.52587890625,-1.7193603515625,48.153076171875,-82.188720703125
1758877902.0862942,-0.74853515625,-0.05322265625,0.6611328125,-12.451171875,-1.0986328125,-1.28173828125,-1.856689453125,48.1475830078125,-82.19970703125
1758877902.096165,-0.74853515625,-0.05322265625,0.6611328125,-12.451171875,-1.0986328125,-1.28173828125,-1.988525390625,48.1475830078125,-82.210693359375
1758877902.1066701,-0.75146484375,-0.0625,0.6572265625,-4.0283203125,-0.91552734375,-1.15966796875,-2.0379638671875,48.14208984375,-82.2216796875
1758877902.1167867,-0.75146484375,-0.0625,0.6572265625,-4.0283203125,-0.91552734375,-1.15966796875,-2.0928955078125,48.1365966796875,-82.232666015625
1758877902.1261673,-0.74609375,-0.04443359375,0.65185546875,-0.6103515625,-0.8544921875,-0.91552734375,-2.109375,48.1365966796875,-82.24365234375
1758877902.1362522,-0.74609375,-0.04443359375,0.65185546875,-0.6103515625,-0.8544921875,-0.91552734375,-2.1258544921875,48.131103515625,-82.254638671875
1758877902.1464756,-0.73193359375,-0.0234375,0.6552734375,-1.708984375,-0.79345703125,-0.732421875,-2.1533203125,48.1256103515625,-82.2601318359375
1758877902.1561954,-0.73193359375,-0.0234375,0.6552734375,-1.708984375,-0.79345703125,-0.732421875,-2.17529296875,48.1256103515625,-82.2711181640625
1758877902.1662729,-0.73486328125,-0.0048828125,0.669921875,-5.0048828125,-0.6103515625,-0.1220703125,-2.230224609375,48.1201171875,-82.265625
1758877902.177746,-0.73486328125,-0.0048828125,0.669921875,-5.0048828125,-0.6103515625,-0.1220703125,-2.2796630859375,48.1201171875,-82.2601318359375
1758877902.1869745,-0.73388671875,-0.01904296875,0.70068359375,-6.9580078125,-0.30517578125,0.54931640625,-2.340087890625,48.1201171875,-82.24365234375
1758877902.197676,-0.73388671875,-0.01904296875,0.70068359375,-6.9580078125,-0.30517578125,0.54931640625,-2.4005126953125,48.1146240234375,-82.2271728515625
1758877902.2066803,-0.734375,-0.03759765625,0.6796875,-7.8125,0.1220703125,0.79345703125,-2.4664306640625,48.1201171875,-82.2052001953125
1758877902.2175694,-0.734375,-0.03759765625,0.6796875,-7.8125,0.1220703125,0.79345703125,-2.5323486328125,48.1201171875,-82.188720703125
1758877902.2264636,-0.7314453125,-0.04638671875,0.66259765625,-3.60107421875,0.91552734375,0.54931640625,-2.559814453125,48.1256103515625,-82.1722412109375
1758877902.2362797,-0.7314453125,-0.04638671875,0.66259765625,-3.60107421875,0.91552734375,0.54931640625,-2.5927734375,48.1365966796875,-82.1612548828125
1758877902.2469046,-0.73193359375,-0.04541015625,0.6630859375,2.99072265625,1.5869140625,0.30517578125,-2.559814453125,48.153076171875,-82.1502685546875
1758877902.2569144,-0.73193359375,-0.04541015625,0.6630859375,2.99072265625,1.5869140625,0.30517578125,-2.52685546875,48.1640625,-82.144775390625
1758877902.2664561,-0.72314453125,-0.0380859375,0.67041015625,6.04248046875,2.01416015625,0.42724609375,-2.4664306640625,48.18603515625,-82.1337890625
1758877902.276936,-0.72314453125,-0.0380859375,0.67041015625,6.04248046875,2.01416015625,0.42724609375,-2.4005126953125,48.2025146484375,-82.122802734375
1758877902.2870376,-0.71337890625,-0.02880859375,0.681640625,6.77490234375,2.25830078125,0.79345703125,-2.3291015625,48.218994140625,-82.11181640625
1758877902.2966852,-0.71337890625,-0.02880859375,0.681640625,6.77490234375,2.25830078125,0.79345703125,-2.2576904296875,48.240966796875,-82.0953369140625
1758877902.306599,-0.71337890625,-0.02880859375,0.681640625,7.75146484375,1.8310546875,1.28173828125,-2.1697998046875,48.251953125,-82.078857421875
1758877902.3173542,-0.74169921875,-0.03857421875,0.701171875,14.0380859375,0.67138671875,1.28173828125,-2.0489501953125,48.2574462890625,-82.056884765625
1758877902.3266041,-0.74169921875,-0.03857421875,0.701171875,14.0380859375,0.67138671875,1.28173828125,-1.900634765625,48.2574462890625,-82.034912109375
1758877902.3368099,-0.890625,-0.04345703125,0.61865234375,28.99169921875,1.3427734375,-0.06103515625,-1.6864013671875,48.262939453125,-82.02392578125
1758877902.3466067,-0.890625,-0.04345703125,0.61865234375,28.99169921875,1.3427734375,-0.06103515625,-1.40625,48.27392578125,-82.0294189453125
1758877902.3574092,-0.81103515625,-0.02783203125,0.4921875,37.4755859375,4.33349609375,-0.6103515625,-1.087646484375,48.306884765625,-82.0404052734375
1758877902.3665285,-0.81103515625,-0.02783203125,0.4921875,37.4755859375,4.33349609375,-0.6103515625,-0.736083984375,48.36181640625,-82.056884765625
1758877902.3774004,-0.76611328125,0.00634765625,0.60205078125,25.57373046875,6.4697265625,-0.30517578125,-0.439453125,48.427734375,-82.0733642578125
1758877902.386635,-0.76611328125,0.00634765625,0.60205078125,25.57373046875,6.4697265625,-0.30517578125,-0.2032470703125,48.504638671875,-82.08984375
1758877902.3968346,-0.7685546875,0.072265625,0.73974609375,10.07080078125,5.67626953125,0.06103515625,-0.0384521484375,48.5760498046875,-82.0953369140625
1758877902.4066596,-0.7685546875,0.072265625,0.73974609375,10.07080078125,5.67626953125,0.06103515625,0.0494384765625,48.6419677734375,-82.0953369140625
1758877902.4175403,-0.74462890625,0.07763671875,0.70947265625,-4.8828125,3.662109375,1.28173828125,0.076904296875,48.69140625,-82.078857421875
1758877902.4265354,-0.74462890625,0.07763671875,0.70947265625,-4.8828125,3.662109375,1.28173828125,0.0439453125,48.7353515625,-82.0513916015625
1758877902.437,-0.74853515625,0.03173828125,0.67236328125,-18.73779296875,2.3193359375,2.62451171875,-0.0384521484375,48.768310546875,-82.0074462890625
1758877902.4471397,-0.74853515625,0.03173828125,0.67236328125,-18.73779296875,2.3193359375,2.62451171875,-0.1922607421875,48.790283203125,-81.9580078125
1758877902.456933,-0.77587890625,-0.03076171875,0.65283203125,-19.10400390625,1.52587890625,3.35693359375,-0.340576171875,48.812255859375,-81.8975830078125
1758877902.4666462,-0.77587890625,-0.03076171875,0.65283203125,-19.10400390625,1.52587890625,3.35693359375,-0.4833984375,48.8287353515625,-81.8316650390625
1758877902.4779003,-0.7919921875,-0.060546875,0.59716796875,-15.19775390625,1.220703125,3.60107421875,-0.6097412109375,48.84521484375,-81.771240234375
1758877902.4870446,-0.7919921875,-0.060546875,0.59716796875,-15.19775390625,1.220703125,3.60107421875,-0.7196044921875,48.8616943359375,-81.71630859375
1758877902.4977412,-0.80224609375,-0.02978515625,0.5400390625,-10.55908203125,0.91552734375,3.0517578125,-0.81298828125,48.878173828125,-81.661376953125
1758877902.5069723,-0.80224609375,-0.02978515625,0.5400390625,-10.55908203125,0.91552734375,3.0517578125,-0.8843994140625,48.900146484375,-81.617431640625
1758877902.5179253,-0.802734375,0.00146484375,0.5478515625,-1.40380859375,0.79345703125,2.13623046875,-0.911865234375,48.922119140625,-81.5789794921875
1758877902.5267947,-0.802734375,0.00146484375,0.5478515625,-1.40380859375,0.79345703125,2.13623046875,-0.9063720703125,48.944091796875,-81.5460205078125
1758877902.5371525,-0.80029296875,0.00048828125,0.56298828125,3.96728515625,0.6103515625,1.52587890625,-0.867919921875,48.9715576171875,-81.5185546875
1758877902.5474422,-0.80029296875,0.00048828125,0.56298828125,3.96728515625,0.6103515625,1.52587890625,-0.81298828125,48.9935302734375,-81.4910888671875
1758877902.5570474,-0.779296875,-0.0029296875,0.6201171875,4.82177734375,0.3662109375,0.9765625,-0.7525634765625,49.02099609375,-81.474609375
1758877902.5667944,-0.779296875,-0.0029296875,0.6201171875,4.82177734375,0.3662109375,0.9765625,-0.692138671875,49.04296875,-81.4581298828125
1758877902.5775924,-0.7490234375,-0.00927734375,0.6845703125,2.38037109375,0.42724609375,0.91552734375,-0.648193359375,49.06494140625,-81.441650390625
1758877902.5868285,-0.7490234375,-0.00927734375,0.6845703125,2.38037109375,0.42724609375,0.91552734375,-0.615234375,49.0869140625,-81.4251708984375
1758877902.597158,-0.73681640625,0.013671875,0.69775390625,-3.35693359375,0.54931640625,0.67138671875,-0.6097412109375,49.1033935546875,-81.40869140625
1758877902.6068542,-0.73681640625,0.013671875,0.69775390625,-3.35693359375,0.54931640625,0.67138671875,-0.6317138671875,49.119873046875,-81.3922119140625
1758877902.6175852,-0.73779296875,0.0234375,0.68310546875,-3.2958984375,0.48828125,0.0,-0.6591796875,49.130859375,-81.38671875
1758877902.6268783,-0.73779296875,0.0234375,0.68310546875,-3.2958984375,0.48828125,0.0,-0.692138671875,49.141845703125,-81.375732421875
1758877902.6371636,-0.73095703125,0.0029296875,0.6669921875,1.40380859375,0.6103515625,-0.9765625,-0.6976318359375,49.15283203125,-81.375732421875
1758877902.6475232,-0.73095703125,0.0029296875,0.6669921875,1.40380859375,0.6103515625,-0.9765625,-0.692138671875,49.1583251953125,-81.3812255859375
1758877902.6572335,-0.72802734375,-0.01220703125,0.67041015625,5.79833984375,0.6103515625,-1.708984375,-0.6646728515625,49.163818359375,-81.3922119140625
1758877902.666876,-0.72802734375,-0.01220703125,0.67041015625,5.79833984375,0.6103515625,-1.708984375,-0.626220703125,49.1748046875,-81.40869140625
1758877902.6779735,-0.740234375,-0.01220703125,0.67626953125,5.92041015625,0.48828125,-1.77001953125,-0.582275390625,49.1748046875,-81.4306640625
1758877902.687136,-0.740234375,-0.01220703125,0.67626953125,5.92041015625,0.48828125,-1.77001953125,-0.5438232421875,49.1802978515625,-81.4471435546875
1758877902.6972716,-0.74169921875,-0.0126953125,0.69384765625,3.60107421875,0.42724609375,-1.64794921875,-0.5108642578125,49.1802978515625,-81.4691162109375
1758877902.7070212,-0.74169921875,-0.0126953125,0.69384765625,3.60107421875,0.42724609375,-1.64794921875,-0.494384765625,49.1802978515625,-81.485595703125
1758877902.7174022,-0.74462890625,0.00341796875,0.67578125,0.79345703125,0.79345703125,-1.52587890625,-0.4888916015625,49.1802978515625,-81.5020751953125
1758877902.7270212,-0.74462890625,0.00341796875,0.67578125,0.79345703125,0.79345703125,-1.52587890625,-0.4998779296875,49.185791015625,-81.5185546875
1758877902.737305,-0.740234375,0.0126953125,0.705078125,-1.0986328125,1.28173828125,-1.64794921875,-0.516357421875,49.1912841796875,-81.5350341796875
1758877902.7470922,-0.740234375,0.0126953125,0.705078125,-1.0986328125,1.28173828125,-1.64794921875,-0.5438232421875,49.19677734375,-81.5570068359375
1758877902.7579658,-0.75,0.01025390625,0.66845703125,-6.04248046875,2.38037109375,-1.5869140625,-0.5987548828125,49.207763671875,-81.5679931640625
1758877902.7670012,-0.75,0.01025390625,0.66845703125,-6.04248046875,2.38037109375,-1.5869140625,-0.670166015625,49.2242431640625,-81.58447265625
1758877902.7782075,-0.740234375,0.0205078125,0.68408203125,-12.39013671875,3.60107421875,-1.708984375,-0.7745361328125,49.2462158203125,-81.595458984375
1758877902.7874298,-0.740234375,0.0205078125,0.68408203125,-12.39013671875,3.60107421875,-1.708984375,-0.911865234375,49.273681640625,-81.6119384765625
1758877902.797431,-0.72998046875,0.01220703125,0.7021484375,-20.3857421875,4.7607421875,-1.15966796875,-1.087646484375,49.306640625,-81.617431640625
1758877902.8071856,-0.72998046875,0.01220703125,0.7021484375,-20.3857421875,4.7607421875,-1.15966796875,-1.2908935546875,49.3450927734375,-81.617431640625
1758877902.8176808,-0.72998046875,0.01220703125,0.7021484375,-25.57373046875,5.126953125,-0.8544921875,-1.5216064453125,49.3780517578125,-81.617431640625
1758877902.8271737,-0.71484375,-0.00390625,0.7255859375,-25.57373046875,5.126953125,-0.8544921875,-1.77978515625,49.41650390625,-81.6119384765625
1758877902.8374891,-0.701171875,-0.03955078125,0.71142578125,-21.484375,5.43212890625,-0.48828125,-2.0050048828125,49.4549560546875,-81.6064453125
1758877902.847805,-0.701171875,-0.03955078125,0.71142578125,-21.484375,5.43212890625,-0.48828125,-2.21923828125,49.493408203125,-81.6009521484375
1758877902.8574872,-0.70458984375,-0.06982421875,0.720703125,-14.58740234375,5.55419921875,-0.30517578125,-2.3895263671875,49.5318603515625,-81.5899658203125
1758877902.867236,-0.70458984375,-0.06982421875,0.720703125,-14.58740234375,5.55419921875,-0.30517578125,-2.5323486328125,49.5648193359375,-81.58447265625
1758877902.8783066,-0.703125,-0.0654296875,0.71533203125,-8.30078125,5.79833984375,0.0,-2.647705078125,49.603271484375,-81.5789794921875
1758877902.8873608,-0.703125,-0.0654296875,0.71533203125,-8.30078125,5.79833984375,0.0,-2.724609375,49.63623046875,-81.573486328125
1758877902.8975224,-0.70654296875,-0.0380859375,0.71337890625,-10.55908203125,5.615234375,0.3662109375,-2.8179931640625,49.669189453125,-81.5625
1758877902.9073691,-0.70654296875,-0.0380859375,0.71337890625,-10.55908203125,5.615234375,0.3662109375,-2.9168701171875,49.7021484375,-81.551513671875
1758877902.9180138,-0.708984375,-0.01025390625,0.70458984375,-13.5498046875,5.126953125,0.91552734375,-3.0267333984375,49.735107421875,-81.5350341796875
1758877902.9272578,-0.708984375,-0.01025390625,0.70458984375,-13.5498046875,5.126953125,0.91552734375,-3.1475830078125,49.757080078125,-81.5130615234375
1758877902.9376132,-0.69873046875,-0.02490234375,0.72216796875,-13.00048828125,3.7841796875,1.708984375,-3.2574462890625,49.779052734375,-81.4801025390625
1758877902.9480696,-0.69873046875,-0.02490234375,0.72216796875,-13.00048828125,3.7841796875,1.708984375,-3.36181640625,49.7900390625,-81.441650390625
1758877902.9576077,-0.708984375,-0.05517578125,0.712890625,-16.05224609375,2.197265625,2.9296875,-3.4716796875,49.7955322265625,-81.3922119140625
