timestamp,acc_x,acc_y,acc_z,gyro_x,gyro_y,gyro_z,angle_x,angle_y,angle_z
1758527868.7977765,0.52490234375,0.01318359375,0.85546875,-0.1220703125,0.06103515625,-0.06103515625,1.0107421875,-31.57470703125,-47.21923828125
1758527868.8089466,0.52294921875,0.01513671875,0.85205078125,0.0,0.0,-0.06103515625,1.0107421875,-31.57470703125,-47.21923828125
1758527868.8179586,0.52294921875,0.01513671875,0.85205078125,0.0,0.0,-0.06103515625,1.0107421875,-31.57470703125,-47.2247314453125
1758527868.828777,0.521484375,0.01806640625,0.84375,0.06103515625,-0.1220703125,-0.1220703125,1.0107421875,-31.5802001953125,-47.2247314453125
1758527868.839585,0.521484375,0.01806640625,0.84375,0.06103515625,-0.1220703125,-0.1220703125,1.0162353515625,-31.5802001953125,-47.2247314453125
1758527868.8524194,0.5224609375,0.01708984375,0.84912109375,-0.1220703125,-0.06103515625,-0.18310546875,1.0162353515625,-31.5802001953125,-47.2247314453125
1758527868.8616629,0.5224609375,0.01708984375,0.84912109375,-0.1220703125,-0.06103515625,-0.18310546875,1.0162353515625,-31.5802001953125,-47.2247314453125
1758527868.8689072,0.52880859375,0.01708984375,0.859375,-0.1220703125,0.0,-0.244140625,1.0162353515625,-31.5802001953125,-47.230224609375
1758527868.8760502,0.52880859375,0.01708984375,0.859375,-0.1220703125,0.0,-0.244140625,1.0162353515625,-31.5802001953125,-47.230224609375
1758527868.8860471,0.52685546875,0.0126953125,0.85791015625,-0.1220703125,-0.06103515625,-0.1220703125,1.0162353515625,-31.5802001953125,-47.230224609375
1758527868.8959765,0.52685546875,0.0126953125,0.85791015625,-0.1220703125,-0.06103515625,-0.1220703125,1.0162353515625,-31.5802001953125,-47.230224609375
1758527868.9059918,0.5244140625,0.01513671875,0.8515625,0.1220703125,-0.06103515625,-0.1220703125,1.0162353515625,-31.5802001953125,-47.2357177734375
1758527868.9174433,0.5244140625,0.01513671875,0.8515625,0.1220703125,-0.06103515625,-0.1220703125,1.021728515625,-31.585693359375,-47.2357177734375
1758527868.9260197,0.52587890625,0.01953125,0.8515625,0.30517578125,-0.18310546875,-0.18310546875,1.021728515625,-31.585693359375,-47.2357177734375
1758527868.936092,0.52587890625,0.01953125,0.8515625,0.30517578125,-0.18310546875,-0.18310546875,1.0272216796875,-31.585693359375,-47.2357177734375
1758527868.9464617,0.52490234375,0.0166015625,0.85595703125,-0.1220703125,-0.244140625,-0.30517578125,1.0272216796875,-31.5911865234375,-47.2412109375
1758527868.9560955,0.52490234375,0.0166015625,0.85595703125,-0.1220703125,-0.244140625,-0.30517578125,1.03271484375,-31.5911865234375,-47.2412109375
1758527868.9664924,0.525390625,0.015625,0.85302734375,-0.06103515625,-0.244140625,-0.244140625,1.03271484375,-31.5966796875,-47.2467041015625
1758527868.9760725,0.525390625,0.015625,0.85302734375,-0.06103515625,-0.244140625,-0.244140625,1.03271484375,-31.5966796875,-47.2467041015625
1758527868.986078,0.52490234375,0.015625,0.8525390625,0.0,-0.244140625,-0.18310546875,1.03271484375,-31.5966796875,-47.2467041015625
1758527868.9960637,0.52490234375,0.015625,0.8525390625,0.0,-0.244140625,-0.18310546875,1.0382080078125,-31.6021728515625,-47.252197265625
1758527869.0061595,0.5263671875,0.01318359375,0.8505859375,0.06103515625,-0.244140625,-0.1220703125,1.0382080078125,-31.6021728515625,-47.252197265625
1758527869.016143,0.5263671875,0.01318359375,0.8505859375,0.06103515625,-0.244140625,-0.1220703125,1.0382080078125,-31.607666015625,-47.252197265625
1758527869.0261014,0.52685546875,0.0166015625,0.85302734375,0.0,-0.244140625,-0.1220703125,1.0382080078125,-31.607666015625,-47.252197265625
1758527869.0361307,0.52685546875,0.0166015625,0.85302734375,0.0,-0.244140625,-0.1220703125,1.043701171875,-31.6131591796875,-47.252197265625
1758527869.0461266,0.52734375,0.017578125,0.8583984375,0.244140625,-0.3662109375,-0.18310546875,1.043701171875,-31.6131591796875,-47.2576904296875
1758527869.0561345,0.52734375,0.017578125,0.8583984375,0.244140625,-0.3662109375,-0.18310546875,1.0491943359375,-31.61865234375,-47.2576904296875
1758527869.0661638,0.52734375,0.017578125,0.8583984375,0.244140625,-0.48828125,-0.06103515625,1.0491943359375,-31.6241455078125,-47.2576904296875
1758527869.076179,0.52783203125,0.0146484375,0.8564453125,0.244140625,-0.48828125,-0.06103515625,1.0546875,-31.629638671875,-47.26318359375
1758527869.086148,0.5283203125,0.01806640625,0.85302734375,0.18310546875,-0.54931640625,0.0,1.0546875,-31.6351318359375,-47.26318359375
1758527869.096168,0.5283203125,0.01806640625,0.85302734375,0.18310546875,-0.54931640625,0.0,1.0601806640625,-31.640625,-47.26318359375
1758527869.1061807,0.52587890625,0.0146484375,0.85498046875,0.18310546875,-0.48828125,0.0,1.0601806640625,-31.6461181640625,-47.26318359375
1758527869.1161933,0.52587890625,0.0146484375,0.85498046875,0.18310546875,-0.48828125,0.0,1.0601806640625,-31.651611328125,-47.26318359375
1758527869.126195,0.53076171875,0.01513671875,0.85546875,-0.06103515625,-0.48828125,0.0,1.0601806640625,-31.651611328125,-47.26318359375
1758527869.1362195,0.53076171875,0.01513671875,0.85546875,-0.06103515625,-0.48828125,0.0,1.0601806640625,-31.6571044921875,-47.26318359375
1758527869.1462412,0.5283203125,0.01416015625,0.8564453125,0.0,-0.67138671875,0.06103515625,1.0601806640625,-31.6680908203125,-47.26318359375
1758527869.1562588,0.5283203125,0.01416015625,0.8564453125,0.0,-0.67138671875,0.06103515625,1.0601806640625,-31.673583984375,-47.26318359375
1758527869.1662776,0.5322265625,0.021484375,0.85546875,0.18310546875,-0.8544921875,0.06103515625,1.0601806640625,-31.6790771484375,-47.26318359375
1758527869.1762946,0.5322265625,0.021484375,0.85546875,0.18310546875,-0.8544921875,0.06103515625,1.065673828125,-31.6900634765625,-47.26318359375
1758527869.1863015,0.53173828125,0.0244140625,0.865234375,-0.67138671875,-0.8544921875,0.06103515625,1.0546875,-31.7010498046875,-47.26318359375
1758527869.1963308,0.53173828125,0.0244140625,0.865234375,-0.67138671875,-0.8544921875,0.06103515625,1.0491943359375,-31.70654296875,-47.26318359375
1758527869.2063255,0.5517578125,0.009765625,0.86962890625,-2.01416015625,-1.03759765625,0.244140625,1.03271484375,-31.717529296875,-47.2576904296875
1758527869.2163506,0.5517578125,0.009765625,0.86962890625,-2.01416015625,-1.03759765625,0.244140625,1.0107421875,-31.728515625,-47.2576904296875
1758527869.2263508,0.54150390625,0.009765625,0.89111328125,-2.50244140625,-1.46484375,0.54931640625,0.9832763671875,-31.7449951171875,-47.252197265625
1758527869.2363718,0.54150390625,0.009765625,0.89111328125,-2.50244140625,-1.46484375,0.54931640625,0.955810546875,-31.7559814453125,-47.2467041015625
1758527869.2463822,0.556640625,0.01806640625,0.87744140625,-3.23486328125,-2.197265625,0.54931640625,0.9173583984375,-31.7779541015625,-47.2412109375
1758527869.2563915,0.556640625,0.01806640625,0.87744140625,-3.23486328125,-2.197265625,0.54931640625,0.8843994140625,-31.7999267578125,-47.2357177734375
1758527869.2664113,0.568359375,0.01708984375,0.90185546875,-2.74658203125,-3.23486328125,0.3662109375,0.85693359375,-31.8328857421875,-47.230224609375
1758527869.2764108,0.568359375,0.01708984375,0.90185546875,-2.74658203125,-3.23486328125,0.3662109375,0.8294677734375,-31.8658447265625,-47.230224609375
1758527869.2864225,0.56396484375,0.01953125,0.912109375,-3.72314453125,-3.90625,0.42724609375,0.791015625,-31.904296875,-47.2247314453125
1758527869.2964478,0.56396484375,0.01953125,0.912109375,-3.72314453125,-3.90625,0.42724609375,0.7525634765625,-31.9427490234375,-47.21923828125
1758527869.30652,0.56640625,0.0078125,0.89453125,-3.90625,-4.45556640625,0.54931640625,0.714111328125,-31.9921875,-47.2137451171875
1758527869.316488,0.56640625,0.0078125,0.89453125,-3.90625,-4.45556640625,0.54931640625,0.670166015625,-32.0361328125,-47.208251953125
1758527869.3265438,0.55810546875,0.00537109375,0.890625,-5.126953125,-5.06591796875,0.67138671875,0.6207275390625,-32.0855712890625,-47.2027587890625
1758527869.3365805,0.55810546875,0.00537109375,0.890625,-5.126953125,-5.06591796875,0.67138671875,0.5657958984375,-32.135009765625,-47.197265625
1758527869.3465846,0.5546875,0.01904296875,0.87451171875,-5.37109375,-5.7373046875,0.54931640625,0.5108642578125,-32.18994140625,-47.1917724609375
1758527869.356563,0.5546875,0.01904296875,0.87451171875,-5.37109375,-5.7373046875,0.54931640625,0.4559326171875,-32.244873046875,-47.186279296875
1758527869.366603,0.55224609375,0.00830078125,0.873046875,-4.69970703125,-6.4697265625,0.48828125,0.406494140625,-32.310791015625,-47.1807861328125
1758527869.376605,0.55224609375,0.00830078125,0.873046875,-4.69970703125,-6.4697265625,0.48828125,0.362548828125,-32.3712158203125,-47.17529296875
1758527869.3865907,0.55712890625,0.00537109375,0.859375,-6.16455078125,-7.080078125,0.48828125,0.3021240234375,-32.442626953125,-47.1697998046875
1758527869.3967173,0.55712890625,0.00537109375,0.859375,-6.16455078125,-7.080078125,0.48828125,0.24169921875,-32.5140380859375,-47.164306640625
1758527869.40668,0.56494140625,-0.00390625,0.8740234375,-4.7607421875,-7.38525390625,0.3662109375,0.1922607421875,-32.58544921875,-47.1588134765625
1758527869.4167805,0.56494140625,-0.00390625,0.8740234375,-4.7607421875,-7.38525390625,0.3662109375,0.142822265625,-32.6568603515625,-47.1533203125
1758527869.4267197,0.5576171875,0.0078125,0.8828125,-4.69970703125,-7.568359375,0.1220703125,0.098876953125,-32.728271484375,-47.1533203125
1758527869.4368353,0.5576171875,0.0078125,0.8828125,-4.69970703125,-7.568359375,0.1220703125,0.054931640625,-32.80517578125,-47.1533203125
1758527869.4469998,0.56982421875,0.01708984375,0.86328125,-6.16455078125,-8.23974609375,0.1220703125,0.0,-32.882080078125,-47.1533203125
1758527869.4567375,0.56982421875,0.01708984375,0.86328125,-6.16455078125,-8.23974609375,0.1220703125,-0.054931640625,-32.9644775390625,-47.1533203125
1758527869.4668188,0.54736328125,-0.0009765625,0.82861328125,-9.09423828125,-8.60595703125,0.06103515625,-0.142822265625,-33.046875,-47.1533203125
1758527869.477243,0.54736328125,-0.0009765625,0.82861328125,-9.09423828125,-8.60595703125,0.06103515625,-0.230712890625,-33.1292724609375,-47.1533203125
1758527869.4867456,0.5712890625,-0.00390625,0.86181640625,-7.62939453125,-9.21630859375,0.0,-0.3021240234375,-33.2171630859375,-47.1533203125
1758527869.496777,0.5712890625,-0.00390625,0.86181640625,-7.62939453125,-9.21630859375,0.0,-0.37353515625,-33.310546875,-47.1533203125
1758527869.507082,0.56982421875,-0.00341796875,0.8603515625,-6.4697265625,-9.521484375,0.0,-0.4339599609375,-33.4039306640625,-47.1533203125
1758527869.51679,0.56982421875,-0.00341796875,0.8603515625,-6.4697265625,-9.521484375,0.0,-0.494384765625,-33.4918212890625,-47.1533203125
1758527869.5267894,0.5556640625,-0.01953125,0.849609375,-6.34765625,-9.8876953125,0.0,-0.5548095703125,-33.5906982421875,-47.1533203125
1758527869.536985,0.5556640625,-0.01953125,0.849609375,-6.34765625,-9.8876953125,0.0,-0.615234375,-33.68408203125,-47.1533203125
1758527869.546842,0.55322265625,0.00146484375,0.822265625,-5.55419921875,-10.009765625,0.48828125,-0.670166015625,-33.7774658203125,-47.142333984375
1758527869.5569606,0.55322265625,0.00146484375,0.822265625,-5.55419921875,-10.009765625,0.48828125,-0.72509765625,-33.8763427734375,-47.1368408203125
1758527869.5672855,0.57177734375,-0.01171875,0.82421875,-4.33349609375,-10.009765625,0.48828125,-0.76904296875,-33.9697265625,-47.13134765625
1758527869.5769167,0.57177734375,-0.01171875,0.82421875,-4.33349609375,-10.009765625,0.48828125,-0.81298828125,-34.068603515625,-47.1258544921875
1758527869.586911,0.56005859375,-0.0224609375,0.81494140625,-2.74658203125,-9.58251953125,0.67138671875,-0.8404541015625,-34.1619873046875,-47.1148681640625
1758527869.5973215,0.56005859375,-0.0224609375,0.81494140625,-2.74658203125,-9.58251953125,0.67138671875,-0.8734130859375,-34.25537109375,-47.109375
1758527869.6069689,0.60400390625,-0.04150390625,0.87548828125,-2.13623046875,-9.6435546875,0.79345703125,-0.8953857421875,-34.34326171875,-47.098388671875
1758527869.6169848,0.60400390625,-0.04150390625,0.87548828125,-2.13623046875,-9.6435546875,0.79345703125,-0.9228515625,-34.4366455078125,-47.08740234375
1758527869.6270359,0.61865234375,-0.02978515625,0.89306640625,-2.3193359375,-10.1318359375,1.220703125,-0.955810546875,-34.5355224609375,-47.076416015625
1758527869.63711,0.61865234375,-0.02978515625,0.89306640625,-2.3193359375,-10.1318359375,1.220703125,-0.98876953125,-34.6343994140625,-47.0599365234375
1758527869.6471276,0.6201171875,-0.01806640625,0.86865234375,1.64794921875,-10.92529296875,1.46484375,-0.9832763671875,-34.73876953125,-47.04345703125
1758527869.657046,0.6201171875,-0.01806640625,0.86865234375,1.64794921875,-10.92529296875,1.46484375,-0.9832763671875,-34.8431396484375,-47.021484375
1758527869.667367,0.619140625,-0.02392578125,0.89501953125,4.8828125,-11.962890625,1.953125,-0.9503173828125,-34.95849609375,-46.99951171875
1758527869.6770656,0.619140625,-0.02392578125,0.89501953125,4.8828125,-11.962890625,1.953125,-0.9173583984375,-35.0738525390625,-46.9720458984375
1758527869.6871357,0.6064453125,-0.01904296875,0.857421875,3.72314453125,-12.51220703125,2.44140625,-0.90087890625,-35.1947021484375,-46.944580078125
1758527869.6971877,0.6064453125,-0.01904296875,0.857421875,3.72314453125,-12.51220703125,2.44140625,-0.8843994140625,-35.3155517578125,-46.91162109375
1758527869.7071207,0.56591796875,-0.02880859375,0.787109375,2.99072265625,-12.14599609375,2.685546875,-0.8734130859375,-35.430908203125,-46.878662109375
1758527869.7171154,0.58935546875,-0.0166015625,0.8447265625,2.38037109375,-11.71875,2.685546875,-0.8734130859375,-35.5462646484375,-46.845703125
1758527869.7271738,0.58935546875,-0.0166015625,0.8447265625,2.38037109375,-11.71875,2.685546875,-0.867919921875,-35.6561279296875,-46.8182373046875
1758527869.7370977,0.56787109375,0.015625,0.80126953125,0.30517578125,-12.02392578125,3.11279296875,-0.87890625,-35.771484375,-46.77978515625
1758527869.7471793,0.56787109375,0.015625,0.80126953125,0.30517578125,-12.02392578125,3.11279296875,-0.90087890625,-35.88134765625,-46.746826171875
1758527869.7571952,0.5625,0.001953125,0.7744140625,-2.38037109375,-12.14599609375,3.60107421875,-0.9393310546875,-35.9967041015625,-46.702880859375
1758527869.7672129,0.5625,0.001953125,0.7744140625,-2.38037109375,-12.14599609375,3.60107421875,-0.98876953125,-36.112060546875,-46.658935546875
1758527869.7771297,0.55908203125,0.00146484375,0.7626953125,-5.37109375,-11.90185546875,3.47900390625,-1.0491943359375,-36.221923828125,-46.6204833984375
1758527869.787162,0.55908203125,0.00146484375,0.7626953125,-5.37109375,-11.90185546875,3.47900390625,-1.131591796875,-36.331787109375,-46.5765380859375
1758527869.797322,0.58154296875,-0.009765625,0.724609375,-4.45556640625,-11.1083984375,2.25830078125,-1.197509765625,-36.441650390625,-46.5435791015625
1758527869.8072562,0.58154296875,-0.009765625,0.724609375,-4.45556640625,-11.1083984375,2.25830078125,-1.2579345703125,-36.5460205078125,-46.51611328125
1758527869.8172553,0.5791015625,-0.03125,0.7900390625,-5.06591796875,-10.8642578125,1.953125,-1.318359375,-36.650390625,-46.4886474609375
1758527869.8273613,0.5791015625,-0.03125,0.7900390625,-5.06591796875,-10.8642578125,1.953125,-1.3787841796875,-36.7547607421875,-46.4666748046875
1758527869.8372898,0.5986328125,0.00341796875,0.79833984375,-6.4697265625,-10.92529296875,1.28173828125,-1.4501953125,-36.859130859375,-46.4447021484375
1758527869.8473182,0.5986328125,0.00341796875,0.79833984375,-6.4697265625,-10.92529296875,1.28173828125,-1.5216064453125,-36.9635009765625,-46.42822265625
1758527869.8574047,0.60107421875,-0.02001953125,0.78515625,-4.57763671875,-10.92529296875,0.8544921875,-1.58203125,-37.06787109375,-46.417236328125
1758527869.867351,0.60107421875,-0.02001953125,0.78515625,-4.57763671875,-10.92529296875,0.8544921875,-1.6314697265625,-37.166748046875,-46.40625
1758527869.8773088,0.607421875,-0.01611328125,0.78564453125,-6.40869140625,-10.80322265625,0.54931640625,-1.6864013671875,-37.2711181640625,-46.395263671875
1758527869.887844,0.607421875,-0.01611328125,0.78564453125,-6.40869140625,-10.80322265625,0.54931640625,-1.7523193359375,-37.37548828125,-46.38427734375
1758527869.8974197,0.60546875,-0.03173828125,0.7939453125,-4.638671875,-10.986328125,0.3662109375,-1.8072509765625,-37.4798583984375,-46.3787841796875
1758527869.90758,0.60546875,-0.03173828125,0.7939453125,-4.638671875,-10.986328125,0.3662109375,-1.856689453125,-37.584228515625,-46.373291015625
1758527869.917367,0.62109375,-0.037109375,0.79248046875,-2.8076171875,-10.43701171875,0.18310546875,-1.8951416015625,-37.68310546875,-46.3677978515625
1758527869.92749,0.62109375,-0.037109375,0.79248046875,-2.8076171875,-10.43701171875,0.18310546875,-1.922607421875,-37.781982421875,-46.3623046875
1758527869.9374235,0.634765625,-0.01904296875,0.794921875,-5.126953125,-10.25390625,-0.06103515625,-1.9610595703125,-37.880859375,-46.3623046875
1758527869.9474545,0.634765625,-0.01904296875,0.794921875,-5.126953125,-10.25390625,-0.06103515625,-2.010498046875,-37.979736328125,-46.3623046875
1758527869.9575212,0.64501953125,-0.03369140625,0.81201171875,-3.72314453125,-10.80322265625,0.1220703125,-2.054443359375,-38.07861328125,-46.3568115234375
1758527869.967484,0.64501953125,-0.03369140625,0.81201171875,-3.72314453125,-10.80322265625,0.1220703125,-2.0928955078125,-38.1829833984375,-46.3568115234375
1758527869.977396,0.6435546875,-0.05322265625,0.80029296875,-2.9296875,-10.986328125,0.48828125,-2.13134765625,-38.287353515625,-46.3458251953125
1758527869.987428,0.6435546875,-0.05322265625,0.80029296875,-2.9296875,-10.986328125,0.48828125,-2.164306640625,-38.397216796875,-46.3348388671875
1758527869.9974816,0.6484375,-0.03857421875,0.7890625,1.77001953125,-10.80322265625,0.54931640625,-2.17529296875,-38.5015869140625,-46.329345703125
1758527870.0075264,0.6484375,-0.03857421875,0.7890625,1.77001953125,-10.80322265625,0.54931640625,-2.164306640625,-38.6004638671875,-46.318359375
1758527870.0175161,0.6513671875,-0.044921875,0.79931640625,3.23486328125,-10.7421875,0.48828125,-2.1478271484375,-38.704833984375,-46.307373046875
1758527870.027579,0.6513671875,-0.044921875,0.79931640625,3.23486328125,-10.7421875,0.48828125,-2.1258544921875,-38.8092041015625,-46.29638671875
1758527870.0375352,0.64404296875,-0.04443359375,0.7822265625,7.4462890625,-11.16943359375,0.48828125,-2.0819091796875,-38.91357421875,-46.285400390625
1758527870.0475583,0.64404296875,-0.04443359375,0.7822265625,7.4462890625,-11.16943359375,0.48828125,-2.0159912109375,-39.0234375,-46.2744140625
1758527870.05774,0.63623046875,-0.01611328125,0.77197265625,8.9111328125,-11.3525390625,0.79345703125,-1.944580078125,-39.13330078125,-46.263427734375
1758527870.0676267,0.63623046875,-0.01611328125,0.77197265625,8.9111328125,-11.3525390625,0.79345703125,-1.86767578125,-39.2431640625,-46.25244140625
1758527870.0775578,0.62890625,-0.0244140625,0.7724609375,2.74658203125,-10.986328125,0.91552734375,-1.82373046875,-39.3475341796875,-46.2359619140625
1758527870.087841,0.62890625,-0.0244140625,0.7724609375,2.74658203125,-10.986328125,0.91552734375,-1.8072509765625,-39.4573974609375,-46.2249755859375
1758527870.0976672,0.6298828125,-0.01513671875,0.76611328125,1.953125,-10.7421875,1.15966796875,-1.7962646484375,-39.5562744140625,-46.20849609375
1758527870.1076574,0.6298828125,-0.01513671875,0.76611328125,1.953125,-10.7421875,1.15966796875,-1.790771484375,-39.66064453125,-46.1920166015625
1758527870.1176734,0.6162109375,-0.04931640625,0.7333984375,6.4697265625,-10.43701171875,1.15966796875,-1.7633056640625,-39.759521484375,-46.175537109375
1758527870.1277666,0.6162109375,-0.04931640625,0.7333984375,6.4697265625,-10.43701171875,1.15966796875,-1.7138671875,-39.8583984375,-46.1590576171875
1758527870.1376941,0.615234375,-0.0322265625,0.72314453125,7.32421875,-10.07080078125,1.220703125,-1.6644287109375,-39.957275390625,-46.1480712890625
1758527870.147697,0.615234375,-0.0322265625,0.72314453125,7.32421875,-10.07080078125,1.220703125,-1.60400390625,-40.0506591796875,-46.131591796875
1758527870.158035,0.62890625,-0.02685546875,0.73779296875,8.7890625,-9.70458984375,0.91552734375,-1.5435791015625,-40.14404296875,-46.1151123046875
1758527870.1677625,0.62890625,-0.02685546875,0.73779296875,8.7890625,-9.70458984375,0.91552734375,-1.4666748046875,-40.2374267578125,-46.1041259765625
1758527870.1776822,0.63916015625,-0.02001953125,0.7587890625,8.4228515625,-9.1552734375,0.732421875,-1.395263671875,-40.3253173828125,-46.0986328125
1758527870.1879008,0.63916015625,-0.02001953125,0.7587890625,8.4228515625,-9.1552734375,0.732421875,-1.3238525390625,-40.4132080078125,-46.087646484375
1758527870.1977758,0.65185546875,0.0048828125,0.76123046875,5.859375,-8.544921875,0.54931640625,-1.2689208984375,-40.49560546875,-46.087646484375
1758527870.2079437,0.65185546875,0.0048828125,0.76123046875,5.859375,-8.544921875,0.54931640625,-1.219482421875,-40.5780029296875,-46.0821533203125
1758527870.217825,0.68310546875,0.02392578125,0.77294921875,-0.54931640625,-8.6669921875,0.54931640625,-1.2030029296875,-40.660400390625,-46.07666015625
1758527870.2278383,0.68310546875,0.02392578125,0.77294921875,-0.54931640625,-8.6669921875,0.54931640625,-1.2139892578125,-40.7427978515625,-46.0711669921875
1758527870.237816,0.68603515625,0.015625,0.76220703125,-10.3759765625,-9.33837890625,0.3662109375,-1.2689208984375,-40.8251953125,-46.0711669921875
1758527870.2478735,0.68603515625,0.015625,0.76220703125,-10.3759765625,-9.33837890625,0.3662109375,-1.3787841796875,-40.9185791015625,-46.065673828125
1758527870.2577817,0.69091796875,-0.02294921875,0.77099609375,-9.21630859375,-9.8876953125,0.06103515625,-1.47216796875,-41.011962890625,-46.065673828125
1758527870.2680266,0.69091796875,-0.02294921875,0.77099609375,-9.21630859375,-9.8876953125,0.06103515625,-1.5655517578125,-41.1053466796875,-46.065673828125
1758527870.2778387,0.6923828125,-0.06005859375,0.78125,-1.3427734375,-10.43701171875,0.0,-1.614990234375,-41.2042236328125,-46.065673828125
1758527870.2878633,0.6923828125,-0.06005859375,0.78125,-1.3427734375,-10.43701171875,0.0,-1.6314697265625,-41.30859375,-46.0601806640625
1758527870.2979836,0.69677734375,-0.05322265625,0.77978515625,5.55419921875,-11.04736328125,-0.1220703125,-1.6094970703125,-41.4129638671875,-46.0601806640625
1758527870.3079827,0.69677734375,-0.05322265625,0.77978515625,5.55419921875,-11.04736328125,-0.1220703125,-1.5545654296875,-41.517333984375,-46.065673828125
1758527870.3179114,0.66748046875,-0.01708984375,0.71484375,3.96728515625,-11.29150390625,-0.3662109375,-1.5106201171875,-41.627197265625,-46.065673828125
1758527870.328065,0.66748046875,-0.01708984375,0.71484375,3.96728515625,-11.29150390625,-0.3662109375,-1.47216796875,-41.737060546875,-46.0711669921875
1758527870.3379266,0.6787109375,-0.0224609375,0.734375,5.7373046875,-12.14599609375,-0.67138671875,-1.42822265625,-41.8524169921875,-46.07666015625
1758527870.348019,0.6787109375,-0.0224609375,0.734375,5.7373046875,-12.14599609375,-0.67138671875,-1.3677978515625,-41.9732666015625,-46.0821533203125
1758527870.3579392,0.6767578125,-0.0419921875,0.72021484375,11.04736328125,-13.48876953125,-0.91552734375,-1.285400390625,-42.099609375,-46.087646484375
1758527870.3682964,0.6767578125,-0.0419921875,0.72021484375,11.04736328125,-13.48876953125,-0.91552734375,-1.1700439453125,-42.2314453125,-46.0986328125
1758527870.3779964,0.6552734375,-0.00537109375,0.7197265625,7.14111328125,-14.22119140625,-1.0986328125,-1.0821533203125,-42.3687744140625,-46.109619140625
1758527870.3883324,0.6552734375,-0.00537109375,0.7197265625,7.14111328125,-14.22119140625,-1.0986328125,-1.0052490234375,-42.506103515625,-46.12060546875
1758527870.398121,0.66259765625,0.01953125,0.6845703125,1.5869140625,-14.22119140625,-0.732421875,-0.9613037109375,-42.6434326171875,-46.131591796875
1758527870.408199,0.66259765625,0.01953125,0.6845703125,1.5869140625,-14.22119140625,-0.732421875,-0.94482421875,-42.7862548828125,-46.142578125
1758527870.4181545,0.66552734375,0.00048828125,0.716796875,0.48828125,-14.2822265625,-0.79345703125,-0.9283447265625,-42.923583984375,-46.153564453125
1758527870.428162,0.66552734375,0.00048828125,0.716796875,0.48828125,-14.2822265625,-0.79345703125,-0.9228515625,-43.06640625,-46.1590576171875
1758527870.438193,0.67724609375,-0.021484375,0.70849609375,3.23486328125,-13.916015625,-1.52587890625,-0.8953857421875,-43.2037353515625,-46.175537109375
1758527870.4481354,0.67724609375,-0.021484375,0.70849609375,3.23486328125,-13.916015625,-1.52587890625,-0.8514404296875,-43.3355712890625,-46.197509765625
1758527870.4580932,0.67626953125,-0.029296875,0.72314453125,4.39453125,-12.939453125,-2.197265625,-0.7965087890625,-43.4674072265625,-46.219482421875
1758527870.4684334,0.67626953125,-0.029296875,0.72314453125,4.39453125,-12.939453125,-2.197265625,-0.736083984375,-43.59375,-46.25244140625
1758527870.478187,0.66796875,-0.01220703125,0.71533203125,0.18310546875,-11.962890625,-2.3193359375,-0.6976318359375,-43.7091064453125,-46.285400390625
1758527870.4881973,0.66796875,-0.01220703125,0.71533203125,0.18310546875,-11.962890625,-2.3193359375,-0.68115234375,-43.824462890625,-46.318359375
1758527870.4986494,0.66796875,-0.01220703125,0.71533203125,-1.953125,-11.77978515625,-1.953125,-0.6756591796875,-43.9398193359375,-46.3458251953125
1758527870.5082238,0.685546875,0.03173828125,0.6484375,-1.953125,-11.77978515625,-1.953125,-0.6756591796875,-44.0496826171875,-46.373291015625
1758527870.518301,0.69677734375,-0.02783203125,0.6962890625,1.8310546875,-11.474609375,-2.0751953125,-0.6591796875,-44.1650390625,-46.4007568359375
1758527870.5284855,0.69677734375,-0.02783203125,0.6962890625,1.8310546875,-11.474609375,-2.0751953125,-0.6207275390625,-44.27490234375,-46.42822265625
1758527870.5382879,0.72412109375,-0.0498046875,0.7548828125,7.99560546875,-10.55908203125,-2.13623046875,-0.5548095703125,-44.3792724609375,-46.4556884765625
1758527870.5482688,0.72412109375,-0.0498046875,0.7548828125,7.99560546875,-10.55908203125,-2.13623046875,-0.46142578125,-44.483642578125,-46.4886474609375
1758527870.5582418,0.7158203125,-0.05859375,0.744140625,11.16943359375,-9.033203125,-2.3193359375,-0.3515625,-44.5770263671875,-46.51611328125
1758527870.5686495,0.7158203125,-0.05859375,0.744140625,11.16943359375,-9.033203125,-2.3193359375,-0.2252197265625,-44.6649169921875,-46.549072265625
1758527870.5783093,0.71533203125,0.04638671875,0.705078125,5.18798828125,-8.36181640625,-2.44140625,-0.1318359375,-44.7418212890625,-46.5875244140625
1758527870.58843,0.71533203125,0.04638671875,0.705078125,5.18798828125,-8.36181640625,-2.44140625,-0.0604248046875,-44.82421875,-46.6204833984375
1758527870.598473,0.71630859375,0.06640625,0.69921875,0.91552734375,-8.36181640625,-1.28173828125,-0.0164794921875,-44.901123046875,-46.64794921875
1758527870.6083834,0.71630859375,0.06640625,0.69921875,0.91552734375,-8.36181640625,-1.28173828125,0.0,-44.9835205078125,-46.6644287109375
1758527870.6183646,0.72021484375,-0.03076171875,0.71337890625,-7.26318359375,-7.080078125,0.3662109375,-0.02197265625,-45.054931640625,-46.6754150390625
1758527870.62849,0.72021484375,-0.03076171875,0.71337890625,-7.26318359375,-7.080078125,0.3662109375,-0.098876953125,-45.120849609375,-46.669921875
1758527870.6383893,0.6943359375,-0.01708984375,0.677734375,-6.40869140625,-5.92041015625,1.46484375,-0.1812744140625,-45.1812744140625,-46.658935546875
1758527870.6484456,0.6943359375,-0.01708984375,0.677734375,-6.40869140625,-5.92041015625,1.46484375,-0.2581787109375,-45.24169921875,-46.636962890625
1758527870.6584098,0.68310546875,-0.00390625,0.6669921875,-9.27734375,-5.06591796875,2.44140625,-0.3570556640625,-45.2911376953125,-46.6094970703125
1758527870.6687357,0.68310546875,-0.00390625,0.6669921875,-9.27734375,-5.06591796875,2.44140625,-0.4779052734375,-45.340576171875,-46.571044921875
1758527870.6784916,0.72607421875,0.01171875,0.677734375,-10.07080078125,-3.84521484375,3.41796875,-0.604248046875,-45.3790283203125,-46.5325927734375
1758527870.6885173,0.72607421875,0.01171875,0.677734375,-10.07080078125,-3.84521484375,3.41796875,-0.736083984375,-45.41748046875,-46.483154296875
1758527870.69901,0.7265625,-0.0126953125,0.75146484375,-11.474609375,-3.2958984375,3.84521484375,-0.889892578125,-45.450439453125,-46.42822265625
1758527870.7085176,0.7265625,-0.0126953125,0.75146484375,-11.474609375,-3.2958984375,3.84521484375,-1.0382080078125,-45.4779052734375,-46.373291015625
1758527870.7185361,0.7373046875,-0.02880859375,0.69287109375,-13.48876953125,-3.5400390625,4.21142578125,-1.2139892578125,-45.5108642578125,-46.3128662109375
1758527870.7287722,0.7373046875,-0.02880859375,0.69287109375,-13.48876953125,-3.5400390625,4.21142578125,-1.3897705078125,-45.5438232421875,-46.25244140625
1758527870.7385907,0.7373046875,-0.0185546875,0.6865234375,-10.986328125,-4.21142578125,4.45556640625,-1.5435791015625,-45.582275390625,-46.1865234375
1758527870.7485707,0.7373046875,-0.0185546875,0.6865234375,-10.986328125,-4.21142578125,4.45556640625,-1.69189453125,-45.626220703125,-46.12060546875
1758527870.7585564,0.7578125,-0.0302734375,0.71826171875,-9.94873046875,-5.06591796875,4.33349609375,-1.834716796875,-45.6756591796875,-46.0601806640625
1758527870.768997,0.7578125,-0.0302734375,0.71826171875,-9.94873046875,-5.06591796875,4.33349609375,-1.9720458984375,-45.72509765625,-45.9942626953125
1758527870.7786264,0.7744140625,-0.017578125,0.75927734375,-7.99560546875,-5.43212890625,3.7841796875,-2.0928955078125,-45.7745361328125,-45.9393310546875
1758527870.7886825,0.7744140625,-0.017578125,0.75927734375,-7.99560546875,-5.43212890625,3.7841796875,-2.2027587890625,-45.8294677734375,-45.87890625
1758527870.7990794,0.76708984375,-0.0087890625,0.7021484375,-13.0615234375,-5.859375,3.5400390625,-2.3675537109375,-45.8843994140625,-45.823974609375
1758527870.8087714,0.76708984375,-0.0087890625,0.7021484375,-13.0615234375,-5.859375,3.5400390625,-2.52685546875,-45.94482421875,-45.76904296875
1758527870.818643,0.734375,0.0068359375,0.69140625,-14.09912109375,-6.77490234375,3.41796875,-2.6971435546875,-46.0107421875,-45.714111328125
1758527870.8293383,0.734375,0.0068359375,0.69140625,-14.09912109375,-6.77490234375,3.41796875,-2.867431640625,-46.07666015625,-45.6646728515625
1758527870.8390365,0.73583984375,-0.07958984375,0.7021484375,-7.99560546875,-7.14111328125,2.50244140625,-2.96630859375,-46.1480712890625,-45.6207275390625
1758527870.8487175,0.73583984375,-0.07958984375,0.7021484375,-7.99560546875,-7.14111328125,2.50244140625,-3.0706787109375,-46.219482421875,-45.5767822265625
1758527870.8588758,0.75244140625,-0.04345703125,0.71142578125,-2.25830078125,-6.34765625,1.46484375,-3.1036376953125,-46.2799072265625,-45.54931640625
1758527870.8691366,0.75244140625,-0.04345703125,0.71142578125,-2.25830078125,-6.34765625,1.46484375,-3.1365966796875,-46.34033203125,-45.52734375
1758527870.8788085,0.74560546875,0.00146484375,0.70361328125,-8.4228515625,-5.67626953125,1.03759765625,-3.22998046875,-46.4007568359375,-45.50537109375
1758527870.8888667,0.74560546875,0.00146484375,0.70361328125,-8.4228515625,-5.67626953125,1.03759765625,-3.31787109375,-46.4556884765625,-45.4833984375
1758527870.8993006,0.744140625,-0.0244140625,0.6708984375,-11.90185546875,-5.4931640625,0.244140625,-3.4332275390625,-46.5106201171875,-45.4779052734375
1758527870.9089468,0.744140625,-0.0244140625,0.6708984375,-11.90185546875,-5.4931640625,0.244140625,-3.548583984375,-46.5655517578125,-45.4669189453125
1758527870.9188273,0.75048828125,-0.08203125,0.7216796875,-6.53076171875,-5.06591796875,-0.91552734375,-3.5980224609375,-46.614990234375,-45.472412109375
1758527870.9293869,0.75048828125,-0.08203125,0.7216796875,-6.53076171875,-5.06591796875,-0.91552734375,-3.6529541015625,-46.6644287109375,-45.4779052734375
1758527870.938815,0.744140625,-0.08837890625,0.70263671875,-11.962890625,-4.21142578125,-1.8310546875,-3.7518310546875,-46.7083740234375,-45.4998779296875
1758527870.9490585,0.744140625,-0.08837890625,0.70263671875,-11.962890625,-4.21142578125,-1.8310546875,-3.8507080078125,-46.746826171875,-45.5218505859375
1758527870.9588406,0.72265625,0.0078125,0.658203125,-14.70947265625,-2.9296875,-1.40380859375,-3.9825439453125,-46.77978515625,-45.538330078125
1758527870.9691687,0.72265625,0.0078125,0.658203125,-14.70947265625,-2.9296875,-1.40380859375,-4.10888671875,-46.8072509765625,-45.5548095703125
1758527870.9789393,0.7431640625,0.04052734375,0.6875,-12.20703125,-2.38037109375,0.1220703125,-4.2242431640625,-46.8292236328125,-45.54931640625
1758527870.9892163,0.7431640625,0.04052734375,0.6875,-12.20703125,-2.38037109375,0.1220703125,-4.3341064453125,-46.856689453125,-45.5438232421875
1758527870.9993668,0.7705078125,-0.08349609375,0.68505859375,-15.56396484375,-1.89208984375,0.67138671875,-4.482421875,-46.8731689453125,-45.52734375
1758527871.0089343,0.7705078125,-0.08349609375,0.68505859375,-15.56396484375,-1.89208984375,0.67138671875,-4.63623046875,-46.8951416015625,-45.516357421875
1758527871.0189698,0.7587890625,-0.09765625,0.740234375,-10.25390625,-1.5869140625,0.54931640625,-4.735107421875,-46.91162109375,-45.50537109375
1758527871.0294166,0.7587890625,-0.09765625,0.740234375,-10.25390625,-1.5869140625,0.54931640625,-4.8394775390625,-46.922607421875,-45.4888916015625
1758527871.0389626,0.74951171875,-0.0908203125,0.62939453125,-1.3427734375,-2.44140625,0.79345703125,-4.85595703125,-46.9500732421875,-45.472412109375
1758527871.0491295,0.74951171875,-0.0908203125,0.62939453125,-1.3427734375,-2.44140625,0.79345703125,-4.8779296875,-46.9720458984375,-45.4559326171875
1758527871.0589895,0.716796875,-0.09912109375,0.66357421875,3.41796875,-3.7841796875,0.79345703125,-4.8504638671875,-47.010498046875,-45.4339599609375
1758527871.06933,0.716796875,-0.09912109375,0.66357421875,3.41796875,-3.7841796875,0.79345703125,-4.833984375,-47.0489501953125,-45.41748046875
1758527871.079086,0.712890625,-0.08154296875,0.626953125,9.70458984375,-5.126953125,0.54931640625,-4.74609375,-47.1038818359375,-45.4010009765625
1758527871.0892167,0.712890625,-0.08154296875,0.626953125,9.70458984375,-5.126953125,0.54931640625,-4.6636962890625,-47.1533203125,-45.3790283203125
1758527871.0995064,0.693359375,-0.04150390625,0.67041015625,17.39501953125,-6.103515625,0.18310546875,-4.50439453125,-47.21923828125,-45.3680419921875
1758527871.1092753,0.693359375,-0.04150390625,0.67041015625,17.39501953125,-6.103515625,0.18310546875,-4.3450927734375,-47.2796630859375,-45.3570556640625
1758527871.1191225,0.6474609375,0.005859375,0.63037109375,0.18310546875,-9.033203125,0.3662109375,-4.3560791015625,-47.3675537109375,-45.3460693359375
1758527871.1296651,0.6474609375,0.005859375,0.63037109375,0.18310546875,-9.033203125,0.3662109375,-4.361572265625,-47.4554443359375,-45.32958984375
1758527871.1391098,0.71923828125,0.017578125,0.4833984375,-9.82666015625,-14.70947265625,-0.3662109375,-4.4659423828125,-47.5982666015625,-45.3131103515625
1758527871.1491845,0.71923828125,0.017578125,0.4833984375,-9.82666015625,-14.70947265625,-0.3662109375,-4.5648193359375,-47.7520751953125,-45.296630859375
1758527871.1591105,0.677734375,-0.1162109375,0.53271484375,-0.6103515625,-15.13671875,-4.0283203125,-4.537353515625,-47.911376953125,-45.32958984375
1758527871.1696596,0.677734375,-0.1162109375,0.53271484375,-0.6103515625,-15.13671875,-4.0283203125,-4.515380859375,-48.0706787109375,-45.362548828125
1758527871.1792114,0.6748046875,-0.01318359375,0.7568359375,8.30078125,-10.986328125,-3.173828125,-4.405517578125,-48.18603515625,-45.3955078125
1758527871.1895087,0.6748046875,-0.01318359375,0.7568359375,8.30078125,-10.986328125,-3.173828125,-4.2901611328125,-48.2904052734375,-45.428466796875
1758527871.199587,0.77001953125,-0.0693359375,0.63720703125,-5.37109375,-7.75146484375,-2.38037109375,-4.3231201171875,-48.3673095703125,-45.4559326171875
1758527871.2092836,0.77001953125,-0.0693359375,0.63720703125,-5.37109375,-7.75146484375,-2.38037109375,-4.3560791015625,-48.4442138671875,-45.4779052734375
1758527871.2193387,0.79052734375,-0.0732421875,0.69921875,2.50244140625,-5.615234375,-2.86865234375,-4.306640625,-48.4991455078125,-45.516357421875
1758527871.2295294,0.79052734375,-0.0732421875,0.69921875,2.50244140625,-5.615234375,-2.86865234375,-4.2572021484375,-48.5540771484375,-45.54931640625
1758527871.2393167,0.76708984375,-0.0263671875,0.73974609375,2.0751953125,-4.5166015625,-2.13623046875,-4.21875,-48.5980224609375,-45.5767822265625
1758527871.2493055,0.76708984375,-0.0263671875,0.73974609375,2.0751953125,-4.5166015625,-2.13623046875,-4.1748046875,-48.6419677734375,-45.604248046875
1758527871.2592912,0.76171875,-0.0146484375,0.599609375,-4.33349609375,-4.8828125,-0.67138671875,-4.2132568359375,-48.6859130859375,-45.6097412109375
1758527871.2696393,0.76171875,-0.0146484375,0.599609375,-4.33349609375,-4.8828125,-0.67138671875,-4.251708984375,-48.7353515625,-45.615234375
1758527871.2796814,0.72412109375,-0.1181640625,0.61669921875,-0.79345703125,-5.615234375,0.79345703125,-4.273681640625,-48.7847900390625,-45.59326171875
1758527871.2894971,0.72412109375,-0.1181640625,0.61669921875,-0.79345703125,-5.615234375,0.79345703125,-4.295654296875,-48.8397216796875,-45.5712890625
1758527871.2997456,0.72412109375,-0.14599609375,0.60693359375,10.25390625,-5.0048828125,1.220703125,-4.21875,-48.88916015625,-45.5438232421875
1758527871.30932,0.72412109375,-0.14599609375,0.60693359375,10.25390625,-5.0048828125,1.220703125,-4.1473388671875,-48.9385986328125,-45.516357421875
1758527871.3193963,0.70556640625,-0.025390625,0.63134765625,7.6904296875,-4.08935546875,1.953125,-4.10888671875,-48.97705078125,-45.4779052734375
1758527871.3296046,0.70556640625,-0.025390625,0.63134765625,7.6904296875,-4.08935546875,1.953125,-4.0704345703125,-49.0155029296875,-45.4449462890625
1758527871.3395066,0.712890625,-0.00048828125,0.64501953125,2.62451171875,-2.25830078125,2.8076171875,-4.0869140625,-49.031982421875,-45.3955078125
1758527871.349476,0.712890625,-0.00048828125,0.64501953125,2.62451171875,-2.25830078125,2.8076171875,-4.097900390625,-49.0484619140625,-45.3515625
1758527871.3595042,0.7568359375,-0.06494140625,0.6337890625,1.03759765625,-0.9765625,3.2958984375,-4.130859375,-49.053955078125,-45.296630859375
1758527871.369767,0.7568359375,-0.06494140625,0.6337890625,1.03759765625,-0.9765625,3.2958984375,-4.163818359375,-49.0594482421875,-45.2471923828125
1758527871.379723,0.7490234375,-0.0888671875,0.6416015625,4.21142578125,-0.6103515625,3.35693359375,-4.163818359375,-49.0594482421875,-45.1922607421875
1758527871.389525,0.7490234375,-0.0888671875,0.6416015625,4.21142578125,-0.6103515625,3.35693359375,-4.1693115234375,-49.06494140625,-45.142822265625
1758527871.4002008,0.732421875,-0.04833984375,0.6279296875,3.11279296875,-0.244140625,3.0517578125,-4.1802978515625,-49.06494140625,-45.0933837890625
1758527871.4094567,0.732421875,-0.04833984375,0.6279296875,3.11279296875,-0.244140625,3.0517578125,-4.1912841796875,-49.06494140625,-45.0439453125
1758527871.41949,0.72998046875,-0.00634765625,0.61865234375,0.244140625,0.18310546875,2.9296875,-4.2242431640625,-49.0594482421875,-45.0
1758527871.4296153,0.72998046875,-0.00634765625,0.61865234375,0.244140625,0.18310546875,2.9296875,-4.2572021484375,-49.053955078125,-44.9560546875
1758527871.4395795,0.734375,-0.0390625,0.63720703125,-0.67138671875,0.54931640625,3.35693359375,-4.306640625,-49.0484619140625,-44.9066162109375
1758527871.4495895,0.734375,-0.0390625,0.63720703125,-0.67138671875,0.54931640625,3.35693359375,-4.3505859375,-49.0374755859375,-44.857177734375
1758527871.4595218,0.75,-0.07861328125,0.61376953125,0.0,1.03759765625,3.60107421875,-4.3890380859375,-49.0264892578125,-44.80224609375
1758527871.470009,0.75,-0.07861328125,0.61376953125,0.0,1.03759765625,3.60107421875,-4.4329833984375,-49.0155029296875,-44.7418212890625
1758527871.4796364,0.7392578125,-0.08349609375,0.63525390625,3.7841796875,0.8544921875,3.11279296875,-4.4329833984375,-49.0045166015625,-44.6923828125
1758527871.4896169,0.7392578125,-0.08349609375,0.63525390625,3.7841796875,0.8544921875,3.11279296875,-4.4329833984375,-48.9990234375,-44.6429443359375
1758527871.5001261,0.73828125,-0.01611328125,0.62646484375,3.23486328125,0.732421875,2.5634765625,-4.4329833984375,-48.988037109375,-44.6044921875
1758527871.5096104,0.73828125,-0.01611328125,0.62646484375,3.23486328125,0.732421875,2.5634765625,-4.4329833984375,-48.9825439453125,-44.5660400390625
1758527871.5198658,0.7548828125,-0.0302734375,0.63818359375,0.8544921875,0.6103515625,2.44140625,-4.449462890625,-48.97705078125,-44.527587890625
1758527871.5296652,0.7548828125,-0.0302734375,0.63818359375,0.8544921875,0.6103515625,2.44140625,-4.4659423828125,-48.9715576171875,-44.4891357421875
1758527871.5396516,0.76318359375,-0.07568359375,0.67041015625,3.11279296875,1.0986328125,2.197265625,-4.46044921875,-48.9605712890625,-44.4561767578125
1758527871.5497103,0.76318359375,-0.07568359375,0.67041015625,3.11279296875,1.0986328125,2.197265625,-4.4549560546875,-48.955078125,-44.4232177734375
1758527871.5597122,0.77490234375,-0.0703125,0.64794921875,7.87353515625,1.220703125,1.5869140625,-4.39453125,-48.9385986328125,-44.395751953125
1758527871.569989,0.77490234375,-0.0703125,0.64794921875,7.87353515625,1.220703125,1.5869140625,-4.339599609375,-48.93310546875,-44.373779296875
1758527871.5797713,0.7646484375,-0.02490234375,0.64892578125,7.32421875,0.91552734375,1.3427734375,-4.2791748046875,-48.922119140625,-44.351806640625
1758527871.5898774,0.7646484375,-0.02490234375,0.64892578125,7.32421875,0.91552734375,1.3427734375,-4.2242431640625,-48.9166259765625,-44.329833984375
1758527871.600215,0.7822265625,-0.00830078125,0.650390625,0.06103515625,0.3662109375,1.52587890625,-4.24072265625,-48.9166259765625,-44.307861328125
1758527871.6097536,0.7822265625,-0.00830078125,0.650390625,0.06103515625,0.3662109375,1.52587890625,-4.2572021484375,-48.9166259765625,-44.2803955078125
1758527871.6198082,0.80029296875,-0.04931640625,0.701171875,-3.2958984375,0.06103515625,1.52587890625,-4.3011474609375,-48.9166259765625,-44.2584228515625
1758527871.629786,0.80029296875,-0.04931640625,0.701171875,-3.2958984375,0.06103515625,1.52587890625,-4.3505859375,-48.9166259765625,-44.23095703125
1758527871.6397893,0.798828125,-0.08349609375,0.70361328125,0.79345703125,0.1220703125,1.15966796875,-4.3505859375,-48.9166259765625,-44.2144775390625
1758527871.649794,0.798828125,-0.08349609375,0.70361328125,0.79345703125,0.1220703125,1.15966796875,-4.3560791015625,-48.9166259765625,-44.197998046875
1758527871.6598446,0.8193359375,-0.07373046875,0.68701171875,6.4697265625,-0.42724609375,0.42724609375,-4.3011474609375,-48.9276123046875,-44.18701171875
1758527871.6701612,0.80126953125,-0.0390625,0.6767578125,5.06591796875,-1.64794921875,0.3662109375,-4.251708984375,-48.9385986328125,-44.176025390625
1758527871.679846,0.80126953125,-0.0390625,0.6767578125,5.06591796875,-1.64794921875,0.3662109375,-4.207763671875,-48.955078125,-44.1705322265625
1758527871.6898484,0.8017578125,-0.01025390625,0.67724609375,1.3427734375,-2.685546875,0.54931640625,-4.1802978515625,-48.9825439453125,-44.154052734375
1758527871.700449,0.8017578125,-0.01025390625,0.67724609375,1.3427734375,-2.685546875,0.54931640625,-4.1748046875,-49.010009765625,-44.14306640625
1758527871.710218,0.81640625,-0.0546875,0.69384765625,0.30517578125,-3.47900390625,0.48828125,-4.1748046875,-49.04296875,-44.132080078125
1758527871.7200627,0.81640625,-0.0546875,0.69384765625,0.30517578125,-3.47900390625,0.48828125,-4.1748046875,-49.0814208984375,-44.1156005859375
1758527871.730442,0.802734375,-0.08349609375,0.6953125,6.28662109375,-4.08935546875,0.18310546875,-4.1473388671875,-49.119873046875,-44.1046142578125
1758527871.740019,0.802734375,-0.08349609375,0.6953125,6.28662109375,-4.08935546875,0.18310546875,-4.0924072265625,-49.163818359375,-44.09912109375
1758527871.7498987,0.7919921875,-0.05810546875,0.65673828125,6.591796875,-4.82177734375,0.3662109375,-4.0374755859375,-49.207763671875,-44.088134765625
1758527871.7601607,0.7919921875,-0.05810546875,0.65673828125,6.591796875,-4.82177734375,0.3662109375,-3.9825439453125,-49.2572021484375,-44.0716552734375
1758527871.7705576,0.77978515625,-0.029296875,0.6533203125,4.45556640625,-5.43212890625,0.79345703125,-3.944091796875,-49.306640625,-44.05517578125
1758527871.780077,0.77978515625,-0.029296875,0.6533203125,4.45556640625,-5.43212890625,0.79345703125,-3.9111328125,-49.3670654296875,-44.0386962890625
1758527871.7902274,0.7900390625,-0.03369140625,0.662109375,1.15966796875,-5.859375,1.0986328125,-3.900146484375,-49.4219970703125,-44.0167236328125
1758527871.8008213,0.7900390625,-0.03369140625,0.662109375,1.15966796875,-5.859375,1.0986328125,-3.9111328125,-49.482421875,-43.9947509765625
1758527871.8100624,0.7900390625,-0.03369140625,0.662109375,-0.91552734375,-6.40869140625,1.220703125,-3.9276123046875,-49.5428466796875,-43.96728515625
1758527871.8201215,0.80078125,-0.0234375,0.658203125,-0.91552734375,-6.40869140625,1.220703125,-3.955078125,-49.6087646484375,-43.9398193359375
1758527871.8303897,0.81005859375,-0.0166015625,0.67529296875,-9.033203125,-6.9580078125,1.8310546875,-4.0264892578125,-49.6746826171875,-43.9068603515625
1758527871.8401258,0.81005859375,-0.0166015625,0.67529296875,-9.033203125,-6.9580078125,1.8310546875,-4.1363525390625,-49.7406005859375,-43.8739013671875
1758527871.8501496,0.79931640625,-0.0302734375,0.66015625,-13.36669921875,-7.2021484375,2.44140625,-4.273681640625,-49.81201171875,-43.83544921875
1758527871.8603115,0.79931640625,-0.0302734375,0.66015625,-13.36669921875,-7.2021484375,2.44140625,-4.4329833984375,-49.8834228515625,-43.7860107421875
1758527871.8704581,0.8056640625,-0.0703125,0.64599609375,-10.8642578125,-8.056640625,2.3193359375,-4.581298828125,-49.9603271484375,-43.7420654296875
1758527871.880174,0.8056640625,-0.0703125,0.64599609375,-10.8642578125,-8.056640625,2.3193359375,-4.7186279296875,-50.0372314453125,-43.6981201171875
1758527871.8905935,0.7978515625,-0.08056640625,0.63525390625,-5.2490234375,-8.72802734375,1.953125,-4.8284912109375,-50.11962890625,-43.648681640625
1758527871.9005167,0.7978515625,-0.08056640625,0.63525390625,-5.2490234375,-8.72802734375,1.953125,-4.9053955078125,-50.20751953125,-43.6102294921875
1758527871.910203,0.779296875,-0.0771484375,0.634765625,-0.1220703125,-9.09423828125,1.220703125,-4.9603271484375,-50.29541015625,-43.57177734375
1758527871.920473,0.779296875,-0.0771484375,0.634765625,-0.1220703125,-9.09423828125,1.220703125,-4.9822998046875,-50.38330078125,-43.538818359375
1758527871.9307034,0.775390625,-0.08740234375,0.63720703125,5.2490234375,-8.6669921875,0.91552734375,-4.976806640625,-50.47119140625,-43.505859375
1758527871.9402785,0.775390625,-0.08740234375,0.63720703125,5.2490234375,-8.6669921875,0.91552734375,-4.9493408203125,-50.55908203125,-43.4783935546875
1758527871.950206,0.7626953125,-0.0615234375,0.60498046875,10.009765625,-8.97216796875,0.42724609375,-4.888916015625,-50.6414794921875,-43.4564208984375
1758527871.960182,0.7626953125,-0.0615234375,0.60498046875,10.009765625,-8.97216796875,0.42724609375,-4.8065185546875,-50.73486328125,-43.4344482421875
1758527871.9703152,0.77099609375,-0.01171875,0.61669921875,2.50244140625,-8.7890625,0.48828125,-4.7625732421875,-50.8172607421875,-43.4124755859375
1758527871.9803414,0.77099609375,-0.01171875,0.61669921875,2.50244140625,-8.7890625,0.48828125,-4.757080078125,-50.9051513671875,-43.39599609375
1758527871.9905925,0.7705078125,-0.03125,0.57373046875,-0.30517578125,-9.21630859375,0.42724609375,-4.757080078125,-50.9930419921875,-43.3740234375
1758527872.0005915,0.7705078125,-0.03125,0.57373046875,-0.30517578125,-9.21630859375,0.42724609375,-4.7735595703125,-51.08642578125,-43.35205078125
1758527872.01053,0.74951171875,-0.0625,0.6357421875,0.3662109375,-8.72802734375,0.244140625,-4.7845458984375,-51.17431640625,-43.3355712890625
1758527872.0203946,0.74951171875,-0.0625,0.6357421875,0.3662109375,-8.72802734375,0.244140625,-4.7900390625,-51.26220703125,-43.319091796875
1758527872.030752,0.77392578125,-0.080078125,0.6025390625,7.87353515625,-8.30078125,-0.06103515625,-4.757080078125,-51.3446044921875,-43.30810546875
1758527872.0407186,0.77392578125,-0.080078125,0.6025390625,7.87353515625,-8.30078125,-0.06103515625,-4.691162109375,-51.4215087890625,-43.297119140625
1758527872.0504577,0.78759765625,-0.06494140625,0.607421875,6.2255859375,-8.544921875,-0.42724609375,-4.6307373046875,-51.50390625,-43.2916259765625
1758527872.060446,0.78759765625,-0.06494140625,0.607421875,6.2255859375,-8.544921875,-0.42724609375,-4.5758056640625,-51.5863037109375,-43.2861328125
1758527872.0706372,0.80810546875,-0.0263671875,0.6064453125,1.89208984375,-8.85009765625,-0.732421875,-4.537353515625,-51.6741943359375,-43.2861328125
1758527872.080471,0.80810546875,-0.0263671875,0.6064453125,1.89208984375,-8.85009765625,-0.732421875,-4.5208740234375,-51.7620849609375,-43.2861328125
1758527872.090515,0.810546875,-0.03515625,0.626953125,1.40380859375,-8.60595703125,-0.79345703125,-4.50439453125,-51.8499755859375,-43.2861328125
1758527872.1007714,0.810546875,-0.03515625,0.626953125,1.40380859375,-8.60595703125,-0.79345703125,-4.493408203125,-51.932373046875,-43.2861328125
1758527872.1104572,0.8154296875,-0.072265625,0.642578125,4.7607421875,-8.4228515625,-1.03759765625,-4.46044921875,-52.0147705078125,-43.2861328125
1758527872.120728,0.8154296875,-0.072265625,0.642578125,4.7607421875,-8.4228515625,-1.03759765625,-4.405517578125,-52.09716796875,-43.2916259765625
1758527872.1308203,0.82568359375,-0.080078125,0.64306640625,6.28662109375,-8.30078125,-1.0986328125,-4.3505859375,-52.1795654296875,-43.297119140625
1758527872.1405594,0.82568359375,-0.080078125,0.64306640625,6.28662109375,-8.30078125,-1.0986328125,-4.28466796875,-52.261962890625,-43.30810546875
1758527872.1505194,0.81640625,-0.02880859375,0.60595703125,5.55419921875,-8.48388671875,-1.220703125,-4.2242431640625,-52.3443603515625,-43.3135986328125
1758527872.1604948,0.81640625,-0.02880859375,0.60595703125,5.55419921875,-8.48388671875,-1.220703125,-4.1693115234375,-52.4267578125,-43.319091796875
1758527872.1707218,0.82080078125,-0.01611328125,0.60009765625,-1.28173828125,-8.48388671875,-1.0986328125,-4.141845703125,-52.5091552734375,-43.330078125
1758527872.1806176,0.82080078125,-0.01611328125,0.60009765625,-1.28173828125,-8.48388671875,-1.0986328125,-4.15283203125,-52.591552734375,-43.3355712890625
1758527872.19058,0.8115234375,-0.03662109375,0.6044921875,-2.38037109375,-8.48388671875,-0.732421875,-4.163818359375,-52.6739501953125,-43.3355712890625
1758527872.2025461,0.8115234375,-0.03662109375,0.6044921875,-2.38037109375,-8.48388671875,-0.732421875,-4.185791015625,-52.7618408203125,-43.3355712890625
1758527872.2107418,0.80029296875,-0.03662109375,0.599609375,-1.77001953125,-8.23974609375,-0.42724609375,-4.207763671875,-52.84423828125,-43.3355712890625
1758527872.2210824,0.80029296875,-0.03662109375,0.599609375,-1.77001953125,-8.23974609375,-0.42724609375,-4.229736328125,-52.921142578125,-43.330078125
1758527872.2312105,0.81884765625,-0.03076171875,0.60498046875,-5.4931640625,-8.4228515625,0.18310546875,-4.2681884765625,-53.0035400390625,-43.319091796875
1758527872.241111,0.81884765625,-0.03076171875,0.60498046875,-5.4931640625,-8.4228515625,0.18310546875,-4.3341064453125,-53.0859375,-43.3026123046875
1758527872.2508283,0.81591796875,-0.0439453125,0.55908203125,-8.056640625,-8.4228515625,0.732421875,-4.4110107421875,-53.1683349609375,-43.2861328125
1758527872.2610736,0.81591796875,-0.0439453125,0.55908203125,-8.056640625,-8.4228515625,0.732421875,-4.50439453125,-53.250732421875,-43.2586669921875
1758527872.2713273,0.8076171875,-0.0810546875,0.59130859375,-3.23486328125,-8.9111328125,0.42724609375,-4.5758056640625,-53.338623046875,-43.231201171875
1758527872.2811525,0.8076171875,-0.0810546875,0.59130859375,-3.23486328125,-8.9111328125,0.42724609375,-4.625244140625,-53.426513671875,-43.209228515625
1758527872.291087,0.8125,-0.05908203125,0.59130859375,-0.8544921875,-8.72802734375,-0.06103515625,-4.6527099609375,-53.514404296875,-43.1927490234375
1758527872.301703,0.8125,-0.05908203125,0.59130859375,-0.8544921875,-8.72802734375,-0.06103515625,-4.6746826171875,-53.5968017578125,-43.1817626953125
1758527872.310925,0.8115234375,-0.03466796875,0.5849609375,-0.6103515625,-8.6669921875,0.1220703125,-4.691162109375,-53.6846923828125,-43.165283203125
1758527872.3214421,0.8115234375,-0.03466796875,0.5849609375,-0.6103515625,-8.6669921875,0.1220703125,-4.7076416015625,-53.76708984375,-43.1488037109375
1758527872.3312426,0.80029296875,-0.04296875,0.5908203125,-0.42724609375,-8.544921875,0.54931640625,-4.72412109375,-53.85498046875,-43.1268310546875
1758527872.3412192,0.80029296875,-0.04296875,0.5908203125,-0.42724609375,-8.544921875,0.54931640625,-4.74609375,-53.9373779296875,-43.1048583984375
1758527872.350969,0.806640625,-0.0166015625,0.55419921875,-5.06591796875,-8.6669921875,0.6103515625,-4.7900390625,-54.019775390625,-43.077392578125
1758527872.3612478,0.806640625,-0.0166015625,0.55419921875,-5.06591796875,-8.6669921875,0.6103515625,-4.85595703125,-54.1021728515625,-43.055419921875
1758527872.3715842,0.80712890625,-0.0078125,0.5908203125,-12.5732421875,-8.48388671875,0.67138671875,-4.954833984375,-54.1845703125,-43.0279541015625
1758527872.3812387,0.80712890625,-0.0078125,0.5908203125,-12.5732421875,-8.48388671875,0.67138671875,-5.0921630859375,-54.2669677734375,-43.0059814453125
1758527872.390977,0.79833984375,-0.0458984375,0.5546875,-17.88330078125,-7.8125,0.91552734375,-5.2569580078125,-54.3438720703125,-42.978515625
1758527872.4017026,0.79833984375,-0.0458984375,0.5546875,-17.88330078125,-7.8125,0.91552734375,-5.4437255859375,-54.4207763671875,-42.9510498046875
1758527872.4109523,0.8056640625,-0.0615234375,0.56494140625,-20.8740234375,-7.99560546875,1.15966796875,-5.6524658203125,-54.4976806640625,-42.9180908203125
1758527872.4212837,0.8056640625,-0.0615234375,0.56494140625,-20.8740234375,-7.99560546875,1.15966796875,-5.877685546875,-54.5745849609375,-42.8851318359375
1758527872.431348,0.80810546875,-0.087890625,0.57958984375,-13.00048828125,-7.32421875,1.03759765625,-6.064453125,-54.64599609375,-42.8466796875
1758527872.4414184,0.80810546875,-0.087890625,0.57958984375,-13.00048828125,-7.32421875,1.03759765625,-6.207275390625,-54.7119140625,-42.8192138671875
1758527872.4510846,0.82080078125,-0.13037109375,0.5439453125,-2.62451171875,-6.591796875,0.79345703125,-6.30615234375,-54.77783203125,-42.7862548828125
1758527872.4613357,0.82080078125,-0.13037109375,0.5439453125,-2.62451171875,-6.591796875,0.79345703125,-6.35009765625,-54.84375,-42.7587890625
1758527872.471453,0.8251953125,-0.07763671875,0.5576171875,4.150390625,-6.4697265625,0.244140625,-6.361083984375,-54.9041748046875,-42.7313232421875
1758527872.481334,0.8251953125,-0.07763671875,0.5576171875,4.150390625,-6.4697265625,0.244140625,-6.3336181640625,-54.964599609375,-42.7093505859375
1758527872.4910843,0.83642578125,-0.078125,0.5595703125,5.31005859375,-6.34765625,0.18310546875,-6.30615234375,-55.030517578125,-42.6873779296875
1758527872.5017242,0.83642578125,-0.078125,0.5595703125,5.31005859375,-6.34765625,0.18310546875,-6.2677001953125,-55.0909423828125,-42.6654052734375
1758527872.511084,0.83203125,-0.05419921875,0.56787109375,7.2021484375,-6.34765625,0.06103515625,-6.21826171875,-55.1513671875,-42.6434326171875
1758527872.521643,0.83203125,-0.05419921875,0.56787109375,7.2021484375,-6.34765625,0.06103515625,-6.163330078125,-55.21728515625,-42.6214599609375
1758527872.5315013,0.8251953125,-0.08740234375,0.5693359375,9.09423828125,-6.4697265625,-0.06103515625,-6.0919189453125,-55.2777099609375,-42.60498046875
1758527872.541432,0.8251953125,-0.08740234375,0.5693359375,9.09423828125,-6.4697265625,-0.06103515625,-6.0205078125,-55.338134765625,-42.5885009765625
1758527872.551237,0.82177734375,-0.08740234375,0.5595703125,13.5498046875,-6.4697265625,-0.42724609375,-5.9161376953125,-55.404052734375,-42.572021484375
1758527872.5614612,0.82177734375,-0.08740234375,0.5595703125,13.5498046875,-6.4697265625,-0.42724609375,-5.7952880859375,-55.4644775390625,-42.56103515625
1758527872.5715492,0.79443359375,-0.0390625,0.54296875,13.12255859375,-6.34765625,-0.48828125,-5.6744384765625,-55.5303955078125,-42.550048828125
1758527872.5814583,0.79443359375,-0.0390625,0.54296875,13.12255859375,-6.34765625,-0.48828125,-5.5535888671875,-55.5908203125,-42.5445556640625
1758527872.5912766,0.810546875,-0.00390625,0.5322265625,1.15966796875,-6.89697265625,0.1220703125,-5.4931640625,-55.65673828125,-42.528076171875
1758527872.601862,0.810546875,-0.00390625,0.5322265625,1.15966796875,-6.89697265625,0.1220703125,-5.4986572265625,-55.72265625,-42.5115966796875
1758527872.6118927,0.79833984375,-0.01708984375,0.56201171875,-4.94384765625,-6.591796875,0.48828125,-5.5316162109375,-55.78857421875,-42.4896240234375
1758527872.6213927,0.79833984375,-0.01708984375,0.56201171875,-4.94384765625,-6.591796875,0.48828125,-5.5975341796875,-55.8489990234375,-42.4676513671875
1758527872.637135,0.81640625,-0.07958984375,0.52734375,-1.8310546875,-5.9814453125,0.3662109375,-5.6414794921875,-55.909423828125,-42.4456787109375
1758527872.6442046,0.81640625,-0.07958984375,0.52734375,-1.8310546875,-5.9814453125,0.3662109375,-5.6744384765625,-55.96435546875,-42.4237060546875
1758527872.6511304,0.83837890625,-0.05712890625,0.55078125,1.52587890625,-5.43212890625,0.30517578125,-5.6689453125,-56.019287109375,-42.4072265625
1758527872.6614563,0.83837890625,-0.05712890625,0.55078125,1.52587890625,-5.43212890625,0.30517578125,-5.6634521484375,-56.0687255859375,-42.3907470703125
1758527872.674157,0.8427734375,-0.01220703125,0.54345703125,-6.8359375,-5.2490234375,0.42724609375,-5.745849609375,-56.1181640625,-42.3687744140625
1758527872.6812913,0.8427734375,-0.01220703125,0.54345703125,-6.8359375,-5.2490234375,0.42724609375,-5.82275390625,-56.173095703125,-42.3468017578125
1758527872.6914332,0.84716796875,-0.04638671875,0.53271484375,-12.939453125,-5.4931640625,0.30517578125,-5.95458984375,-56.2225341796875,-42.330322265625
1758527872.7043762,0.84716796875,-0.04638671875,0.53271484375,-12.939453125,-5.4931640625,0.30517578125,-6.0919189453125,-56.2774658203125,-42.308349609375
1758527872.7114775,0.83251953125,-0.0927734375,0.56787109375,-5.92041015625,-5.06591796875,-0.1220703125,-6.15234375,-56.3323974609375,-42.29736328125
1758527872.7213655,0.83251953125,-0.0927734375,0.56787109375,-5.92041015625,-5.06591796875,-0.1220703125,-6.2127685546875,-56.3818359375,-42.2808837890625
1758527872.737967,0.85546875,-0.06298828125,0.55517578125,-1.52587890625,-4.69970703125,-0.3662109375,-6.229248046875,-56.42578125,-42.275390625
1758527872.7445707,0.85546875,-0.06298828125,0.55517578125,-1.52587890625,-4.69970703125,-0.3662109375,-6.240234375,-56.4697265625,-42.2698974609375
1758527872.751577,0.83935546875,-0.025390625,0.55029296875,-3.2958984375,-5.0048828125,-0.54931640625,-6.273193359375,-56.5191650390625,-42.264404296875
1758527872.7613926,0.83935546875,-0.025390625,0.55029296875,-3.2958984375,-5.0048828125,-0.54931640625,-6.3006591796875,-56.568603515625,-42.2589111328125
1758527872.7718558,0.845703125,-0.06591796875,0.53515625,-7.8125,-5.126953125,-0.3662109375,-6.3720703125,-56.62353515625,-42.25341796875
1758527872.7813547,0.845703125,-0.06591796875,0.53515625,-7.8125,-5.126953125,-0.3662109375,-6.448974609375,-56.6729736328125,-42.242431640625
1758527872.7918446,0.83251953125,-0.0595703125,0.533203125,-7.38525390625,-5.0048828125,-0.48828125,-6.5203857421875,-56.722412109375,-42.2314453125
1758527872.8016274,0.83251953125,-0.0595703125,0.533203125,-7.38525390625,-5.0048828125,-0.48828125,-6.5863037109375,-56.7718505859375,-42.2259521484375
1758527872.8115664,0.83251953125,-0.0595703125,0.533203125,-2.8076171875,-4.94384765625,-0.732421875,-6.6082763671875,-56.8212890625,-42.220458984375
1758527872.8213727,0.8291015625,-0.07958984375,0.53173828125,-2.8076171875,-4.94384765625,-0.732421875,-6.6302490234375,-56.8707275390625,-42.2149658203125
1758527872.8320017,0.80078125,-0.0693359375,0.48779296875,-2.13623046875,-5.31005859375,-1.03759765625,-6.646728515625,-56.9256591796875,-42.2149658203125
1758527872.8417568,0.80078125,-0.0693359375,0.48779296875,-2.13623046875,-5.31005859375,-1.03759765625,-6.65771484375,-56.9805908203125,-42.2149658203125
1758527872.851964,0.8330078125,-0.0615234375,0.494140625,0.6103515625,-6.16455078125,-1.64794921875,-6.6412353515625,-57.041015625,-42.220458984375
1758527872.8615017,0.8330078125,-0.0615234375,0.494140625,0.6103515625,-6.16455078125,-1.64794921875,-6.6192626953125,-57.10693359375,-42.2314453125
1758527872.8721073,0.810546875,-0.08056640625,0.521484375,3.35693359375,-7.14111328125,-2.197265625,-6.5643310546875,-57.183837890625,-42.242431640625
1758527872.8815002,0.810546875,-0.08056640625,0.521484375,3.35693359375,-7.14111328125,-2.197265625,-6.514892578125,-57.2552490234375,-42.2589111328125
1758527872.892607,0.79248046875,-0.1142578125,0.490234375,7.87353515625,-7.080078125,-2.13623046875,-6.4215087890625,-57.3321533203125,-42.2698974609375
1758527872.9022336,0.79248046875,-0.1142578125,0.490234375,7.87353515625,-7.080078125,-2.13623046875,-6.328125,-57.403564453125,-42.2808837890625
1758527872.9115887,0.81787109375,-0.060546875,0.501953125,13.12255859375,-6.77490234375,-1.77001953125,-6.1962890625,-57.4749755859375,-42.286376953125
1758527872.921554,0.81787109375,-0.060546875,0.501953125,13.12255859375,-6.77490234375,-1.77001953125,-6.0589599609375,-57.5408935546875,-42.2918701171875
1758527872.931595,0.84033203125,-0.03173828125,0.52734375,10.8642578125,-6.89697265625,-1.5869140625,-5.943603515625,-57.6123046875,-42.29736328125
1758527872.942018,0.84033203125,-0.03173828125,0.52734375,10.8642578125,-6.89697265625,-1.5869140625,-5.8282470703125,-57.6837158203125,-42.3028564453125
1758527872.9515517,0.83642578125,-0.03271484375,0.52587890625,3.11279296875,-6.8359375,-0.67138671875,-5.8062744140625,-57.7496337890625,-42.286376953125
1758527872.96181,0.83642578125,-0.03271484375,0.52587890625,3.11279296875,-6.8359375,-0.67138671875,-5.77880859375,-57.821044921875,-42.275390625
1758527872.9716306,0.84130859375,-0.07666015625,0.49853515625,3.41796875,-6.591796875,-0.18310546875,-5.7568359375,-57.886962890625,-42.2589111328125
1758527872.9815404,0.84130859375,-0.07666015625,0.49853515625,3.41796875,-6.591796875,-0.18310546875,-5.73486328125,-57.952880859375,-42.2369384765625
1758527872.992278,0.8564453125,-0.0947265625,0.54541015625,8.4228515625,-5.859375,-0.1220703125,-5.6689453125,-58.0078125,-42.2149658203125
1758527873.0018575,0.8564453125,-0.0947265625,0.54541015625,8.4228515625,-5.859375,-0.1220703125,-5.60302734375,-58.062744140625,-42.1929931640625
1758527873.0115886,0.8671875,-0.06689453125,0.53466796875,11.29150390625,-5.18798828125,0.0,-5.5096435546875,-58.11767578125,-42.1710205078125
1758527873.0215247,0.8671875,-0.06689453125,0.53466796875,11.29150390625,-5.18798828125,0.0,-5.416259765625,-58.1671142578125,-42.1490478515625
1758527873.031744,0.873046875,-0.01953125,0.5166015625,8.11767578125,-5.31005859375,-0.06103515625,-5.350341796875,-58.216552734375,-42.1270751953125
1758527873.0416305,0.873046875,-0.01953125,0.5166015625,8.11767578125,-5.31005859375,-0.06103515625,-5.284423828125,-58.2659912109375,-42.110595703125
1758527873.0517576,0.8623046875,0.0029296875,0.52783203125,1.46484375,-5.615234375,0.1220703125,-5.284423828125,-58.326416015625,-42.088623046875
1758527873.061831,0.8623046875,0.0029296875,0.52783203125,1.46484375,-5.615234375,0.1220703125,-5.2789306640625,-58.38134765625,-42.066650390625
1758527873.0717723,0.84912109375,-0.07666015625,0.529296875,-1.89208984375,-5.2490234375,0.244140625,-5.3118896484375,-58.4307861328125,-42.044677734375
1758527873.0817068,0.84912109375,-0.07666015625,0.529296875,-1.89208984375,-5.2490234375,0.244140625,-5.3448486328125,-58.480224609375,-42.022705078125
1758527873.091732,0.88232421875,-0.07080078125,0.49951171875,1.46484375,-4.69970703125,0.244140625,-5.3448486328125,-58.524169921875,-41.9952392578125
1758527873.1020968,0.88232421875,-0.07080078125,0.49951171875,1.46484375,-4.69970703125,0.244140625,-5.3448486328125,-58.5736083984375,-41.9732666015625
1758527873.1117716,0.87939453125,-0.03759765625,0.55078125,3.41796875,-4.5166015625,-0.1220703125,-5.3173828125,-58.6175537109375,-41.956787109375
1758527873.1222036,0.87939453125,-0.03759765625,0.55078125,3.41796875,-4.5166015625,-0.1220703125,-5.2899169921875,-58.6614990234375,-41.94580078125
1758527873.131884,0.87939453125,0.052734375,0.5029296875,-10.7421875,-5.126953125,0.732421875,-5.416259765625,-58.7109375,-41.9183349609375
1758527873.1419795,0.87939453125,0.052734375,0.5029296875,-10.7421875,-5.126953125,0.732421875,-5.537109375,-58.7603759765625,-41.8853759765625
1758527873.1518967,0.8837890625,-0.0283203125,0.48046875,-16.6015625,-5.92041015625,1.40380859375,-5.7183837890625,-58.82080078125,-41.8414306640625
1758527873.1680415,0.8837890625,-0.0283203125,0.48046875,-16.6015625,-5.92041015625,1.40380859375,-5.9051513671875,-58.8812255859375,-41.7974853515625
1758527873.1748767,0.82861328125,-0.140625,0.55908203125,-12.20703125,-4.150390625,1.28173828125,-6.0479736328125,-58.919677734375,-41.759033203125
1758527873.1818266,0.82861328125,-0.140625,0.55908203125,-12.20703125,-4.150390625,1.28173828125,-6.1962890625,-58.9581298828125,-41.715087890625
1758527873.1918955,0.857421875,-0.107421875,0.50439453125,0.06103515625,-2.50244140625,0.67138671875,-6.207275390625,-58.9801025390625,-41.6876220703125
1758527873.2039037,0.857421875,-0.107421875,0.50439453125,0.06103515625,-2.50244140625,0.67138671875,-6.229248046875,-59.0020751953125,-41.66015625
1758527873.2118964,0.8603515625,-0.044921875,0.47509765625,1.15966796875,-2.9296875,1.03759765625,-6.240234375,-59.029541015625,-41.6217041015625
1758527873.2222676,0.8603515625,-0.044921875,0.47509765625,1.15966796875,-2.9296875,1.03759765625,-6.2567138671875,-59.0570068359375,-41.583251953125
1758527873.2320316,0.876953125,-0.01953125,0.49755859375,-3.72314453125,-3.41796875,0.91552734375,-6.3116455078125,-59.0899658203125,-41.5447998046875
1758527873.2425075,0.876953125,-0.01953125,0.49755859375,-3.72314453125,-3.41796875,0.91552734375,-6.3665771484375,-59.1229248046875,-41.5118408203125
1758527873.2520223,0.865234375,-0.05908203125,0.5302734375,-3.2958984375,-3.23486328125,0.54931640625,-6.416015625,-59.1558837890625,-41.484375
1758527873.2627964,0.865234375,-0.05908203125,0.5302734375,-3.2958984375,-3.23486328125,0.54931640625,-6.4599609375,-59.1888427734375,-41.4569091796875
1758527873.2720666,0.82177734375,-0.1171875,0.50732421875,2.13623046875,-1.77001953125,0.48828125,-6.448974609375,-59.205322265625,-41.4349365234375
1758527873.2825,0.82177734375,-0.1171875,0.50732421875,2.13623046875,-1.77001953125,0.48828125,-6.4434814453125,-59.2218017578125,-41.407470703125
1758527873.2919796,0.87890625,-0.07568359375,0.44287109375,4.45556640625,-2.01416015625,0.18310546875,-6.4105224609375,-59.23828125,-41.385498046875
1758527873.3030097,0.87890625,-0.07568359375,0.44287109375,4.45556640625,-2.01416015625,0.18310546875,-6.383056640625,-59.26025390625,-41.363525390625
1758527873.312022,0.9052734375,-0.01025390625,0.53515625,-1.46484375,-2.86865234375,-1.40380859375,-6.383056640625,-59.293212890625,-41.3690185546875
1758527873.3220289,0.9052734375,-0.01025390625,0.53515625,-1.46484375,-2.86865234375,-1.40380859375,-6.3775634765625,-59.326171875,-41.3800048828125
1758527873.332196,0.87451171875,-0.01806640625,0.55859375,-4.7607421875,-0.8544921875,-2.62451171875,-6.383056640625,-59.337158203125,-41.41845703125
1758527873.342082,0.87451171875,-0.01806640625,0.55859375,-4.7607421875,-0.8544921875,-2.62451171875,-6.383056640625,-59.34814453125,-41.46240234375
1758527873.3521492,0.88037109375,-0.09423828125,0.5595703125,1.52587890625,2.0751953125,-2.99072265625,-6.3116455078125,-59.3316650390625,-41.517333984375
1758527873.3630142,0.88037109375,-0.09423828125,0.5595703125,1.52587890625,2.0751953125,-2.99072265625,-6.240234375,-59.3096923828125,-41.572265625
1758527873.3723907,0.88916015625,-0.0302734375,0.46728515625,4.150390625,0.9765625,-2.9296875,-6.1468505859375,-59.30419921875,-41.6217041015625
1758527873.3821237,0.88916015625,-0.0302734375,0.46728515625,4.150390625,0.9765625,-2.9296875,-6.053466796875,-59.2987060546875,-41.671142578125
1758527873.3921542,0.85546875,0.0,0.41943359375,-3.47900390625,-2.197265625,-3.11279296875,-6.0369873046875,-59.326171875,-41.715087890625
1758527873.4021497,0.85546875,0.0,0.41943359375,-3.47900390625,-2.197265625,-3.11279296875,-6.0205078125,-59.3536376953125,-41.759033203125
1758527873.4122245,0.85400390625,-0.0615234375,0.53955078125,-6.34765625,-3.47900390625,-4.69970703125,-6.0040283203125,-59.3975830078125,-41.8304443359375
1758527873.422121,0.85400390625,-0.0615234375,0.53955078125,-6.34765625,-3.47900390625,-4.69970703125,-5.987548828125,-59.4415283203125,-41.9073486328125
1758527873.4324908,0.8505859375,-0.0615234375,0.53564453125,-3.41796875,-2.13623046875,-4.150390625,-5.95458984375,-59.468994140625,-41.9732666015625
1758527873.442204,0.8505859375,-0.0615234375,0.53564453125,-3.41796875,-2.13623046875,-4.150390625,-5.9161376953125,-59.490966796875,-42.0391845703125
1758527873.4522195,0.84228515625,-0.08837890625,0.45654296875,1.46484375,-2.13623046875,-2.0751953125,-5.8721923828125,-59.5184326171875,-42.0611572265625
1758527873.4630055,0.84228515625,-0.08837890625,0.45654296875,1.46484375,-2.13623046875,-2.0751953125,-5.8282470703125,-59.5404052734375,-42.088623046875
1758527873.4723551,0.80859375,-0.10302734375,0.4150390625,7.26318359375,-3.84521484375,-2.62451171875,-5.723876953125,-59.5843505859375,-42.1160888671875
1758527873.4822776,0.80859375,-0.10302734375,0.4150390625,7.26318359375,-3.84521484375,-2.62451171875,-5.625,-59.6282958984375,-42.1380615234375
1758527873.4924862,0.837890625,-0.0478515625,0.47216796875,8.48388671875,-4.7607421875,-2.86865234375,-5.5096435546875,-59.677734375,-42.16552734375
1758527873.5025399,0.837890625,-0.0478515625,0.47216796875,8.48388671875,-4.7607421875,-2.86865234375,-5.3997802734375,-59.732666015625,-42.1929931640625
1758527873.5137613,0.8310546875,-0.04931640625,0.51806640625,7.080078125,-4.94384765625,-1.89208984375,-5.3118896484375,-59.78759765625,-42.198486328125
1758527873.5222633,0.8310546875,-0.04931640625,0.51806640625,7.080078125,-4.94384765625,-1.89208984375,-5.2294921875,-59.8370361328125,-42.20947265625
1758527873.53274,0.8310546875,-0.03369140625,0.435546875,7.50732421875,-4.94384765625,-1.77001953125,-5.1416015625,-59.886474609375,-42.220458984375
1758527873.5423179,0.8310546875,-0.03369140625,0.435546875,7.50732421875,-4.94384765625,-1.77001953125,-5.0482177734375,-59.94140625,-42.2314453125
1758527873.5524185,0.865234375,0.00537109375,0.46142578125,5.126953125,-5.55419921875,-1.708984375,-4.9822998046875,-60.0018310546875,-42.2369384765625
1758527873.5627663,0.865234375,0.00537109375,0.46142578125,5.126953125,-5.55419921875,-1.708984375,-4.9163818359375,-60.062255859375,-42.2479248046875
1758527873.572415,0.86572265625,-0.00634765625,0.52099609375,-5.37109375,-5.79833984375,-1.03759765625,-4.9603271484375,-60.1226806640625,-42.242431640625
1758527873.5824413,0.86572265625,-0.00634765625,0.52099609375,-5.37109375,-5.79833984375,-1.03759765625,-4.998779296875,-60.1776123046875,-42.242431640625
1758527873.592649,0.87646484375,-0.0439453125,0.478515625,-11.90185546875,-5.615234375,-0.67138671875,-5.1141357421875,-60.238037109375,-42.2314453125
1758527873.6024637,0.87646484375,-0.0439453125,0.478515625,-11.90185546875,-5.615234375,-0.67138671875,-5.2239990234375,-60.29296875,-42.220458984375
1758527873.6124556,0.86474609375,-0.0986328125,0.45166015625,-7.4462890625,-4.638671875,0.54931640625,-5.3118896484375,-60.3424072265625,-42.1875
1758527873.6227193,0.86474609375,-0.0986328125,0.45166015625,-7.4462890625,-4.638671875,0.54931640625,-5.4052734375,-60.391845703125,-42.154541015625
1758527873.6327424,0.9091796875,-0.09033203125,0.53466796875,0.54931640625,-2.9296875,0.0,-5.4107666015625,-60.4193115234375,-42.132568359375
1758527873.6424181,0.92822265625,0.0029296875,0.55126953125,3.7841796875,-1.64794921875,-0.6103515625,-5.394287109375,-60.44677734375,-42.1160888671875
1758527873.652481,0.92822265625,0.0029296875,0.55126953125,3.7841796875,-1.64794921875,-0.6103515625,-5.350341796875,-60.4632568359375,-42.110595703125
1758527873.6630569,0.94970703125,-0.01171875,0.513671875,-8.23974609375,-1.46484375,0.67138671875,-5.372314453125,-60.4742431640625,-42.099609375
1758527873.6725626,0.94970703125,-0.01171875,0.513671875,-8.23974609375,-1.46484375,0.67138671875,-5.4656982421875,-60.49072265625,-42.0721435546875
1758527873.682498,0.92236328125,-0.0869140625,0.51025390625,-7.32421875,-1.77001953125,1.28173828125,-5.5535888671875,-60.5072021484375,-42.03369140625
1758527873.6928968,0.92236328125,-0.0869140625,0.51025390625,-7.32421875,-1.77001953125,1.28173828125,-5.6524658203125,-60.523681640625,-41.9952392578125
1758527873.7031152,0.9140625,-0.08740234375,0.47900390625,0.42724609375,-2.3193359375,-0.30517578125,-5.6964111328125,-60.5401611328125,-41.9677734375
1758527873.7126615,0.9140625,-0.08740234375,0.47900390625,0.42724609375,-2.3193359375,-0.30517578125,-5.69091796875,-60.567626953125,-41.9512939453125
1758527873.7226427,0.974609375,-0.017578125,0.5146484375,4.2724609375,-2.0751953125,-1.77001953125,-5.657958984375,-60.589599609375,-41.9512939453125
1758527873.732842,0.974609375,-0.017578125,0.5146484375,4.2724609375,-2.0751953125,-1.77001953125,-5.5865478515625,-60.6170654296875,-41.9677734375
1758527873.7425463,0.97216796875,-0.03271484375,0.595703125,3.84521484375,-1.15966796875,-1.46484375,-5.5206298828125,-60.6390380859375,-41.9842529296875
1758527873.7528214,0.97216796875,-0.03271484375,0.595703125,3.84521484375,-1.15966796875,-1.46484375,-5.4547119140625,-60.6500244140625,-41.9952392578125
1758527873.7631083,0.9345703125,-0.06494140625,0.4990234375,-2.13623046875,-0.732421875,-0.54931640625,-5.42724609375,-60.6610107421875,-42.0062255859375
1758527873.7726865,0.9345703125,-0.06494140625,0.4990234375,-2.13623046875,-0.732421875,-0.54931640625,-5.438232421875,-60.66650390625,-42.000732421875
1758527873.7826474,0.88916015625,-0.07275390625,0.44140625,1.64794921875,-1.89208984375,-1.46484375,-5.42724609375,-60.6829833984375,-42.000732421875
1758527873.7929113,0.88916015625,-0.07275390625,0.44140625,1.64794921875,-1.89208984375,-1.46484375,-5.3887939453125,-60.7049560546875,-42.01171875
1758527873.8028855,0.87353515625,-0.0576171875,0.50634765625,6.4697265625,-2.3193359375,-0.3662109375,-5.33935546875,-60.732421875,-42.0062255859375
1758527873.8136742,0.87353515625,-0.0576171875,0.50634765625,6.4697265625,-2.3193359375,-0.3662109375,-5.2789306640625,-60.75439453125,-41.98974609375
1758527873.82268,0.87060546875,0.0224609375,0.51416015625,-2.9296875,-1.77001953125,1.0986328125,-5.2734375,-60.7763671875,-41.9622802734375
1758527873.8327293,0.87060546875,0.0224609375,0.51416015625,-2.9296875,-1.77001953125,1.0986328125,-5.3228759765625,-60.7928466796875,-41.923828125
1758527873.8428886,0.86083984375,0.01318359375,0.44580078125,-22.3388671875,-2.0751953125,3.41796875,-5.4876708984375,-60.809326171875,-41.8634033203125
1758527873.852746,0.86083984375,0.01318359375,0.44580078125,-22.3388671875,-2.0751953125,3.41796875,-5.7623291015625,-60.831298828125,-41.7755126953125
1758527873.8630772,0.841796875,-0.04345703125,0.45166015625,-25.634765625,-2.86865234375,3.84521484375,-6.0589599609375,-60.853271484375,-41.6876220703125
1758527873.8727794,0.841796875,-0.04345703125,0.45166015625,-25.634765625,-2.86865234375,3.84521484375,-6.3720703125,-60.8807373046875,-41.59423828125
1758527873.8828027,0.84521484375,-0.0654296875,0.45849609375,-21.1181640625,-2.86865234375,3.7841796875,-6.6632080078125,-60.9027099609375,-41.5008544921875
1758527873.8930345,0.84521484375,-0.0654296875,0.45849609375,-21.1181640625,-2.86865234375,3.7841796875,-6.9378662109375,-60.93017578125,-41.407470703125
1758527873.9032252,0.84228515625,-0.06982421875,0.451171875,-18.9208984375,-3.23486328125,3.11279296875,-7.1905517578125,-60.9576416015625,-41.319580078125
1758527873.912865,0.84228515625,-0.06982421875,0.451171875,-18.9208984375,-3.23486328125,3.11279296875,-7.4267578125,-60.985107421875,-41.2371826171875
1758527873.9228396,0.82958984375,-0.091796875,0.447265625,-12.14599609375,-3.0517578125,2.5634765625,-7.6300048828125,-61.01806640625,-41.15478515625
1758527873.9329667,0.82958984375,-0.091796875,0.447265625,-12.14599609375,-3.0517578125,2.5634765625,-7.7947998046875,-61.0455322265625,-41.0833740234375
1758527873.94284,0.8486328125,-0.08349609375,0.41650390625,-5.9814453125,-2.86865234375,1.5869140625,-7.921142578125,-61.072998046875,-41.0174560546875
1758527873.9528992,0.8486328125,-0.08349609375,0.41650390625,-5.9814453125,-2.86865234375,1.5869140625,-8.009033203125,-61.1004638671875,-40.9625244140625
1758527873.9632258,0.8388671875,-0.08251953125,0.47607421875,-7.87353515625,-2.685546875,1.953125,-8.1134033203125,-61.1279296875,-40.902099609375
1758527873.9730053,0.8388671875,-0.08251953125,0.47607421875,-7.87353515625,-2.685546875,1.953125,-8.228759765625,-61.1553955078125,-40.836181640625
1758527873.9829555,0.853515625,-0.07470703125,0.44482421875,-1.5869140625,-2.38037109375,1.40380859375,-8.3111572265625,-61.1773681640625,-40.7757568359375
1758527873.9930665,0.853515625,-0.07470703125,0.44482421875,-1.5869140625,-2.38037109375,1.40380859375,-8.3551025390625,-61.204833984375,-40.726318359375
1758527874.0033996,0.85888671875,-0.09912109375,0.44921875,3.35693359375,-1.89208984375,0.244140625,-8.3660888671875,-61.2213134765625,-40.6878662109375
1758527874.0129476,0.85888671875,-0.09912109375,0.44921875,3.35693359375,-1.89208984375,0.244140625,-8.3441162109375,-61.2432861328125,-40.6549072265625
1758527874.0229685,0.857421875,-0.103515625,0.48193359375,9.521484375,-0.9765625,0.0,-8.2891845703125,-61.259765625,-40.6329345703125
1758527874.0331268,0.857421875,-0.103515625,0.48193359375,9.521484375,-0.9765625,0.0,-8.2012939453125,-61.270751953125,-40.60546875
1758527874.0429316,0.8359375,-0.08935546875,0.4365234375,1.89208984375,-0.8544921875,0.0,-8.1573486328125,-61.28173828125,-40.58349609375
1758527874.053138,0.8359375,-0.08935546875,0.4365234375,1.89208984375,-0.8544921875,0.0,-8.15185546875,-61.2872314453125,-40.5615234375
1758527874.0632384,0.89111328125,-0.06005859375,0.48779296875,9.27734375,-0.48828125,-1.220703125,-8.096923828125,-61.2982177734375,-40.550537109375
1758527874.0730999,0.89111328125,-0.06005859375,0.48779296875,9.27734375,-0.48828125,-1.220703125,-7.9925537109375,-61.3037109375,-40.550537109375
1758527874.083065,0.92529296875,-0.08251953125,0.4775390625,19.04296875,-0.6103515625,-1.5869140625,-7.833251953125,-61.314697265625,-40.5560302734375
1758527874.093305,0.92529296875,-0.08251953125,0.4775390625,19.04296875,-0.6103515625,-1.5869140625,-7.62451171875,-61.3201904296875,-40.5670166015625
1758527874.1037753,0.9130859375,-0.015625,0.52587890625,9.3994140625,-1.5869140625,-0.79345703125,-7.4761962890625,-61.336669921875,-40.5670166015625
1758527874.1130977,0.9130859375,-0.015625,0.52587890625,9.3994140625,-1.5869140625,-0.79345703125,-7.3773193359375,-61.3531494140625,-40.5560302734375
1758527874.1235251,0.91796875,0.0126953125,0.51806640625,-5.859375,-2.13623046875,0.79345703125,-7.3663330078125,-61.36962890625,-40.53955078125
1758527874.1333978,0.91796875,0.0126953125,0.51806640625,-5.859375,-2.13623046875,0.79345703125,-7.437744140625,-61.3916015625,-40.5010986328125
1758527874.1431017,0.8916015625,-0.0859375,0.46240234375,-7.75146484375,-2.86865234375,1.15966796875,-7.5201416015625,-61.41357421875,-40.462646484375
1758527874.1531923,0.8916015625,-0.0859375,0.46240234375,-7.75146484375,-2.86865234375,1.15966796875,-7.6190185546875,-61.4410400390625,-40.418701171875
1758527874.1634176,0.9091796875,-0.10693359375,0.40283203125,2.9296875,-4.0283203125,0.244140625,-7.6629638671875,-61.4739990234375,-40.3802490234375
1758527874.1732488,0.9091796875,-0.10693359375,0.40283203125,2.9296875,-4.0283203125,0.244140625,-7.646484375,-61.512451171875,-40.3472900390625
1758527874.1833556,0.86328125,-0.10595703125,0.48486328125,13.00048828125,-4.39453125,0.244140625,-7.5860595703125,-61.5618896484375,-40.308837890625
1758527874.1934848,0.86328125,-0.10595703125,0.48486328125,13.00048828125,-4.39453125,0.244140625,-7.4761962890625,-61.6058349609375,-40.2703857421875
1758527874.2040079,0.85791015625,-0.0078125,0.4462890625,-0.48828125,-5.37109375,1.77001953125,-7.4542236328125,-61.6552734375,-40.2154541015625
1758527874.2132237,0.85791015625,-0.0078125,0.4462890625,-0.48828125,-5.37109375,1.77001953125,-7.5091552734375,-61.7047119140625,-40.14404296875
1758527874.2232127,0.83447265625,-0.0087890625,0.455078125,-8.72802734375,-5.43212890625,2.5634765625,-7.6080322265625,-61.7596435546875,-40.067138671875
1758527874.233552,0.83447265625,-0.0087890625,0.455078125,-8.72802734375,-5.43212890625,2.5634765625,-7.7508544921875,-61.80908203125,-39.9847412109375
1758527874.243245,0.876953125,-0.0927734375,0.41943359375,-5.9814453125,-5.55419921875,1.52587890625,-7.8662109375,-61.8585205078125,-39.913330078125
1758527874.2533686,0.876953125,-0.0927734375,0.41943359375,-5.9814453125,-5.55419921875,1.52587890625,-7.965087890625,-61.9134521484375,-39.847412109375
1758527874.2634122,0.8447265625,-0.0966796875,0.5009765625,8.1787109375,-5.06591796875,0.244140625,-7.9815673828125,-61.9683837890625,-39.7979736328125
1758527874.2733538,0.8447265625,-0.0966796875,0.5009765625,8.1787109375,-5.06591796875,0.244140625,-7.9156494140625,-62.017822265625,-39.7650146484375
1758527874.2833812,0.8369140625,-0.025390625,0.3857421875,-2.01416015625,-5.615234375,0.42724609375,-7.9046630859375,-62.0672607421875,-39.7265625
1758527874.2933621,0.8369140625,-0.025390625,0.3857421875,-2.01416015625,-5.615234375,0.42724609375,-7.9486083984375,-62.1221923828125,-39.6881103515625
1758527874.3039849,0.82470703125,-0.04443359375,0.4150390625,-6.89697265625,-5.79833984375,0.30517578125,-8.009033203125,-62.1771240234375,-39.6441650390625
1758527874.3133695,0.82470703125,-0.04443359375,0.4150390625,-6.89697265625,-5.79833984375,0.30517578125,-8.096923828125,-62.237548828125,-39.605712890625
1758527874.323412,0.82470703125,-0.04443359375,0.4150390625,-8.36181640625,-5.615234375,0.42724609375,-8.1903076171875,-62.29248046875,-39.5672607421875
1758527874.3337295,0.8759765625,-0.0693359375,0.45166015625,-8.36181640625,-5.615234375,0.42724609375,-8.2891845703125,-62.347412109375,-39.5233154296875
1758527874.3433993,0.86328125,-0.107421875,0.4970703125,-2.86865234375,-4.8828125,-0.06103515625,-8.360595703125,-62.40234375,-39.4903564453125
1758527874.353538,0.86328125,-0.107421875,0.4970703125,-2.86865234375,-4.8828125,-0.06103515625,-8.3990478515625,-62.4462890625,-39.4573974609375
1758527874.3636074,0.830078125,-0.068359375,0.37451171875,-1.03759765625,-5.615234375,-0.79345703125,-8.426513671875,-62.4957275390625,-39.4354248046875
1758527874.3735564,0.830078125,-0.068359375,0.37451171875,-1.03759765625,-5.615234375,-0.79345703125,-8.4375,-62.5506591796875,-39.4189453125
1758527874.3835185,0.86083984375,-0.0458984375,0.35009765625,-2.13623046875,-5.79833984375,-1.77001953125,-8.448486328125,-62.611083984375,-39.4134521484375
1758527874.3936312,0.86083984375,-0.0458984375,0.35009765625,-2.13623046875,-5.79833984375,-1.77001953125,-8.4539794921875,-62.6715087890625,-39.407958984375
1758527874.4043255,0.9130859375,-0.07275390625,0.53466796875,-4.2724609375,-5.55419921875,-1.708984375,-8.470458984375,-62.7374267578125,-39.407958984375
1758527874.4138985,0.9130859375,-0.07275390625,0.53466796875,-4.2724609375,-5.55419921875,-1.708984375,-8.492431640625,-62.7923583984375,-39.407958984375
1758527874.4235096,0.92822265625,-0.0634765625,0.48388671875,-2.0751953125,-3.96728515625,-2.50244140625,-8.4979248046875,-62.841796875,-39.4189453125
1758527874.4341378,0.92822265625,-0.0634765625,0.48388671875,-2.0751953125,-3.96728515625,-2.50244140625,-8.4814453125,-62.8857421875,-39.4464111328125
1758527874.4436216,0.8720703125,-0.07177734375,0.40625,3.84521484375,-3.96728515625,-3.96728515625,-8.4210205078125,-62.9241943359375,-39.4903564453125
1758527874.4543061,0.8720703125,-0.07177734375,0.40625,3.84521484375,-3.96728515625,-3.96728515625,-8.316650390625,-62.9681396484375,-39.5452880859375
1758527874.4636455,0.888671875,-0.07861328125,0.41162109375,16.41845703125,-3.5400390625,-5.37109375,-8.1353759765625,-63.0120849609375,-39.61669921875
1758527874.473708,0.888671875,-0.07861328125,0.41162109375,16.41845703125,-3.5400390625,-5.37109375,-7.8826904296875,-63.0560302734375,-39.6990966796875
1758527874.483634,0.92236328125,-0.07666015625,0.474609375,17.578125,-3.23486328125,-4.5166015625,-7.635498046875,-63.0999755859375,-39.7760009765625
1758527874.493789,0.92236328125,-0.07666015625,0.474609375,17.578125,-3.23486328125,-4.5166015625,-7.3883056640625,-63.138427734375,-39.8419189453125
1758527874.5043142,0.92236328125,-0.07666015625,0.474609375,0.91552734375,-2.99072265625,-2.5634765625,-7.239990234375,-63.17138671875,-39.8858642578125
1758527874.5137691,0.939453125,0.0009765625,0.5166015625,0.91552734375,-2.99072265625,-2.5634765625,-7.1905517578125,-63.204345703125,-39.9188232421875
1758527874.5237637,0.90966796875,-0.01513671875,0.45263671875,-10.986328125,-3.35693359375,-1.77001953125,-7.20703125,-63.2318115234375,-39.9407958984375
1758527874.5340416,0.90966796875,-0.01513671875,0.45263671875,-10.986328125,-3.35693359375,-1.77001953125,-7.283935546875,-63.270263671875,-39.957275390625
1758527874.5437222,0.91845703125,-0.06787109375,0.40185546875,-5.43212890625,-3.90625,-2.99072265625,-7.3223876953125,-63.30322265625,-39.9847412109375
1758527874.554246,0.91845703125,-0.06787109375,0.40185546875,-5.43212890625,-3.90625,-2.99072265625,-7.3223876953125,-63.34716796875,-40.023193359375
1758527874.5638607,0.91162109375,-0.16552734375,0.47265625,6.77490234375,-3.23486328125,-2.685546875,-7.2674560546875,-63.3856201171875,-40.0616455078125
1758527874.573726,0.91162109375,-0.16552734375,0.47265625,6.77490234375,-3.23486328125,-2.685546875,-7.1630859375,-63.424072265625,-40.089111328125
1758527874.5838048,0.896484375,-0.0791015625,0.421875,7.568359375,-3.47900390625,-1.40380859375,-7.0697021484375,-63.45703125,-40.10009765625
1758527874.5937479,0.896484375,-0.0791015625,0.421875,7.568359375,-3.47900390625,-1.40380859375,-6.9927978515625,-63.489990234375,-40.10009765625
1758527874.6047204,0.88671875,-0.0087890625,0.44873046875,-4.45556640625,-4.2724609375,0.1220703125,-6.9873046875,-63.5284423828125,-40.078125
1758527874.6137807,0.88671875,-0.0087890625,0.44873046875,-4.45556640625,-4.2724609375,0.1220703125,-7.05322265625,-63.5723876953125,-40.045166015625
1758527874.6237931,0.861328125,-0.00048828125,0.43408203125,-7.75146484375,-4.21142578125,0.0,-7.1466064453125,-63.61083984375,-40.0177001953125
1758527874.6338785,0.861328125,-0.00048828125,0.43408203125,-7.75146484375,-4.21142578125,0.0,-7.22900390625,-63.65478515625,-39.990234375
1758527874.6439223,0.79052734375,-0.07470703125,0.4189453125,-1.89208984375,-3.2958984375,-0.42724609375,-7.2509765625,-63.6822509765625,-39.9737548828125
1758527874.653948,0.79052734375,-0.07470703125,0.4189453125,-1.89208984375,-3.2958984375,-0.42724609375,-7.2674560546875,-63.7152099609375,-39.957275390625
1758527874.666433,0.82666015625,-0.1025390625,0.2216796875,5.43212890625,-3.5400390625,-1.52587890625,-7.196044921875,-63.753662109375,-39.957275390625
1758527874.6739168,0.82666015625,-0.1025390625,0.2216796875,5.43212890625,-3.5400390625,-1.52587890625,-7.1356201171875,-63.7921142578125,-39.9517822265625
1758527874.6839788,0.88037109375,-0.123046875,0.4736328125,4.2724609375,-4.21142578125,-0.732421875,-7.1026611328125,-63.841552734375,-39.92431640625
1758527874.693922,0.88037109375,-0.123046875,0.4736328125,4.2724609375,-4.21142578125,-0.732421875,-7.0751953125,-63.885498046875,-39.8968505859375
1758527874.7084537,0.9404296875,-0.06884765625,0.53125,9.58251953125,-2.99072265625,1.03759765625,-7.0257568359375,-63.91845703125,-39.83642578125
1758527874.716958,0.9404296875,-0.06884765625,0.53125,9.58251953125,-2.99072265625,1.03759765625,-6.976318359375,-63.9404296875,-39.781494140625
1758527874.7240288,0.93408203125,0.017578125,0.365234375,7.080078125,-3.0517578125,1.0986328125,-6.9488525390625,-63.973388671875,-39.7265625
1758527874.735729,0.93408203125,0.017578125,0.365234375,7.080078125,-3.0517578125,1.0986328125,-6.910400390625,-64.0008544921875,-39.6661376953125
1758527874.7442656,0.9228515625,-0.04248046875,0.4580078125,7.4462890625,-2.74658203125,1.03759765625,-6.8719482421875,-64.0283203125,-39.61669921875
1758527874.7540054,0.9228515625,-0.04248046875,0.4580078125,7.4462890625,-2.74658203125,1.03759765625,-6.8280029296875,-64.0557861328125,-39.5672607421875
1758527874.7640333,0.94140625,-0.0654296875,0.53515625,0.42724609375,-1.8310546875,0.8544921875,-6.844482421875,-64.072265625,-39.5233154296875
1758527874.7742996,0.94140625,-0.0654296875,0.53515625,0.42724609375,-1.8310546875,0.8544921875,-6.866455078125,-64.0887451171875,-39.48486328125
1758527874.7844183,0.9228515625,-0.00830078125,0.4365234375,-3.173828125,-0.48828125,0.6103515625,-6.910400390625,-64.0887451171875,-39.4573974609375
1758527874.7940862,0.9228515625,-0.00830078125,0.4365234375,-3.173828125,-0.48828125,0.6103515625,-6.954345703125,-64.0887451171875,-39.429931640625
1758527874.8052475,0.87255859375,-0.0419921875,0.38916015625,-2.38037109375,-0.30517578125,0.0,-6.9708251953125,-64.09423828125,-39.4189453125
1758527874.8140554,0.87255859375,-0.0419921875,0.38916015625,-2.38037109375,-0.30517578125,0.0,-6.9927978515625,-64.09423828125,-39.4024658203125
1758527874.824728,0.86376953125,-0.10595703125,0.39697265625,5.79833984375,0.244140625,-0.8544921875,-6.9158935546875,-64.09423828125,-39.407958984375
1758527874.8342052,0.86376953125,-0.10595703125,0.39697265625,5.79833984375,0.244140625,-0.8544921875,-6.844482421875,-64.09423828125,-39.407958984375
1758527874.844457,0.84423828125,-0.0654296875,0.400390625,8.544921875,0.0,-1.64794921875,-6.7291259765625,-64.09423828125,-39.4244384765625
1758527874.8541927,0.84423828125,-0.0654296875,0.400390625,8.544921875,0.0,-1.64794921875,-6.6192626953125,-64.0997314453125,-39.44091796875
1758527874.864343,0.80419921875,0.00927734375,0.384765625,0.67138671875,-0.42724609375,-0.54931640625,-6.602783203125,-64.105224609375,-39.429931640625
1758527874.8745553,0.80419921875,0.00927734375,0.384765625,0.67138671875,-0.42724609375,-0.54931640625,-6.5863037109375,-64.1107177734375,-39.4244384765625
1758527874.8844903,0.81689453125,-0.01220703125,0.373046875,-10.43701171875,-1.52587890625,0.42724609375,-6.70166015625,-64.127197265625,-39.39697265625
1758527874.8942285,0.81689453125,-0.01220703125,0.373046875,-10.43701171875,-1.52587890625,0.42724609375,-6.8115234375,-64.1436767578125,-39.3695068359375
1758527874.9056427,0.9716796875,-0.0458984375,0.4384765625,-7.38525390625,-2.685546875,-0.79345703125,-6.866455078125,-64.1766357421875,-39.364013671875
1758527874.9142148,0.9716796875,-0.0458984375,0.4384765625,-7.38525390625,-2.685546875,-0.79345703125,-6.9268798828125,-64.2041015625,-39.3585205078125
1758527874.92485,0.94140625,-0.0986328125,0.47265625,1.52587890625,-3.7841796875,-2.197265625,-6.8719482421875,-64.248046875,-39.3804931640625
1758527874.9342873,0.94140625,-0.0986328125,0.47265625,1.52587890625,-3.7841796875,-2.197265625,-6.8170166015625,-64.2864990234375,-39.407958984375
1758527874.9459732,0.91015625,0.00146484375,0.4072265625,-11.29150390625,-4.94384765625,-2.50244140625,-6.888427734375,-64.3414306640625,-39.429931640625
1758527874.9546044,0.91015625,0.00146484375,0.4072265625,-11.29150390625,-4.94384765625,-2.50244140625,-6.954345703125,-64.3963623046875,-39.4573974609375
1758527874.964323,0.93115234375,0.021484375,0.47314453125,-22.03369140625,-5.18798828125,-3.60107421875,-7.1026611328125,-64.4512939453125,-39.517822265625
1758527874.9754434,0.93115234375,0.021484375,0.47314453125,-22.03369140625,-5.18798828125,-3.60107421875,-7.2454833984375,-64.5062255859375,-39.5782470703125
1758527874.984369,0.94873046875,-0.0078125,0.47802734375,-20.93505859375,-3.84521484375,-6.2255859375,-7.3114013671875,-64.5501708984375,-39.70458984375
1758527874.9943411,0.94873046875,-0.0078125,0.47802734375,-20.93505859375,-3.84521484375,-6.2255859375,-7.3773193359375,-64.5941162109375,-39.8309326171875
1758527875.0090864,0.90966796875,-0.0791015625,0.4072265625,-14.7705078125,-3.72314453125,-5.615234375,-7.3992919921875,-64.6380615234375,-39.9407958984375
1758527875.0156229,0.90966796875,-0.0791015625,0.4072265625,-14.7705078125,-3.72314453125,-5.615234375,-7.4212646484375,-64.6820068359375,-40.0506591796875
1758527875.024408,0.9453125,-0.12646484375,0.375,-13.671875,-3.96728515625,-5.126953125,-7.44873046875,-64.7259521484375,-40.14404296875
1758527875.0388775,0.9453125,-0.12646484375,0.375,-13.671875,-3.96728515625,-5.126953125,-7.4871826171875,-64.775390625,-40.23193359375
1758527875.0450587,1.01123046875,-0.109375,0.455078125,-12.20703125,-4.7607421875,-5.37109375,-7.5091552734375,-64.830322265625,-40.31982421875
1758527875.054527,1.01123046875,-0.109375,0.455078125,-12.20703125,-4.7607421875,-5.37109375,-7.53662109375,-64.88525390625,-40.4022216796875
1758527875.0644567,0.97119140625,-0.02783203125,0.4775390625,-2.685546875,-4.5166015625,-6.53076171875,-7.437744140625,-64.940185546875,-40.517578125
1758527875.0772433,0.97119140625,-0.02783203125,0.4775390625,-2.685546875,-4.5166015625,-6.53076171875,-7.3388671875,-64.9896240234375,-40.6329345703125
1758527875.0844922,0.904296875,-0.06396484375,0.40380859375,6.16455078125,-4.5166015625,-5.615234375,-7.174072265625,-65.0445556640625,-40.726318359375
1758527875.0948238,0.904296875,-0.06396484375,0.40380859375,6.16455078125,-4.5166015625,-5.615234375,-7.00927734375,-65.093994140625,-40.8197021484375
1758527875.1053808,0.91845703125,-0.150390625,0.3125,16.357421875,-4.33349609375,-4.638671875,-6.767578125,-65.1434326171875,-40.89111328125
1758527875.1145554,0.91845703125,-0.150390625,0.3125,16.357421875,-4.33349609375,-4.638671875,-6.536865234375,-65.1983642578125,-40.9515380859375
1758527875.1248996,0.8994140625,-0.06640625,0.44873046875,12.8173828125,-3.2958984375,-4.94384765625,-6.328125,-65.23681640625,-41.02294921875
1758527875.1390786,0.8994140625,-0.06640625,0.44873046875,12.8173828125,-3.2958984375,-4.94384765625,-6.1248779296875,-65.28076171875,-41.0943603515625
1758527875.1452196,0.8603515625,0.033203125,0.45263671875,4.33349609375,-2.38037109375,-3.2958984375,-6.031494140625,-65.3082275390625,-41.1383056640625
1758527875.1545856,0.8603515625,0.033203125,0.45263671875,4.33349609375,-2.38037109375,-3.2958984375,-5.9326171875,-65.3302001953125,-41.1822509765625
1758527875.1646113,0.86328125,0.02294921875,0.4033203125,-5.859375,-1.89208984375,-1.5869140625,-5.965576171875,-65.3521728515625,-41.19873046875
1758527875.1772711,0.86328125,0.02294921875,0.4033203125,-5.859375,-1.89208984375,-1.5869140625,-5.9930419921875,-65.36865234375,-41.209716796875
1758527875.1847596,0.9296875,-0.1142578125,0.35791015625,2.38037109375,-2.74658203125,-0.06103515625,-5.9765625,-65.3961181640625,-41.187744140625
1758527875.1946287,0.9296875,-0.1142578125,0.35791015625,2.38037109375,-2.74658203125,-0.06103515625,-5.965576171875,-65.423583984375,-41.15478515625
1758527875.2051537,0.904296875,-0.14013671875,0.33154296875,-0.54931640625,-4.08935546875,-0.1220703125,-5.987548828125,-65.467529296875,-41.1163330078125
1758527875.2147174,0.904296875,-0.14013671875,0.33154296875,-0.54931640625,-4.08935546875,-0.1220703125,-6.0260009765625,-65.511474609375,-41.0723876953125
1758527875.2250748,0.8388671875,0.00927734375,0.484375,4.69970703125,0.3662109375,-4.33349609375,-5.899658203125,-65.5169677734375,-41.143798828125
1758527875.2352107,0.8388671875,0.00927734375,0.484375,4.69970703125,0.3662109375,-4.33349609375,-5.767822265625,-65.5169677734375,-41.220703125
1758527875.2448633,0.8779296875,-0.0029296875,0.44482421875,19.287109375,1.64794921875,-1.28173828125,-5.5535888671875,-65.4949951171875,-41.2371826171875
1758527875.2547786,0.8779296875,-0.0029296875,0.44482421875,19.287109375,1.64794921875,-1.28173828125,-5.3338623046875,-65.478515625,-41.2481689453125
1758527875.2648308,0.9404296875,-0.03466796875,0.34765625,-0.30517578125,0.67138671875,-0.06103515625,-5.33935546875,-65.467529296875,-41.231689453125
1758527875.2751973,0.9404296875,-0.03466796875,0.34765625,-0.30517578125,0.67138671875,-0.06103515625,-5.3448486328125,-65.4620361328125,-41.209716796875
1758527875.2849581,0.927734375,-0.06103515625,0.41015625,8.056640625,0.8544921875,1.64794921875,-5.306396484375,-65.45654296875,-41.1492919921875
1758527875.2948637,0.927734375,-0.06103515625,0.41015625,8.056640625,0.8544921875,1.64794921875,-5.2679443359375,-65.445556640625,-41.0888671875
1758527875.3056223,0.96337890625,-0.10498046875,0.4482421875,4.0283203125,-0.30517578125,2.99072265625,-5.3009033203125,-65.4510498046875,-40.989990234375
1758527875.3161452,0.96337890625,-0.10498046875,0.4482421875,4.0283203125,-0.30517578125,2.99072265625,-5.3448486328125,-65.4510498046875,-40.89111328125
1758527875.324877,0.97802734375,-0.02685546875,0.3984375,9.8876953125,-1.52587890625,3.2958984375,-5.3338623046875,-65.4620361328125,-40.78125
1758527875.3397746,0.97802734375,-0.02685546875,0.3984375,9.8876953125,-1.52587890625,3.2958984375,-5.3173828125,-65.478515625,-40.67138671875
1758527875.3459415,0.9619140625,-0.09716796875,0.3974609375,23.86474609375,-2.86865234375,2.8076171875,-5.16357421875,-65.5059814453125,-40.572509765625
1758527875.355645,0.9619140625,-0.09716796875,0.3974609375,23.86474609375,-2.86865234375,2.8076171875,-5.009765625,-65.5389404296875,-40.4681396484375
1758527875.3702166,0.8916015625,-0.1083984375,0.36181640625,28.4423828125,-2.99072265625,3.662109375,-4.833984375,-65.5718994140625,-40.3363037109375
1758527875.3784153,0.8916015625,-0.1083984375,0.36181640625,28.4423828125,-2.99072265625,3.662109375,-4.6636962890625,-65.599365234375,-40.2099609375
1758527875.385014,0.83837890625,0.03662109375,0.4853515625,20.69091796875,-0.42724609375,2.197265625,-4.5318603515625,-65.6048583984375,-40.1220703125
1758527875.394898,0.83837890625,0.03662109375,0.4853515625,20.69091796875,-0.42724609375,2.197265625,-4.3890380859375,-65.6103515625,-40.045166015625
1758527875.405373,0.9169921875,0.080078125,0.4580078125,10.3759765625,1.77001953125,2.86865234375,-4.3505859375,-65.58837890625,-39.96826171875
1758527875.4149106,0.9169921875,0.080078125,0.4580078125,10.3759765625,1.77001953125,2.86865234375,-4.306640625,-65.5609130859375,-39.891357421875
1758527875.4250932,0.93603515625,0.04443359375,0.3408203125,-3.84521484375,0.244140625,3.173828125,-4.405517578125,-65.555419921875,-39.8089599609375
1758527875.4354336,0.93603515625,0.04443359375,0.3408203125,-3.84521484375,0.244140625,3.173828125,-4.493408203125,-65.555419921875,-39.7265625
1758527875.445103,0.9287109375,-0.06591796875,0.40234375,-7.568359375,-0.9765625,3.35693359375,-4.6307373046875,-65.56640625,-39.6331787109375
1758527875.455053,0.9287109375,-0.06591796875,0.40234375,-7.568359375,-0.9765625,3.35693359375,-4.7735595703125,-65.5718994140625,-39.539794921875
1758527875.4651573,0.95166015625,-0.07373046875,0.44189453125,-6.53076171875,-0.48828125,2.86865234375,-4.8944091796875,-65.577392578125,-39.4573974609375
1758527875.4753168,0.95166015625,-0.07373046875,0.44189453125,-6.53076171875,-0.48828125,2.86865234375,-5.020751953125,-65.5828857421875,-39.3695068359375
1758527875.4851794,0.94189453125,-0.0048828125,0.4716796875,0.6103515625,0.732421875,2.25830078125,-5.0592041015625,-65.5718994140625,-39.3035888671875
1758527875.495153,0.94189453125,-0.0048828125,0.4716796875,0.6103515625,0.732421875,2.25830078125,-5.0921630859375,-65.56640625,-39.2376708984375
1758527875.5055044,0.94189453125,-0.0048828125,0.4716796875,1.3427734375,1.220703125,2.197265625,-5.1141357421875,-65.5499267578125,-39.17724609375
1758527875.515052,0.998046875,-0.04833984375,0.43701171875,1.3427734375,1.220703125,2.197265625,-5.1416015625,-65.533447265625,-39.1168212890625
1758527875.525454,0.9951171875,-0.0458984375,0.427734375,3.2958984375,1.0986328125,1.77001953125,-5.1416015625,-65.5224609375,-39.0618896484375
1758527875.5355258,0.9951171875,-0.0458984375,0.427734375,3.2958984375,1.0986328125,1.77001953125,-5.1416015625,-65.511474609375,-39.0069580078125
1758527875.5452394,0.97412109375,-0.015625,0.4580078125,1.52587890625,1.46484375,0.79345703125,-5.1361083984375,-65.4949951171875,-38.9794921875
1758527875.5553288,0.97412109375,-0.015625,0.4580078125,1.52587890625,1.46484375,0.79345703125,-5.1251220703125,-65.4840087890625,-38.9520263671875
1758527875.5653014,0.97412109375,-0.01513671875,0.4599609375,-4.08935546875,1.89208984375,0.3662109375,-5.16357421875,-65.4620361328125,-38.935546875
1758527875.575418,0.97412109375,-0.01513671875,0.4599609375,-4.08935546875,1.89208984375,0.3662109375,-5.196533203125,-65.445556640625,-38.924560546875
1758527875.585262,0.974609375,0.02197265625,0.42529296875,-9.58251953125,1.64794921875,0.67138671875,-5.29541015625,-65.4290771484375,-38.902587890625
1758527875.5951488,0.982421875,-0.06396484375,0.4638671875,-6.53076171875,1.89208984375,0.30517578125,-5.3668212890625,-65.41259765625,-38.8861083984375
1758527875.6058397,0.982421875,-0.06396484375,0.4638671875,-6.53076171875,1.89208984375,0.30517578125,-5.4217529296875,-65.390625,-38.8751220703125
1758527875.6165798,0.9912109375,-0.04638671875,0.40087890625,-5.37109375,1.52587890625,0.42724609375,-5.4766845703125,-65.3741455078125,-38.858642578125
1758527875.6252997,0.9912109375,-0.04638671875,0.40087890625,-5.37109375,1.52587890625,0.42724609375,-5.526123046875,-65.3631591796875,-38.836669921875
1758527875.6355078,0.9150390625,-0.05908203125,0.39697265625,0.54931640625,0.67138671875,0.91552734375,-5.5535888671875,-65.3521728515625,-38.8092041015625
1758527875.6456666,0.9150390625,-0.05908203125,0.39697265625,0.54931640625,0.67138671875,0.91552734375,-5.5645751953125,-65.3466796875,-38.770751953125
1758527875.6552334,0.92724609375,-0.04736328125,0.4189453125,-1.52587890625,-0.9765625,1.708984375,-5.592041015625,-65.3521728515625,-38.7213134765625
1758527875.665455,0.92724609375,-0.04736328125,0.4189453125,-1.52587890625,-0.9765625,1.708984375,-5.6414794921875,-65.3631591796875,-38.660888671875
1758527875.6757767,0.90625,-0.02197265625,0.3759765625,-4.21142578125,-1.708984375,2.01416015625,-5.712890625,-65.379638671875,-38.594970703125
1758527875.685433,0.90625,-0.02197265625,0.3759765625,-4.21142578125,-1.708984375,2.01416015625,-5.7952880859375,-65.3961181640625,-38.5235595703125
1758527875.6954033,0.90283203125,-0.048828125,0.38818359375,-8.6669921875,-2.5634765625,2.197265625,-5.9051513671875,-65.4180908203125,-38.4521484375
1758527875.7059195,0.90283203125,-0.048828125,0.38818359375,-8.6669921875,-2.5634765625,2.197265625,-6.04248046875,-65.445556640625,-38.375244140625
1758527875.7153323,0.876953125,-0.0517578125,0.44287109375,-4.638671875,-2.74658203125,2.13623046875,-6.1578369140625,-65.478515625,-38.29833984375
1758527875.7254765,0.876953125,-0.0517578125,0.44287109375,-4.638671875,-2.74658203125,2.13623046875,-6.251220703125,-65.50048828125,-38.221435546875
1758527875.7358289,0.88720703125,-0.06005859375,0.3603515625,1.708984375,-2.38037109375,2.197265625,-6.317138671875,-65.5279541015625,-38.1500244140625
1758527875.745518,0.88720703125,-0.06005859375,0.3603515625,1.708984375,-2.38037109375,2.197265625,-6.35009765625,-65.5499267578125,-38.0731201171875
1758527875.7556574,0.88525390625,-0.025390625,0.36328125,-1.77001953125,-2.9296875,1.77001953125,-6.3995361328125,-65.577392578125,-37.9962158203125
1758527875.7656522,0.88525390625,-0.025390625,0.36328125,-1.77001953125,-2.9296875,1.77001953125,-6.4599609375,-65.6103515625,-37.9302978515625
1758527875.7756302,0.86572265625,0.009765625,0.42431640625,-9.58251953125,-2.86865234375,1.953125,-6.558837890625,-65.6378173828125,-37.85888671875
1758527875.7856002,0.86572265625,0.009765625,0.42431640625,-9.58251953125,-2.86865234375,1.953125,-6.6961669921875,-65.665283203125,-37.79296875
1758527875.795648,0.86572265625,-0.00048828125,0.4091796875,-16.54052734375,-2.3193359375,1.8310546875,-6.85546875,-65.6927490234375,-37.72705078125
1758527875.8058681,0.86572265625,-0.00048828125,0.4091796875,-16.54052734375,-2.3193359375,1.8310546875,-7.05322265625,-65.7147216796875,-37.672119140625
1758527875.8154883,0.87939453125,-0.07177734375,0.36767578125,-12.451171875,-2.13623046875,2.13623046875,-7.2235107421875,-65.731201171875,-37.6116943359375
1758527875.8255916,0.87939453125,-0.07177734375,0.36767578125,-12.451171875,-2.13623046875,2.13623046875,-7.3883056640625,-65.753173828125,-37.5457763671875
1758527875.8360095,0.87158203125,-0.10400390625,0.37646484375,-8.4228515625,-1.953125,2.3193359375,-7.5311279296875,-65.7696533203125,-37.4798583984375
1758527875.8456438,0.87158203125,-0.10400390625,0.37646484375,-8.4228515625,-1.953125,2.3193359375,-7.6629638671875,-65.7861328125,-37.4029541015625
1758527875.8556201,0.8427734375,-0.0712890625,0.37939453125,-5.06591796875,-1.220703125,2.01416015625,-7.7783203125,-65.8026123046875,-37.33154296875
1758527875.865819,0.8427734375,-0.0712890625,0.37939453125,-5.06591796875,-1.220703125,2.01416015625,-7.8717041015625,-65.80810546875,-37.2601318359375
1758527875.8759458,0.86376953125,-0.05224609375,0.365234375,-1.64794921875,-1.28173828125,1.220703125,-7.943115234375,-65.819091796875,-37.2052001953125
1758527875.8856657,0.86376953125,-0.05224609375,0.365234375,-1.64794921875,-1.28173828125,1.220703125,-7.987060546875,-65.8355712890625,-37.15576171875
1758527875.8956053,0.89599609375,-0.07275390625,0.38427734375,0.54931640625,-1.03759765625,0.732421875,-8.02001953125,-65.8465576171875,-37.1063232421875
1758527875.9061396,0.89599609375,-0.07275390625,0.38427734375,0.54931640625,-1.03759765625,0.732421875,-8.031005859375,-65.8575439453125,-37.06787109375
1758527875.9156444,0.91552734375,-0.07373046875,0.40625,4.08935546875,-0.67138671875,0.06103515625,-8.02001953125,-65.863037109375,-37.0404052734375
1758527875.9258327,0.91552734375,-0.07373046875,0.40625,4.08935546875,-0.67138671875,0.06103515625,-7.987060546875,-65.8740234375,-37.0184326171875
1758527875.936134,0.89013671875,-0.0458984375,0.41943359375,6.53076171875,-0.18310546875,-0.732421875,-7.93212890625,-65.8795166015625,-37.001953125
1758527875.9457579,0.89013671875,-0.0458984375,0.41943359375,6.53076171875,-0.18310546875,-0.732421875,-7.8497314453125,-65.8795166015625,-37.001953125
1758527875.9559674,0.875,-0.06201171875,0.36767578125,7.62939453125,-0.3662109375,-1.03759765625,-7.767333984375,-65.885009765625,-37.0074462890625
1758527875.9658341,0.875,-0.06201171875,0.36767578125,7.62939453125,-0.3662109375,-1.03759765625,-7.66845703125,-65.8905029296875,-37.012939453125
1758527875.9760942,0.861328125,-0.056640625,0.3701171875,7.2021484375,-0.8544921875,-0.9765625,-7.58056640625,-65.89599609375,-37.0184326171875
1758527875.985774,0.861328125,-0.056640625,0.3701171875,7.2021484375,-0.8544921875,-0.9765625,-7.49267578125,-65.906982421875,-37.0184326171875
1758527875.995761,0.8203125,-0.05615234375,0.38623046875,11.474609375,-0.8544921875,-1.8310546875,-7.3773193359375,-65.91796875,-37.0294189453125
1758527876.0061412,0.8203125,-0.05615234375,0.38623046875,11.474609375,-0.8544921875,-1.8310546875,-7.2344970703125,-65.928955078125,-37.0513916015625
1758527876.0157545,0.802734375,-0.04150390625,0.333984375,8.7890625,-1.28173828125,-2.197265625,-7.09716796875,-65.9454345703125,-37.078857421875
1758527876.0258584,0.802734375,-0.04150390625,0.333984375,8.7890625,-1.28173828125,-2.197265625,-6.9708251953125,-65.9564208984375,-37.1063232421875
1758527876.0362782,0.8642578125,-0.03564453125,0.341796875,8.544921875,-2.38037109375,-2.685546875,-6.844482421875,-65.98388671875,-37.1392822265625
1758527876.0458083,0.8642578125,-0.03564453125,0.341796875,8.544921875,-2.38037109375,-2.685546875,-6.712646484375,-66.0113525390625,-37.177734375
1758527876.0560977,0.8740234375,-0.01416015625,0.41455078125,-0.06103515625,-2.74658203125,-2.197265625,-6.624755859375,-66.038818359375,-37.210693359375
1758527876.0659294,0.8740234375,-0.01416015625,0.41455078125,-0.06103515625,-2.74658203125,-2.197265625,-6.5863037109375,-66.07177734375,-37.232666015625
1758527876.076295,0.88134765625,-0.02734375,0.3857421875,-1.953125,-2.38037109375,-2.197265625,-6.5533447265625,-66.0992431640625,-37.265625
1758527876.0859256,0.88134765625,-0.02734375,0.3857421875,-1.953125,-2.38037109375,-2.197265625,-6.5313720703125,-66.126708984375,-37.298583984375
1758527876.096062,0.900390625,-0.0361328125,0.37353515625,-6.04248046875,-2.685546875,-1.89208984375,-6.5313720703125,-66.1541748046875,-37.3260498046875
1758527876.1063614,0.900390625,-0.0361328125,0.37353515625,-6.04248046875,-2.685546875,-1.89208984375,-6.5533447265625,-66.181640625,-37.3480224609375
1758527876.1159768,0.93212890625,-0.06201171875,0.40869140625,-2.99072265625,-2.38037109375,-2.44140625,-6.5533447265625,-66.214599609375,-37.37548828125
1758527876.1259472,0.93212890625,-0.06201171875,0.40869140625,-2.99072265625,-2.38037109375,-2.44140625,-6.5313720703125,-66.2420654296875,-37.4139404296875
1758527876.1364229,0.97021484375,-0.07958984375,0.42431640625,2.0751953125,-1.77001953125,-2.685546875,-6.48193359375,-66.2640380859375,-37.452392578125
1758527876.145965,0.97021484375,-0.07958984375,0.42431640625,2.0751953125,-1.77001953125,-2.685546875,-6.4105224609375,-66.2860107421875,-37.4908447265625
1758527876.1561685,0.9912109375,-0.05517578125,0.42529296875,4.57763671875,-1.46484375,-2.86865234375,-6.3226318359375,-66.302490234375,-37.5347900390625
1758527876.166051,0.9912109375,-0.05517578125,0.42529296875,4.57763671875,-1.46484375,-2.86865234375,-6.2237548828125,-66.324462890625,-37.584228515625
1758527876.1760595,0.97802734375,-0.021484375,0.42431640625,1.46484375,-1.64794921875,-2.44140625,-6.1468505859375,-66.3409423828125,-37.6226806640625
1758527876.1859736,0.97802734375,-0.021484375,0.42431640625,1.46484375,-1.64794921875,-2.44140625,-6.0809326171875,-66.357421875,-37.6611328125
1758527876.1960251,0.986328125,-0.0244140625,0.42431640625,2.5634765625,-1.708984375,-2.25830078125,-6.0150146484375,-66.37939453125,-37.6995849609375
1758527876.206845,0.986328125,-0.0244140625,0.42431640625,2.5634765625,-1.708984375,-2.25830078125,-5.943603515625,-66.4013671875,-37.7325439453125
1758527876.2174025,0.98095703125,-0.06005859375,0.4169921875,0.54931640625,-2.0751953125,-1.5869140625,-5.888671875,-66.4178466796875,-37.760009765625
1758527876.2260847,0.98095703125,-0.06005859375,0.4169921875,0.54931640625,-2.0751953125,-1.5869140625,-5.855712890625,-66.4398193359375,-37.7764892578125
1758527876.2363002,0.96484375,-0.0400390625,0.42529296875,-1.0986328125,-2.3193359375,-1.220703125,-5.833740234375,-66.46728515625,-37.7874755859375
1758527876.2460964,0.96484375,-0.0400390625,0.42529296875,-1.0986328125,-2.3193359375,-1.220703125,-5.82275390625,-66.4892578125,-37.7984619140625
1758527876.256123,0.94091796875,-0.009765625,0.39501953125,-5.06591796875,-2.74658203125,-1.03759765625,-5.833740234375,-66.5167236328125,-37.7984619140625
1758527876.266501,0.94091796875,-0.009765625,0.39501953125,-5.06591796875,-2.74658203125,-1.03759765625,-5.86669921875,-66.544189453125,-37.803955078125
1758527876.2762563,0.92626953125,-0.02294921875,0.36962890625,-5.9814453125,-3.2958984375,-0.91552734375,-5.9051513671875,-66.5771484375,-37.803955078125
1758527876.2861178,0.92626953125,-0.02294921875,0.36962890625,-5.9814453125,-3.2958984375,-0.91552734375,-5.943603515625,-66.610107421875,-37.803955078125
1758527876.296425,0.9384765625,-0.0654296875,0.3896484375,-4.8828125,-3.7841796875,-0.79345703125,-5.9820556640625,-66.6485595703125,-37.803955078125
1758527876.3063989,0.9384765625,-0.0654296875,0.3896484375,-4.8828125,-3.7841796875,-0.79345703125,-6.0205078125,-66.68701171875,-37.7984619140625
1758527876.3161633,0.9658203125,-0.08203125,0.3974609375,-3.23486328125,-3.23486328125,-0.42724609375,-6.053466796875,-66.7254638671875,-37.7874755859375
1758527876.326144,0.9658203125,-0.08203125,0.3974609375,-3.23486328125,-3.23486328125,-0.42724609375,-6.08642578125,-66.7584228515625,-37.7655029296875
1758527876.3363078,0.95947265625,-0.0419921875,0.39453125,-0.1220703125,-2.8076171875,-0.244140625,-6.1083984375,-66.7913818359375,-37.7435302734375
1758527876.3462882,0.95947265625,-0.0419921875,0.39453125,-0.1220703125,-2.8076171875,-0.244140625,-6.1138916015625,-66.81884765625,-37.7215576171875
1758527876.356287,0.9560546875,-0.0576171875,0.419921875,5.79833984375,-2.25830078125,-0.42724609375,-6.08642578125,-66.8463134765625,-37.6995849609375
1758527876.3666072,0.9560546875,-0.0576171875,0.419921875,5.79833984375,-2.25830078125,-0.42724609375,-6.031494140625,-66.873779296875,-37.68310546875
1758527876.3763492,0.9521484375,-0.05908203125,0.396484375,7.568359375,-1.5869140625,-0.1220703125,-5.9710693359375,-66.8902587890625,-37.6666259765625
1758527876.386262,0.9521484375,-0.05908203125,0.396484375,7.568359375,-1.5869140625,-0.1220703125,-5.899658203125,-66.90673828125,-37.6446533203125
1758527876.3962271,0.94384765625,-0.0224609375,0.38330078125,4.7607421875,-1.5869140625,0.0,-5.8502197265625,-66.9232177734375,-37.6171875
1758527876.4064074,0.94384765625,-0.0224609375,0.38330078125,4.7607421875,-1.5869140625,0.0,-5.811767578125,-66.939697265625,-37.59521484375
1758527876.4162843,0.9228515625,-0.0126953125,0.42529296875,-0.3662109375,-1.64794921875,0.91552734375,-5.8062744140625,-66.9561767578125,-37.5567626953125
1758527876.4264994,0.9228515625,-0.0126953125,0.42529296875,-0.3662109375,-1.64794921875,0.91552734375,-5.8392333984375,-66.97265625,-37.5128173828125
1758527876.4364572,0.90771484375,-0.03125,0.39892578125,-2.3193359375,-1.64794921875,1.8310546875,-5.888671875,-66.9891357421875,-37.46337890625
1758527876.4463801,0.90771484375,-0.03125,0.39892578125,-2.3193359375,-1.64794921875,1.8310546875,-5.95458984375,-67.0001220703125,-37.3974609375
1758527876.4563794,0.916015625,-0.080078125,0.3369140625,1.40380859375,-1.708984375,2.0751953125,-6.0040283203125,-67.0111083984375,-37.33154296875
1758527876.4673767,0.916015625,-0.080078125,0.3369140625,1.40380859375,-1.708984375,2.0751953125,-6.0479736328125,-67.027587890625,-37.254638671875
1758527876.4766757,0.9130859375,-0.0654296875,0.3603515625,3.72314453125,-2.01416015625,2.74658203125,-6.08642578125,-67.0440673828125,-37.1722412109375
1758527876.4863746,0.9130859375,-0.0654296875,0.3603515625,3.72314453125,-2.01416015625,2.74658203125,-6.1248779296875,-67.060546875,-37.0733642578125
1758527876.4966762,0.921875,-0.03759765625,0.4052734375,1.3427734375,-1.953125,3.41796875,-6.1798095703125,-67.08251953125,-36.968994140625
1758527876.5076494,0.921875,-0.03759765625,0.4052734375,1.3427734375,-1.953125,3.41796875,-6.2567138671875,-67.0989990234375,-36.859130859375
1758527876.5164819,0.92529296875,-0.01025390625,0.3984375,-1.28173828125,-1.52587890625,3.173828125,-6.3446044921875,-67.1099853515625,-36.749267578125
1758527876.5264452,0.92529296875,-0.01025390625,0.3984375,-1.28173828125,-1.52587890625,3.173828125,-6.4324951171875,-67.1209716796875,-36.650390625
1758527876.5365965,0.92236328125,-0.04150390625,0.3583984375,-5.126953125,-1.64794921875,3.41796875,-6.5423583984375,-67.137451171875,-36.551513671875
1758527876.5465007,0.92236328125,-0.04150390625,0.3583984375,-5.126953125,-1.64794921875,3.41796875,-6.6796875,-67.1484375,-36.4471435546875
1758527876.556502,0.927734375,-0.06103515625,0.38525390625,-1.64794921875,-1.28173828125,3.0517578125,-6.78955078125,-67.159423828125,-36.3427734375
1758527876.5670245,0.927734375,-0.06103515625,0.38525390625,-1.64794921875,-1.28173828125,3.0517578125,-6.87744140625,-67.17041015625,-36.2493896484375
1758527876.5765944,0.92578125,-0.0673828125,0.3740234375,3.84521484375,-0.8544921875,2.38037109375,-6.932373046875,-67.1759033203125,-36.1614990234375
1758527876.5865378,0.92578125,-0.0673828125,0.3740234375,3.84521484375,-0.8544921875,2.38037109375,-6.954345703125,-67.1868896484375,-36.0791015625
1758527876.5968843,0.91650390625,-0.0576171875,0.38671875,6.8359375,-0.54931640625,2.3193359375,-6.943359375,-67.1868896484375,-36.002197265625
1758527876.6069913,0.91650390625,-0.0576171875,0.38671875,6.8359375,-0.54931640625,2.3193359375,-6.932373046875,-67.1923828125,-35.92529296875
1758527876.6165617,0.90478515625,0.0009765625,0.3857421875,6.77490234375,-0.06103515625,2.0751953125,-6.910400390625,-67.1923828125,-35.8538818359375
1758527876.6266193,0.90478515625,0.0009765625,0.3857421875,6.77490234375,-0.06103515625,2.0751953125,-6.888427734375,-67.1868896484375,-35.7879638671875
1758527876.6367235,0.912109375,-0.0048828125,0.37158203125,3.41796875,-0.06103515625,1.8310546875,-6.888427734375,-67.1868896484375,-35.7330322265625
1758527876.6466384,0.912109375,-0.0048828125,0.37158203125,3.41796875,-0.06103515625,1.8310546875,-6.888427734375,-67.1868896484375,-35.672607421875
1758527876.656675,0.892578125,-0.048828125,0.3876953125,-2.197265625,0.1220703125,2.0751953125,-6.9488525390625,-67.1868896484375,-35.6121826171875
1758527876.6673963,0.892578125,-0.048828125,0.3876953125,-2.197265625,0.1220703125,2.0751953125,-7.00927734375,-67.181396484375,-35.5517578125
1758527876.6767347,0.87841796875,-0.07958984375,0.36376953125,1.0986328125,0.42724609375,1.8310546875,-7.0367431640625,-67.1759033203125,-35.496826171875
1758527876.686692,0.87841796875,-0.07958984375,0.36376953125,1.0986328125,0.42724609375,1.8310546875,-7.064208984375,-67.17041015625,-35.4364013671875
1758527876.69667,0.89013671875,-0.09375,0.3544921875,12.20703125,0.8544921875,0.91552734375,-6.9598388671875,-67.159423828125,-35.4034423828125
1758527876.7070363,0.89013671875,-0.09375,0.3544921875,12.20703125,0.8544921875,0.91552734375,-6.866455078125,-67.1484375,-35.364990234375
1758527876.7166994,0.90185546875,-0.044921875,0.38623046875,12.939453125,1.0986328125,0.67138671875,-6.756591796875,-67.137451171875,-35.33203125
1758527876.7268236,0.90185546875,-0.044921875,0.38623046875,12.939453125,1.0986328125,0.67138671875,-6.646728515625,-67.12646484375,-35.299072265625
1758527876.736863,0.92333984375,0.0078125,0.33935546875,6.4697265625,0.0,0.30517578125,-6.591796875,-67.12646484375,-35.2716064453125
1758527876.7468019,0.92333984375,0.0078125,0.33935546875,6.4697265625,0.0,0.30517578125,-6.5313720703125,-67.1319580078125,-35.2496337890625
1758527876.7568152,0.89404296875,-0.0234375,0.40283203125,7.01904296875,0.0,-0.244140625,-6.4544677734375,-67.1319580078125,-35.244140625
1758527876.7675033,0.89404296875,-0.0234375,0.40283203125,7.01904296875,0.0,-0.244140625,-6.3775634765625,-67.137451171875,-35.2386474609375
1758527876.7769895,0.896484375,-0.10400390625,0.37890625,8.48388671875,0.30517578125,0.244140625,-6.295166015625,-67.1319580078125,-35.2166748046875
1758527876.7868104,0.896484375,-0.10400390625,0.37890625,8.48388671875,0.30517578125,0.244140625,-6.2237548828125,-67.1319580078125,-35.1947021484375
