timestamp,acc_x,acc_y,acc_z,gyro_x,gyro_y,gyro_z,angle_x,angle_y,angle_z
1758184238.1696389,-0.5654296875,-0.1787109375,0.8037109375,0.6103515625,0.79345703125,-0.244140625,-12.843017578125,34.5684814453125,-88.43994140625
1758184238.180096,-0.5654296875,-0.1787109375,0.8037109375,0.6103515625,0.79345703125,-0.244140625,-12.843017578125,34.573974609375,-88.4454345703125
1758184238.1911,-0.57080078125,-0.1806640625,0.79931640625,0.1220703125,0.8544921875,-0.18310546875,-12.8375244140625,34.5794677734375,-88.450927734375
1758184238.2036135,-0.57080078125,-0.1806640625,0.79931640625,0.1220703125,0.8544921875,-0.18310546875,-12.843017578125,34.5904541015625,-88.4564208984375
1758184238.214345,-0.57861328125,-0.1845703125,0.79638671875,0.79345703125,1.0986328125,-0.18310546875,-12.8375244140625,34.595947265625,-88.4619140625
1758184238.2250237,-0.57861328125,-0.1845703125,0.79638671875,0.79345703125,1.0986328125,-0.18310546875,-12.83203125,34.60693359375,-88.4674072265625
1758184238.2339418,-0.57568359375,-0.18798828125,0.80126953125,1.46484375,1.5869140625,-0.18310546875,-12.8265380859375,34.6234130859375,-88.472900390625
1758184238.241338,-0.57568359375,-0.18798828125,0.80126953125,1.46484375,1.5869140625,-0.18310546875,-12.8155517578125,34.639892578125,-88.4783935546875
1758184238.2482011,-0.5576171875,-0.18115234375,0.802734375,0.18310546875,1.77001953125,-0.06103515625,-12.81005859375,34.6563720703125,-88.48388671875
1758184238.2556443,-0.5576171875,-0.18115234375,0.802734375,0.18310546875,1.77001953125,-0.06103515625,-12.81005859375,34.6728515625,-88.4893798828125
1758184238.2654002,-0.5546875,-0.1806640625,0.8203125,-1.0986328125,1.77001953125,0.0,-12.821044921875,34.6893310546875,-88.494873046875
1758184238.2757337,-0.5546875,-0.1806640625,0.8203125,-1.0986328125,1.77001953125,0.0,-12.83203125,34.705810546875,-88.5003662109375
1758184238.28548,-0.5576171875,-0.173828125,0.8125,0.6103515625,1.89208984375,-0.3662109375,-12.8375244140625,34.7222900390625,-88.505859375
1758184238.295323,-0.5576171875,-0.173828125,0.8125,0.6103515625,1.89208984375,-0.3662109375,-12.8375244140625,34.73876953125,-88.516845703125
1758184238.305327,-0.5625,-0.1796875,0.7978515625,2.13623046875,1.5869140625,-0.48828125,-12.8265380859375,34.749755859375,-88.5223388671875
1758184238.3153563,-0.5625,-0.1796875,0.7978515625,2.13623046875,1.5869140625,-0.48828125,-12.81005859375,34.7607421875,-88.5333251953125
1758184238.3261638,-0.56298828125,-0.185546875,0.798828125,1.28173828125,1.15966796875,-0.30517578125,-12.799072265625,34.771728515625,-88.538818359375
1758184238.3354316,-0.56298828125,-0.185546875,0.798828125,1.28173828125,1.15966796875,-0.30517578125,-12.7880859375,34.7772216796875,-88.5498046875
1758184238.345383,-0.55615234375,-0.1884765625,0.7939453125,0.18310546875,0.8544921875,-0.18310546875,-12.7825927734375,34.7882080078125,-88.5552978515625
1758184238.3566408,-0.55615234375,-0.1884765625,0.7939453125,0.18310546875,0.8544921875,-0.18310546875,-12.7880859375,34.793701171875,-88.5552978515625
1758184238.3654137,-0.56884765625,-0.18212890625,0.81201171875,1.64794921875,0.67138671875,-0.06103515625,-12.777099609375,34.793701171875,-88.560791015625
1758184238.375388,-0.56884765625,-0.18212890625,0.81201171875,1.64794921875,0.67138671875,-0.06103515625,-12.76611328125,34.7991943359375,-88.5662841796875
1758184238.3853962,-0.56591796875,-0.18408203125,0.8095703125,1.3427734375,0.732421875,-0.18310546875,-12.7496337890625,34.8046875,-88.5662841796875
1758184238.3954046,-0.56591796875,-0.18408203125,0.8095703125,1.3427734375,0.732421875,-0.18310546875,-12.7386474609375,34.8101806640625,-88.57177734375
1758184238.4054124,-0.564453125,-0.17919921875,0.79736328125,1.220703125,0.67138671875,-0.3662109375,-12.733154296875,34.8101806640625,-88.5772705078125
1758184238.4154317,-0.564453125,-0.17919921875,0.79736328125,1.220703125,0.67138671875,-0.3662109375,-12.72216796875,34.815673828125,-88.5882568359375
1758184238.4254272,-0.5625,-0.17822265625,0.8056640625,2.62451171875,0.48828125,-0.54931640625,-12.7056884765625,34.815673828125,-88.59375
1758184238.4354417,-0.5625,-0.17822265625,0.8056640625,2.62451171875,0.48828125,-0.54931640625,-12.6837158203125,34.815673828125,-88.5992431640625
1758184238.4454577,-0.56396484375,-0.17529296875,0.8056640625,2.197265625,0.42724609375,-0.6103515625,-12.667236328125,34.815673828125,-88.6102294921875
1758184238.4554722,-0.56396484375,-0.17529296875,0.8056640625,2.197265625,0.42724609375,-0.6103515625,-12.6507568359375,34.815673828125,-88.61572265625
1758184238.4654887,-0.5634765625,-0.173828125,0.8056640625,-0.06103515625,0.244140625,-0.3662109375,-12.645263671875,34.815673828125,-88.626708984375
1758184238.4754884,-0.5634765625,-0.173828125,0.8056640625,-0.06103515625,0.244140625,-0.3662109375,-12.645263671875,34.815673828125,-88.626708984375
1758184238.4855015,-0.5732421875,-0.17822265625,0.80859375,-0.732421875,0.48828125,-0.244140625,-12.6507568359375,34.815673828125,-88.6322021484375
1758184238.4955266,-0.5732421875,-0.17822265625,0.80859375,-0.732421875,0.48828125,-0.244140625,-12.6617431640625,34.8211669921875,-88.6376953125
1758184238.5055265,-0.5654296875,-0.18701171875,0.798828125,0.18310546875,0.48828125,-0.1220703125,-12.667236328125,34.8211669921875,-88.6376953125
1758184238.5155501,-0.5654296875,-0.18701171875,0.798828125,0.18310546875,0.48828125,-0.1220703125,-12.667236328125,34.8211669921875,-88.6431884765625
1758184238.525561,-0.5693359375,-0.1875,0.80078125,1.64794921875,0.48828125,-0.30517578125,-12.65625,34.82666015625,-88.6431884765625
1758184238.535565,-0.5693359375,-0.1875,0.80078125,1.64794921875,0.48828125,-0.30517578125,-12.645263671875,34.82666015625,-88.6541748046875
1758184238.545585,-0.5654296875,-0.181640625,0.8037109375,2.62451171875,0.30517578125,-0.42724609375,-12.6287841796875,34.82666015625,-88.65966796875
1758184238.5555928,-0.5654296875,-0.181640625,0.8037109375,2.62451171875,0.30517578125,-0.42724609375,-12.6068115234375,34.82666015625,-88.6651611328125
1758184238.5656154,-0.56103515625,-0.17333984375,0.80224609375,1.89208984375,0.1220703125,-0.30517578125,-12.5848388671875,34.82666015625,-88.670654296875
1758184238.5756166,-0.56103515625,-0.17333984375,0.80224609375,1.89208984375,0.1220703125,-0.30517578125,-12.568359375,34.82666015625,-88.6761474609375
1758184238.5857155,-0.5615234375,-0.173828125,0.80712890625,1.0986328125,0.06103515625,-0.30517578125,-12.557373046875,34.8211669921875,-88.6761474609375
1758184238.5956576,-0.5615234375,-0.173828125,0.80712890625,1.0986328125,0.06103515625,-0.30517578125,-12.54638671875,34.8211669921875,-88.681640625
1758184238.6056776,-0.5625,-0.17578125,0.802734375,0.67138671875,-0.06103515625,-0.1220703125,-12.5408935546875,34.8211669921875,-88.6871337890625
1758184238.615691,-0.5625,-0.17578125,0.802734375,0.67138671875,-0.06103515625,-0.1220703125,-12.535400390625,34.815673828125,-88.6871337890625
1758184238.625684,-0.560546875,-0.1796875,0.80419921875,1.0986328125,-0.1220703125,-0.18310546875,-12.5299072265625,34.8101806640625,-88.6871337890625
1758184238.6357052,-0.560546875,-0.1796875,0.80419921875,1.0986328125,-0.1220703125,-0.18310546875,-12.5189208984375,34.8101806640625,-88.692626953125
1758184238.6457212,-0.56103515625,-0.18017578125,0.80859375,1.77001953125,-0.30517578125,-0.244140625,-12.50244140625,34.8046875,-88.692626953125
1758184238.6557302,-0.56103515625,-0.18017578125,0.80859375,1.77001953125,-0.30517578125,-0.244140625,-12.4859619140625,34.793701171875,-88.692626953125
1758184238.6657524,-0.56103515625,-0.1767578125,0.80322265625,2.197265625,-0.30517578125,-0.18310546875,-12.469482421875,34.7882080078125,-88.6981201171875
1758184238.6757567,-0.56103515625,-0.1767578125,0.80322265625,2.197265625,-0.30517578125,-0.18310546875,-12.447509765625,34.78271484375,-88.6981201171875
1758184238.6857877,-0.56591796875,-0.17236328125,0.802734375,1.89208984375,-0.244140625,-0.18310546875,-12.4310302734375,34.7772216796875,-88.6981201171875
1758184238.695816,-0.56591796875,-0.17236328125,0.802734375,1.89208984375,-0.244140625,-0.18310546875,-12.41455078125,34.771728515625,-88.70361328125
1758184238.7058043,-0.5634765625,-0.17041015625,0.80908203125,2.38037109375,0.06103515625,-0.06103515625,-12.392578125,34.771728515625,-88.70361328125
1758184238.7158852,-0.5634765625,-0.17041015625,0.80908203125,2.38037109375,0.06103515625,-0.06103515625,-12.37060546875,34.7662353515625,-88.70361328125
1758184238.7259045,-0.56884765625,-0.17822265625,0.814453125,1.953125,0.30517578125,0.06103515625,-12.3486328125,34.7662353515625,-88.70361328125
1758184238.7359273,-0.56884765625,-0.17822265625,0.814453125,1.953125,0.30517578125,0.06103515625,-12.32666015625,34.7662353515625,-88.70361328125
1758184238.7459028,-0.57080078125,-0.1767578125,0.79833984375,1.64794921875,0.48828125,0.18310546875,-12.3101806640625,34.7662353515625,-88.70361328125
1758184238.7558851,-0.57080078125,-0.1767578125,0.79833984375,1.64794921875,0.48828125,0.18310546875,-12.293701171875,34.771728515625,-88.6981201171875
1758184238.7659507,-0.57470703125,-0.17724609375,0.7900390625,1.64794921875,0.3662109375,0.244140625,-12.2772216796875,34.7772216796875,-88.6981201171875
1758184238.7759242,-0.57470703125,-0.17724609375,0.7900390625,1.64794921875,0.3662109375,0.244140625,-12.2607421875,34.7772216796875,-88.6981201171875
1758184238.7861042,-0.5791015625,-0.16650390625,0.802734375,0.30517578125,0.244140625,0.30517578125,-12.249755859375,34.7772216796875,-88.6981201171875
1758184238.7960846,-0.5791015625,-0.16650390625,0.802734375,0.30517578125,0.244140625,0.30517578125,-12.2442626953125,34.78271484375,-88.6981201171875
1758184238.8061235,-0.578125,-0.1630859375,0.78759765625,0.0,0.3662109375,0.3662109375,-12.23876953125,34.7882080078125,-88.692626953125
1758184238.8160834,-0.578125,-0.1630859375,0.78759765625,0.0,0.3662109375,0.3662109375,-12.23876953125,34.7882080078125,-88.692626953125
1758184238.8260925,-0.58447265625,-0.17041015625,0.79248046875,0.30517578125,0.06103515625,0.30517578125,-12.2332763671875,34.793701171875,-88.6871337890625
1758184238.8365242,-0.58447265625,-0.17041015625,0.79248046875,0.30517578125,0.06103515625,0.30517578125,-12.227783203125,34.7991943359375,-88.6871337890625
1758184238.8460867,-0.57958984375,-0.1767578125,0.79443359375,-1.40380859375,0.0,0.6103515625,-12.2332763671875,34.7991943359375,-88.681640625
1758184238.8561065,-0.57958984375,-0.1767578125,0.79443359375,-1.40380859375,0.0,0.6103515625,-12.2442626953125,34.8046875,-88.6761474609375
1758184238.8664749,-0.5810546875,-0.17529296875,0.79541015625,-3.5400390625,0.0,0.67138671875,-12.2607421875,34.8046875,-88.6651611328125
1758184238.876163,-0.5810546875,-0.17529296875,0.79541015625,-3.5400390625,0.0,0.67138671875,-12.293701171875,34.8101806640625,-88.65966796875
1758184238.8863928,-0.57958984375,-0.1767578125,0.79931640625,-2.8076171875,0.06103515625,0.67138671875,-12.3211669921875,34.815673828125,-88.6541748046875
1758184238.896421,-0.57958984375,-0.1767578125,0.79931640625,-2.8076171875,0.06103515625,0.67138671875,-12.3431396484375,34.8211669921875,-88.648681640625
1758184238.9068096,-0.58203125,-0.17529296875,0.79443359375,-0.48828125,0.18310546875,0.42724609375,-12.3541259765625,34.8211669921875,-88.6431884765625
1758184238.9162161,-0.58203125,-0.17529296875,0.79443359375,-0.48828125,0.18310546875,0.42724609375,-12.359619140625,34.82666015625,-88.6376953125
1758184238.9264317,-0.58154296875,-0.173828125,0.79541015625,0.0,0.30517578125,0.3662109375,-12.359619140625,34.837646484375,-88.6322021484375
1758184238.9368207,-0.58154296875,-0.173828125,0.79541015625,0.0,0.30517578125,0.3662109375,-12.3541259765625,34.8431396484375,-88.6322021484375
1758184238.946269,-0.578125,-0.171875,0.796875,-1.77001953125,0.244140625,0.48828125,-12.359619140625,34.8486328125,-88.626708984375
1758184238.956483,-0.578125,-0.171875,0.796875,-1.77001953125,0.244140625,0.48828125,-12.3760986328125,34.8541259765625,-88.6212158203125
1758184238.9666317,-0.5771484375,-0.17041015625,0.79833984375,-4.0283203125,0.1220703125,0.6103515625,-12.403564453125,34.859619140625,-88.61572265625
1758184238.9762306,-0.5771484375,-0.17041015625,0.79833984375,-4.0283203125,0.1220703125,0.6103515625,-12.4365234375,34.8651123046875,-88.604736328125
1758184238.9864316,-0.572265625,-0.173828125,0.79931640625,-4.33349609375,0.06103515625,0.6103515625,-12.4749755859375,34.87060546875,-88.5992431640625
1758184238.9963856,-0.572265625,-0.173828125,0.79931640625,-4.33349609375,0.06103515625,0.6103515625,-12.513427734375,34.8760986328125,-88.59375
1758184239.006285,-0.5732421875,-0.1787109375,0.79638671875,-3.60107421875,0.06103515625,0.54931640625,-12.5408935546875,34.881591796875,-88.582763671875
1758184239.0166144,-0.5732421875,-0.1787109375,0.79638671875,-3.60107421875,0.06103515625,0.54931640625,-12.5738525390625,34.881591796875,-88.5772705078125
1758184239.026593,-0.57421875,-0.177734375,0.80078125,-2.62451171875,0.18310546875,0.3662109375,-12.5958251953125,34.8870849609375,-88.57177734375
1758184239.0363543,-0.57421875,-0.177734375,0.80078125,-2.62451171875,0.18310546875,0.3662109375,-12.6177978515625,34.892578125,-88.5662841796875
1758184239.0464127,-0.5693359375,-0.1826171875,0.80126953125,-2.5634765625,0.18310546875,0.42724609375,-12.6397705078125,34.8980712890625,-88.560791015625
1758184239.0569344,-0.5693359375,-0.1826171875,0.80126953125,-2.5634765625,0.18310546875,0.42724609375,-12.6617431640625,34.8980712890625,-88.560791015625
1758184239.0664182,-0.57177734375,-0.1826171875,0.802734375,-3.90625,0.18310546875,0.48828125,-12.6947021484375,34.903564453125,-88.5552978515625
1758184239.076394,-0.57177734375,-0.1826171875,0.802734375,-3.90625,0.18310546875,0.48828125,-12.733154296875,34.9090576171875,-88.5498046875
1758184239.0866027,-0.5693359375,-0.1748046875,0.7998046875,-3.96728515625,0.18310546875,0.54931640625,-12.76611328125,34.9090576171875,-88.5443115234375
1758184239.0964708,-0.5693359375,-0.1748046875,0.7998046875,-3.96728515625,0.18310546875,0.54931640625,-12.799072265625,34.91455078125,-88.538818359375
1758184239.1064453,-0.56640625,-0.18212890625,0.80419921875,-3.7841796875,0.244140625,0.54931640625,-12.83203125,34.9200439453125,-88.52783203125
1758184239.1165786,-0.56640625,-0.18212890625,0.80419921875,-3.7841796875,0.244140625,0.54931640625,-12.864990234375,34.9200439453125,-88.5223388671875
1758184239.1265113,-0.5595703125,-0.1865234375,0.80810546875,-3.23486328125,0.18310546875,0.42724609375,-12.8924560546875,34.925537109375,-88.516845703125
1758184239.1364522,-0.5595703125,-0.1865234375,0.80810546875,-3.23486328125,0.18310546875,0.42724609375,-12.919921875,34.925537109375,-88.5113525390625
1758184239.1465247,-0.56005859375,-0.1865234375,0.8046875,-2.9296875,0.06103515625,0.48828125,-12.9473876953125,34.925537109375,-88.505859375
1758184239.1569068,-0.56005859375,-0.1865234375,0.8046875,-2.9296875,0.06103515625,0.48828125,-12.9693603515625,34.925537109375,-88.5003662109375
1758184239.166457,-0.5595703125,-0.18603515625,0.81005859375,-1.5869140625,0.1220703125,0.30517578125,-12.9803466796875,34.925537109375,-88.494873046875
1758184239.1765351,-0.5595703125,-0.18603515625,0.81005859375,-1.5869140625,0.1220703125,0.30517578125,-12.9913330078125,34.925537109375,-88.4893798828125
1758184239.1867437,-0.56005859375,-0.1845703125,0.80615234375,-1.3427734375,0.18310546875,0.42724609375,-13.0023193359375,34.925537109375,-88.48388671875
1758184239.1965282,-0.56005859375,-0.1845703125,0.80615234375,-1.3427734375,0.18310546875,0.42724609375,-13.0133056640625,34.925537109375,-88.4783935546875
1758184239.2068348,-0.55810546875,-0.1826171875,0.80517578125,-2.99072265625,0.1220703125,0.67138671875,-13.0352783203125,34.925537109375,-88.472900390625
1758184239.2166352,-0.55810546875,-0.1826171875,0.80517578125,-2.99072265625,0.1220703125,0.67138671875,-13.062744140625,34.925537109375,-88.4619140625
1758184239.2266202,-0.56201171875,-0.1826171875,0.80712890625,-3.2958984375,0.244140625,0.79345703125,-13.084716796875,34.925537109375,-88.450927734375
1758184239.2366776,-0.56201171875,-0.1826171875,0.80712890625,-3.2958984375,0.244140625,0.79345703125,-13.1121826171875,34.925537109375,-88.43994140625
1758184239.2468362,-0.5654296875,-0.19189453125,0.8056640625,-2.99072265625,0.42724609375,0.8544921875,-13.1341552734375,34.9310302734375,-88.428955078125
1758184239.257074,-0.5654296875,-0.19189453125,0.8056640625,-2.99072265625,0.42724609375,0.8544921875,-13.1561279296875,34.9310302734375,-88.4234619140625
1758184239.2665973,-0.55859375,-0.193359375,0.806640625,-0.79345703125,0.48828125,0.732421875,-13.16162109375,34.9310302734375,-88.4124755859375
1758184239.276674,-0.55859375,-0.193359375,0.806640625,-0.79345703125,0.48828125,0.732421875,-13.16162109375,34.9365234375,-88.406982421875
1758184239.2866862,-0.560546875,-0.19287109375,0.80810546875,0.6103515625,0.3662109375,0.79345703125,-13.150634765625,34.9365234375,-88.39599609375
1758184239.2967196,-0.560546875,-0.19287109375,0.80810546875,0.6103515625,0.3662109375,0.79345703125,-13.1396484375,34.9365234375,-88.385009765625
1758184239.3067043,-0.55419921875,-0.1875,0.79931640625,-0.18310546875,0.18310546875,0.9765625,-13.1341552734375,34.9365234375,-88.3740234375
1758184239.3168821,-0.55419921875,-0.1875,0.79931640625,-0.18310546875,0.18310546875,0.9765625,-13.128662109375,34.9365234375,-88.363037109375
1758184239.326736,-0.56787109375,-0.1845703125,0.80322265625,-1.3427734375,0.1220703125,1.28173828125,-13.1341552734375,34.9365234375,-88.35205078125
1758184239.3367696,-0.56787109375,-0.1845703125,0.80322265625,-1.3427734375,0.1220703125,1.28173828125,-13.1396484375,34.9365234375,-88.3355712890625
1758184239.346839,-0.56005859375,-0.185546875,0.8056640625,-0.30517578125,0.42724609375,1.28173828125,-13.1341552734375,34.9420166015625,-88.319091796875
1758184239.3573904,-0.56005859375,-0.185546875,0.8056640625,-0.30517578125,0.42724609375,1.28173828125,-13.128662109375,34.9420166015625,-88.3026123046875
1758184239.3667402,-0.560546875,-0.1884765625,0.80517578125,1.0986328125,0.42724609375,1.28173828125,-13.1121826171875,34.947509765625,-88.2916259765625
1758184239.3768318,-0.560546875,-0.1884765625,0.80517578125,1.0986328125,0.42724609375,1.28173828125,-13.0902099609375,34.947509765625,-88.275146484375
1758184239.3868577,-0.54931640625,-0.18408203125,0.81103515625,1.40380859375,0.3662109375,1.40380859375,-13.0682373046875,34.947509765625,-88.2586669921875
1758184239.3968983,-0.54931640625,-0.18408203125,0.81103515625,1.40380859375,0.3662109375,1.40380859375,-13.0462646484375,34.9530029296875,-88.2421875
1758184239.4069154,-0.56884765625,-0.18603515625,0.8037109375,2.13623046875,0.18310546875,1.220703125,-13.0133056640625,34.9530029296875,-88.231201171875
1758184239.4172606,-0.56884765625,-0.18603515625,0.8037109375,2.13623046875,0.18310546875,1.220703125,-12.98583984375,34.9530029296875,-88.2147216796875
1758184239.4269142,-0.56103515625,-0.1865234375,0.80126953125,1.77001953125,-0.18310546875,1.3427734375,-12.9583740234375,34.947509765625,-88.2037353515625
1758184239.4369106,-0.56103515625,-0.1865234375,0.80126953125,1.77001953125,-0.18310546875,1.3427734375,-12.930908203125,34.9420166015625,-88.187255859375
1758184239.4471974,-0.5751953125,-0.181640625,0.7998046875,1.5869140625,-0.1220703125,1.28173828125,-12.908935546875,34.9420166015625,-88.1707763671875
1758184239.4574666,-0.5751953125,-0.181640625,0.7998046875,1.5869140625,-0.1220703125,1.28173828125,-12.8814697265625,34.9365234375,-88.1597900390625
1758184239.4669008,-0.5751953125,-0.177734375,0.79248046875,2.5634765625,-0.30517578125,1.220703125,-12.8485107421875,34.9365234375,-88.143310546875
1758184239.4769566,-0.5751953125,-0.177734375,0.79248046875,2.5634765625,-0.30517578125,1.220703125,-12.8155517578125,34.9310302734375,-88.13232421875
1758184239.4874506,-0.58203125,-0.1767578125,0.80224609375,3.11279296875,-0.3662109375,1.28173828125,-12.777099609375,34.9310302734375,-88.1158447265625
1758184239.4970515,-0.58203125,-0.1767578125,0.80224609375,3.11279296875,-0.3662109375,1.28173828125,-12.7386474609375,34.925537109375,-88.099365234375
1758184239.5069823,-0.58251953125,-0.177734375,0.7919921875,0.91552734375,-0.3662109375,1.0986328125,-12.72216796875,34.925537109375,-88.08837890625
1758184239.5174515,-0.58251953125,-0.177734375,0.7919921875,0.91552734375,-0.3662109375,1.0986328125,-12.7056884765625,34.925537109375,-88.077392578125
1758184239.527035,-0.58203125,-0.1806640625,0.791015625,-0.244140625,-0.42724609375,1.0986328125,-12.7001953125,34.9200439453125,-88.0609130859375
1758184239.537017,-0.58203125,-0.1806640625,0.791015625,-0.244140625,-0.42724609375,1.0986328125,-12.6947021484375,34.9200439453125,-88.0499267578125
1758184239.5472417,-0.58447265625,-0.1796875,0.79248046875,1.5869140625,-0.54931640625,0.9765625,-12.6727294921875,34.9200439453125,-88.0389404296875
1758184239.5575883,-0.58447265625,-0.1796875,0.79248046875,1.5869140625,-0.54931640625,0.9765625,-12.6507568359375,34.91455078125,-88.0279541015625
1758184239.5670366,-0.5859375,-0.177734375,0.7880859375,2.44140625,-0.54931640625,0.67138671875,-12.6177978515625,34.91455078125,-88.0224609375
1758184239.577105,-0.5859375,-0.177734375,0.7880859375,2.44140625,-0.54931640625,0.67138671875,-12.59033203125,34.91455078125,-88.0169677734375
1758184239.587167,-0.58056640625,-0.17529296875,0.80224609375,0.48828125,-0.79345703125,0.67138671875,-12.579345703125,34.9090576171875,-88.0059814453125
1758184239.5971425,-0.58056640625,-0.17529296875,0.80224609375,0.48828125,-0.79345703125,0.67138671875,-12.5738525390625,34.903564453125,-88.00048828125
1758184239.6071525,-0.59130859375,-0.16845703125,0.79248046875,0.1220703125,-0.732421875,0.42724609375,-12.568359375,34.8980712890625,-87.9949951171875
1758184239.6173398,-0.59130859375,-0.16845703125,0.79248046875,0.1220703125,-0.732421875,0.42724609375,-12.5628662109375,34.8980712890625,-87.989501953125
1758184239.6271756,-0.58984375,-0.17138671875,0.7763671875,-0.79345703125,-0.732421875,0.54931640625,-12.5628662109375,34.892578125,-87.978515625
1758184239.6371899,-0.58984375,-0.17138671875,0.7763671875,-0.79345703125,-0.732421875,0.54931640625,-12.568359375,34.892578125,-87.9730224609375
1758184239.6475,-0.58203125,-0.17431640625,0.7861328125,-1.5869140625,-0.732421875,0.48828125,-12.579345703125,34.892578125,-87.967529296875
1758184239.6578066,-0.58203125,-0.17431640625,0.7861328125,-1.5869140625,-0.732421875,0.48828125,-12.59033203125,34.892578125,-87.9620361328125
1758184239.6671946,-0.5869140625,-0.1845703125,0.79296875,-1.28173828125,-0.67138671875,0.3662109375,-12.601318359375,34.892578125,-87.95654296875
1758184239.6772768,-0.5869140625,-0.1845703125,0.79296875,-1.28173828125,-0.67138671875,0.3662109375,-12.6068115234375,34.8870849609375,-87.9510498046875
1758184239.687321,-0.58203125,-0.18115234375,0.794921875,-0.48828125,-0.67138671875,0.42724609375,-12.6123046875,34.8870849609375,-87.945556640625
1758184239.6973183,-0.58203125,-0.18115234375,0.794921875,-0.48828125,-0.67138671875,0.42724609375,-12.6123046875,34.8870849609375,-87.945556640625
1758184239.7073312,-0.58349609375,-0.1787109375,0.7939453125,-0.9765625,-0.6103515625,0.42724609375,-12.6177978515625,34.8870849609375,-87.9400634765625
1758184239.717442,-0.58349609375,-0.1787109375,0.7939453125,-0.9765625,-0.6103515625,0.42724609375,-12.623291015625,34.8870849609375,-87.9345703125
1758184239.7273269,-0.57373046875,-0.1787109375,0.7958984375,-2.25830078125,-0.732421875,0.6103515625,-12.6397705078125,34.8870849609375,-87.9290771484375
1758184239.737354,-0.57373046875,-0.1787109375,0.7958984375,-2.25830078125,-0.732421875,0.6103515625,-12.65625,34.881591796875,-87.9180908203125
1758184239.7473161,-0.576171875,-0.1806640625,0.796875,-2.0751953125,-0.54931640625,0.42724609375,-12.67822265625,34.881591796875,-87.91259765625
1758184239.7578375,-0.576171875,-0.1806640625,0.796875,-2.0751953125,-0.54931640625,0.42724609375,-12.6947021484375,34.881591796875,-87.9071044921875
1758184239.7673445,-0.57275390625,-0.18359375,0.80029296875,-1.64794921875,-0.48828125,0.48828125,-12.7056884765625,34.881591796875,-87.901611328125
1758184239.777395,-0.57275390625,-0.18359375,0.80029296875,-1.64794921875,-0.48828125,0.48828125,-12.7166748046875,34.881591796875,-87.8961181640625
1758184239.7875378,-0.56787109375,-0.185546875,0.80078125,-1.52587890625,-0.3662109375,0.42724609375,-12.7276611328125,34.881591796875,-87.890625
1758184239.797471,-0.56787109375,-0.185546875,0.80078125,-1.52587890625,-0.3662109375,0.42724609375,-12.744140625,34.881591796875,-87.8851318359375
1758184239.8074255,-0.5673828125,-0.181640625,0.80126953125,-0.3662109375,-0.30517578125,0.30517578125,-12.744140625,34.881591796875,-87.8851318359375
1758184239.8177974,-0.5673828125,-0.181640625,0.80126953125,-0.3662109375,-0.30517578125,0.30517578125,-12.744140625,34.881591796875,-87.879638671875
1758184239.8276017,-0.5703125,-0.18310546875,0.8037109375,0.0,-0.1220703125,0.3662109375,-12.744140625,34.881591796875,-87.8741455078125
1758184239.8375554,-0.5703125,-0.18310546875,0.8037109375,0.0,-0.1220703125,0.3662109375,-12.7386474609375,34.881591796875,-87.8741455078125
1758184239.8475046,-0.56591796875,-0.17578125,0.80029296875,-0.30517578125,0.0,0.30517578125,-12.7386474609375,34.881591796875,-87.86865234375
1758184239.8578134,-0.56591796875,-0.17578125,0.80029296875,-0.30517578125,0.0,0.30517578125,-12.744140625,34.8870849609375,-87.86865234375
1758184239.8675838,-0.5654296875,-0.18115234375,0.79443359375,-0.30517578125,0.30517578125,0.06103515625,-12.744140625,34.8870849609375,-87.86865234375
1758184239.8776054,-0.5654296875,-0.18115234375,0.79443359375,-0.30517578125,0.30517578125,0.06103515625,-12.7496337890625,34.892578125,-87.86865234375
1758184239.8880968,-0.57080078125,-0.185546875,0.82177734375,0.9765625,0.1220703125,0.06103515625,-12.7386474609375,34.892578125,-87.86865234375
1758184239.8975976,-0.57080078125,-0.185546875,0.82177734375,0.9765625,0.1220703125,0.06103515625,-12.7276611328125,34.892578125,-87.86865234375
1758184239.907561,-0.56298828125,-0.1865234375,0.80517578125,3.11279296875,0.42724609375,0.0,-12.7001953125,34.8980712890625,-87.86865234375
1758184239.9176688,-0.56298828125,-0.1865234375,0.80517578125,3.11279296875,0.42724609375,0.0,-12.667236328125,34.8980712890625,-87.8741455078125
1758184239.9275804,-0.55517578125,-0.177734375,0.78271484375,3.173828125,0.244140625,0.0,-12.6397705078125,34.8980712890625,-87.8741455078125
1758184239.9375987,-0.55517578125,-0.177734375,0.78271484375,3.173828125,0.244140625,0.0,-12.6068115234375,34.903564453125,-87.8741455078125
1758184239.947576,-0.5703125,-0.181640625,0.81689453125,4.0283203125,0.18310546875,-0.244140625,-12.568359375,34.903564453125,-87.879638671875
1758184239.9578848,-0.5703125,-0.181640625,0.81689453125,4.0283203125,0.18310546875,-0.244140625,-12.535400390625,34.8980712890625,-87.8851318359375
1758184239.9676237,-0.5751953125,-0.17626953125,0.81005859375,3.60107421875,0.732421875,-0.3662109375,-12.50244140625,34.903564453125,-87.8961181640625
1758184239.977752,-0.5751953125,-0.17626953125,0.81005859375,3.60107421875,0.732421875,-0.3662109375,-12.469482421875,34.9090576171875,-87.901611328125
1758184239.9881384,-0.57275390625,-0.16943359375,0.79052734375,2.9296875,0.91552734375,-0.42724609375,-12.447509765625,34.91455078125,-87.91259765625
1758184239.9976892,-0.57568359375,-0.16943359375,0.80810546875,2.99072265625,1.15966796875,-0.6103515625,-12.425537109375,34.925537109375,-87.9180908203125
1758184240.0077198,-0.57568359375,-0.16943359375,0.80810546875,2.99072265625,1.15966796875,-0.6103515625,-12.3980712890625,34.9310302734375,-87.9290771484375
1758184240.0178237,-0.56689453125,-0.1767578125,0.79931640625,2.74658203125,1.03759765625,-0.67138671875,-12.3760986328125,34.9420166015625,-87.9400634765625
1758184240.0277689,-0.56689453125,-0.1767578125,0.79931640625,2.74658203125,1.03759765625,-0.67138671875,-12.3541259765625,34.947509765625,-87.9510498046875
1758184240.0377753,-0.56884765625,-0.17578125,0.7998046875,1.5869140625,0.79345703125,-0.67138671875,-12.3431396484375,34.9530029296875,-87.9620361328125
1758184240.0477207,-0.56884765625,-0.17578125,0.7998046875,1.5869140625,0.79345703125,-0.67138671875,-12.3321533203125,34.95849609375,-87.9730224609375
1758184240.058045,-0.572265625,-0.16650390625,0.80322265625,1.40380859375,0.9765625,-0.732421875,-12.3211669921875,34.9639892578125,-87.9840087890625
1758184240.0677536,-0.572265625,-0.16650390625,0.80322265625,1.40380859375,0.9765625,-0.732421875,-12.315673828125,34.9749755859375,-87.9949951171875
1758184240.0778313,-0.57568359375,-0.17041015625,0.796875,0.79345703125,0.8544921875,-0.6103515625,-12.3101806640625,34.98046875,-88.011474609375
1758184240.0883281,-0.57568359375,-0.17041015625,0.796875,0.79345703125,0.8544921875,-0.6103515625,-12.3101806640625,34.9859619140625,-88.0169677734375
1758184240.0978367,-0.57763671875,-0.17626953125,0.79638671875,0.244140625,0.732421875,-0.54931640625,-12.3101806640625,34.991455078125,-88.0279541015625
1758184240.1078417,-0.57763671875,-0.17626953125,0.79638671875,0.244140625,0.732421875,-0.54931640625,-12.3101806640625,34.9969482421875,-88.0389404296875
1758184240.1181889,-0.56884765625,-0.17626953125,0.79541015625,0.1220703125,0.54931640625,-0.3662109375,-12.3101806640625,35.00244140625,-88.04443359375
1758184240.1279037,-0.56884765625,-0.17626953125,0.79541015625,0.1220703125,0.54931640625,-0.3662109375,-12.315673828125,35.0079345703125,-88.0499267578125
1758184240.1378865,-0.56982421875,-0.1787109375,0.8017578125,-0.48828125,0.42724609375,-0.18310546875,-12.3211669921875,35.0079345703125,-88.055419921875
1758184240.14786,-0.56982421875,-0.1787109375,0.8017578125,-0.48828125,0.42724609375,-0.18310546875,-12.32666015625,35.013427734375,-88.0609130859375
1758184240.1580918,-0.58056640625,-0.17578125,0.7998046875,-0.91552734375,0.54931640625,-0.06103515625,-12.337646484375,35.0189208984375,-88.06640625
1758184240.1679013,-0.58056640625,-0.17578125,0.7998046875,-0.91552734375,0.54931640625,-0.06103515625,-12.3431396484375,35.0244140625,-88.06640625
1758184240.1779566,-0.5869140625,-0.16796875,0.787109375,-0.732421875,0.91552734375,-0.1220703125,-12.3541259765625,35.0299072265625,-88.0718994140625
1758184240.1883452,-0.5869140625,-0.16796875,0.787109375,-0.732421875,0.91552734375,-0.1220703125,-12.3651123046875,35.035400390625,-88.077392578125
1758184240.197993,-0.58349609375,-0.17333984375,0.79296875,-0.1220703125,1.15966796875,-0.18310546875,-12.37060546875,35.04638671875,-88.0828857421875
1758184240.2080064,-0.58349609375,-0.17333984375,0.79296875,-0.1220703125,1.15966796875,-0.18310546875,-12.3760986328125,35.0628662109375,-88.08837890625
1758184240.2181048,-0.57861328125,-0.1845703125,0.806640625,-0.30517578125,1.3427734375,0.06103515625,-12.381591796875,35.0738525390625,-88.0938720703125
1758184240.2280447,-0.57861328125,-0.1845703125,0.806640625,-0.30517578125,1.3427734375,0.06103515625,-12.3870849609375,35.09033203125,-88.0938720703125
1758184240.2380435,-0.580078125,-0.18603515625,0.791015625,-0.732421875,1.220703125,0.18310546875,-12.392578125,35.101318359375,-88.099365234375
1758184240.248202,-0.580078125,-0.18603515625,0.791015625,-0.732421875,1.220703125,0.18310546875,-12.3980712890625,35.1177978515625,-88.1048583984375
1758184240.2582405,-0.58154296875,-0.177734375,0.79052734375,-0.6103515625,0.91552734375,0.18310546875,-12.4090576171875,35.1287841796875,-88.1048583984375
1758184240.2680304,-0.58154296875,-0.177734375,0.79052734375,-0.6103515625,0.91552734375,0.18310546875,-12.41455078125,35.1397705078125,-88.1103515625
1758184240.2780883,-0.5703125,-0.17138671875,0.798828125,0.91552734375,0.732421875,0.06103515625,-12.41455078125,35.145263671875,-88.1103515625
1758184240.2883518,-0.5703125,-0.17138671875,0.798828125,0.91552734375,0.732421875,0.06103515625,-12.4090576171875,35.15625,-88.1158447265625
1758184240.2980793,-0.57275390625,-0.17333984375,0.80029296875,0.9765625,0.48828125,0.0,-12.3980712890625,35.1617431640625,-88.1158447265625
1758184240.3080332,-0.57275390625,-0.17333984375,0.80029296875,0.9765625,0.48828125,0.0,-12.392578125,35.167236328125,-88.121337890625
1758184240.3183339,-0.578125,-0.1708984375,0.79736328125,-0.91552734375,0.42724609375,0.1220703125,-12.392578125,35.1727294921875,-88.121337890625
1758184240.3282158,-0.578125,-0.1708984375,0.79736328125,-0.91552734375,0.42724609375,0.1220703125,-12.3980712890625,35.17822265625,-88.121337890625
1758184240.3381875,-0.58203125,-0.17333984375,0.7958984375,-0.9765625,0.732421875,0.06103515625,-12.4090576171875,35.1837158203125,-88.121337890625
1758184240.3481402,-0.58203125,-0.17333984375,0.7958984375,-0.9765625,0.732421875,0.06103515625,-12.4200439453125,35.189208984375,-88.121337890625
1758184240.3588734,-0.58642578125,-0.1728515625,0.79443359375,0.18310546875,0.9765625,-0.1220703125,-12.425537109375,35.2001953125,-88.1268310546875
1758184240.368178,-0.58642578125,-0.1728515625,0.79443359375,0.18310546875,0.9765625,-0.1220703125,-12.425537109375,35.211181640625,-88.13232421875
1758184240.3782547,-0.5859375,-0.17626953125,0.7890625,0.6103515625,1.28173828125,-0.244140625,-12.425537109375,35.22216796875,-88.1378173828125
1758184240.3892741,-0.5859375,-0.17626953125,0.7890625,0.6103515625,1.28173828125,-0.244140625,-12.4200439453125,35.233154296875,-88.143310546875
1758184240.3982182,-0.58251953125,-0.17431640625,0.79541015625,0.42724609375,1.3427734375,-0.42724609375,-12.4200439453125,35.2496337890625,-88.1488037109375
1758184240.408185,-0.58251953125,-0.17431640625,0.79541015625,0.42724609375,1.3427734375,-0.42724609375,-12.4200439453125,35.2606201171875,-88.1597900390625
1758184240.4183717,-0.57763671875,-0.1728515625,0.80029296875,0.18310546875,1.40380859375,-0.42724609375,-12.4200439453125,35.277099609375,-88.1707763671875
1758184240.4284341,-0.57763671875,-0.1728515625,0.80029296875,0.18310546875,1.40380859375,-0.42724609375,-12.425537109375,35.2880859375,-88.17626953125
1758184240.4382777,-0.58251953125,-0.1728515625,0.7919921875,-0.6103515625,1.0986328125,-0.3662109375,-12.4310302734375,35.3045654296875,-88.187255859375
1758184240.448276,-0.58251953125,-0.1728515625,0.7919921875,-0.6103515625,1.0986328125,-0.3662109375,-12.4420166015625,35.3155517578125,-88.1927490234375
1758184240.4590468,-0.58203125,-0.1787109375,0.78515625,-0.18310546875,1.03759765625,-0.42724609375,-12.447509765625,35.321044921875,-88.1982421875
1758184240.4683182,-0.58203125,-0.1787109375,0.78515625,-0.18310546875,1.03759765625,-0.42724609375,-12.4530029296875,35.33203125,-88.209228515625
1758184240.4787393,-0.57861328125,-0.18017578125,0.79052734375,0.54931640625,0.8544921875,-0.42724609375,-12.45849609375,35.343017578125,-88.2147216796875
1758184240.488432,-0.57861328125,-0.18017578125,0.79052734375,0.54931640625,0.8544921875,-0.42724609375,-12.45849609375,35.35400390625,-88.2257080078125
1758184240.4983306,-0.57373046875,-0.18115234375,0.79736328125,0.8544921875,0.67138671875,-0.3662109375,-12.4530029296875,35.3594970703125,-88.231201171875
1758184240.5083191,-0.57373046875,-0.18115234375,0.79736328125,0.8544921875,0.67138671875,-0.3662109375,-12.447509765625,35.364990234375,-88.2366943359375
1758184240.5188599,-0.57568359375,-0.17626953125,0.7958984375,-0.79345703125,0.42724609375,-0.18310546875,-12.4530029296875,35.3704833984375,-88.2421875
1758184240.5286112,-0.57568359375,-0.17626953125,0.7958984375,-0.79345703125,0.42724609375,-0.18310546875,-12.4639892578125,35.3759765625,-88.2476806640625
1758184240.5387623,-0.5732421875,-0.177734375,0.791015625,-0.244140625,-0.1220703125,-0.06103515625,-12.469482421875,35.3759765625,-88.253173828125
1758184240.5483959,-0.5732421875,-0.177734375,0.791015625,-0.244140625,-0.1220703125,-0.06103515625,-12.4749755859375,35.3759765625,-88.253173828125
1758184240.5588436,-0.568359375,-0.17919921875,0.79296875,0.3662109375,-0.54931640625,-0.06103515625,-12.469482421875,35.3704833984375,-88.253173828125
1758184240.5684433,-0.568359375,-0.17919921875,0.79296875,0.3662109375,-0.54931640625,-0.06103515625,-12.469482421875,35.364990234375,-88.2586669921875
1758184240.5788097,-0.57470703125,-0.1748046875,0.80126953125,-1.40380859375,-0.91552734375,-0.1220703125,-12.4749755859375,35.3594970703125,-88.2586669921875
1758184240.5888898,-0.57470703125,-0.1748046875,0.80126953125,-1.40380859375,-0.91552734375,-0.1220703125,-12.4859619140625,35.3485107421875,-88.2586669921875
1758184240.5987668,-0.56591796875,-0.16552734375,0.8056640625,-2.197265625,-0.9765625,-0.1220703125,-12.5079345703125,35.3375244140625,-88.2586669921875
1758184240.6084652,-0.56591796875,-0.16552734375,0.8056640625,-2.197265625,-0.9765625,-0.1220703125,-12.5244140625,35.3265380859375,-88.2586669921875
1758184240.6188712,-0.56298828125,-0.171875,0.80419921875,-1.89208984375,-1.15966796875,-0.18310546875,-12.54638671875,35.3155517578125,-88.253173828125
1758184240.6285577,-0.56298828125,-0.171875,0.80419921875,-1.89208984375,-1.15966796875,-0.18310546875,-12.5628662109375,35.3045654296875,-88.253173828125
1758184240.6385057,-0.5615234375,-0.181640625,0.80810546875,-0.8544921875,-1.15966796875,-0.1220703125,-12.5738525390625,35.2880859375,-88.253173828125
1758184240.6485186,-0.5615234375,-0.181640625,0.80810546875,-0.8544921875,-1.15966796875,-0.1220703125,-12.579345703125,35.277099609375,-88.2476806640625
1758184240.6589122,-0.55419921875,-0.1826171875,0.8056640625,-1.0986328125,-1.28173828125,-0.1220703125,-12.5848388671875,35.2606201171875,-88.2476806640625
1758184240.6686568,-0.55419921875,-0.1826171875,0.8056640625,-1.0986328125,-1.28173828125,-0.1220703125,-12.5958251953125,35.244140625,-88.2421875
1758184240.678568,-0.5498046875,-0.17822265625,0.81494140625,-2.13623046875,-1.46484375,0.0,-12.6123046875,35.2276611328125,-88.2366943359375
1758184240.6890252,-0.5498046875,-0.17822265625,0.81494140625,-2.13623046875,-1.46484375,0.0,-12.6287841796875,35.211181640625,-88.231201171875
1758184240.69864,-0.5458984375,-0.177734375,0.81640625,-2.44140625,-1.708984375,0.244140625,-12.645263671875,35.189208984375,-88.2257080078125
1758184240.7085786,-0.5458984375,-0.177734375,0.81640625,-2.44140625,-1.708984375,0.244140625,-12.667236328125,35.167236328125,-88.2147216796875
1758184240.7193646,-0.54150390625,-0.18017578125,0.8125,-1.77001953125,-2.13623046875,0.3662109375,-12.67822265625,35.145263671875,-88.2037353515625
1758184240.72873,-0.54150390625,-0.18017578125,0.8125,-1.77001953125,-2.13623046875,0.3662109375,-12.689208984375,35.1177978515625,-88.1927490234375
1758184240.738664,-0.54150390625,-0.18505859375,0.81787109375,-1.46484375,-2.5634765625,0.48828125,-12.6947021484375,35.09033203125,-88.1817626953125
1758184240.748733,-0.54150390625,-0.18505859375,0.81787109375,-1.46484375,-2.5634765625,0.48828125,-12.7056884765625,35.057373046875,-88.165283203125
1758184240.7591054,-0.548828125,-0.18212890625,0.81494140625,-1.52587890625,-2.62451171875,0.79345703125,-12.7056884765625,35.0244140625,-88.1488037109375
1758184240.7686923,-0.548828125,-0.18212890625,0.81494140625,-1.52587890625,-2.62451171875,0.79345703125,-12.711181640625,34.991455078125,-88.13232421875
1758184240.7786818,-0.55859375,-0.18212890625,0.80712890625,-1.3427734375,-2.685546875,0.8544921875,-12.7166748046875,34.9639892578125,-88.1158447265625
1758184240.789053,-0.55859375,-0.18212890625,0.80712890625,-1.3427734375,-2.685546875,0.8544921875,-12.7166748046875,34.9310302734375,-88.099365234375
1758184240.7990646,-0.572265625,-0.177734375,0.80126953125,-1.64794921875,-2.5634765625,1.03759765625,-12.72216796875,34.8980712890625,-88.077392578125
1758184240.8087587,-0.572265625,-0.177734375,0.80126953125,-1.64794921875,-2.5634765625,1.03759765625,-12.7276611328125,34.87060546875,-88.055419921875
1758184240.818846,-0.59423828125,-0.17578125,0.7919921875,-1.953125,-2.44140625,1.0986328125,-12.733154296875,34.8431396484375,-88.033447265625
1758184240.8287997,-0.59423828125,-0.17578125,0.7919921875,-1.953125,-2.44140625,1.0986328125,-12.7386474609375,34.8211669921875,-88.0169677734375
1758184240.8388045,-0.60498046875,-0.1767578125,0.77685546875,-3.662109375,-1.46484375,1.03759765625,-12.755126953125,34.7991943359375,-87.9949951171875
1758184240.848807,-0.60498046875,-0.1767578125,0.77685546875,-3.662109375,-1.46484375,1.03759765625,-12.7825927734375,34.7882080078125,-87.978515625
1758184240.859193,-0.58935546875,-0.1708984375,0.798828125,-6.103515625,-0.6103515625,0.91552734375,-12.821044921875,34.78271484375,-87.9620361328125
1758184240.8688219,-0.58935546875,-0.1708984375,0.798828125,-6.103515625,-0.6103515625,0.91552734375,-12.8704833984375,34.7772216796875,-87.945556640625
1758184240.8788698,-0.57421875,-0.17724609375,0.81103515625,-4.57763671875,0.0,0.8544921875,-12.9144287109375,34.7772216796875,-87.9345703125
1758184240.8892803,-0.57421875,-0.17724609375,0.81103515625,-4.57763671875,0.0,0.8544921875,-12.952880859375,34.78271484375,-87.923583984375
1758184240.8988755,-0.5703125,-0.1865234375,0.796875,-4.8828125,0.0,1.0986328125,-12.9913330078125,34.78271484375,-87.9071044921875
1758184240.9088526,-0.5703125,-0.1865234375,0.796875,-4.8828125,0.0,1.0986328125,-13.02978515625,34.7882080078125,-87.890625
1758184240.9188466,-0.5673828125,-0.189453125,0.79248046875,-6.65283203125,0.0,1.40380859375,-13.0792236328125,34.793701171875,-87.8741455078125
1758184240.92936,-0.5673828125,-0.189453125,0.79248046875,-6.65283203125,0.0,1.40380859375,-13.128662109375,34.7991943359375,-87.857666015625
1758184240.9388688,-0.576171875,-0.193359375,0.8017578125,-7.50732421875,-0.244140625,1.5869140625,-13.1890869140625,34.7991943359375,-87.835693359375
1758184240.9489365,-0.576171875,-0.193359375,0.8017578125,-7.50732421875,-0.244140625,1.5869140625,-13.24951171875,34.8046875,-87.813720703125
1758184240.9591665,-0.57666015625,-0.19287109375,0.80224609375,-5.37109375,-0.30517578125,1.64794921875,-13.2989501953125,34.8046875,-87.7972412109375
1758184240.969076,-0.57666015625,-0.19287109375,0.80224609375,-5.37109375,-0.30517578125,1.64794921875,-13.3428955078125,34.8046875,-87.7752685546875
1758184240.9789765,-0.5849609375,-0.193359375,0.78662109375,-3.5400390625,-0.42724609375,1.52587890625,-13.370361328125,34.8046875,-87.7532958984375
1758184240.9893522,-0.5849609375,-0.193359375,0.78662109375,-3.5400390625,-0.42724609375,1.52587890625,-13.3978271484375,34.8101806640625,-87.7313232421875
1758184240.9992642,-0.59228515625,-0.19189453125,0.7783203125,-3.11279296875,-0.6103515625,1.46484375,-13.414306640625,34.8101806640625,-87.7093505859375
1758184241.0090077,-0.59228515625,-0.19189453125,0.7783203125,-3.11279296875,-0.6103515625,1.46484375,-13.436279296875,34.8101806640625,-87.69287109375
1758184241.0190175,-0.59228515625,-0.19189453125,0.7783203125,-2.5634765625,-0.6103515625,1.28173828125,-13.4527587890625,34.8101806640625,-87.6763916015625
1758184241.029419,-0.60546875,-0.19091796875,0.77099609375,-2.5634765625,-0.6103515625,1.28173828125,-13.4637451171875,34.8101806640625,-87.659912109375
1758184241.0390012,-0.60693359375,-0.19287109375,0.77587890625,-1.5869140625,-0.244140625,1.0986328125,-13.4747314453125,34.815673828125,-87.64892578125
1758184241.0490668,-0.60693359375,-0.19287109375,0.77587890625,-1.5869140625,-0.244140625,1.0986328125,-13.480224609375,34.82666015625,-87.637939453125
1758184241.0595083,-0.6064453125,-0.1982421875,0.7734375,-2.38037109375,0.1220703125,0.732421875,-13.502197265625,34.8321533203125,-87.626953125
1758184241.0691073,-0.6064453125,-0.1982421875,0.7734375,-2.38037109375,0.1220703125,0.732421875,-13.5186767578125,34.8431396484375,-87.6214599609375
1758184241.0791357,-0.59326171875,-0.19384765625,0.796875,-0.30517578125,0.18310546875,0.8544921875,-13.5186767578125,34.859619140625,-87.615966796875
1758184241.0896466,-0.59326171875,-0.19384765625,0.796875,-0.30517578125,0.18310546875,0.8544921875,-13.5186767578125,34.87060546875,-87.6104736328125
1758184241.099107,-0.5810546875,-0.19873046875,0.77978515625,0.67138671875,0.06103515625,0.9765625,-13.5076904296875,34.881591796875,-87.5994873046875
1758184241.1091614,-0.5810546875,-0.19873046875,0.77978515625,0.67138671875,0.06103515625,0.9765625,-13.4912109375,34.8870849609375,-87.593994140625
1758184241.1195018,-0.57373046875,-0.203125,0.7841796875,0.18310546875,-0.18310546875,1.03759765625,-13.4857177734375,34.8980712890625,-87.5830078125
1758184241.1291919,-0.57373046875,-0.203125,0.7841796875,0.18310546875,-0.18310546875,1.03759765625,-13.480224609375,34.903564453125,-87.572021484375
1758184241.1391573,-0.576171875,-0.19970703125,0.8037109375,2.44140625,-0.1220703125,1.0986328125,-13.447265625,34.9090576171875,-87.5665283203125
1758184241.149405,-0.576171875,-0.19970703125,0.8037109375,2.44140625,-0.1220703125,1.0986328125,-13.4197998046875,34.91455078125,-87.5555419921875
1758184241.159438,-0.5771484375,-0.197265625,0.79150390625,3.5400390625,0.0,1.220703125,-13.38134765625,34.925537109375,-87.5445556640625
1758184241.1692395,-0.5771484375,-0.197265625,0.79150390625,3.5400390625,0.0,1.220703125,-13.33740234375,34.9310302734375,-87.5335693359375
1758184241.179205,-0.5830078125,-0.19189453125,0.7919921875,4.0283203125,0.0,1.28173828125,-13.29345703125,34.9365234375,-87.5225830078125
1758184241.1897488,-0.5830078125,-0.19189453125,0.7919921875,4.0283203125,0.0,1.28173828125,-13.24951171875,34.947509765625,-87.51708984375
1758184241.1992633,-0.57275390625,-0.19287109375,0.78955078125,5.37109375,0.1220703125,1.28173828125,-13.1890869140625,34.9530029296875,-87.506103515625
1758184241.2092988,-0.57275390625,-0.19287109375,0.78955078125,5.37109375,0.1220703125,1.28173828125,-13.1341552734375,34.9639892578125,-87.4951171875
1758184241.219668,-0.572265625,-0.18896484375,0.79833984375,6.16455078125,-0.1220703125,1.40380859375,-13.0682373046875,34.969482421875,-87.484130859375
1758184241.229322,-0.572265625,-0.18896484375,0.79833984375,6.16455078125,-0.1220703125,1.40380859375,-12.996826171875,34.969482421875,-87.4676513671875
1758184241.2392673,-0.57275390625,-0.1884765625,0.8037109375,4.638671875,-0.244140625,1.8310546875,-12.94189453125,34.9749755859375,-87.451171875
1758184241.2493012,-0.57275390625,-0.1884765625,0.8037109375,4.638671875,-0.244140625,1.8310546875,-12.886962890625,34.98046875,-87.4346923828125
1758184241.259622,-0.58056640625,-0.17919921875,0.79150390625,3.84521484375,-0.244140625,1.89208984375,-12.843017578125,34.9859619140625,-87.418212890625
1758184241.2693648,-0.58056640625,-0.17919921875,0.79150390625,3.84521484375,-0.244140625,1.89208984375,-12.7935791015625,34.9859619140625,-87.396240234375
1758184241.2799764,-0.58544921875,-0.17919921875,0.79296875,4.21142578125,0.0,1.953125,-12.744140625,34.9969482421875,-87.3797607421875
1758184241.2907193,-0.58544921875,-0.17919921875,0.79296875,4.21142578125,0.0,1.953125,-12.689208984375,35.00244140625,-87.36328125
1758184241.2994022,-0.58984375,-0.18359375,0.8115234375,6.16455078125,0.30517578125,2.13623046875,-12.6177978515625,35.013427734375,-87.34130859375
1758184241.3094294,-0.58984375,-0.18359375,0.8115234375,6.16455078125,0.30517578125,2.13623046875,-12.54638671875,35.0189208984375,-87.3193359375
1758184241.319736,-0.5810546875,-0.18701171875,0.78955078125,6.40869140625,0.6103515625,2.3193359375,-12.4749755859375,35.035400390625,-87.3028564453125
1758184241.3294978,-0.5810546875,-0.18701171875,0.78955078125,6.40869140625,0.6103515625,2.3193359375,-12.3980712890625,35.04638671875,-87.2808837890625
1758184241.3394227,-0.57861328125,-0.1728515625,0.78955078125,4.150390625,0.3662109375,2.5634765625,-12.3431396484375,35.057373046875,-87.2589111328125
1758184241.3494627,-0.57861328125,-0.1728515625,0.78955078125,4.150390625,0.3662109375,2.5634765625,-12.293701171875,35.0738525390625,-87.2314453125
1758184241.3599205,-0.5771484375,-0.16748046875,0.8056640625,2.62451171875,0.1220703125,2.62451171875,-12.249755859375,35.079345703125,-87.20947265625
1758184241.3695288,-0.5771484375,-0.16748046875,0.8056640625,2.62451171875,0.1220703125,2.62451171875,-12.2113037109375,35.09033203125,-87.1820068359375
1758184241.3795655,-0.576171875,-0.1640625,0.7978515625,2.25830078125,-0.06103515625,2.62451171875,-12.1728515625,35.0958251953125,-87.154541015625
1758184241.390011,-0.576171875,-0.1640625,0.7978515625,2.25830078125,-0.06103515625,2.62451171875,-12.1343994140625,35.101318359375,-87.1270751953125
1758184241.399585,-0.5791015625,-0.16650390625,0.79443359375,2.0751953125,-0.18310546875,2.44140625,-12.1014404296875,35.1068115234375,-87.1051025390625
1758184241.40958,-0.5791015625,-0.16650390625,0.79443359375,2.0751953125,-0.18310546875,2.44140625,-12.0684814453125,35.1123046875,-87.07763671875
1758184241.419958,-0.57763671875,-0.17138671875,0.796875,1.46484375,-0.18310546875,2.44140625,-12.0355224609375,35.1177978515625,-87.0501708984375
1758184241.4296176,-0.57763671875,-0.17138671875,0.796875,1.46484375,-0.18310546875,2.44140625,-12.008056640625,35.123291015625,-87.0281982421875
1758184241.4395566,-0.58203125,-0.16748046875,0.7978515625,1.708984375,-0.244140625,2.3193359375,-11.97509765625,35.1287841796875,-87.000732421875
1758184241.4497774,-0.58203125,-0.16748046875,0.7978515625,1.708984375,-0.244140625,2.3193359375,-11.942138671875,35.1287841796875,-86.978759765625
1758184241.4597402,-0.58740234375,-0.16650390625,0.7890625,2.01416015625,-0.1220703125,2.3193359375,-11.9091796875,35.13427734375,-86.956787109375
1758184241.4696858,-0.58740234375,-0.16650390625,0.7890625,2.01416015625,-0.1220703125,2.3193359375,-11.876220703125,35.1397705078125,-86.934814453125
1758184241.4796648,-0.58349609375,-0.17041015625,0.7900390625,1.0986328125,-0.1220703125,2.25830078125,-11.854248046875,35.145263671875,-86.9073486328125
1758184241.4899206,-0.58349609375,-0.17041015625,0.7900390625,1.0986328125,-0.1220703125,2.25830078125,-11.8267822265625,35.15625,-86.8853759765625
1758184241.4996605,-0.576171875,-0.16455078125,0.802734375,2.0751953125,0.0,1.8310546875,-11.7938232421875,35.1617431640625,-86.868896484375
1758184241.5097084,-0.576171875,-0.16455078125,0.802734375,2.0751953125,0.0,1.8310546875,-11.766357421875,35.167236328125,-86.8524169921875
1758184241.5201485,-0.56640625,-0.1611328125,0.8076171875,2.9296875,0.0,1.64794921875,-11.7279052734375,35.1727294921875,-86.8359375
1758184241.5298107,-0.56640625,-0.1611328125,0.8076171875,2.9296875,0.0,1.64794921875,-11.689453125,35.1727294921875,-86.8194580078125
1758184241.539681,-0.56201171875,-0.16015625,0.80615234375,1.46484375,-0.18310546875,1.5869140625,-11.6619873046875,35.17822265625,-86.802978515625
1758184241.5497606,-0.56201171875,-0.16015625,0.80615234375,1.46484375,-0.18310546875,1.5869140625,-11.6400146484375,35.17822265625,-86.7864990234375
1758184241.5598505,-0.56494140625,-0.15771484375,0.8076171875,1.40380859375,-0.3662109375,1.708984375,-11.612548828125,35.17822265625,-86.77001953125
1758184241.5698144,-0.56494140625,-0.15771484375,0.8076171875,1.40380859375,-0.3662109375,1.708984375,-11.5850830078125,35.17822265625,-86.748046875
1758184241.579871,-0.56201171875,-0.16455078125,0.8076171875,0.91552734375,-0.6103515625,1.708984375,-11.5631103515625,35.1727294921875,-86.7315673828125
1758184241.5922236,-0.56201171875,-0.16455078125,0.8076171875,0.91552734375,-0.6103515625,1.708984375,-11.5411376953125,35.167236328125,-86.7095947265625
1758184241.5999837,-0.5654296875,-0.16162109375,0.81005859375,-0.6103515625,-0.67138671875,1.77001953125,-11.53564453125,35.1617431640625,-86.693115234375
1758184241.609815,-0.5654296875,-0.16162109375,0.81005859375,-0.6103515625,-0.67138671875,1.77001953125,-11.5301513671875,35.15625,-86.671142578125
1758184241.620233,-0.56640625,-0.15869140625,0.80322265625,0.06103515625,-0.54931640625,1.708984375,-11.5191650390625,35.15625,-86.6546630859375
1758184241.6298525,-0.56640625,-0.15869140625,0.80322265625,0.06103515625,-0.54931640625,1.708984375,-11.502685546875,35.1507568359375,-86.6326904296875
1758184241.6398351,-0.5712890625,-0.15771484375,0.80322265625,1.52587890625,-0.48828125,1.52587890625,-11.4752197265625,35.145263671875,-86.6162109375
1758184241.6498215,-0.5712890625,-0.15771484375,0.80322265625,1.52587890625,-0.48828125,1.52587890625,-11.4532470703125,35.1397705078125,-86.5997314453125
1758184241.6599677,-0.5732421875,-0.16015625,0.80908203125,1.46484375,-0.244140625,1.52587890625,-11.42578125,35.1397705078125,-86.583251953125
1758184241.669866,-0.5732421875,-0.16015625,0.80908203125,1.46484375,-0.244140625,1.52587890625,-11.3983154296875,35.1397705078125,-86.5667724609375
1758184241.6799347,-0.57373046875,-0.1572265625,0.80322265625,0.9765625,0.0,1.64794921875,-11.3763427734375,35.1397705078125,-86.55029296875
1758184241.6902049,-0.57373046875,-0.1572265625,0.80322265625,0.9765625,0.0,1.64794921875,-11.35986328125,35.1397705078125,-86.5338134765625
1758184241.6999385,-0.57373046875,-0.15966796875,0.79931640625,0.91552734375,0.0,1.64794921875,-11.337890625,35.145263671875,-86.517333984375
1758184241.7099907,-0.57373046875,-0.15966796875,0.79931640625,0.91552734375,0.0,1.64794921875,-11.31591796875,35.145263671875,-86.5008544921875
1758184241.7202733,-0.57373046875,-0.15966796875,0.802734375,1.15966796875,0.1220703125,1.46484375,-11.2939453125,35.145263671875,-86.484375
1758184241.7300274,-0.57373046875,-0.15966796875,0.802734375,1.15966796875,0.1220703125,1.46484375,-11.27197265625,35.1507568359375,-86.473388671875
1758184241.7399912,-0.57373046875,-0.15966796875,0.802734375,2.50244140625,0.1220703125,1.3427734375,-11.239013671875,35.1507568359375,-86.46240234375
1758184241.7499573,-0.5732421875,-0.15380859375,0.8037109375,2.50244140625,0.1220703125,1.3427734375,-11.2060546875,35.15625,-86.4459228515625
1758184241.760205,-0.5751953125,-0.1552734375,0.8017578125,1.77001953125,0.06103515625,1.40380859375,-11.1785888671875,35.15625,-86.4349365234375
1758184241.7700133,-0.5751953125,-0.1552734375,0.8017578125,1.77001953125,0.06103515625,1.40380859375,-11.151123046875,35.1617431640625,-86.41845703125
1758184241.780001,-0.578125,-0.1572265625,0.8046875,1.03759765625,0.06103515625,1.52587890625,-11.129150390625,35.1617431640625,-86.4019775390625
1758184241.7903798,-0.578125,-0.1572265625,0.8046875,1.03759765625,0.06103515625,1.52587890625,-11.107177734375,35.167236328125,-86.3909912109375
1758184241.800082,-0.5771484375,-0.16064453125,0.80126953125,1.89208984375,0.0,1.5869140625,-11.0797119140625,35.167236328125,-86.37451171875
1758184241.81017,-0.5771484375,-0.16064453125,0.80126953125,1.89208984375,0.0,1.5869140625,-11.05224609375,35.167236328125,-86.3580322265625
1758184241.8203351,-0.57666015625,-0.15966796875,0.7958984375,2.5634765625,-0.06103515625,1.64794921875,-11.0137939453125,35.1727294921875,-86.341552734375
1758184241.8301961,-0.57666015625,-0.15966796875,0.7958984375,2.5634765625,-0.06103515625,1.64794921875,-10.9808349609375,35.1727294921875,-86.3250732421875
1758184241.8401203,-0.57861328125,-0.158203125,0.8056640625,3.0517578125,-0.244140625,1.46484375,-10.9423828125,35.1727294921875,-86.3140869140625
1758184241.8501415,-0.57861328125,-0.158203125,0.8056640625,3.0517578125,-0.244140625,1.46484375,-10.8984375,35.1727294921875,-86.3031005859375
1758184241.860265,-0.58154296875,-0.15478515625,0.80810546875,1.89208984375,-0.244140625,1.8310546875,-10.8709716796875,35.1727294921875,-86.2811279296875
1758184241.870108,-0.58154296875,-0.15478515625,0.80810546875,1.89208984375,-0.244140625,1.8310546875,-10.8380126953125,35.1727294921875,-86.2646484375
1758184241.8801408,-0.58349609375,-0.150390625,0.78857421875,2.13623046875,-0.244140625,1.64794921875,-10.810546875,35.17822265625,-86.253662109375
1758184241.890333,-0.58349609375,-0.150390625,0.78857421875,2.13623046875,-0.244140625,1.64794921875,-10.777587890625,35.17822265625,-86.2371826171875
1758184241.9001408,-0.5830078125,-0.1455078125,0.79833984375,2.13623046875,-0.244140625,1.46484375,-10.74462890625,35.17822265625,-86.220703125
1758184241.9102468,-0.5830078125,-0.1455078125,0.79833984375,2.13623046875,-0.244140625,1.46484375,-10.7171630859375,35.17822265625,-86.209716796875
1758184241.9203458,-0.57568359375,-0.1376953125,0.80859375,0.732421875,-0.18310546875,1.5869140625,-10.70068359375,35.1837158203125,-86.1932373046875
1758184241.9302275,-0.57568359375,-0.1376953125,0.80859375,0.732421875,-0.18310546875,1.5869140625,-10.6787109375,35.1837158203125,-86.1822509765625
1758184241.940281,-0.56884765625,-0.142578125,0.8046875,-0.67138671875,-0.3662109375,1.64794921875,-10.6732177734375,35.1837158203125,-86.1602783203125
1758184241.950367,-0.56884765625,-0.142578125,0.8046875,-0.67138671875,-0.3662109375,1.64794921875,-10.667724609375,35.1837158203125,-86.143798828125
1758184241.9603972,-0.57275390625,-0.15283203125,0.80712890625,-1.89208984375,-0.48828125,2.0751953125,-10.6732177734375,35.1837158203125,-86.121826171875
1758184241.970267,-0.57275390625,-0.15283203125,0.80712890625,-1.89208984375,-0.48828125,2.0751953125,-10.6787109375,35.1837158203125,-86.099853515625
1758184241.9804952,-0.57470703125,-0.15478515625,0.8017578125,-1.708984375,-0.54931640625,2.01416015625,-10.6787109375,35.17822265625,-86.077880859375
1758184241.9904587,-0.57470703125,-0.15478515625,0.8017578125,-1.708984375,-0.54931640625,2.01416015625,-10.6787109375,35.17822265625,-86.055908203125
1758184242.0002697,-0.57177734375,-0.15283203125,0.798828125,-0.54931640625,-0.54931640625,2.0751953125,-10.6732177734375,35.17822265625,-86.033935546875
1758184242.0105722,-0.57177734375,-0.14697265625,0.81005859375,-1.0986328125,-0.6103515625,2.01416015625,-10.6622314453125,35.1727294921875,-86.011962890625
1758184242.0204546,-0.57177734375,-0.14697265625,0.81005859375,-1.0986328125,-0.6103515625,2.01416015625,-10.6622314453125,35.1727294921875,-85.9954833984375
1758184242.03038,-0.57080078125,-0.1416015625,0.8134765625,-1.89208984375,-0.48828125,1.953125,-10.6622314453125,35.1727294921875,-85.9735107421875
1758184242.0404046,-0.57080078125,-0.1416015625,0.8134765625,-1.89208984375,-0.48828125,1.953125,-10.6622314453125,35.167236328125,-85.9515380859375
1758184242.0504117,-0.57080078125,-0.14306640625,0.80029296875,-1.8310546875,-0.42724609375,1.77001953125,-10.667724609375,35.167236328125,-85.9295654296875
1758184242.0605195,-0.57080078125,-0.14306640625,0.80029296875,-1.8310546875,-0.42724609375,1.77001953125,-10.6732177734375,35.1617431640625,-85.9130859375
1758184242.0703695,-0.572265625,-0.14599609375,0.80224609375,-1.8310546875,-0.48828125,1.64794921875,-10.6787109375,35.1617431640625,-85.89111328125
1758184242.0804048,-0.572265625,-0.14599609375,0.80224609375,-1.8310546875,-0.48828125,1.64794921875,-10.6787109375,35.1617431640625,-85.8746337890625
1758184242.0906248,-0.57421875,-0.1494140625,0.81005859375,-2.5634765625,-0.42724609375,1.64794921875,-10.689697265625,35.15625,-85.858154296875
1758184242.1004078,-0.57421875,-0.1494140625,0.81005859375,-2.5634765625,-0.42724609375,1.64794921875,-10.70068359375,35.15625,-85.836181640625
1758184242.1105118,-0.57080078125,-0.1484375,0.80419921875,-2.5634765625,-0.48828125,1.46484375,-10.711669921875,35.1507568359375,-85.8197021484375
1758184242.1205463,-0.57080078125,-0.1484375,0.80419921875,-2.5634765625,-0.48828125,1.46484375,-10.7281494140625,35.1507568359375,-85.80322265625
1758184242.1304986,-0.57373046875,-0.1552734375,0.806640625,-1.52587890625,-0.42724609375,1.3427734375,-10.733642578125,35.145263671875,-85.792236328125
1758184242.1405182,-0.57373046875,-0.1552734375,0.806640625,-1.52587890625,-0.42724609375,1.3427734375,-10.7391357421875,35.145263671875,-85.7757568359375
1758184242.1505113,-0.57177734375,-0.15380859375,0.80712890625,-0.3662109375,-0.30517578125,1.15966796875,-10.7391357421875,35.1397705078125,-85.75927734375
1758184242.1609771,-0.57177734375,-0.15380859375,0.80712890625,-0.3662109375,-0.30517578125,1.15966796875,-10.733642578125,35.1397705078125,-85.748291015625
1758184242.170547,-0.57958984375,-0.1513671875,0.80126953125,0.06103515625,-0.18310546875,1.0986328125,-10.72265625,35.1397705078125,-85.7373046875
1758184242.180671,-0.57958984375,-0.1513671875,0.80126953125,0.06103515625,-0.18310546875,1.0986328125,-10.7171630859375,35.1397705078125,-85.726318359375
1758184242.1925387,-0.5791015625,-0.15234375,0.79931640625,-0.30517578125,0.0,1.03759765625,-10.7061767578125,35.1397705078125,-85.7208251953125
1758184242.2005727,-0.5791015625,-0.15234375,0.79931640625,-0.30517578125,0.0,1.03759765625,-10.70068359375,35.1397705078125,-85.7098388671875
1758184242.2107952,-0.57861328125,-0.1494140625,0.7998046875,0.0,0.06103515625,0.9765625,-10.6951904296875,35.1397705078125,-85.6988525390625
1758184242.2206388,-0.57861328125,-0.1494140625,0.7998046875,0.0,0.06103515625,0.9765625,-10.689697265625,35.145263671875,-85.693359375
1758184242.2311366,-0.576171875,-0.1494140625,0.8076171875,0.732421875,0.18310546875,0.8544921875,-10.6787109375,35.145263671875,-85.6878662109375
1758184242.2406597,-0.576171875,-0.1494140625,0.8076171875,0.732421875,0.18310546875,0.8544921875,-10.667724609375,35.1507568359375,-85.6768798828125
1758184242.2506893,-0.58056640625,-0.1494140625,0.80419921875,0.67138671875,0.3662109375,0.8544921875,-10.6512451171875,35.15625,-85.67138671875
1758184242.2610738,-0.58056640625,-0.1494140625,0.80419921875,0.67138671875,0.3662109375,0.8544921875,-10.6402587890625,35.1617431640625,-85.6658935546875
1758184242.2709067,-0.5771484375,-0.146484375,0.80419921875,1.0986328125,0.30517578125,0.79345703125,-10.623779296875,35.167236328125,-85.660400390625
1758184242.2806923,-0.5771484375,-0.146484375,0.80419921875,1.0986328125,0.30517578125,0.79345703125,-10.6072998046875,35.167236328125,-85.6549072265625
1758184242.2907474,-0.5732421875,-0.1484375,0.802734375,1.03759765625,0.30517578125,0.91552734375,-10.5908203125,35.1727294921875,-85.6494140625
1758184242.3013232,-0.5732421875,-0.1484375,0.802734375,1.03759765625,0.30517578125,0.91552734375,-10.5743408203125,35.17822265625,-85.638427734375
1758184242.3107502,-0.5830078125,-0.15234375,0.798828125,0.67138671875,0.30517578125,0.91552734375,-10.5633544921875,35.1837158203125,-85.6329345703125
1758184242.3207803,-0.5830078125,-0.15234375,0.798828125,0.67138671875,0.30517578125,0.91552734375,-10.546875,35.189208984375,-85.62744140625
1758184242.330899,-0.57763671875,-0.15234375,0.80419921875,1.52587890625,0.244140625,1.03759765625,-10.5303955078125,35.1947021484375,-85.6219482421875
1758184242.3409076,-0.57763671875,-0.15234375,0.80419921875,1.52587890625,0.244140625,1.03759765625,-10.5084228515625,35.2001953125,-85.6109619140625
1758184242.3507626,-0.583984375,-0.15283203125,0.79931640625,1.953125,0.48828125,1.0986328125,-10.4864501953125,35.2056884765625,-85.60546875
1758184242.360951,-0.583984375,-0.15283203125,0.79931640625,1.953125,0.48828125,1.0986328125,-10.458984375,35.211181640625,-85.5999755859375
1758184242.370771,-0.57958984375,-0.1533203125,0.80517578125,2.44140625,0.6103515625,0.9765625,-10.4315185546875,35.2166748046875,-85.5889892578125
1758184242.3808794,-0.57958984375,-0.1533203125,0.80517578125,2.44140625,0.6103515625,0.9765625,-10.404052734375,35.2276611328125,-85.5889892578125
1758184242.3909888,-0.58544921875,-0.14501953125,0.80419921875,2.13623046875,0.91552734375,1.0986328125,-10.3765869140625,35.2386474609375,-85.58349609375
1758184242.4010844,-0.58544921875,-0.14501953125,0.80419921875,2.13623046875,0.91552734375,1.0986328125,-10.34912109375,35.2496337890625,-85.572509765625
1758184242.41087,-0.58056640625,-0.13330078125,0.79833984375,1.953125,0.67138671875,0.91552734375,-10.3271484375,35.2606201171875,-85.5670166015625
1758184242.4209745,-0.58056640625,-0.13330078125,0.79833984375,1.953125,0.67138671875,0.91552734375,-10.2996826171875,35.26611328125,-85.5670166015625
1758184242.4308753,-0.583984375,-0.1416015625,0.79638671875,1.3427734375,0.732421875,1.0986328125,-10.2777099609375,35.277099609375,-85.5560302734375
1758184242.440889,-0.583984375,-0.1416015625,0.79638671875,1.3427734375,0.732421875,1.0986328125,-10.26123046875,35.2880859375,-85.550537109375
1758184242.451073,-0.580078125,-0.1416015625,0.796875,0.91552734375,0.54931640625,1.0986328125,-10.2447509765625,35.299072265625,-85.5450439453125
1758184242.4612732,-0.580078125,-0.1416015625,0.796875,0.91552734375,0.54931640625,1.0986328125,-10.228271484375,35.3045654296875,-85.5340576171875
1758184242.4709392,-0.5732421875,-0.14697265625,0.814453125,1.953125,0.42724609375,0.91552734375,-10.206298828125,35.3155517578125,-85.528564453125
1758184242.4810543,-0.5732421875,-0.14697265625,0.814453125,1.953125,0.42724609375,0.91552734375,-10.1788330078125,35.321044921875,-85.5230712890625
1758184242.492714,-0.57470703125,-0.146484375,0.80615234375,2.13623046875,0.3662109375,0.9765625,-10.1568603515625,35.3265380859375,-85.517578125
1758184242.501022,-0.57470703125,-0.146484375,0.80615234375,2.13623046875,0.3662109375,0.9765625,-10.12939453125,35.33203125,-85.5120849609375
1758184242.511137,-0.5732421875,-0.138671875,0.80517578125,2.9296875,0.0,0.79345703125,-10.096435546875,35.3375244140625,-85.5010986328125
1758184242.5212133,-0.5732421875,-0.138671875,0.80517578125,2.9296875,0.0,0.79345703125,-10.0634765625,35.3375244140625,-85.49560546875
1758184242.5310256,-0.57275390625,-0.14013671875,0.80908203125,3.47900390625,-0.1220703125,0.732421875,-10.0250244140625,35.3375244140625,-85.4901123046875
1758184242.5410845,-0.57275390625,-0.14013671875,0.80908203125,3.47900390625,-0.1220703125,0.732421875,-9.986572265625,35.3375244140625,-85.484619140625
1758184242.5512187,-0.5732421875,-0.138671875,0.80029296875,2.86865234375,-0.30517578125,0.91552734375,-9.95361328125,35.33203125,-85.4791259765625
1758184242.5613036,-0.5732421875,-0.138671875,0.80029296875,2.86865234375,-0.30517578125,0.91552734375,-9.9151611328125,35.33203125,-85.4736328125
1758184242.5710528,-0.5673828125,-0.134765625,0.80859375,3.5400390625,-0.6103515625,0.9765625,-9.876708984375,35.3265380859375,-85.462646484375
1758184242.5811346,-0.5673828125,-0.134765625,0.80859375,3.5400390625,-0.6103515625,0.9765625,-9.8382568359375,35.321044921875,-85.4571533203125
1758184242.5914397,-0.5712890625,-0.140625,0.8125,1.5869140625,-0.67138671875,1.28173828125,-9.8052978515625,35.3155517578125,-85.4461669921875
1758184242.6011229,-0.5712890625,-0.140625,0.8125,1.5869140625,-0.67138671875,1.28173828125,-9.77783203125,35.31005859375,-85.4351806640625
1758184242.6111872,-0.56640625,-0.134765625,0.81298828125,-1.28173828125,-0.67138671875,1.46484375,-9.766845703125,35.3045654296875,-85.418701171875
1758184242.6212525,-0.56640625,-0.134765625,0.81298828125,-1.28173828125,-0.67138671875,1.46484375,-9.7723388671875,35.299072265625,-85.4022216796875
1758184242.631184,-0.57421875,-0.130859375,0.8095703125,-1.220703125,-0.48828125,1.3427734375,-9.7723388671875,35.2935791015625,-85.3912353515625
1758184242.6412003,-0.57421875,-0.130859375,0.8095703125,-1.220703125,-0.48828125,1.3427734375,-9.7723388671875,35.2880859375,-85.374755859375
1758184242.651322,-0.56591796875,-0.13134765625,0.8115234375,-0.79345703125,-0.48828125,1.15966796875,-9.7723388671875,35.2825927734375,-85.36376953125
1758184242.66127,-0.56591796875,-0.13134765625,0.8115234375,-0.79345703125,-0.48828125,1.15966796875,-9.7723388671875,35.277099609375,-85.352783203125
1758184242.6711872,-0.56689453125,-0.1376953125,0.806640625,-1.3427734375,-0.42724609375,1.220703125,-9.7723388671875,35.2716064453125,-85.341796875
1758184242.6812437,-0.56689453125,-0.1376953125,0.806640625,-1.3427734375,-0.42724609375,1.220703125,-9.77783203125,35.2716064453125,-85.330810546875
1758184242.691531,-0.56787109375,-0.1318359375,0.80810546875,-2.38037109375,-0.42724609375,1.03759765625,-9.788818359375,35.26611328125,-85.31982421875
1758184242.7013032,-0.56787109375,-0.1318359375,0.80810546875,-2.38037109375,-0.42724609375,1.03759765625,-9.7998046875,35.2606201171875,-85.308837890625
1758184242.7112584,-0.56689453125,-0.12646484375,0.80859375,-2.685546875,-0.06103515625,0.91552734375,-9.8162841796875,35.255126953125,-85.2978515625
1758184242.7215207,-0.56689453125,-0.12646484375,0.80859375,-2.685546875,-0.06103515625,0.91552734375,-9.8382568359375,35.255126953125,-85.286865234375
1758184242.7313204,-0.5625,-0.1259765625,0.8193359375,-3.35693359375,-0.244140625,0.91552734375,-9.854736328125,35.2496337890625,-85.27587890625
1758184242.7413616,-0.5625,-0.1259765625,0.8193359375,-3.35693359375,-0.244140625,0.91552734375,-9.8822021484375,35.2496337890625,-85.264892578125
1758184242.7517,-0.5546875,-0.13232421875,0.81884765625,-5.43212890625,-0.244140625,1.3427734375,-9.9151611328125,35.244140625,-85.2484130859375
1758184242.7613986,-0.5546875,-0.13232421875,0.81884765625,-5.43212890625,-0.244140625,1.3427734375,-9.95361328125,35.2386474609375,-85.23193359375
1758184242.7713263,-0.55810546875,-0.14599609375,0.81298828125,-5.859375,-0.3662109375,1.28173828125,-9.99755859375,35.233154296875,-85.2154541015625
1758184242.7815738,-0.55810546875,-0.14599609375,0.81298828125,-5.859375,-0.3662109375,1.28173828125,-10.04150390625,35.2276611328125,-85.198974609375
1758184242.7914286,-0.56005859375,-0.15478515625,0.81103515625,-4.0283203125,-0.42724609375,1.3427734375,-10.0799560546875,35.22216796875,-85.1824951171875
1758184242.8013778,-0.56005859375,-0.15478515625,0.81103515625,-4.0283203125,-0.42724609375,1.3427734375,-10.107421875,35.2166748046875,-85.166015625
1758184242.8113918,-0.5634765625,-0.15234375,0.81396484375,-3.173828125,-0.3662109375,1.28173828125,-10.12939453125,35.2056884765625,-85.1495361328125
1758184242.8214583,-0.5634765625,-0.15234375,0.81396484375,-3.173828125,-0.3662109375,1.28173828125,-10.1513671875,35.2001953125,-85.133056640625
1758184242.8314795,-0.568359375,-0.14013671875,0.81396484375,-1.708984375,-0.18310546875,1.03759765625,-10.162353515625,35.1947021484375,-85.1220703125
1758184242.8414729,-0.568359375,-0.14013671875,0.81396484375,-1.708984375,-0.18310546875,1.03759765625,-10.17333984375,35.189208984375,-85.111083984375
1758184242.8516116,-0.57763671875,-0.1435546875,0.80810546875,0.1220703125,0.0,0.9765625,-10.17333984375,35.189208984375,-85.10009765625
1758184242.8615923,-0.57763671875,-0.1435546875,0.80810546875,0.1220703125,0.0,0.9765625,-10.162353515625,35.1837158203125,-85.089111328125
1758184242.8714712,-0.5791015625,-0.1484375,0.80419921875,1.8310546875,0.06103515625,0.8544921875,-10.1458740234375,35.1837158203125,-85.0836181640625
1758184242.8814895,-0.5791015625,-0.1484375,0.80419921875,1.8310546875,0.06103515625,0.8544921875,-10.118408203125,35.1837158203125,-85.0726318359375
1758184242.892239,-0.5791015625,-0.150390625,0.79638671875,3.7841796875,0.30517578125,0.732421875,-10.08544921875,35.1837158203125,-85.067138671875
1758184242.9015174,-0.5791015625,-0.150390625,0.79638671875,3.7841796875,0.30517578125,0.732421875,-10.04150390625,35.1837158203125,-85.067138671875
1758184242.9115224,-0.58056640625,-0.14306640625,0.79833984375,2.9296875,0.3662109375,0.91552734375,-10.0030517578125,35.1837158203125,-85.0616455078125
1758184242.92193,-0.58056640625,-0.14306640625,0.79833984375,2.9296875,0.3662109375,0.91552734375,-9.9700927734375,35.189208984375,-85.05615234375
1758184242.9319327,-0.58154296875,-0.13037109375,0.80712890625,0.3662109375,0.67138671875,0.9765625,-9.9481201171875,35.1947021484375,-85.0506591796875
1758184242.9415672,-0.58154296875,-0.13037109375,0.80712890625,0.3662109375,0.67138671875,0.9765625,-9.9371337890625,35.2001953125,-85.0396728515625
1758184242.9515674,-0.57666015625,-0.1279296875,0.8017578125,-0.18310546875,0.8544921875,1.0986328125,-9.931640625,35.211181640625,-85.0341796875
1758184242.9621265,-0.57666015625,-0.1279296875,0.8017578125,-0.18310546875,0.8544921875,1.0986328125,-9.9261474609375,35.22216796875,-85.023193359375
1758184242.9716263,-0.5732421875,-0.14013671875,0.806640625,0.30517578125,0.91552734375,1.15966796875,-9.920654296875,35.233154296875,-85.0177001953125
1758184242.9816468,-0.5732421875,-0.14013671875,0.806640625,0.30517578125,0.91552734375,1.15966796875,-9.90966796875,35.2386474609375,-85.0067138671875
1758184242.992578,-0.57275390625,-0.14501953125,0.81103515625,0.67138671875,0.91552734375,1.46484375,-9.8931884765625,35.2496337890625,-84.9957275390625
1758184243.001673,-0.57275390625,-0.14501953125,0.81103515625,0.67138671875,0.91552734375,1.46484375,-9.876708984375,35.2606201171875,-84.9847412109375
1758184243.0116642,-0.57177734375,-0.14892578125,0.80712890625,0.79345703125,0.732421875,1.64794921875,-9.8602294921875,35.2716064453125,-84.96826171875
1758184243.021931,-0.57177734375,-0.14892578125,0.80712890625,0.79345703125,0.732421875,1.64794921875,-9.84375,35.277099609375,-84.957275390625
1758184243.0316663,-0.57470703125,-0.1416015625,0.79833984375,0.18310546875,0.54931640625,1.708984375,-9.832763671875,35.2880859375,-84.9407958984375
1758184243.04174,-0.57470703125,-0.1416015625,0.79833984375,0.18310546875,0.54931640625,1.708984375,-9.8162841796875,35.2935791015625,-84.92431640625
1758184243.0519006,-0.58203125,-0.130859375,0.802734375,-0.67138671875,0.3662109375,1.64794921875,-9.8162841796875,35.299072265625,-84.913330078125
1758184243.0618865,-0.58203125,-0.130859375,0.802734375,-0.67138671875,0.3662109375,1.64794921875,-9.810791015625,35.3045654296875,-84.8968505859375
1758184243.0717194,-0.583984375,-0.12353515625,0.806640625,-0.9765625,0.3662109375,1.52587890625,-9.810791015625,35.31005859375,-84.8858642578125
1758184243.0826006,-0.583984375,-0.12353515625,0.806640625,-0.9765625,0.3662109375,1.52587890625,-9.810791015625,35.3155517578125,-84.869384765625
1758184243.0927718,-0.58203125,-0.12646484375,0.794921875,-1.0986328125,0.244140625,1.40380859375,-9.810791015625,35.321044921875,-84.8529052734375
1758184243.101822,-0.58203125,-0.12646484375,0.794921875,-1.0986328125,0.244140625,1.40380859375,-9.810791015625,35.3265380859375,-84.8419189453125
1758184243.1118639,-0.58447265625,-0.13525390625,0.7958984375,-2.01416015625,0.0,1.40380859375,-9.8162841796875,35.3265380859375,-84.825439453125
1758184243.1219325,-0.58447265625,-0.13525390625,0.7958984375,-2.01416015625,0.0,1.40380859375,-9.8272705078125,35.33203125,-84.8089599609375
1758184243.1318996,-0.58251953125,-0.142578125,0.794921875,-2.62451171875,-0.1220703125,1.40380859375,-9.8382568359375,35.33203125,-84.7979736328125
1758184243.1418257,-0.58251953125,-0.142578125,0.794921875,-2.62451171875,-0.1220703125,1.40380859375,-9.854736328125,35.3375244140625,-84.781494140625
1758184243.1518564,-0.5859375,-0.14404296875,0.79833984375,-1.46484375,-0.3662109375,1.40380859375,-9.8602294921875,35.3375244140625,-84.7650146484375
1758184243.162205,-0.5859375,-0.14404296875,0.79833984375,-1.46484375,-0.3662109375,1.40380859375,-9.8602294921875,35.3375244140625,-84.7540283203125
1758184243.171872,-0.580078125,-0.13818359375,0.8037109375,-0.91552734375,-0.42724609375,1.3427734375,-9.8602294921875,35.3375244140625,-84.737548828125
1758184243.1820467,-0.580078125,-0.13818359375,0.8037109375,-0.91552734375,-0.42724609375,1.3427734375,-9.8602294921875,35.33203125,-84.7265625
1758184243.1922824,-0.57763671875,-0.134765625,0.80078125,-2.13623046875,-0.48828125,1.52587890625,-9.8712158203125,35.33203125,-84.7100830078125
1758184243.2019563,-0.57763671875,-0.134765625,0.80078125,-2.13623046875,-0.48828125,1.52587890625,-9.876708984375,35.33203125,-84.693603515625
1758184243.2119207,-0.5771484375,-0.1357421875,0.80419921875,-2.13623046875,-0.42724609375,1.5869140625,-9.8876953125,35.33203125,-84.6771240234375
1758184243.2219818,-0.5771484375,-0.1357421875,0.80419921875,-2.13623046875,-0.42724609375,1.5869140625,-9.8931884765625,35.33203125,-84.66064453125
1758184243.2320054,-0.578125,-0.1416015625,0.802734375,-1.40380859375,-0.54931640625,1.64794921875,-9.898681640625,35.33203125,-84.6441650390625
1758184243.2420673,-0.578125,-0.1416015625,0.802734375,-1.40380859375,-0.54931640625,1.64794921875,-9.898681640625,35.3265380859375,-84.627685546875
1758184243.2521446,-0.578125,-0.14501953125,0.80419921875,-1.0986328125,-0.6103515625,1.5869140625,-9.898681640625,35.3265380859375,-84.6112060546875
1758184243.2622187,-0.578125,-0.14501953125,0.80419921875,-1.0986328125,-0.6103515625,1.5869140625,-9.8931884765625,35.321044921875,-84.5947265625
1758184243.2720037,-0.578125,-0.13818359375,0.80517578125,-0.732421875,-0.67138671875,1.40380859375,-9.8931884765625,35.321044921875,-84.5782470703125
1758184243.2821083,-0.578125,-0.13818359375,0.80517578125,-0.732421875,-0.67138671875,1.40380859375,-9.8876953125,35.3155517578125,-84.5672607421875
1758184243.292753,-0.57958984375,-0.13330078125,0.798828125,-0.06103515625,-0.732421875,1.40380859375,-9.876708984375,35.31005859375,-84.55078125
1758184243.302081,-0.57958984375,-0.13330078125,0.798828125,-0.06103515625,-0.732421875,1.40380859375,-9.86572265625,35.3045654296875,-84.5343017578125
1758184243.3120832,-0.58056640625,-0.1337890625,0.802734375,-0.8544921875,-0.732421875,1.3427734375,-9.86572265625,35.3045654296875,-84.517822265625
1758184243.322211,-0.58056640625,-0.1337890625,0.802734375,-0.8544921875,-0.732421875,1.3427734375,-9.8602294921875,35.299072265625,-84.5068359375
1758184243.332088,-0.58251953125,-0.1357421875,0.8037109375,-1.3427734375,-0.67138671875,1.40380859375,-9.8602294921875,35.2935791015625,-84.4903564453125
1758184243.3420975,-0.58251953125,-0.1357421875,0.8037109375,-1.3427734375,-0.67138671875,1.40380859375,-9.86572265625,35.2935791015625,-84.473876953125
1758184243.352126,-0.5791015625,-0.1435546875,0.79345703125,-0.30517578125,-0.6103515625,1.28173828125,-9.854736328125,35.2880859375,-84.4573974609375
1758184243.3624156,-0.5791015625,-0.1435546875,0.79345703125,-0.30517578125,-0.6103515625,1.28173828125,-9.8492431640625,35.2880859375,-84.4464111328125
1758184243.3721461,-0.5849609375,-0.13916015625,0.80615234375,-0.06103515625,-0.6103515625,1.15966796875,-9.84375,35.2825927734375,-84.4354248046875
1758184243.3829348,-0.5849609375,-0.13916015625,0.80615234375,-0.06103515625,-0.6103515625,1.15966796875,-9.832763671875,35.2825927734375,-84.4244384765625
1758184243.3937173,-0.58056640625,-0.1357421875,0.80810546875,0.91552734375,-0.42724609375,0.9765625,-9.8162841796875,35.2825927734375,-84.4134521484375
1758184243.402251,-0.58056640625,-0.1357421875,0.80810546875,0.91552734375,-0.42724609375,0.9765625,-9.7998046875,35.277099609375,-84.4024658203125
1758184243.4122095,-0.58251953125,-0.1328125,0.7998046875,0.42724609375,-0.6103515625,1.0986328125,-9.788818359375,35.277099609375,-84.3914794921875
1758184243.4222367,-0.58251953125,-0.1328125,0.7998046875,0.42724609375,-0.6103515625,1.0986328125,-9.7723388671875,35.2716064453125,-84.3804931640625
1758184243.4325163,-0.58642578125,-0.13232421875,0.80224609375,-1.64794921875,-0.732421875,1.15966796875,-9.77783203125,35.2716064453125,-84.3695068359375
1758184243.442222,-0.58642578125,-0.13232421875,0.80224609375,-1.64794921875,-0.732421875,1.15966796875,-9.788818359375,35.26611328125,-84.3585205078125
1758184243.452236,-0.58203125,-0.13427734375,0.798828125,-2.74658203125,-0.67138671875,1.220703125,-9.8052978515625,35.26611328125,-84.342041015625
1758184243.4624887,-0.58203125,-0.13427734375,0.798828125,-2.74658203125,-0.67138671875,1.220703125,-9.82177734375,35.2606201171875,-84.3310546875
1758184243.472395,-0.57421875,-0.1318359375,0.80615234375,-2.01416015625,-0.79345703125,1.28173828125,-9.8272705078125,35.255126953125,-84.320068359375
1758184243.4822993,-0.57421875,-0.1318359375,0.80615234375,-2.01416015625,-0.79345703125,1.28173828125,-9.8382568359375,35.255126953125,-84.3035888671875
1758184243.492533,-0.5732421875,-0.138671875,0.80859375,-2.13623046875,-0.8544921875,1.15966796875,-9.8492431640625,35.2496337890625,-84.287109375
1758184243.502686,-0.5732421875,-0.138671875,0.80859375,-2.13623046875,-0.8544921875,1.15966796875,-9.8602294921875,35.244140625,-84.276123046875
1758184243.5123153,-0.56884765625,-0.14111328125,0.81298828125,-2.197265625,-0.8544921875,1.28173828125,-9.8712158203125,35.2386474609375,-84.2596435546875
1758184243.5223544,-0.56884765625,-0.14111328125,0.81298828125,-2.197265625,-0.8544921875,1.28173828125,-9.8822021484375,35.233154296875,-84.2431640625
1758184243.5326269,-0.56884765625,-0.14111328125,0.81298828125,-2.44140625,-0.79345703125,1.28173828125,-9.8931884765625,35.2276611328125,-84.2266845703125
1758184243.5425692,-0.57470703125,-0.142578125,0.80615234375,-2.44140625,-0.79345703125,1.28173828125,-9.9041748046875,35.22216796875,-84.2156982421875
1758184243.5524042,-0.57421875,-0.1357421875,0.80419921875,-1.89208984375,-0.79345703125,1.15966796875,-9.9151611328125,35.2166748046875,-84.19921875
1758184243.5624254,-0.57421875,-0.1357421875,0.80419921875,-1.89208984375,-0.79345703125,1.15966796875,-9.920654296875,35.211181640625,-84.188232421875
1758184243.5728161,-0.56787109375,-0.1376953125,0.80322265625,-1.5869140625,-0.6103515625,1.220703125,-9.9261474609375,35.2056884765625,-84.17724609375
1758184243.5824437,-0.56787109375,-0.1376953125,0.80322265625,-1.5869140625,-0.6103515625,1.220703125,-9.931640625,35.2001953125,-84.1607666015625
1758184243.5927022,-0.568359375,-0.1416015625,0.81396484375,-1.64794921875,-0.48828125,1.28173828125,-9.9371337890625,35.1947021484375,-84.1497802734375
1758184243.6025803,-0.568359375,-0.1416015625,0.81396484375,-1.64794921875,-0.48828125,1.28173828125,-9.942626953125,35.1947021484375,-84.13330078125
1758184243.6124752,-0.56689453125,-0.14208984375,0.814453125,-0.8544921875,-0.3662109375,1.28173828125,-9.942626953125,35.189208984375,-84.122314453125
1758184243.6227527,-0.56689453125,-0.14208984375,0.814453125,-0.8544921875,-0.3662109375,1.28173828125,-9.942626953125,35.189208984375,-84.111328125
1758184243.63275,-0.5703125,-0.14501953125,0.8017578125,-1.28173828125,-0.244140625,1.40380859375,-9.942626953125,35.1837158203125,-84.0948486328125
1758184243.6425042,-0.5703125,-0.14501953125,0.8017578125,-1.28173828125,-0.244140625,1.40380859375,-9.942626953125,35.1837158203125,-84.078369140625
1758184243.6525352,-0.5693359375,-0.13525390625,0.8125,-2.0751953125,-0.18310546875,1.3427734375,-9.95361328125,35.1837158203125,-84.0673828125
1758184243.66279,-0.5693359375,-0.13525390625,0.8125,-2.0751953125,-0.18310546875,1.3427734375,-9.964599609375,35.1837158203125,-84.056396484375
1758184243.672516,-0.5595703125,-0.130859375,0.81201171875,-1.64794921875,0.06103515625,1.3427734375,-9.9700927734375,35.1837158203125,-84.0399169921875
1758184243.6826215,-0.5595703125,-0.130859375,0.81201171875,-1.64794921875,0.06103515625,1.3427734375,-9.9755859375,35.1837158203125,-84.0289306640625
1758184243.6931648,-0.55712890625,-0.13720703125,0.80615234375,-2.5634765625,-0.06103515625,1.64794921875,-9.986572265625,35.1837158203125,-84.0069580078125
1758184243.7026298,-0.55712890625,-0.13720703125,0.80615234375,-2.5634765625,-0.06103515625,1.64794921875,-10.0030517578125,35.1837158203125,-83.990478515625
1758184243.712636,-0.5625,-0.1416015625,0.81787109375,-4.2724609375,-0.18310546875,1.953125,-10.0250244140625,35.17822265625,-83.968505859375
1758184243.722855,-0.5625,-0.1416015625,0.81787109375,-4.2724609375,-0.18310546875,1.953125,-10.052490234375,35.17822265625,-83.946533203125
1758184243.7326403,-0.56103515625,-0.14892578125,0.80810546875,-4.39453125,-0.30517578125,2.197265625,-10.0799560546875,35.1727294921875,-83.9190673828125
1758184243.7426443,-0.56103515625,-0.14892578125,0.80810546875,-4.39453125,-0.30517578125,2.197265625,-10.107421875,35.1727294921875,-83.8916015625
1758184243.7526681,-0.56689453125,-0.15283203125,0.80322265625,-3.11279296875,-0.48828125,2.25830078125,-10.118408203125,35.167236328125,-83.86962890625
1758184243.763169,-0.56689453125,-0.15283203125,0.80322265625,-3.11279296875,-0.48828125,2.25830078125,-10.1348876953125,35.1617431640625,-83.8421630859375
1758184243.7726908,-0.5771484375,-0.1474609375,0.814453125,-0.1220703125,-0.48828125,2.0751953125,-10.118408203125,35.15625,-83.8201904296875
1758184243.7827363,-0.5771484375,-0.1474609375,0.814453125,-0.1220703125,-0.48828125,2.0751953125,-10.107421875,35.15625,-83.7982177734375
1758184243.7934244,-0.57177734375,-0.14208984375,0.7978515625,-0.244140625,-0.3662109375,2.13623046875,-10.0909423828125,35.1507568359375,-83.7762451171875
1758184243.8033416,-0.57177734375,-0.14208984375,0.7978515625,-0.244140625,-0.3662109375,2.13623046875,-10.0799560546875,35.1507568359375,-83.7542724609375
1758184243.8127658,-0.5712890625,-0.12646484375,0.794921875,-4.39453125,-0.67138671875,2.0751953125,-10.107421875,35.145263671875,-83.726806640625
1758184243.8231888,-0.5712890625,-0.12646484375,0.794921875,-4.39453125,-0.67138671875,2.0751953125,-10.1348876953125,35.1397705078125,-83.704833984375
1758184243.833414,-0.5693359375,-0.119140625,0.81494140625,-8.36181640625,-0.91552734375,2.13623046875,-10.2008056640625,35.13427734375,-83.6773681640625
1758184243.842762,-0.5693359375,-0.119140625,0.81494140625,-8.36181640625,-0.91552734375,2.13623046875,-10.2667236328125,35.123291015625,-83.64990234375
1758184243.8527834,-0.55859375,-0.1298828125,0.80859375,-8.11767578125,-0.9765625,2.13623046875,-10.3271484375,35.1177978515625,-83.6224365234375
1758184243.8636076,-0.55859375,-0.1298828125,0.80859375,-8.11767578125,-0.9765625,2.13623046875,-10.3875732421875,35.1068115234375,-83.5894775390625
1758184243.872841,-0.57080078125,-0.1591796875,0.8056640625,-7.568359375,-1.220703125,2.13623046875,-10.43701171875,35.0958251953125,-83.56201171875
1758184243.8832414,-0.57080078125,-0.1591796875,0.8056640625,-7.568359375,-1.220703125,2.13623046875,-10.491943359375,35.09033203125,-83.5345458984375
1758184243.8929436,-0.5673828125,-0.16064453125,0.818359375,-6.2255859375,-1.28173828125,2.13623046875,-10.535888671875,35.079345703125,-83.507080078125
1758184243.903509,-0.5673828125,-0.16064453125,0.818359375,-6.2255859375,-1.28173828125,2.13623046875,-10.579833984375,35.068359375,-83.4796142578125
1758184243.912901,-0.5703125,-0.1552734375,0.80419921875,-4.33349609375,-1.03759765625,2.01416015625,-10.601806640625,35.057373046875,-83.4521484375
1758184243.9232655,-0.5703125,-0.1552734375,0.80419921875,-4.33349609375,-1.03759765625,2.01416015625,-10.6292724609375,35.04638671875,-83.43017578125
1758184243.9332833,-0.576171875,-0.14599609375,0.80517578125,-5.0048828125,-1.03759765625,2.0751953125,-10.6622314453125,35.0408935546875,-83.4027099609375
1758184243.9429386,-0.576171875,-0.14599609375,0.80517578125,-5.0048828125,-1.03759765625,2.0751953125,-10.6951904296875,35.0299072265625,-83.3807373046875
1758184243.952876,-0.5751953125,-0.140625,0.80615234375,-5.7373046875,-0.79345703125,2.197265625,-10.733642578125,35.0244140625,-83.353271484375
1758184243.9629598,-0.5751953125,-0.140625,0.80615234375,-5.7373046875,-0.79345703125,2.197265625,-10.7666015625,35.0244140625,-83.3258056640625
1758184243.9733586,-0.57275390625,-0.150390625,0.79296875,-8.056640625,-0.732421875,2.44140625,-10.8270263671875,35.0189208984375,-83.2928466796875
1758184243.9836872,-0.57275390625,-0.150390625,0.79296875,-8.056640625,-0.732421875,2.44140625,-10.887451171875,35.013427734375,-83.265380859375
1758184243.9933906,-0.5791015625,-0.150390625,0.8017578125,-10.1318359375,-0.67138671875,2.5634765625,-10.96435546875,35.013427734375,-83.232421875
1758184244.0039082,-0.5791015625,-0.150390625,0.8017578125,-10.1318359375,-0.67138671875,2.5634765625,-11.0467529296875,35.013427734375,-83.2049560546875
1758184244.013134,-0.5751953125,-0.15625,0.80322265625,-8.30078125,-0.67138671875,2.50244140625,-11.107177734375,35.0079345703125,-83.1719970703125
1758184244.023155,-0.57421875,-0.1689453125,0.8017578125,-6.77490234375,-0.732421875,2.44140625,-11.1566162109375,35.0079345703125,-83.14453125
1758184244.0334125,-0.57421875,-0.1689453125,0.8017578125,-6.77490234375,-0.732421875,2.44140625,-11.2060546875,35.00244140625,-83.111572265625
1758184244.0431693,-0.5732421875,-0.16796875,0.7978515625,-7.01904296875,-0.732421875,2.5634765625,-11.2554931640625,35.00244140625,-83.0841064453125
1758184244.0530798,-0.5732421875,-0.16796875,0.7978515625,-7.01904296875,-0.732421875,2.5634765625,-11.2994384765625,35.00244140625,-83.0511474609375
1758184244.063232,-0.578125,-0.16796875,0.79443359375,-6.34765625,-0.8544921875,2.5634765625,-11.348876953125,34.9969482421875,-83.023681640625
1758184244.0731857,-0.578125,-0.16796875,0.79443359375,-6.34765625,-0.8544921875,2.5634765625,-11.392822265625,34.9969482421875,-82.99072265625
1758184244.0831883,-0.58447265625,-0.16552734375,0.79833984375,-3.84521484375,-0.8544921875,2.38037109375,-11.4202880859375,34.991455078125,-82.9632568359375
1758184244.0936353,-0.58447265625,-0.16552734375,0.79833984375,-3.84521484375,-0.8544921875,2.38037109375,-11.4422607421875,34.991455078125,-82.935791015625
1758184244.1035478,-0.58203125,-0.16748046875,0.79638671875,-1.5869140625,-0.732421875,2.0751953125,-11.44775390625,34.9859619140625,-82.913818359375
1758184244.1131895,-0.58203125,-0.16748046875,0.79638671875,-1.5869140625,-0.732421875,2.0751953125,-11.44775390625,34.9859619140625,-82.8863525390625
1758184244.1235945,-0.57080078125,-0.16796875,0.76953125,-0.54931640625,-0.48828125,1.77001953125,-11.44775390625,34.9859619140625,-82.869873046875
1758184244.1332855,-0.57080078125,-0.16796875,0.76953125,-0.54931640625,-0.48828125,1.77001953125,-11.436767578125,34.9859619140625,-82.847900390625
1758184244.143154,-0.580078125,-0.16259765625,0.80517578125,-0.91552734375,-1.03759765625,1.5869140625,-11.436767578125,34.9859619140625,-82.8314208984375
1758184244.1532483,-0.580078125,-0.16259765625,0.80517578125,-0.91552734375,-1.03759765625,1.5869140625,-11.4312744140625,34.98046875,-82.81494140625
1758184244.1636317,-0.572265625,-0.1630859375,0.8115234375,0.8544921875,-0.8544921875,1.46484375,-11.4202880859375,34.9749755859375,-82.7984619140625
1758184244.1732354,-0.572265625,-0.1630859375,0.8115234375,0.8544921875,-0.8544921875,1.46484375,-11.3983154296875,34.9749755859375,-82.781982421875
1758184244.183251,-0.5712890625,-0.1630859375,0.79052734375,1.0986328125,-0.91552734375,1.40380859375,-11.3818359375,34.969482421875,-82.7655029296875
1758184244.1938922,-0.5712890625,-0.1630859375,0.79052734375,1.0986328125,-0.91552734375,1.40380859375,-11.35986328125,34.9639892578125,-82.7545166015625
1758184244.2032673,-0.580078125,-0.1611328125,0.80517578125,2.0751953125,-0.91552734375,1.15966796875,-11.3323974609375,34.95849609375,-82.738037109375
1758184244.2133737,-0.580078125,-0.1611328125,0.80517578125,2.0751953125,-0.91552734375,1.15966796875,-11.304931640625,34.9530029296875,-82.72705078125
1758184244.2234137,-0.58154296875,-0.17041015625,0.80224609375,5.859375,-0.67138671875,0.54931640625,-11.260986328125,34.9530029296875,-82.7215576171875
1758184244.2333345,-0.58154296875,-0.17041015625,0.80224609375,5.859375,-0.67138671875,0.54931640625,-11.2005615234375,34.947509765625,-82.7215576171875
1758184244.2433593,-0.57470703125,-0.17138671875,0.7900390625,7.50732421875,-0.48828125,0.42724609375,-11.129150390625,34.9420166015625,-82.716064453125
1758184244.2533405,-0.57470703125,-0.17138671875,0.7900390625,7.50732421875,-0.48828125,0.42724609375,-11.0577392578125,34.9420166015625,-82.7215576171875
1758184244.2637396,-0.578125,-0.1513671875,0.81494140625,4.7607421875,-0.67138671875,0.30517578125,-10.9918212890625,34.9420166015625,-82.7215576171875
1758184244.2733586,-0.578125,-0.1513671875,0.81494140625,4.7607421875,-0.67138671875,0.30517578125,-10.9478759765625,34.9365234375,-82.7215576171875
1758184244.2840514,-0.57275390625,-0.14404296875,0.8046875,3.41796875,-0.6103515625,0.3662109375,-10.9039306640625,34.9310302734375,-82.7215576171875
1758184244.294801,-0.57275390625,-0.14404296875,0.8046875,3.41796875,-0.6103515625,0.3662109375,-10.8709716796875,34.925537109375,-82.7215576171875
1758184244.303412,-0.58154296875,-0.14599609375,0.78857421875,2.99072265625,-0.91552734375,0.42724609375,-10.8380126953125,34.9200439453125,-82.7215576171875
1758184244.3134792,-0.58154296875,-0.14599609375,0.78857421875,2.99072265625,-0.91552734375,0.42724609375,-10.8050537109375,34.91455078125,-82.7215576171875
1758184244.3236752,-0.587890625,-0.1533203125,0.80029296875,3.11279296875,-0.91552734375,0.244140625,-10.7720947265625,34.9090576171875,-82.7215576171875
1758184244.3335419,-0.587890625,-0.1533203125,0.80029296875,3.11279296875,-0.91552734375,0.244140625,-10.7391357421875,34.903564453125,-82.7215576171875
1758184244.3434522,-0.59033203125,-0.16015625,0.80615234375,3.35693359375,-0.8544921875,0.18310546875,-10.7061767578125,34.8980712890625,-82.7215576171875
1758184244.3535655,-0.59033203125,-0.16015625,0.80615234375,3.35693359375,-0.8544921875,0.18310546875,-10.6732177734375,34.892578125,-82.7215576171875
1758184244.363879,-0.5859375,-0.1611328125,0.7978515625,5.37109375,-0.732421875,0.244140625,-10.6292724609375,34.892578125,-82.7215576171875
1758184244.373553,-0.5859375,-0.1611328125,0.7978515625,5.37109375,-0.732421875,0.244140625,-10.579833984375,34.8870849609375,-82.72705078125
1758184244.3835535,-0.57861328125,-0.14990234375,0.80029296875,4.7607421875,-0.79345703125,0.18310546875,-10.5303955078125,34.8870849609375,-82.72705078125
1758184244.394311,-0.57861328125,-0.14990234375,0.80029296875,4.7607421875,-0.79345703125,0.18310546875,-10.48095703125,34.881591796875,-82.7325439453125
1758184244.4035487,-0.578125,-0.138671875,0.81005859375,2.86865234375,-0.8544921875,0.3662109375,-10.4425048828125,34.8760986328125,-82.7325439453125
1758184244.4135098,-0.578125,-0.138671875,0.81005859375,2.86865234375,-0.8544921875,0.3662109375,-10.4150390625,34.87060546875,-82.7325439453125
1758184244.4235494,-0.5810546875,-0.14453125,0.80078125,1.89208984375,-0.91552734375,0.54931640625,-10.3875732421875,34.87060546875,-82.7325439453125
1758184244.4336257,-0.5810546875,-0.14453125,0.80078125,1.89208984375,-0.91552734375,0.54931640625,-10.3656005859375,34.8651123046875,-82.72705078125
1758184244.4436226,-0.578125,-0.15380859375,0.79833984375,2.38037109375,-1.03759765625,0.6103515625,-10.3436279296875,34.859619140625,-82.72705078125
1758184244.4536266,-0.578125,-0.15380859375,0.79833984375,2.38037109375,-1.03759765625,0.6103515625,-10.316162109375,34.8541259765625,-82.7215576171875
1758184244.46395,-0.57568359375,-0.1572265625,0.8095703125,2.74658203125,-1.03759765625,0.79345703125,-10.2886962890625,34.8486328125,-82.716064453125
1758184244.4736044,-0.57568359375,-0.1572265625,0.8095703125,2.74658203125,-1.03759765625,0.79345703125,-10.2557373046875,34.8431396484375,-82.716064453125
1758184244.483656,-0.5703125,-0.1474609375,0.810546875,2.01416015625,-0.9765625,0.91552734375,-10.228271484375,34.837646484375,-82.7105712890625
1758184244.4943664,-0.5703125,-0.1474609375,0.810546875,2.01416015625,-0.9765625,0.91552734375,-10.2008056640625,34.8321533203125,-82.705078125
1758184244.5036001,-0.5654296875,-0.14013671875,0.80810546875,1.3427734375,-0.91552734375,1.03759765625,-10.1788330078125,34.82666015625,-82.694091796875
1758184244.5137136,-0.5654296875,-0.14013671875,0.80810546875,1.3427734375,-0.91552734375,1.03759765625,-10.162353515625,34.8211669921875,-82.6885986328125
1758184244.5236702,-0.5537109375,-0.1298828125,0.81787109375,1.46484375,-0.9765625,1.15966796875,-10.140380859375,34.815673828125,-82.68310546875
1758184244.5336566,-0.5537109375,-0.1298828125,0.81787109375,1.46484375,-0.9765625,1.15966796875,-10.118408203125,34.8101806640625,-82.672119140625
1758184244.5436683,-0.552734375,-0.14697265625,0.8232421875,0.91552734375,-1.28173828125,1.3427734375,-10.096435546875,34.7991943359375,-82.6556396484375
1758184244.5537386,-0.552734375,-0.14697265625,0.8232421875,0.91552734375,-1.28173828125,1.3427734375,-10.0799560546875,34.7882080078125,-82.6446533203125
1758184244.564089,-0.5537109375,-0.14892578125,0.8173828125,-1.46484375,-1.220703125,1.77001953125,-10.0689697265625,34.7772216796875,-82.628173828125
1758184244.5737581,-0.5537109375,-0.14892578125,0.8173828125,-1.46484375,-1.220703125,1.77001953125,-10.074462890625,34.7662353515625,-82.6116943359375
1758184244.583842,-0.55517578125,-0.14599609375,0.81005859375,-0.9765625,-1.15966796875,1.89208984375,-10.074462890625,34.7552490234375,-82.5897216796875
1758184244.5946019,-0.55517578125,-0.14599609375,0.81005859375,-0.9765625,-1.15966796875,1.89208984375,-10.0689697265625,34.7442626953125,-82.5677490234375
1758184244.603783,-0.5546875,-0.1455078125,0.8203125,0.18310546875,-1.0986328125,1.89208984375,-10.0579833984375,34.7332763671875,-82.55126953125
1758184244.6138098,-0.5546875,-0.1455078125,0.8203125,0.18310546875,-1.0986328125,1.89208984375,-10.04150390625,34.727783203125,-82.529296875
1758184244.623827,-0.55126953125,-0.13916015625,0.82666015625,-0.54931640625,-1.03759765625,2.0751953125,-10.030517578125,34.716796875,-82.50732421875
1758184244.6338422,-0.55126953125,-0.13916015625,0.82666015625,-0.54931640625,-1.03759765625,2.0751953125,-10.0250244140625,34.705810546875,-82.4853515625
1758184244.6438446,-0.5537109375,-0.13818359375,0.81640625,-0.9765625,-0.91552734375,2.197265625,-10.0140380859375,34.69482421875,-82.4578857421875
1758184244.6538675,-0.5537109375,-0.13818359375,0.81640625,-0.9765625,-0.91552734375,2.197265625,-10.008544921875,34.683837890625,-82.4359130859375
1758184244.664147,-0.5546875,-0.142578125,0.814453125,-1.03759765625,-0.91552734375,2.197265625,-10.0030517578125,34.6783447265625,-82.408447265625
1758184244.6738737,-0.5546875,-0.142578125,0.814453125,-1.03759765625,-0.91552734375,2.197265625,-9.99755859375,34.6673583984375,-82.386474609375
1758184244.6839316,-0.55419921875,-0.1435546875,0.8193359375,-1.708984375,-0.8544921875,2.25830078125,-9.9920654296875,34.6563720703125,-82.3590087890625
1758184244.6949883,-0.55419921875,-0.1435546875,0.8193359375,-1.708984375,-0.8544921875,2.25830078125,-9.99755859375,34.65087890625,-82.3370361328125
1758184244.703895,-0.5537109375,-0.14111328125,0.81689453125,-1.40380859375,-0.79345703125,2.25830078125,-9.9920654296875,34.639892578125,-82.3095703125
1758184244.7139492,-0.5537109375,-0.14111328125,0.81689453125,-1.40380859375,-0.79345703125,2.25830078125,-9.9920654296875,34.6343994140625,-82.2821044921875
1758184244.7240348,-0.56005859375,-0.14453125,0.8046875,-0.732421875,-0.6103515625,2.25830078125,-9.986572265625,34.6234130859375,-82.2601318359375
1758184244.733958,-0.56005859375,-0.14453125,0.8046875,-0.732421875,-0.6103515625,2.25830078125,-9.9755859375,34.617919921875,-82.232666015625
1758184244.7439349,-0.56005859375,-0.14453125,0.8046875,-1.28173828125,-0.79345703125,2.25830078125,-9.9700927734375,34.6124267578125,-82.210693359375
1758184244.753962,-0.56640625,-0.1416015625,0.81494140625,-1.28173828125,-0.79345703125,2.25830078125,-9.9700927734375,34.60693359375,-82.1832275390625
1758184244.76438,-0.564453125,-0.1416015625,0.82080078125,-1.77001953125,-0.67138671875,2.197265625,-9.964599609375,34.595947265625,-82.1612548828125
1758184244.7740529,-0.564453125,-0.1416015625,0.82080078125,-1.77001953125,-0.67138671875,2.197265625,-9.9700927734375,34.5904541015625,-82.1392822265625
1758184244.7840662,-0.5595703125,-0.138671875,0.8056640625,-0.9765625,-0.67138671875,2.01416015625,-9.964599609375,34.5849609375,-82.1173095703125
1758184244.7946763,-0.5595703125,-0.138671875,0.8056640625,-0.9765625,-0.67138671875,2.01416015625,-9.964599609375,34.5794677734375,-82.0953369140625
1758184244.8040366,-0.55810546875,-0.13720703125,0.8115234375,-1.64794921875,-0.732421875,2.01416015625,-9.9591064453125,34.573974609375,-82.0733642578125
1758184244.8140676,-0.55810546875,-0.13720703125,0.8115234375,-1.64794921875,-0.732421875,2.01416015625,-9.9591064453125,34.5684814453125,-82.0513916015625
1758184244.8244839,-0.55615234375,-0.140625,0.82373046875,-2.3193359375,-0.79345703125,1.89208984375,-9.964599609375,34.56298828125,-82.0294189453125
1758184244.8340993,-0.55615234375,-0.140625,0.82373046875,-2.3193359375,-0.79345703125,1.89208984375,-9.9755859375,34.552001953125,-82.0074462890625
1758184244.8440673,-0.55419921875,-0.14111328125,0.81396484375,-1.03759765625,-0.8544921875,1.8310546875,-9.9755859375,34.5465087890625,-81.9854736328125
1758184244.8540647,-0.55419921875,-0.14111328125,0.81396484375,-1.03759765625,-0.8544921875,1.8310546875,-9.9755859375,34.5355224609375,-81.968994140625
1758184244.864388,-0.56201171875,-0.1376953125,0.81494140625,-1.52587890625,-0.9765625,1.89208984375,-9.9700927734375,34.530029296875,-81.947021484375
1758184244.874156,-0.56201171875,-0.1376953125,0.81494140625,-1.52587890625,-0.9765625,1.89208984375,-9.9700927734375,34.51904296875,-81.925048828125
1758184244.8848171,-0.57177734375,-0.13037109375,0.81396484375,-1.64794921875,-0.8544921875,1.77001953125,-9.9700927734375,34.508056640625,-81.903076171875
1758184244.8951719,-0.57177734375,-0.13037109375,0.81396484375,-1.64794921875,-0.8544921875,1.77001953125,-9.9755859375,34.5025634765625,-81.881103515625
1758184244.9042184,-0.57373046875,-0.13623046875,0.8125,-1.64794921875,-0.8544921875,1.52587890625,-9.9755859375,34.4970703125,-81.8646240234375
1758184244.9142513,-0.57373046875,-0.13623046875,0.8125,-1.64794921875,-0.8544921875,1.52587890625,-9.9810791015625,34.486083984375,-81.84814453125
1758184244.924527,-0.57373046875,-0.146484375,0.814453125,-1.77001953125,-0.79345703125,1.46484375,-9.9810791015625,34.4805908203125,-81.826171875
1758184244.9343715,-0.57373046875,-0.146484375,0.814453125,-1.77001953125,-0.79345703125,1.46484375,-9.986572265625,34.47509765625,-81.8096923828125
1758184244.9442527,-0.57080078125,-0.14697265625,0.8095703125,-0.732421875,-0.732421875,1.220703125,-9.9920654296875,34.4696044921875,-81.7987060546875
1758184244.9543948,-0.57080078125,-0.14697265625,0.8095703125,-0.732421875,-0.732421875,1.220703125,-9.986572265625,34.464111328125,-81.7877197265625
1758184244.9645393,-0.5712890625,-0.1474609375,0.81640625,0.3662109375,-0.79345703125,0.9765625,-9.9810791015625,34.4586181640625,-81.7767333984375
1758184244.9742608,-0.5712890625,-0.1474609375,0.81640625,0.3662109375,-0.79345703125,0.9765625,-9.9700927734375,34.453125,-81.7657470703125
1758184244.9842978,-0.5693359375,-0.138671875,0.81396484375,0.8544921875,-0.732421875,0.8544921875,-9.95361328125,34.4476318359375,-81.76025390625
1758184244.9949543,-0.5693359375,-0.138671875,0.81396484375,0.8544921875,-0.732421875,0.8544921875,-9.9371337890625,34.442138671875,-81.749267578125
1758184245.0042524,-0.57666015625,-0.140625,0.80859375,0.6103515625,-0.79345703125,0.732421875,-9.9261474609375,34.4366455078125,-81.7437744140625
1758184245.0143456,-0.57666015625,-0.140625,0.80859375,0.6103515625,-0.79345703125,0.732421875,-9.90966796875,34.43115234375,-81.73828125
1758184245.0246372,-0.58251953125,-0.142578125,0.806640625,0.18310546875,-0.79345703125,0.79345703125,-9.9041748046875,34.4256591796875,-81.7327880859375
1758184245.0351603,-0.58251953125,-0.142578125,0.806640625,0.18310546875,-0.79345703125,0.79345703125,-9.8931884765625,34.420166015625,-81.7218017578125
1758184245.0442924,-0.57568359375,-0.138671875,0.79931640625,0.6103515625,-0.79345703125,0.732421875,-9.8822021484375,34.4146728515625,-81.71630859375
1758184245.0543275,-0.57568359375,-0.138671875,0.79931640625,0.6103515625,-0.79345703125,0.732421875,-9.8712158203125,34.4091796875,-81.7108154296875
1758184245.0647132,-0.580078125,-0.14697265625,0.80859375,1.0986328125,-0.91552734375,0.54931640625,-9.854736328125,34.4036865234375,-81.7108154296875
1758184245.0744324,-0.580078125,-0.14697265625,0.80859375,1.0986328125,-0.91552734375,0.54931640625,-9.8382568359375,34.4036865234375,-81.705322265625
1758184245.0844157,-0.57177734375,-0.1455078125,0.8046875,0.9765625,-0.9765625,0.6103515625,-9.8272705078125,34.398193359375,-81.6998291015625
1758184245.095008,-0.57177734375,-0.1455078125,0.8046875,0.9765625,-0.9765625,0.6103515625,-9.810791015625,34.3927001953125,-81.6998291015625
1758184245.1044352,-0.576171875,-0.14404296875,0.80078125,1.28173828125,-0.9765625,0.6103515625,-9.7943115234375,34.38720703125,-81.6943359375
1758184245.1144412,-0.576171875,-0.14404296875,0.80078125,1.28173828125,-0.9765625,0.6103515625,-9.77783203125,34.3817138671875,-81.6943359375
1758184245.1244245,-0.56640625,-0.13671875,0.8134765625,1.03759765625,-0.9765625,0.6103515625,-9.7613525390625,34.376220703125,-81.6888427734375
1758184245.134628,-0.56640625,-0.13671875,0.8134765625,1.03759765625,-0.9765625,0.6103515625,-9.7503662109375,34.3707275390625,-81.683349609375
1758184245.144443,-0.5673828125,-0.1357421875,0.81787109375,0.0,-0.9765625,0.732421875,-9.744873046875,34.365234375,-81.6778564453125
1758184245.154435,-0.5673828125,-0.1357421875,0.81787109375,0.0,-0.9765625,0.732421875,-9.7393798828125,34.3597412109375,-81.67236328125
1758184245.1648567,-0.55908203125,-0.1396484375,0.80908203125,0.0,-0.9765625,0.79345703125,-9.73388671875,34.354248046875,-81.6668701171875
1758184245.1744947,-0.55908203125,-0.1396484375,0.80908203125,0.0,-0.9765625,0.79345703125,-9.7283935546875,34.3487548828125,-81.661376953125
1758184245.1851678,-0.5625,-0.14111328125,0.81640625,0.3662109375,-1.220703125,0.9765625,-9.7174072265625,34.3377685546875,-81.650390625
1758184245.1949987,-0.5625,-0.14111328125,0.81640625,0.3662109375,-1.220703125,0.9765625,-9.7064208984375,34.3267822265625,-81.6448974609375
1758184245.2046318,-0.56396484375,-0.14306640625,0.8154296875,0.1220703125,-1.0986328125,0.91552734375,-9.6954345703125,34.3212890625,-81.6339111328125
1758184245.214639,-0.56396484375,-0.14306640625,0.8154296875,0.1220703125,-1.0986328125,0.91552734375,-9.68994140625,34.3157958984375,-81.62841796875
1758184245.224872,-0.55908203125,-0.13720703125,0.81396484375,0.18310546875,-1.220703125,1.0986328125,-9.678955078125,34.3048095703125,-81.617431640625
1758184245.234606,-0.55908203125,-0.13720703125,0.81396484375,0.18310546875,-1.220703125,1.0986328125,-9.66796875,34.2938232421875,-81.6064453125
1758184245.244571,-0.556640625,-0.1337890625,0.81494140625,0.30517578125,-1.15966796875,1.03759765625,-9.656982421875,34.288330078125,-81.6009521484375
1758184245.2547195,-0.556640625,-0.1337890625,0.81494140625,0.30517578125,-1.15966796875,1.03759765625,-9.64599609375,34.27734375,-81.5899658203125
1758184245.2650175,-0.5634765625,-0.1328125,0.81591796875,-0.06103515625,-1.15966796875,0.91552734375,-9.6405029296875,34.266357421875,-81.5789794921875
1758184245.274686,-0.5634765625,-0.1328125,0.81591796875,-0.06103515625,-1.15966796875,0.91552734375,-9.635009765625,34.2608642578125,-81.5679931640625
1758184245.284718,-0.55908203125,-0.1328125,0.81982421875,-0.91552734375,-1.0986328125,1.03759765625,-9.635009765625,34.2498779296875,-81.5625
1758184245.29536,-0.55908203125,-0.1328125,0.81982421875,-0.91552734375,-1.0986328125,1.03759765625,-9.635009765625,34.2388916015625,-81.551513671875
1758184245.3047094,-0.55859375,-0.138671875,0.814453125,-1.5869140625,-1.03759765625,1.03759765625,-9.6405029296875,34.2333984375,-81.54052734375
1758184245.3147376,-0.55859375,-0.138671875,0.814453125,-1.5869140625,-1.03759765625,1.03759765625,-9.6514892578125,34.222412109375,-81.529541015625
1758184245.3248086,-0.5615234375,-0.13525390625,0.8134765625,-1.64794921875,-1.03759765625,1.0986328125,-9.656982421875,34.2169189453125,-81.5185546875
1758184245.3347433,-0.5615234375,-0.13525390625,0.8134765625,-1.64794921875,-1.03759765625,1.0986328125,-9.6624755859375,34.2059326171875,-81.507568359375
1758184245.3446927,-0.5576171875,-0.1396484375,0.8212890625,-1.52587890625,-1.0986328125,0.9765625,-9.6734619140625,34.200439453125,-81.49658203125
1758184245.3547575,-0.5576171875,-0.1396484375,0.8212890625,-1.52587890625,-1.0986328125,0.9765625,-9.678955078125,34.189453125,-81.485595703125
1758184245.3648226,-0.5546875,-0.14208984375,0.81689453125,-0.6103515625,-1.15966796875,0.91552734375,-9.678955078125,34.178466796875,-81.4801025390625
1758184245.374796,-0.5546875,-0.14208984375,0.81689453125,-0.6103515625,-1.15966796875,0.91552734375,-9.6734619140625,34.16748046875,-81.4691162109375
1758184245.3848364,-0.55615234375,-0.14013671875,0.8212890625,-0.9765625,-1.3427734375,0.91552734375,-9.678955078125,34.156494140625,-81.4581298828125
1758184245.3953626,-0.55615234375,-0.14013671875,0.8212890625,-0.9765625,-1.3427734375,0.91552734375,-9.678955078125,34.1455078125,-81.4471435546875
1758184245.4048288,-0.55712890625,-0.12890625,0.82080078125,-2.25830078125,-1.03759765625,0.91552734375,-9.6954345703125,34.134521484375,-81.441650390625
1758184245.41488,-0.55712890625,-0.12890625,0.82080078125,-2.25830078125,-1.03759765625,0.91552734375,-9.7064208984375,34.12353515625,-81.4306640625
1758184245.424963,-0.5556640625,-0.125,0.8076171875,-3.96728515625,-0.91552734375,0.91552734375,-9.7393798828125,34.1180419921875,-81.419677734375
1758184245.4348714,-0.5556640625,-0.125,0.8076171875,-3.96728515625,-0.91552734375,0.91552734375,-9.766845703125,34.1070556640625,-81.40869140625
1758184245.4448314,-0.556640625,-0.130859375,0.8232421875,-5.79833984375,-0.732421875,1.03759765625,-9.8162841796875,34.1015625,-81.397705078125
1758184245.4550688,-0.556640625,-0.130859375,0.8232421875,-5.79833984375,-0.732421875,1.03759765625,-9.8602294921875,34.0960693359375,-81.38671875
1758184245.4652703,-0.548828125,-0.14306640625,0.82421875,-5.7373046875,-0.54931640625,0.91552734375,-9.90966796875,34.090576171875,-81.375732421875
1758184245.4748847,-0.548828125,-0.14306640625,0.82421875,-5.7373046875,-0.54931640625,0.91552734375,-9.9591064453125,34.0850830078125,-81.36474609375
1758184245.484953,-0.541015625,-0.154296875,0.822265625,-4.2724609375,-0.54931640625,0.54931640625,-9.9920654296875,34.07958984375,-81.3592529296875
1758184245.4954958,-0.541015625,-0.154296875,0.822265625,-4.2724609375,-0.54931640625,0.54931640625,-10.030517578125,34.0740966796875,-81.353759765625
1758184245.5049677,-0.54833984375,-0.15673828125,0.8251953125,-3.96728515625,-0.48828125,0.732421875,-10.0634765625,34.068603515625,-81.3427734375
1758184245.5150208,-0.54833984375,-0.15673828125,0.8251953125,-3.96728515625,-0.48828125,0.732421875,-10.0909423828125,34.0631103515625,-81.3372802734375
1758184245.525172,-0.55029296875,-0.146484375,0.8154296875,-3.41796875,-0.3662109375,0.67138671875,-10.1239013671875,34.0576171875,-81.331787109375
1758184245.5349972,-0.55029296875,-0.146484375,0.8154296875,-3.41796875,-0.3662109375,0.67138671875,-10.1513671875,34.0521240234375,-81.3262939453125
1758184245.5449927,-0.55078125,-0.1455078125,0.8173828125,-2.13623046875,-0.18310546875,0.67138671875,-10.162353515625,34.046630859375,-81.32080078125
1758184245.5553262,-0.55078125,-0.1455078125,0.8173828125,-2.13623046875,-0.18310546875,0.67138671875,-10.1788330078125,34.0411376953125,-81.3153076171875
1758184245.5651052,-0.546875,-0.14208984375,0.826171875,-2.13623046875,0.0,0.67138671875,-10.1953125,34.0411376953125,-81.309814453125
1758184245.5750198,-0.546875,-0.14208984375,0.826171875,-2.13623046875,0.0,0.67138671875,-10.2117919921875,34.0411376953125,-81.298828125
1758184245.5851033,-0.5439453125,-0.14453125,0.83056640625,-2.25830078125,0.06103515625,0.6103515625,-10.228271484375,34.03564453125,-81.2933349609375
1758184245.5957055,-0.5439453125,-0.14453125,0.83056640625,-2.25830078125,0.06103515625,0.6103515625,-10.2447509765625,34.03564453125,-81.287841796875
1758184245.6050982,-0.5458984375,-0.15087890625,0.82177734375,-1.953125,0.1220703125,0.79345703125,-10.2557373046875,34.03564453125,-81.2823486328125
1758184245.6151297,-0.5458984375,-0.15087890625,0.82177734375,-1.953125,0.1220703125,0.79345703125,-10.2667236328125,34.0301513671875,-81.27685546875
1758184245.6252584,-0.5458984375,-0.15185546875,0.818359375,-1.220703125,0.1220703125,0.732421875,-10.272216796875,34.0301513671875,-81.265869140625
1758184245.6351826,-0.5458984375,-0.15185546875,0.818359375,-1.220703125,0.1220703125,0.732421875,-10.283203125,34.0301513671875,-81.2603759765625
1758184245.6451268,-0.5537109375,-0.15185546875,0.82470703125,0.1220703125,0.18310546875,0.79345703125,-10.272216796875,34.0301513671875,-81.2548828125
1758184245.655622,-0.5537109375,-0.15185546875,0.82470703125,0.1220703125,0.18310546875,0.79345703125,-10.2667236328125,34.024658203125,-81.2493896484375
1758184245.665224,-0.55224609375,-0.146484375,0.81640625,0.732421875,0.3662109375,0.732421875,-10.2557373046875,34.0301513671875,-81.243896484375
1758184245.6754372,-0.55224609375,-0.146484375,0.81640625,0.732421875,0.3662109375,0.732421875,-10.2447509765625,34.0301513671875,-81.2384033203125
1758184245.685241,-0.55712890625,-0.1474609375,0.8134765625,1.89208984375,0.30517578125,0.6103515625,-10.21728515625,34.0301513671875,-81.2384033203125
1758184245.6952596,-0.55712890625,-0.1474609375,0.8134765625,1.89208984375,0.30517578125,0.6103515625,-10.1953125,34.0301513671875,-81.23291015625
1758184245.7052045,-0.56201171875,-0.14453125,0.81884765625,2.13623046875,0.3662109375,0.54931640625,-10.17333984375,34.0301513671875,-81.23291015625
1758184245.7152598,-0.56201171875,-0.14453125,0.81884765625,2.13623046875,0.3662109375,0.54931640625,-10.1458740234375,34.03564453125,-81.2274169921875
1758184245.725588,-0.56982421875,-0.14453125,0.8115234375,0.8544921875,0.42724609375,0.54931640625,-10.1348876953125,34.03564453125,-81.2274169921875
1758184245.7356136,-0.56982421875,-0.14453125,0.8115234375,0.8544921875,0.42724609375,0.54931640625,-10.1239013671875,34.0411376953125,-81.221923828125
1758184245.7452512,-0.56982421875,-0.14453125,0.8115234375,1.0986328125,0.42724609375,0.54931640625,-10.107421875,34.046630859375,-81.221923828125
1758184245.755271,-0.5771484375,-0.14306640625,0.802734375,1.0986328125,0.42724609375,0.54931640625,-10.096435546875,34.0521240234375,-81.221923828125
1758184245.7657545,-0.58544921875,-0.14697265625,0.80810546875,0.91552734375,0.67138671875,0.48828125,-10.08544921875,34.0576171875,-81.221923828125
1758184245.7753527,-0.58544921875,-0.14697265625,0.80810546875,0.91552734375,0.67138671875,0.48828125,-10.074462890625,34.068603515625,-81.221923828125
1758184245.786166,-0.58154296875,-0.1435546875,0.80126953125,0.9765625,0.9765625,0.42724609375,-10.0634765625,34.07958984375,-81.221923828125
1758184245.7960205,-0.58154296875,-0.1435546875,0.80126953125,0.9765625,0.9765625,0.42724609375,-10.052490234375,34.090576171875,-81.221923828125
1758184245.805424,-0.57861328125,-0.14501953125,0.80029296875,1.40380859375,0.9765625,0.1220703125,-10.04150390625,34.1070556640625,-81.23291015625
1758184245.8153348,-0.57861328125,-0.14501953125,0.80029296875,1.40380859375,0.9765625,0.1220703125,-10.0250244140625,34.1180419921875,-81.2384033203125
1758184245.82538,-0.578125,-0.1416015625,0.80615234375,0.91552734375,0.9765625,0.30517578125,-10.01953125,34.134521484375,-81.2384033203125
1758184245.8358161,-0.578125,-0.1416015625,0.80615234375,0.91552734375,0.9765625,0.30517578125,-10.008544921875,34.1455078125,-81.243896484375
1758184245.8453472,-0.572265625,-0.1435546875,0.80615234375,-0.6103515625,0.732421875,0.1220703125,-10.0140380859375,34.156494140625,-81.2493896484375
1758184245.8554018,-0.572265625,-0.1435546875,0.80615234375,-0.6103515625,0.732421875,0.1220703125,-10.01953125,34.16748046875,-81.2548828125
1758184245.865818,-0.564453125,-0.14306640625,0.80859375,-0.9765625,0.67138671875,0.06103515625,-10.030517578125,34.178466796875,-81.2603759765625
1758184245.8753777,-0.564453125,-0.14306640625,0.80859375,-0.9765625,0.67138671875,0.06103515625,-10.04150390625,34.189453125,-81.265869140625
1758184245.8854177,-0.5576171875,-0.14453125,0.8193359375,-0.1220703125,0.54931640625,-0.244140625,-10.0469970703125,34.200439453125,-81.27685546875
1758184245.8959239,-0.5576171875,-0.14453125,0.8193359375,-0.1220703125,0.54931640625,-0.244140625,-10.052490234375,34.2059326171875,-81.287841796875
1758184245.9055262,-0.54736328125,-0.13623046875,0.82763671875,0.06103515625,0.67138671875,-0.54931640625,-10.052490234375,34.21142578125,-81.298828125
1758184245.915482,-0.54736328125,-0.13623046875,0.82763671875,0.06103515625,0.67138671875,-0.54931640625,-10.0579833984375,34.222412109375,-81.309814453125
1758184245.9255416,-0.5400390625,-0.1376953125,0.82763671875,-0.18310546875,0.732421875,-0.67138671875,-10.0634765625,34.2279052734375,-81.32080078125
1758184245.9359348,-0.5400390625,-0.1376953125,0.82763671875,-0.18310546875,0.732421875,-0.67138671875,-10.0689697265625,34.2333984375,-81.331787109375
1758184245.9455698,-0.54541015625,-0.14306640625,0.82861328125,-1.0986328125,0.54931640625,-0.6103515625,-10.08544921875,34.2333984375,-81.3427734375
1758184245.9555488,-0.54541015625,-0.14306640625,0.82861328125,-1.0986328125,0.54931640625,-0.6103515625,-10.096435546875,34.2333984375,-81.353759765625
1758184245.9660494,-0.5546875,-0.14892578125,0.8115234375,-0.3662109375,0.42724609375,-0.67138671875,-10.107421875,34.2388916015625,-81.36474609375
1758184245.9755225,-0.5546875,-0.14892578125,0.8115234375,-0.3662109375,0.42724609375,-0.67138671875,-10.1129150390625,34.2388916015625,-81.375732421875
1758184245.9855638,-0.56884765625,-0.1494140625,0.8056640625,-0.8544921875,0.30517578125,-0.48828125,-10.1239013671875,34.2388916015625,-81.38671875
1758184245.9960203,-0.56884765625,-0.1494140625,0.8056640625,-0.8544921875,0.30517578125,-0.48828125,-10.1348876953125,34.2388916015625,-81.397705078125
1758184246.0056653,-0.58203125,-0.1455078125,0.81396484375,-1.708984375,0.6103515625,-0.48828125,-10.1568603515625,34.244384765625,-81.40869140625
1758184246.015637,-0.58203125,-0.1455078125,0.81396484375,-1.708984375,0.6103515625,-0.48828125,-10.1788330078125,34.2498779296875,-81.4141845703125
1758184246.0257533,-0.5859375,-0.14794921875,0.79931640625,-0.54931640625,0.9765625,-0.67138671875,-10.1898193359375,34.25537109375,-81.4306640625
1758184246.0356395,-0.58203125,-0.15185546875,0.7978515625,1.52587890625,1.15966796875,-0.91552734375,-10.1898193359375,34.266357421875,-81.4471435546875
1758184246.0456922,-0.58203125,-0.15185546875,0.7978515625,1.52587890625,1.15966796875,-0.91552734375,-10.1788330078125,34.27734375,-81.463623046875
1758184246.0560238,-0.57861328125,-0.1494140625,0.8095703125,1.89208984375,1.28173828125,-1.15966796875,-10.17333984375,34.288330078125,-81.4801025390625
1758184246.0657332,-0.57861328125,-0.1494140625,0.8095703125,1.89208984375,1.28173828125,-1.15966796875,-10.162353515625,34.3048095703125,-81.5020751953125
1758184246.0756826,-0.5771484375,-0.14208984375,0.80029296875,1.28173828125,1.03759765625,-1.0986328125,-10.1568603515625,34.3157958984375,-81.5240478515625
1758184246.0866737,-0.5771484375,-0.14208984375,0.80029296875,1.28173828125,1.03759765625,-1.0986328125,-10.1568603515625,34.3267822265625,-81.5460205078125
1758184246.0963778,-0.580078125,-0.1396484375,0.80029296875,-0.42724609375,0.54931640625,-0.91552734375,-10.1568603515625,34.3377685546875,-81.5625
1758184246.1058018,-0.580078125,-0.1396484375,0.80029296875,-0.42724609375,0.54931640625,-0.91552734375,-10.1678466796875,34.34326171875,-81.573486328125
1758184246.1157498,-0.57958984375,-0.14599609375,0.79736328125,-1.03759765625,0.30517578125,-0.732421875,-10.184326171875,34.3487548828125,-81.5899658203125
1758184246.126153,-0.57958984375,-0.14599609375,0.79736328125,-1.03759765625,0.30517578125,-0.732421875,-10.2008056640625,34.354248046875,-81.6009521484375
1758184246.135792,-0.576171875,-0.1533203125,0.8017578125,-0.3662109375,0.1220703125,-0.8544921875,-10.2117919921875,34.3597412109375,-81.6119384765625
