timestamp,acc_x,acc_y,acc_z,gyro_x,gyro_y,gyro_z,angle_x,angle_y,angle_z
1758181395.0706055,-0.345703125,-0.02880859375,0.94287109375,0.0,-0.30517578125,-0.48828125,-1.64794921875,20.3851318359375,-116.56494140625
1758181395.0800009,-0.345703125,-0.02880859375,0.94287109375,0.0,-0.30517578125,-0.48828125,-1.64794921875,20.379638671875,-116.575927734375
1758181395.0905213,-0.349609375,-0.029296875,0.93798828125,-0.1220703125,-0.1220703125,-0.48828125,-1.6534423828125,20.3741455078125,-116.5814208984375
1758181395.1019728,-0.349609375,-0.029296875,0.93798828125,-0.1220703125,-0.1220703125,-0.48828125,-1.6534423828125,20.3741455078125,-116.5924072265625
1758181395.1131418,-0.349609375,-0.029296875,0.93798828125,0.54931640625,-0.18310546875,-0.42724609375,-1.6534423828125,20.36865234375,-116.597900390625
1758181395.122344,-0.34521484375,-0.0283203125,0.93212890625,0.54931640625,-0.18310546875,-0.42724609375,-1.6534423828125,20.3631591796875,-116.60888671875
1758181395.1308062,-0.34521484375,-0.02587890625,0.94189453125,0.18310546875,-0.30517578125,-0.48828125,-1.64794921875,20.3631591796875,-116.6143798828125
1758181395.1390617,-0.34521484375,-0.02587890625,0.94189453125,0.18310546875,-0.30517578125,-0.48828125,-1.64794921875,20.357666015625,-116.619873046875
1758181395.1491625,-0.345703125,-0.0244140625,0.9384765625,-0.06103515625,-0.244140625,-0.54931640625,-1.64794921875,20.3521728515625,-116.630859375
1758181395.1591601,-0.345703125,-0.0244140625,0.9384765625,-0.06103515625,-0.244140625,-0.54931640625,-1.6534423828125,20.3466796875,-116.6363525390625
1758181395.169129,-0.34423828125,-0.02685546875,0.93701171875,0.3662109375,-0.244140625,-0.48828125,-1.6534423828125,20.3466796875,-116.641845703125
1758181395.1791492,-0.34423828125,-0.02685546875,0.93701171875,0.3662109375,-0.244140625,-0.48828125,-1.6534423828125,20.3411865234375,-116.65283203125
1758181395.1892376,-0.3427734375,-0.02978515625,0.9423828125,0.18310546875,-0.18310546875,-0.3662109375,-1.64794921875,20.335693359375,-116.6583251953125
1758181395.1993558,-0.3427734375,-0.02978515625,0.9423828125,0.18310546875,-0.18310546875,-0.3662109375,-1.64794921875,20.335693359375,-116.663818359375
1758181395.20936,-0.34375,-0.029296875,0.93701171875,-0.3662109375,-0.1220703125,-0.30517578125,-1.6534423828125,20.3302001953125,-116.6693115234375
1758181395.2190506,-0.34375,-0.029296875,0.93701171875,-0.3662109375,-0.1220703125,-0.30517578125,-1.6534423828125,20.3302001953125,-116.6748046875
1758181395.2290184,-0.3505859375,-0.0263671875,0.9384765625,-0.67138671875,-0.06103515625,-0.30517578125,-1.6644287109375,20.32470703125,-116.6802978515625
1758181395.2390788,-0.3505859375,-0.0263671875,0.9384765625,-0.67138671875,-0.06103515625,-0.30517578125,-1.669921875,20.32470703125,-116.685791015625
1758181395.2491062,-0.3583984375,-0.02587890625,0.93505859375,-0.6103515625,0.0,-0.30517578125,-1.6754150390625,20.32470703125,-116.6912841796875
1758181395.259075,-0.3583984375,-0.02587890625,0.93505859375,-0.6103515625,0.0,-0.30517578125,-1.6864013671875,20.32470703125,-116.69677734375
1758181395.2690964,-0.359375,-0.0283203125,0.93212890625,-0.18310546875,0.1220703125,-0.3662109375,-1.69189453125,20.32470703125,-116.7022705078125
1758181395.2791061,-0.359375,-0.0283203125,0.93212890625,-0.18310546875,0.1220703125,-0.3662109375,-1.69189453125,20.32470703125,-116.707763671875
1758181395.289131,-0.35302734375,-0.029296875,0.93310546875,0.54931640625,0.18310546875,-0.3662109375,-1.69189453125,20.32470703125,-116.7132568359375
1758181395.2991416,-0.35302734375,-0.029296875,0.93310546875,0.54931640625,0.18310546875,-0.3662109375,-1.6864013671875,20.3302001953125,-116.71875
1758181395.3091378,-0.34814453125,-0.02880859375,0.93505859375,0.67138671875,0.1220703125,-0.30517578125,-1.680908203125,20.3302001953125,-116.71875
1758181395.319176,-0.34814453125,-0.02880859375,0.93505859375,0.67138671875,0.1220703125,-0.30517578125,-1.6754150390625,20.335693359375,-116.7242431640625
1758181395.3291678,-0.3427734375,-0.0380859375,0.939453125,-0.54931640625,0.0,-0.30517578125,-1.680908203125,20.335693359375,-116.729736328125
1758181395.3391864,-0.3427734375,-0.0380859375,0.939453125,-0.54931640625,0.0,-0.30517578125,-1.6864013671875,20.335693359375,-116.7352294921875
1758181395.349174,-0.35205078125,-0.02685546875,0.94091796875,-1.708984375,0.0,0.0,-1.6973876953125,20.335693359375,-116.7352294921875
1758181395.359196,-0.35205078125,-0.02685546875,0.94091796875,-1.708984375,0.0,0.0,-1.7138671875,20.335693359375,-116.7352294921875
1758181395.3692422,-0.34912109375,-0.02734375,0.93994140625,-1.220703125,0.06103515625,0.06103515625,-1.7303466796875,20.335693359375,-116.74072265625
1758181395.3793142,-0.34912109375,-0.02734375,0.93994140625,-1.220703125,0.06103515625,0.06103515625,-1.7413330078125,20.3411865234375,-116.74072265625
1758181395.3893023,-0.3466796875,-0.0263671875,0.9326171875,0.18310546875,0.0,0.06103515625,-1.746826171875,20.3411865234375,-116.74072265625
1758181395.3993087,-0.3466796875,-0.0263671875,0.9326171875,0.18310546875,0.0,0.06103515625,-1.746826171875,20.3411865234375,-116.74072265625
1758181395.4093056,-0.3447265625,-0.02490234375,0.93896484375,0.30517578125,-0.1220703125,0.06103515625,-1.7413330078125,20.3411865234375,-116.74072265625
1758181395.419333,-0.3447265625,-0.02490234375,0.93896484375,0.30517578125,-0.1220703125,0.06103515625,-1.7413330078125,20.3411865234375,-116.74072265625
1758181395.4293096,-0.345703125,-0.025390625,0.9384765625,-0.9765625,-0.244140625,0.18310546875,-1.7413330078125,20.335693359375,-116.74072265625
1758181395.4393332,-0.345703125,-0.025390625,0.9384765625,-0.9765625,-0.244140625,0.18310546875,-1.7523193359375,20.335693359375,-116.74072265625
1758181395.4493318,-0.3486328125,-0.0322265625,0.93896484375,-2.13623046875,-0.06103515625,0.30517578125,-1.7633056640625,20.335693359375,-116.7352294921875
1758181395.4593449,-0.3486328125,-0.0322265625,0.93896484375,-2.13623046875,-0.06103515625,0.30517578125,-1.7852783203125,20.3302001953125,-116.729736328125
1758181395.4693584,-0.35205078125,-0.03466796875,0.9384765625,-0.9765625,0.06103515625,0.48828125,-1.7962646484375,20.3302001953125,-116.729736328125
1758181395.4793854,-0.35205078125,-0.03466796875,0.9384765625,-0.9765625,0.06103515625,0.48828125,-1.8072509765625,20.335693359375,-116.7242431640625
1758181395.4893727,-0.35302734375,-0.037109375,0.92724609375,1.03759765625,-0.06103515625,0.79345703125,-1.8017578125,20.335693359375,-116.71875
1758181395.4994197,-0.35302734375,-0.037109375,0.92724609375,1.03759765625,-0.06103515625,0.79345703125,-1.790771484375,20.335693359375,-116.707763671875
1758181395.5094125,-0.35498046875,-0.033203125,0.93115234375,0.48828125,-0.3662109375,1.15966796875,-1.77978515625,20.335693359375,-116.69677734375
1758181395.5194387,-0.35498046875,-0.033203125,0.93115234375,0.48828125,-0.3662109375,1.15966796875,-1.7742919921875,20.3302001953125,-116.685791015625
1758181395.529424,-0.35498046875,-0.02978515625,0.9345703125,-1.64794921875,-0.67138671875,1.5869140625,-1.7742919921875,20.3302001953125,-116.6748046875
1758181395.539448,-0.35498046875,-0.02978515625,0.9345703125,-1.64794921875,-0.67138671875,1.5869140625,-1.7852783203125,20.32470703125,-116.6583251953125
1758181395.5494468,-0.35595703125,-0.03076171875,0.9375,-2.685546875,-0.67138671875,1.89208984375,-1.8017578125,20.3192138671875,-116.6363525390625
1758181395.55947,-0.35595703125,-0.03076171875,0.9375,-2.685546875,-0.67138671875,1.89208984375,-1.8182373046875,20.313720703125,-116.619873046875
1758181395.5695052,-0.35498046875,-0.0341796875,0.9326171875,-1.89208984375,-0.48828125,2.01416015625,-1.834716796875,20.3082275390625,-116.597900390625
1758181395.5795538,-0.35498046875,-0.0341796875,0.9326171875,-1.89208984375,-0.48828125,2.01416015625,-1.845703125,20.3082275390625,-116.575927734375
1758181395.5895276,-0.345703125,-0.03515625,0.939453125,-1.220703125,-0.18310546875,1.8310546875,-1.856689453125,20.3082275390625,-116.553955078125
1758181395.5995388,-0.345703125,-0.03515625,0.939453125,-1.220703125,-0.18310546875,1.8310546875,-1.8621826171875,20.3082275390625,-116.5374755859375
1758181395.6096308,-0.33447265625,-0.029296875,0.94189453125,-0.42724609375,-0.06103515625,1.52587890625,-1.86767578125,20.3082275390625,-116.52099609375
1758181395.6196606,-0.33447265625,-0.029296875,0.94189453125,-0.42724609375,-0.06103515625,1.52587890625,-1.8621826171875,20.3082275390625,-116.5045166015625
1758181395.6296294,-0.3310546875,-0.0224609375,0.93896484375,0.6103515625,-0.244140625,1.0986328125,-1.8621826171875,20.3082275390625,-116.4935302734375
1758181395.6396444,-0.3310546875,-0.0224609375,0.93896484375,0.6103515625,-0.244140625,1.0986328125,-1.8511962890625,20.3082275390625,-116.4825439453125
1758181395.6496778,-0.33642578125,-0.01904296875,0.94189453125,0.244140625,-0.3662109375,0.9765625,-1.8402099609375,20.302734375,-116.4715576171875
1758181395.659661,-0.33642578125,-0.01904296875,0.94189453125,0.244140625,-0.3662109375,0.9765625,-1.834716796875,20.2972412109375,-116.466064453125
1758181395.6697378,-0.34130859375,-0.02783203125,0.947265625,-1.0986328125,-0.1220703125,1.0986328125,-1.834716796875,20.2972412109375,-116.455078125
1758181395.6797185,-0.34130859375,-0.02783203125,0.947265625,-1.0986328125,-0.1220703125,1.0986328125,-1.8402099609375,20.291748046875,-116.444091796875
1758181395.6896899,-0.3427734375,-0.03857421875,0.9345703125,-0.9765625,-0.18310546875,1.28173828125,-1.845703125,20.291748046875,-116.43310546875
1758181395.6998122,-0.3427734375,-0.03857421875,0.9345703125,-0.9765625,-0.18310546875,1.28173828125,-1.8511962890625,20.2862548828125,-116.422119140625
1758181395.7096853,-0.34423828125,-0.03759765625,0.9345703125,-0.42724609375,-0.30517578125,1.220703125,-1.8511962890625,20.2862548828125,-116.4111328125
1758181395.7200012,-0.34423828125,-0.03759765625,0.9345703125,-0.42724609375,-0.30517578125,1.220703125,-1.8511962890625,20.28076171875,-116.400146484375
1758181395.72995,-0.345703125,-0.03173828125,0.9404296875,-0.8544921875,-0.42724609375,1.220703125,-1.8511962890625,20.2752685546875,-116.38916015625
1758181395.739873,-0.345703125,-0.03173828125,0.9404296875,-0.8544921875,-0.42724609375,1.220703125,-1.856689453125,20.269775390625,-116.378173828125
1758181395.750113,-0.34619140625,-0.025390625,0.935546875,-1.28173828125,-0.48828125,1.03759765625,-1.86767578125,20.2642822265625,-116.3671875
1758181395.7598374,-0.34619140625,-0.025390625,0.935546875,-1.28173828125,-0.48828125,1.03759765625,-1.8731689453125,20.2587890625,-116.356201171875
1758181395.7698288,-0.34912109375,-0.025390625,0.935546875,-0.91552734375,-0.54931640625,0.91552734375,-1.878662109375,20.2532958984375,-116.34521484375
1758181395.7802086,-0.34912109375,-0.025390625,0.935546875,-0.91552734375,-0.54931640625,0.91552734375,-1.8841552734375,20.247802734375,-116.3397216796875
1758181395.7898145,-0.35302734375,-0.02783203125,0.9384765625,-0.3662109375,-0.42724609375,0.67138671875,-1.8841552734375,20.2423095703125,-116.3287353515625
1758181395.7998786,-0.35302734375,-0.02783203125,0.9384765625,-0.3662109375,-0.42724609375,0.67138671875,-1.8841552734375,20.2423095703125,-116.3232421875
1758181395.8102257,-0.353515625,-0.03125,0.931640625,0.244140625,-0.54931640625,0.6103515625,-1.8841552734375,20.23681640625,-116.3177490234375
1758181395.8198605,-0.353515625,-0.03125,0.931640625,0.244140625,-0.54931640625,0.6103515625,-1.878662109375,20.2313232421875,-116.3067626953125
1758181395.829923,-0.3525390625,-0.03271484375,0.93408203125,-0.1220703125,-0.67138671875,0.67138671875,-1.8731689453125,20.225830078125,-116.30126953125
1758181395.8403153,-0.3525390625,-0.03271484375,0.93408203125,-0.1220703125,-0.67138671875,0.67138671875,-1.8731689453125,20.2203369140625,-116.2957763671875
1758181395.8506253,-0.35009765625,-0.03125,0.94287109375,-1.77001953125,-0.67138671875,0.54931640625,-1.8896484375,20.21484375,-116.290283203125
1758181395.8599389,-0.35009765625,-0.03125,0.94287109375,-1.77001953125,-0.67138671875,0.54931640625,-1.900634765625,20.2093505859375,-116.2847900390625
1758181395.870281,-0.35009765625,-0.029296875,0.93408203125,-1.5869140625,-0.54931640625,0.48828125,-1.9171142578125,20.203857421875,-116.279296875
1758181395.8799856,-0.35009765625,-0.029296875,0.93408203125,-1.5869140625,-0.54931640625,0.48828125,-1.9281005859375,20.1983642578125,-116.2738037109375
1758181395.8899648,-0.34814453125,-0.0322265625,0.93994140625,-0.6103515625,-0.3662109375,0.3662109375,-1.93359375,20.1983642578125,-116.268310546875
1758181395.899961,-0.34814453125,-0.0322265625,0.93994140625,-0.6103515625,-0.3662109375,0.3662109375,-1.9390869140625,20.1983642578125,-116.2628173828125
1758181395.9104369,-0.35009765625,-0.0322265625,0.9384765625,-0.30517578125,-0.18310546875,0.18310546875,-1.9390869140625,20.1983642578125,-116.25732421875
1758181395.9199858,-0.35009765625,-0.0322265625,0.9384765625,-0.30517578125,-0.18310546875,0.18310546875,-1.944580078125,20.19287109375,-116.25732421875
1758181395.9299994,-0.35107421875,-0.02978515625,0.93505859375,-0.30517578125,-0.06103515625,-0.06103515625,-1.944580078125,20.1983642578125,-116.25732421875
1758181395.9402807,-0.35107421875,-0.02978515625,0.93505859375,-0.30517578125,-0.06103515625,-0.06103515625,-1.9500732421875,20.1983642578125,-116.25732421875
1758181395.9500742,-0.3525390625,-0.02880859375,0.93896484375,-0.30517578125,0.1220703125,-0.244140625,-1.9500732421875,20.1983642578125,-116.25732421875
1758181395.9600859,-0.3525390625,-0.02880859375,0.93896484375,-0.30517578125,0.1220703125,-0.244140625,-1.95556640625,20.203857421875,-116.25732421875
1758181395.9701555,-0.34912109375,-0.02880859375,0.93798828125,0.0,0.30517578125,-0.42724609375,-1.95556640625,20.2093505859375,-116.2628173828125
1758181395.9801037,-0.34912109375,-0.02880859375,0.93798828125,0.0,0.30517578125,-0.42724609375,-1.95556640625,20.2093505859375,-116.2628173828125
1758181395.9900634,-0.34765625,-0.03271484375,0.93408203125,0.732421875,0.244140625,-0.54931640625,-1.9500732421875,20.21484375,-116.268310546875
1758181396.0001225,-0.34765625,-0.03271484375,0.93408203125,0.732421875,0.244140625,-0.54931640625,-1.944580078125,20.2203369140625,-116.2738037109375
1758181396.0105789,-0.35205078125,-0.033203125,0.93701171875,0.42724609375,0.244140625,-0.54931640625,-1.944580078125,20.2203369140625,-116.279296875
1758181396.0201306,-0.35205078125,-0.033203125,0.93701171875,0.42724609375,0.244140625,-0.54931640625,-1.9390869140625,20.225830078125,-116.2847900390625
1758181396.0304601,-0.3515625,-0.033203125,0.93505859375,-0.1220703125,0.06103515625,-0.48828125,-1.944580078125,20.225830078125,-116.2847900390625
1758181396.0403728,-0.3515625,-0.033203125,0.93505859375,-0.1220703125,0.06103515625,-0.48828125,-1.944580078125,20.2313232421875,-116.290283203125
1758181396.050196,-0.3505859375,-0.03271484375,0.9375,-0.3662109375,0.0,-0.42724609375,-1.9500732421875,20.2313232421875,-116.2957763671875
1758181396.0602875,-0.3505859375,-0.03271484375,0.9375,-0.3662109375,0.0,-0.42724609375,-1.95556640625,20.2313232421875,-116.30126953125
1758181396.07032,-0.34716796875,-0.03515625,0.9345703125,0.244140625,-0.06103515625,-0.30517578125,-1.95556640625,20.2313232421875,-116.30126953125
1758181396.0802875,-0.34716796875,-0.03515625,0.9345703125,0.244140625,-0.06103515625,-0.30517578125,-1.95556640625,20.23681640625,-116.3067626953125
1758181396.09021,-0.35205078125,-0.03515625,0.931640625,0.67138671875,-0.30517578125,-0.1220703125,-1.944580078125,20.2313232421875,-116.3067626953125
1758181396.1002998,-0.35205078125,-0.03515625,0.931640625,0.67138671875,-0.30517578125,-0.1220703125,-1.9390869140625,20.2313232421875,-116.3067626953125
1758181396.1102893,-0.35205078125,-0.03515625,0.931640625,-0.30517578125,-0.54931640625,0.06103515625,-1.944580078125,20.225830078125,-116.30126953125
1758181396.120299,-0.35498046875,-0.033203125,0.935546875,-0.30517578125,-0.54931640625,0.06103515625,-1.9500732421875,20.225830078125,-116.30126953125
1758181396.130553,-0.3515625,-0.0322265625,0.93798828125,-1.46484375,-0.6103515625,0.30517578125,-1.9610595703125,20.2203369140625,-116.2957763671875
1758181396.1406705,-0.3515625,-0.0322265625,0.93798828125,-1.46484375,-0.6103515625,0.30517578125,-1.9775390625,20.21484375,-116.290283203125
1758181396.150263,-0.34326171875,-0.03369140625,0.93408203125,-1.03759765625,-0.732421875,0.3662109375,-1.9830322265625,20.2093505859375,-116.2847900390625
1758181396.1603527,-0.34326171875,-0.03369140625,0.93408203125,-1.03759765625,-0.732421875,0.3662109375,-1.9940185546875,20.203857421875,-116.279296875
1758181396.1704025,-0.34375,-0.03271484375,0.939453125,-0.48828125,-0.91552734375,0.42724609375,-1.9940185546875,20.1983642578125,-116.2738037109375
1758181396.180334,-0.34375,-0.03271484375,0.939453125,-0.48828125,-0.91552734375,0.42724609375,-1.99951171875,20.19287109375,-116.268310546875
1758181396.190368,-0.35009765625,-0.03271484375,0.93408203125,-0.91552734375,-0.9765625,0.54931640625,-2.0050048828125,20.181884765625,-116.2628173828125
1758181396.200467,-0.35009765625,-0.03271484375,0.93408203125,-0.91552734375,-0.9765625,0.54931640625,-2.0159912109375,20.1763916015625,-116.2518310546875
1758181396.210558,-0.349609375,-0.0322265625,0.94189453125,-2.197265625,-0.79345703125,0.54931640625,-2.032470703125,20.1654052734375,-116.246337890625
1758181396.2205048,-0.349609375,-0.0322265625,0.94189453125,-2.197265625,-0.79345703125,0.54931640625,-2.054443359375,20.159912109375,-116.2408447265625
1758181396.2305105,-0.33984375,-0.033203125,0.94140625,-1.77001953125,-0.6103515625,0.54931640625,-2.0709228515625,20.1544189453125,-116.2298583984375
1758181396.2404964,-0.33984375,-0.033203125,0.94140625,-1.77001953125,-0.6103515625,0.54931640625,-2.0819091796875,20.1544189453125,-116.224365234375
1758181396.250492,-0.33349609375,-0.037109375,0.93798828125,-0.244140625,-0.67138671875,0.54931640625,-2.0819091796875,20.14892578125,-116.2188720703125
1758181396.260465,-0.33349609375,-0.037109375,0.93798828125,-0.244140625,-0.67138671875,0.54931640625,-2.0819091796875,20.137939453125,-116.21337890625
1758181396.2705178,-0.33447265625,-0.0361328125,0.9443359375,-0.48828125,-0.67138671875,0.54931640625,-2.08740234375,20.1324462890625,-116.2078857421875
1758181396.2804697,-0.33447265625,-0.0361328125,0.9443359375,-0.48828125,-0.67138671875,0.54931640625,-2.08740234375,20.126953125,-116.1968994140625
1758181396.2904875,-0.3359375,-0.0322265625,0.9453125,-1.8310546875,-0.54931640625,0.6103515625,-2.1038818359375,20.1214599609375,-116.19140625
1758181396.3005695,-0.3359375,-0.0322265625,0.9453125,-1.8310546875,-0.54931640625,0.6103515625,-2.120361328125,20.115966796875,-116.1859130859375
1758181396.3105106,-0.3369140625,-0.03369140625,0.94580078125,-2.3193359375,-0.244140625,0.732421875,-2.142333984375,20.1104736328125,-116.180419921875
1758181396.3205054,-0.3369140625,-0.03369140625,0.94580078125,-2.3193359375,-0.244140625,0.732421875,-2.1588134765625,20.10498046875,-116.16943359375
1758181396.330515,-0.34326171875,-0.03857421875,0.93896484375,-1.64794921875,0.0,0.54931640625,-2.17529296875,20.10498046875,-116.1639404296875
1758181396.340545,-0.34326171875,-0.03857421875,0.93896484375,-1.64794921875,0.0,0.54931640625,-2.186279296875,20.10498046875,-116.158447265625
1758181396.3505237,-0.34765625,-0.03857421875,0.935546875,-0.3662109375,0.1220703125,0.30517578125,-2.1917724609375,20.10498046875,-116.1529541015625
1758181396.3605165,-0.34765625,-0.03857421875,0.935546875,-0.3662109375,0.1220703125,0.30517578125,-2.1917724609375,20.10498046875,-116.1529541015625
1758181396.3705692,-0.3466796875,-0.03173828125,0.935546875,0.3662109375,0.06103515625,0.1220703125,-2.186279296875,20.10498046875,-116.1474609375
1758181396.3805947,-0.3466796875,-0.03173828125,0.935546875,0.3662109375,0.06103515625,0.1220703125,-2.1807861328125,20.10498046875,-116.1474609375
1758181396.3906152,-0.34423828125,-0.0302734375,0.939453125,0.0,0.0,0.18310546875,-2.1807861328125,20.10498046875,-116.1419677734375
1758181396.4007604,-0.34423828125,-0.0302734375,0.939453125,0.0,0.0,0.18310546875,-2.1807861328125,20.10498046875,-116.1419677734375
1758181396.4106672,-0.34619140625,-0.03662109375,0.94140625,-0.9765625,0.0,0.6103515625,-2.186279296875,20.10498046875,-116.136474609375
1758181396.4206383,-0.34619140625,-0.03662109375,0.94140625,-0.9765625,0.0,0.6103515625,-2.197265625,20.10498046875,-116.12548828125
1758181396.430629,-0.34619140625,-0.04736328125,0.9345703125,-1.89208984375,0.0,0.91552734375,-2.208251953125,20.10498046875,-116.1199951171875
1758181396.440743,-0.34619140625,-0.04736328125,0.9345703125,-1.89208984375,0.0,0.91552734375,-2.2247314453125,20.10498046875,-116.1090087890625
1758181396.450697,-0.34130859375,-0.0419921875,0.93994140625,-2.44140625,0.06103515625,0.8544921875,-2.2467041015625,20.1104736328125,-116.0980224609375
1758181396.4606535,-0.34130859375,-0.0419921875,0.93994140625,-2.44140625,0.06103515625,0.8544921875,-2.2686767578125,20.1104736328125,-116.092529296875
1758181396.4707015,-0.341796875,-0.033203125,0.9404296875,-1.5869140625,0.1220703125,0.732421875,-2.2796630859375,20.1104736328125,-116.08154296875
1758181396.4807386,-0.341796875,-0.033203125,0.9404296875,-1.5869140625,0.1220703125,0.732421875,-2.296142578125,20.1104736328125,-116.0760498046875
1758181396.4907491,-0.3486328125,-0.0302734375,0.9365234375,-0.54931640625,0.06103515625,0.6103515625,-2.296142578125,20.1104736328125,-116.070556640625
1758181396.500849,-0.3486328125,-0.0302734375,0.9365234375,-0.54931640625,0.06103515625,0.6103515625,-2.3016357421875,20.115966796875,-116.0650634765625
1758181396.5107944,-0.35107421875,-0.0341796875,0.93408203125,-0.54931640625,0.0,0.54931640625,-2.3016357421875,20.115966796875,-116.0540771484375
1758181396.52075,-0.35107421875,-0.0341796875,0.93408203125,-0.54931640625,0.0,0.54931640625,-2.30712890625,20.115966796875,-116.048583984375
1758181396.5308545,-0.34912109375,-0.04150390625,0.93505859375,-0.91552734375,-0.06103515625,0.732421875,-2.3126220703125,20.115966796875,-116.0430908203125
1758181396.5408006,-0.34912109375,-0.04150390625,0.93505859375,-0.91552734375,-0.06103515625,0.732421875,-2.318115234375,20.115966796875,-116.0321044921875
1758181396.5508304,-0.34423828125,-0.0478515625,0.935546875,-1.64794921875,-0.244140625,1.03759765625,-2.3291015625,20.115966796875,-116.0211181640625
1758181396.560766,-0.34423828125,-0.0478515625,0.935546875,-1.64794921875,-0.244140625,1.03759765625,-2.340087890625,20.115966796875,-116.0101318359375
1758181396.5708585,-0.33740234375,-0.04248046875,0.93505859375,-2.197265625,-0.42724609375,1.15966796875,-2.362060546875,20.1104736328125,-115.9991455078125
1758181396.5809116,-0.33740234375,-0.04248046875,0.93505859375,-2.197265625,-0.42724609375,1.15966796875,-2.3785400390625,20.10498046875,-115.9881591796875
1758181396.5908618,-0.3310546875,-0.0341796875,0.94189453125,-2.685546875,-0.67138671875,1.03759765625,-2.4005126953125,20.0994873046875,-115.9716796875
1758181396.6012268,-0.3310546875,-0.0341796875,0.94189453125,-2.685546875,-0.67138671875,1.03759765625,-2.4224853515625,20.093994140625,-115.960693359375
1758181396.610944,-0.3349609375,-0.03271484375,0.947265625,-2.9296875,-0.48828125,0.9765625,-2.449951171875,20.0885009765625,-115.94970703125
1758181396.6209643,-0.3349609375,-0.03271484375,0.947265625,-2.9296875,-0.48828125,0.9765625,-2.471923828125,20.0830078125,-115.938720703125
1758181396.631217,-0.33984375,-0.04150390625,0.94287109375,-1.5869140625,-0.30517578125,0.9765625,-2.48291015625,20.0775146484375,-115.927734375
1758181396.641209,-0.33984375,-0.04150390625,0.94287109375,-1.5869140625,-0.30517578125,0.9765625,-2.493896484375,20.0775146484375,-115.916748046875
1758181396.6509442,-0.34423828125,-0.0478515625,0.93115234375,-0.54931640625,-0.42724609375,0.91552734375,-2.493896484375,20.072021484375,-115.90576171875
1758181396.660959,-0.34423828125,-0.0478515625,0.93115234375,-0.54931640625,-0.42724609375,0.91552734375,-2.4993896484375,20.0665283203125,-115.894775390625
1758181396.671008,-0.345703125,-0.04345703125,0.93603515625,-1.46484375,-0.6103515625,0.9765625,-2.5103759765625,20.06103515625,-115.8837890625
1758181396.6809325,-0.345703125,-0.04345703125,0.93603515625,-1.46484375,-0.6103515625,0.9765625,-2.5213623046875,20.0555419921875,-115.872802734375
1758181396.691057,-0.33837890625,-0.03759765625,0.9443359375,-2.8076171875,-0.54931640625,1.03759765625,-2.5433349609375,20.050048828125,-115.86181640625
1758181396.7012079,-0.33837890625,-0.03759765625,0.9443359375,-2.8076171875,-0.54931640625,1.03759765625,-2.5653076171875,20.0445556640625,-115.850830078125
1758181396.7110493,-0.3349609375,-0.04248046875,0.94482421875,-2.74658203125,-0.18310546875,1.0986328125,-2.5872802734375,20.0390625,-115.83984375
1758181396.7210512,-0.33251953125,-0.04736328125,0.93896484375,-1.40380859375,-0.1220703125,1.15966796875,-2.603759765625,20.0390625,-115.828857421875
1758181396.7310574,-0.33251953125,-0.04736328125,0.93896484375,-1.40380859375,-0.1220703125,1.15966796875,-2.61474609375,20.0390625,-115.81787109375
1758181396.7410867,-0.333984375,-0.04736328125,0.9453125,-1.28173828125,-0.18310546875,1.15966796875,-2.6202392578125,20.0335693359375,-115.806884765625
1758181396.751075,-0.333984375,-0.04736328125,0.9453125,-1.28173828125,-0.18310546875,1.15966796875,-2.6312255859375,20.0335693359375,-115.7958984375
1758181396.7610533,-0.33544921875,-0.04296875,0.94384765625,-2.38037109375,0.06103515625,1.220703125,-2.6422119140625,20.028076171875,-115.784912109375
1758181396.7719038,-0.33544921875,-0.04296875,0.94384765625,-2.38037109375,0.06103515625,1.220703125,-2.6641845703125,20.028076171875,-115.7684326171875
1758181396.7810655,-0.3330078125,-0.04345703125,0.9384765625,-2.197265625,0.06103515625,1.28173828125,-2.6806640625,20.028076171875,-115.7574462890625
1758181396.791105,-0.3330078125,-0.04345703125,0.9384765625,-2.197265625,0.06103515625,1.28173828125,-2.6971435546875,20.028076171875,-115.7464599609375
1758181396.8015761,-0.33935546875,-0.0439453125,0.94189453125,-2.50244140625,0.0,1.220703125,-2.7191162109375,20.028076171875,-115.7354736328125
1758181396.8111565,-0.33935546875,-0.0439453125,0.94189453125,-2.50244140625,0.0,1.220703125,-2.735595703125,20.028076171875,-115.7244873046875
1758181396.8211536,-0.34375,-0.04638671875,0.9384765625,-2.86865234375,0.1220703125,1.0986328125,-2.757568359375,20.0225830078125,-115.7080078125
1758181396.831189,-0.34375,-0.04638671875,0.9384765625,-2.86865234375,0.1220703125,1.0986328125,-2.779541015625,20.0225830078125,-115.697021484375
1758181396.8412418,-0.34228515625,-0.046875,0.93701171875,-2.25830078125,0.1220703125,1.03759765625,-2.801513671875,20.0225830078125,-115.68603515625
1758181396.8513672,-0.34228515625,-0.046875,0.93701171875,-2.25830078125,0.1220703125,1.03759765625,-2.823486328125,20.028076171875,-115.675048828125
1758181396.8612194,-0.3447265625,-0.04833984375,0.93798828125,-1.8310546875,0.06103515625,0.8544921875,-2.8399658203125,20.028076171875,-115.6640625
1758181396.8713868,-0.3447265625,-0.04833984375,0.93798828125,-1.8310546875,0.06103515625,0.8544921875,-2.8509521484375,20.028076171875,-115.6585693359375
1758181396.8812337,-0.34765625,-0.046875,0.93701171875,-2.01416015625,0.06103515625,0.79345703125,-2.867431640625,20.028076171875,-115.6475830078125
1758181396.8912418,-0.34765625,-0.046875,0.93701171875,-2.01416015625,0.06103515625,0.79345703125,-2.8839111328125,20.028076171875,-115.64208984375
1758181396.9016504,-0.34423828125,-0.0478515625,0.9345703125,-1.8310546875,0.0,0.732421875,-2.900390625,20.028076171875,-115.631103515625
1758181396.9113178,-0.34423828125,-0.0478515625,0.9345703125,-1.8310546875,0.0,0.732421875,-2.9168701171875,20.028076171875,-115.6201171875
1758181396.921298,-0.34228515625,-0.04833984375,0.935546875,-1.5869140625,-0.06103515625,0.6103515625,-2.9278564453125,20.028076171875,-115.6146240234375
1758181396.931475,-0.34228515625,-0.04833984375,0.935546875,-1.5869140625,-0.06103515625,0.6103515625,-2.9388427734375,20.028076171875,-115.6036376953125
1758181396.9413674,-0.34033203125,-0.04833984375,0.94287109375,-2.197265625,-0.06103515625,0.6103515625,-2.955322265625,20.028076171875,-115.59814453125
1758181396.9513628,-0.34033203125,-0.04833984375,0.94287109375,-2.197265625,-0.06103515625,0.6103515625,-2.977294921875,20.028076171875,-115.5926513671875
1758181396.961356,-0.34521484375,-0.0498046875,0.9384765625,-2.44140625,-0.06103515625,0.67138671875,-2.9937744140625,20.0225830078125,-115.5816650390625
1758181396.9714346,-0.34521484375,-0.0498046875,0.9384765625,-2.44140625,-0.06103515625,0.67138671875,-3.0157470703125,20.0225830078125,-115.576171875
1758181396.9813397,-0.34912109375,-0.0537109375,0.931640625,-1.708984375,-0.06103515625,0.6103515625,-3.0322265625,20.0225830078125,-115.565185546875
1758181396.991351,-0.34912109375,-0.0537109375,0.931640625,-1.708984375,-0.06103515625,0.6103515625,-3.0487060546875,20.0225830078125,-115.5596923828125
1758181397.0014403,-0.34619140625,-0.05419921875,0.93994140625,-1.40380859375,0.0,0.6103515625,-3.0596923828125,20.0225830078125,-115.5487060546875
1758181397.011664,-0.34619140625,-0.05419921875,0.93994140625,-1.40380859375,0.0,0.6103515625,-3.0706787109375,20.028076171875,-115.543212890625
1758181397.0214467,-0.345703125,-0.052734375,0.93994140625,-1.5869140625,0.244140625,0.54931640625,-3.087158203125,20.028076171875,-115.5322265625
1758181397.0314848,-0.345703125,-0.052734375,0.93994140625,-1.5869140625,0.244140625,0.54931640625,-3.09814453125,20.0335693359375,-115.5267333984375
1758181397.0419757,-0.3388671875,-0.05126953125,0.9384765625,-0.8544921875,0.3662109375,0.6103515625,-3.109130859375,20.0335693359375,-115.521240234375
1758181397.0514855,-0.3388671875,-0.05126953125,0.9384765625,-0.8544921875,0.3662109375,0.6103515625,-3.1146240234375,20.0390625,-115.51025390625
1758181397.0615885,-0.34130859375,-0.05224609375,0.93994140625,-0.6103515625,0.3662109375,0.6103515625,-3.1201171875,20.0445556640625,-115.5047607421875
1758181397.0715504,-0.34130859375,-0.05224609375,0.93994140625,-0.6103515625,0.3662109375,0.6103515625,-3.1256103515625,20.050048828125,-115.4937744140625
1758181397.0815885,-0.34423828125,-0.05322265625,0.9365234375,-1.28173828125,0.3662109375,0.6103515625,-3.131103515625,20.050048828125,-115.48828125
1758181397.091637,-0.34423828125,-0.05322265625,0.9365234375,-1.28173828125,0.3662109375,0.6103515625,-3.14208984375,20.0555419921875,-115.4827880859375
1758181397.101989,-0.3466796875,-0.05322265625,0.9384765625,-1.52587890625,0.48828125,0.54931640625,-3.153076171875,20.06103515625,-115.4718017578125
1758181397.1116476,-0.3466796875,-0.05322265625,0.9384765625,-1.52587890625,0.48828125,0.54931640625,-3.1640625,20.0665283203125,-115.46630859375
1758181397.1217008,-0.34912109375,-0.05419921875,0.93701171875,-0.42724609375,0.6103515625,0.54931640625,-3.175048828125,20.072021484375,-115.4608154296875
1758181397.1315844,-0.34912109375,-0.05419921875,0.93701171875,-0.42724609375,0.6103515625,0.54931640625,-3.175048828125,20.0775146484375,-115.4498291015625
1758181397.142174,-0.3525390625,-0.05615234375,0.93017578125,0.79345703125,0.54931640625,0.79345703125,-3.1695556640625,20.0830078125,-115.4443359375
1758181397.151576,-0.3525390625,-0.05615234375,0.93017578125,0.79345703125,0.54931640625,0.79345703125,-3.1640625,20.093994140625,-115.433349609375
1758181397.161646,-0.35888671875,-0.05615234375,0.92919921875,0.0,0.30517578125,1.03759765625,-3.153076171875,20.0994873046875,-115.4278564453125
1758181397.1716993,-0.35888671875,-0.05615234375,0.92919921875,0.0,0.30517578125,1.03759765625,-3.153076171875,20.10498046875,-115.411376953125
1758181397.1816156,-0.35791015625,-0.05517578125,0.935546875,-1.77001953125,0.244140625,1.15966796875,-3.1585693359375,20.1104736328125,-115.400390625
1758181397.1916623,-0.35791015625,-0.05517578125,0.935546875,-1.77001953125,0.244140625,1.15966796875,-3.1695556640625,20.115966796875,-115.389404296875
1758181397.2020204,-0.3525390625,-0.05224609375,0.93359375,-1.5869140625,0.30517578125,1.15966796875,-3.18603515625,20.1214599609375,-115.3729248046875
1758181397.2117662,-0.3525390625,-0.05224609375,0.93359375,-1.5869140625,0.30517578125,1.15966796875,-3.197021484375,20.126953125,-115.3619384765625
1758181397.2216816,-0.345703125,-0.052734375,0.9365234375,0.1220703125,0.244140625,1.03759765625,-3.2025146484375,20.1324462890625,-115.345458984375
1758181397.2317235,-0.345703125,-0.052734375,0.9365234375,0.1220703125,0.244140625,1.03759765625,-3.197021484375,20.137939453125,-115.33447265625
1758181397.2421634,-0.34619140625,-0.0517578125,0.93408203125,0.48828125,0.1220703125,1.03759765625,-3.1915283203125,20.137939453125,-115.323486328125
1758181397.2517736,-0.34619140625,-0.0517578125,0.93408203125,0.48828125,0.1220703125,1.03759765625,-3.1805419921875,20.1434326171875,-115.3070068359375
1758181397.2617812,-0.34326171875,-0.05126953125,0.9375,-0.6103515625,0.0,0.91552734375,-3.1805419921875,20.14892578125,-115.2960205078125
1758181397.2718294,-0.34326171875,-0.05126953125,0.9375,-0.6103515625,0.0,0.91552734375,-3.1805419921875,20.14892578125,-115.2850341796875
1758181397.2817557,-0.34130859375,-0.05322265625,0.939453125,-1.03759765625,0.0,0.91552734375,-3.18603515625,20.14892578125,-115.2740478515625
1758181397.2919698,-0.34130859375,-0.05322265625,0.939453125,-1.03759765625,0.0,0.91552734375,-3.197021484375,20.1544189453125,-115.2630615234375
1758181397.3021305,-0.33740234375,-0.05517578125,0.9404296875,-0.3662109375,0.0,0.91552734375,-3.197021484375,20.1544189453125,-115.257568359375
1758181397.3118632,-0.33740234375,-0.05517578125,0.9404296875,-0.3662109375,0.0,0.91552734375,-3.197021484375,20.1544189453125,-115.24658203125
1758181397.3218474,-0.33447265625,-0.05615234375,0.93798828125,0.244140625,0.06103515625,0.91552734375,-3.197021484375,20.1544189453125,-115.235595703125
1758181397.3318615,-0.33447265625,-0.05615234375,0.93798828125,0.244140625,0.06103515625,0.91552734375,-3.1915283203125,20.1544189453125,-115.224609375
1758181397.3422892,-0.33447265625,-0.05615234375,0.93798828125,0.06103515625,0.0,0.79345703125,-3.18603515625,20.1544189453125,-115.213623046875
1758181397.3518908,-0.3330078125,-0.05224609375,0.94384765625,0.06103515625,0.0,0.79345703125,-3.18603515625,20.1544189453125,-115.2081298828125
1758181397.361908,-0.3408203125,-0.052734375,0.9384765625,0.0,0.0,0.79345703125,-3.1805419921875,20.1544189453125,-115.1971435546875
1758181397.37202,-0.3408203125,-0.052734375,0.9384765625,0.0,0.0,0.79345703125,-3.1805419921875,20.1544189453125,-115.191650390625
1758181397.3818724,-0.3447265625,-0.05322265625,0.93408203125,0.244140625,0.0,0.6103515625,-3.175048828125,20.1544189453125,-115.1806640625
1758181397.3919346,-0.3447265625,-0.05322265625,0.93408203125,0.244140625,0.0,0.6103515625,-3.1695556640625,20.1544189453125,-115.1751708984375
1758181397.402169,-0.34326171875,-0.05126953125,0.9384765625,0.6103515625,-0.06103515625,0.42724609375,-3.1640625,20.1544189453125,-115.169677734375
1758181397.412772,-0.34326171875,-0.05126953125,0.9384765625,0.6103515625,-0.06103515625,0.42724609375,-3.1585693359375,20.14892578125,-115.1641845703125
1758181397.422022,-0.34033203125,-0.05078125,0.9375,1.15966796875,-0.1220703125,0.30517578125,-3.1475830078125,20.14892578125,-115.1641845703125
1758181397.4325206,-0.34033203125,-0.05078125,0.9375,1.15966796875,-0.1220703125,0.30517578125,-3.1365966796875,20.14892578125,-115.15869140625
1758181397.4424343,-0.34130859375,-0.052734375,0.93505859375,1.3427734375,-0.30517578125,0.30517578125,-3.1256103515625,20.1434326171875,-115.15869140625
1758181397.4520297,-0.34130859375,-0.052734375,0.93505859375,1.3427734375,-0.30517578125,0.30517578125,-3.109130859375,20.1434326171875,-115.1531982421875
1758181397.4621525,-0.3486328125,-0.052734375,0.9404296875,0.48828125,-0.30517578125,0.18310546875,-3.09814453125,20.137939453125,-115.1531982421875
1758181397.4724088,-0.3486328125,-0.052734375,0.9404296875,0.48828125,-0.30517578125,0.18310546875,-3.0926513671875,20.1324462890625,-115.147705078125
1758181397.4820201,-0.35302734375,-0.05029296875,0.93505859375,0.30517578125,-0.06103515625,0.1220703125,-3.0926513671875,20.1324462890625,-115.147705078125
1758181397.4920971,-0.35302734375,-0.05029296875,0.93505859375,0.30517578125,-0.06103515625,0.1220703125,-3.087158203125,20.1324462890625,-115.147705078125
1758181397.5021744,-0.34912109375,-0.05126953125,0.9345703125,1.15966796875,0.0,0.1220703125,-3.0816650390625,20.1324462890625,-115.1422119140625
1758181397.5122797,-0.34912109375,-0.05126953125,0.9345703125,1.15966796875,0.0,0.1220703125,-3.0706787109375,20.1324462890625,-115.1422119140625
1758181397.5220768,-0.3447265625,-0.05029296875,0.935546875,1.52587890625,-0.06103515625,0.0,-3.05419921875,20.1324462890625,-115.1422119140625
1758181397.532341,-0.3447265625,-0.05029296875,0.935546875,1.52587890625,-0.06103515625,0.0,-3.043212890625,20.1324462890625,-115.1422119140625
1758181397.5422199,-0.34375,-0.046875,0.9404296875,1.03759765625,-0.06103515625,-0.1220703125,-3.0322265625,20.1324462890625,-115.1422119140625
1758181397.5523267,-0.34375,-0.046875,0.9404296875,1.03759765625,-0.06103515625,-0.1220703125,-3.021240234375,20.1324462890625,-115.1422119140625
1758181397.5623467,-0.34814453125,-0.046875,0.93798828125,0.91552734375,0.0,-0.18310546875,-3.01025390625,20.1324462890625,-115.1422119140625
1758181397.5725324,-0.34814453125,-0.046875,0.93798828125,0.91552734375,0.0,-0.18310546875,-3.0047607421875,20.1324462890625,-115.1422119140625
1758181397.582187,-0.35107421875,-0.05126953125,0.93701171875,1.220703125,0.06103515625,-0.1220703125,-2.9937744140625,20.1324462890625,-115.147705078125
1758181397.5922139,-0.35107421875,-0.05126953125,0.93701171875,1.220703125,0.06103515625,-0.1220703125,-2.9827880859375,20.1324462890625,-115.147705078125
1758181397.602299,-0.3486328125,-0.05224609375,0.93212890625,1.3427734375,0.0,-0.244140625,-2.9718017578125,20.1324462890625,-115.147705078125
1758181397.6122975,-0.3486328125,-0.05224609375,0.93212890625,1.3427734375,0.0,-0.244140625,-2.9608154296875,20.137939453125,-115.1531982421875
1758181397.622287,-0.3466796875,-0.0478515625,0.9375,1.3427734375,0.0,-0.244140625,-2.9498291015625,20.137939453125,-115.1531982421875
1758181397.6322603,-0.3466796875,-0.0478515625,0.9375,1.3427734375,0.0,-0.244140625,-2.933349609375,20.137939453125,-115.1531982421875
1758181397.642698,-0.34423828125,-0.0458984375,0.939453125,1.15966796875,0.0,-0.30517578125,-2.9278564453125,20.137939453125,-115.15869140625
1758181397.652291,-0.34423828125,-0.0458984375,0.939453125,1.15966796875,0.0,-0.30517578125,-2.9168701171875,20.137939453125,-115.15869140625
1758181397.6623828,-0.34814453125,-0.04638671875,0.93701171875,0.8544921875,0.0,-0.30517578125,-2.9058837890625,20.137939453125,-115.1641845703125
1758181397.6728742,-0.34814453125,-0.04638671875,0.93701171875,0.8544921875,0.0,-0.30517578125,-2.900390625,20.137939453125,-115.1641845703125
1758181397.6823215,-0.34912109375,-0.04931640625,0.93701171875,0.8544921875,0.18310546875,-0.3662109375,-2.8948974609375,20.1434326171875,-115.169677734375
1758181397.6926212,-0.34912109375,-0.04931640625,0.93701171875,0.8544921875,0.18310546875,-0.3662109375,-2.889404296875,20.1434326171875,-115.169677734375
1758181397.7023513,-0.34619140625,-0.04931640625,0.93603515625,1.220703125,0.18310546875,-0.42724609375,-2.87841796875,20.14892578125,-115.1751708984375
1758181397.7127018,-0.34619140625,-0.04931640625,0.93603515625,1.220703125,0.18310546875,-0.42724609375,-2.867431640625,20.14892578125,-115.1806640625
1758181397.722406,-0.34033203125,-0.04638671875,0.93896484375,1.64794921875,0.1220703125,-0.6103515625,-2.8564453125,20.14892578125,-115.1861572265625
1758181397.7325456,-0.34033203125,-0.04638671875,0.93896484375,1.64794921875,0.1220703125,-0.6103515625,-2.8399658203125,20.1544189453125,-115.191650390625
1758181397.7427607,-0.33984375,-0.04443359375,0.94091796875,1.8310546875,0.18310546875,-0.6103515625,-2.823486328125,20.1544189453125,-115.1971435546875
1758181397.7524617,-0.33984375,-0.04443359375,0.94091796875,1.8310546875,0.18310546875,-0.6103515625,-2.8125,20.1544189453125,-115.20263671875
1758181397.7624826,-0.34375,-0.04541015625,0.93798828125,1.708984375,0.1220703125,-0.54931640625,-2.7960205078125,20.1544189453125,-115.2081298828125
1758181397.7726886,-0.34375,-0.04541015625,0.93798828125,1.708984375,0.1220703125,-0.54931640625,-2.779541015625,20.159912109375,-115.213623046875
1758181397.7824533,-0.345703125,-0.04833984375,0.93603515625,1.3427734375,0.06103515625,-0.48828125,-2.7685546875,20.159912109375,-115.2191162109375
1758181397.7925048,-0.345703125,-0.04833984375,0.93603515625,1.3427734375,0.06103515625,-0.48828125,-2.757568359375,20.159912109375,-115.224609375
1758181397.8024445,-0.3447265625,-0.046875,0.93505859375,1.220703125,0.0,-0.48828125,-2.7520751953125,20.159912109375,-115.2301025390625
1758181397.8128185,-0.3447265625,-0.046875,0.93505859375,1.220703125,0.0,-0.48828125,-2.7410888671875,20.159912109375,-115.235595703125
1758181397.8225565,-0.34130859375,-0.04345703125,0.93896484375,1.40380859375,-0.1220703125,-0.42724609375,-2.7301025390625,20.1544189453125,-115.235595703125
1758181397.8327932,-0.34130859375,-0.04345703125,0.93896484375,1.40380859375,-0.1220703125,-0.42724609375,-2.7191162109375,20.1544189453125,-115.2410888671875
1758181397.8426826,-0.34423828125,-0.04443359375,0.9375,1.220703125,-0.30517578125,-0.30517578125,-2.7081298828125,20.14892578125,-115.2410888671875
1758181397.8525412,-0.34423828125,-0.04443359375,0.9375,1.220703125,-0.30517578125,-0.30517578125,-2.6971435546875,20.14892578125,-115.24658203125
1758181397.8632822,-0.34228515625,-0.0458984375,0.93896484375,0.6103515625,-0.3662109375,-0.30517578125,-2.691650390625,20.1434326171875,-115.24658203125
1758181397.87274,-0.34228515625,-0.0458984375,0.93896484375,0.6103515625,-0.3662109375,-0.30517578125,-2.6861572265625,20.137939453125,-115.2520751953125
1758181397.8826783,-0.34033203125,-0.04541015625,0.94189453125,0.6103515625,-0.18310546875,-0.30517578125,-2.6861572265625,20.137939453125,-115.2520751953125
1758181397.892694,-0.34033203125,-0.04541015625,0.94189453125,0.6103515625,-0.18310546875,-0.30517578125,-2.6806640625,20.137939453125,-115.257568359375
1758181397.9026747,-0.3349609375,-0.044921875,0.93896484375,1.708984375,-0.18310546875,-0.3662109375,-2.6641845703125,20.1324462890625,-115.257568359375
1758181397.9128885,-0.3349609375,-0.044921875,0.93896484375,1.708984375,-0.18310546875,-0.3662109375,-2.647705078125,20.1324462890625,-115.2630615234375
1758181397.9227068,-0.333984375,-0.04296875,0.94140625,2.44140625,-0.244140625,-0.30517578125,-2.625732421875,20.126953125,-115.2630615234375
1758181397.9328606,-0.333984375,-0.04296875,0.94140625,2.44140625,-0.244140625,-0.30517578125,-2.603759765625,20.1214599609375,-115.2630615234375
1758181397.9434392,-0.3388671875,-0.04345703125,0.9453125,1.953125,-0.1220703125,-0.1220703125,-2.5872802734375,20.1214599609375,-115.2685546875
1758181397.9527931,-0.3388671875,-0.04345703125,0.9453125,1.953125,-0.1220703125,-0.1220703125,-2.57080078125,20.115966796875,-115.2685546875
1758181397.9627564,-0.34326171875,-0.046875,0.93603515625,1.52587890625,-0.06103515625,0.1220703125,-2.5543212890625,20.115966796875,-115.2685546875
1758181397.9728687,-0.34326171875,-0.046875,0.93603515625,1.52587890625,-0.06103515625,0.1220703125,-2.537841796875,20.1104736328125,-115.2685546875
1758181397.9828064,-0.34326171875,-0.04736328125,0.9384765625,1.220703125,-0.06103515625,0.30517578125,-2.52685546875,20.1104736328125,-115.2630615234375
1758181397.9927373,-0.34326171875,-0.04736328125,0.9384765625,1.220703125,-0.06103515625,0.30517578125,-2.515869140625,20.1104736328125,-115.2630615234375
1758181398.0028818,-0.33984375,-0.03955078125,0.939453125,1.220703125,-0.06103515625,0.3662109375,-2.5048828125,20.1104736328125,-115.257568359375
1758181398.013009,-0.33984375,-0.03955078125,0.939453125,1.220703125,-0.06103515625,0.3662109375,-2.493896484375,20.10498046875,-115.257568359375
1758181398.0229654,-0.337890625,-0.037109375,0.94140625,1.64794921875,-0.06103515625,0.3662109375,-2.4774169921875,20.10498046875,-115.2520751953125
1758181398.032812,-0.337890625,-0.037109375,0.94140625,1.64794921875,-0.06103515625,0.3662109375,-2.4609375,20.10498046875,-115.2520751953125
1758181398.0433435,-0.34228515625,-0.03857421875,0.9384765625,1.5869140625,0.0,0.3662109375,-2.4444580078125,20.10498046875,-115.24658203125
1758181398.0528305,-0.34228515625,-0.03857421875,0.9384765625,1.5869140625,0.0,0.3662109375,-2.427978515625,20.0994873046875,-115.2410888671875
1758181398.0630045,-0.3466796875,-0.0400390625,0.9404296875,1.0986328125,0.1220703125,0.30517578125,-2.4169921875,20.0994873046875,-115.2410888671875
1758181398.0729032,-0.3466796875,-0.0400390625,0.9404296875,1.0986328125,0.1220703125,0.30517578125,-2.406005859375,20.0994873046875,-115.235595703125
1758181398.0828724,-0.3447265625,-0.0390625,0.9365234375,1.3427734375,0.18310546875,0.3662109375,-2.3895263671875,20.10498046875,-115.235595703125
1758181398.092848,-0.3447265625,-0.0390625,0.9365234375,1.3427734375,0.18310546875,0.3662109375,-2.3785400390625,20.10498046875,-115.2301025390625
1758181398.1028674,-0.34423828125,-0.03857421875,0.93896484375,1.46484375,0.18310546875,0.42724609375,-2.362060546875,20.10498046875,-115.224609375
1758181398.113227,-0.34423828125,-0.03857421875,0.93896484375,1.46484375,0.18310546875,0.42724609375,-2.3455810546875,20.1104736328125,-115.2191162109375
1758181398.1229677,-0.3466796875,-0.03857421875,0.9365234375,1.03759765625,0.18310546875,0.48828125,-2.3345947265625,20.1104736328125,-115.213623046875
1758181398.1329722,-0.3466796875,-0.03857421875,0.9365234375,1.03759765625,0.18310546875,0.48828125,-2.3236083984375,20.1104736328125,-115.2081298828125
1758181398.14346,-0.3466796875,-0.0380859375,0.939453125,0.3662109375,0.18310546875,0.48828125,-2.318115234375,20.1104736328125,-115.20263671875
1758181398.1529841,-0.3466796875,-0.0380859375,0.939453125,0.3662109375,0.18310546875,0.48828125,-2.3126220703125,20.115966796875,-115.1971435546875
1758181398.163139,-0.34326171875,-0.03662109375,0.93701171875,0.67138671875,0.30517578125,0.30517578125,-2.30712890625,20.115966796875,-115.191650390625
1758181398.1731102,-0.34326171875,-0.03662109375,0.93701171875,0.67138671875,0.30517578125,0.30517578125,-2.3016357421875,20.1214599609375,-115.191650390625
1758181398.183005,-0.34130859375,-0.03515625,0.93896484375,1.5869140625,0.244140625,0.18310546875,-2.28515625,20.1214599609375,-115.1861572265625
1758181398.1930168,-0.34130859375,-0.03515625,0.93896484375,1.5869140625,0.244140625,0.18310546875,-2.2686767578125,20.126953125,-115.1861572265625
1758181398.203013,-0.3369140625,-0.03515625,0.939453125,1.64794921875,0.244140625,0.1220703125,-2.252197265625,20.126953125,-115.1861572265625
1758181398.213392,-0.3369140625,-0.03515625,0.939453125,1.64794921875,0.244140625,0.1220703125,-2.2357177734375,20.1324462890625,-115.1861572265625
1758181398.223146,-0.33544921875,-0.03515625,0.94677734375,0.79345703125,0.244140625,0.1220703125,-2.2247314453125,20.1324462890625,-115.1806640625
1758181398.233279,-0.33544921875,-0.03515625,0.94677734375,0.79345703125,0.244140625,0.1220703125,-2.21923828125,20.1324462890625,-115.1806640625
1758181398.243607,-0.34033203125,-0.03759765625,0.93701171875,0.8544921875,0.244140625,0.06103515625,-2.208251953125,20.1324462890625,-115.1806640625
1758181398.2531703,-0.34033203125,-0.03759765625,0.93701171875,0.8544921875,0.244140625,0.06103515625,-2.2027587890625,20.1324462890625,-115.1806640625
1758181398.2632365,-0.34033203125,-0.037109375,0.9384765625,1.40380859375,0.18310546875,0.1220703125,-2.186279296875,20.137939453125,-115.1806640625
1758181398.2735837,-0.34033203125,-0.037109375,0.9384765625,1.40380859375,0.18310546875,0.1220703125,-2.17529296875,20.137939453125,-115.1806640625
1758181398.2832148,-0.3359375,-0.037109375,0.9404296875,1.0986328125,0.06103515625,0.06103515625,-2.164306640625,20.137939453125,-115.1806640625
1758181398.2931938,-0.3359375,-0.037109375,0.9404296875,1.0986328125,0.06103515625,0.06103515625,-2.1533203125,20.1324462890625,-115.1806640625
1758181398.3032103,-0.33447265625,-0.03173828125,0.94140625,0.8544921875,0.0,0.06103515625,-2.142333984375,20.1324462890625,-115.1806640625
1758181398.3137028,-0.33447265625,-0.03173828125,0.94140625,0.8544921875,0.0,0.06103515625,-2.1368408203125,20.1324462890625,-115.1751708984375
1758181398.3232093,-0.33740234375,-0.03173828125,0.94384765625,0.732421875,-0.06103515625,0.0,-2.13134765625,20.126953125,-115.1751708984375
1758181398.333593,-0.33740234375,-0.03173828125,0.94384765625,0.732421875,-0.06103515625,0.0,-2.120361328125,20.126953125,-115.1751708984375
1758181398.3436773,-0.33740234375,-0.03173828125,0.94384765625,0.9765625,0.0,0.0,-2.1148681640625,20.1214599609375,-115.1751708984375
1758181398.3532755,-0.34130859375,-0.03466796875,0.9384765625,0.9765625,0.0,0.0,-2.1038818359375,20.1214599609375,-115.1751708984375
1758181398.3633778,-0.3408203125,-0.03515625,0.935546875,1.3427734375,-0.06103515625,-0.06103515625,-2.0928955078125,20.1214599609375,-115.1751708984375
1758181398.3734128,-0.3408203125,-0.03515625,0.935546875,1.3427734375,-0.06103515625,-0.06103515625,-2.076416015625,20.115966796875,-115.1751708984375
1758181398.3833406,-0.3388671875,-0.03173828125,0.93798828125,1.46484375,-0.244140625,-0.244140625,-2.0654296875,20.1104736328125,-115.1806640625
1758181398.393457,-0.3388671875,-0.03173828125,0.93798828125,1.46484375,-0.244140625,-0.244140625,-2.0489501953125,20.1104736328125,-115.1806640625
1758181398.4033415,-0.33984375,-0.02880859375,0.94384765625,0.732421875,-0.244140625,-0.18310546875,-2.04345703125,20.10498046875,-115.1861572265625
1758181398.4136865,-0.33984375,-0.02880859375,0.94384765625,0.732421875,-0.244140625,-0.18310546875,-2.0379638671875,20.0994873046875,-115.1861572265625
1758181398.4234278,-0.3408203125,-0.0322265625,0.93994140625,0.30517578125,-0.18310546875,-0.18310546875,-2.0379638671875,20.0994873046875,-115.1861572265625
1758181398.4336708,-0.3408203125,-0.0322265625,0.93994140625,0.30517578125,-0.18310546875,-0.18310546875,-2.032470703125,20.093994140625,-115.191650390625
1758181398.4438815,-0.341796875,-0.03369140625,0.93798828125,0.48828125,-0.18310546875,-0.30517578125,-2.0269775390625,20.0885009765625,-115.191650390625
1758181398.4534876,-0.341796875,-0.03369140625,0.93798828125,0.48828125,-0.18310546875,-0.30517578125,-2.0269775390625,20.0885009765625,-115.1971435546875
1758181398.463849,-0.33984375,-0.03271484375,0.94140625,0.67138671875,-0.18310546875,-0.48828125,-2.021484375,20.0830078125,-115.20263671875
1758181398.4740307,-0.33984375,-0.03271484375,0.94140625,0.67138671875,-0.18310546875,-0.48828125,-2.0159912109375,20.0830078125,-115.2081298828125
1758181398.4834912,-0.3369140625,-0.02978515625,0.94091796875,0.732421875,-0.18310546875,-0.67138671875,-2.010498046875,20.0775146484375,-115.213623046875
1758181398.4934733,-0.3369140625,-0.02978515625,0.94091796875,0.732421875,-0.18310546875,-0.67138671875,-2.0050048828125,20.072021484375,-115.2191162109375
1758181398.5034938,-0.34033203125,-0.02880859375,0.9384765625,1.28173828125,-0.30517578125,-0.732421875,-1.9940185546875,20.072021484375,-115.224609375
1758181398.5138774,-0.34033203125,-0.02880859375,0.9384765625,1.28173828125,-0.30517578125,-0.732421875,-1.9830322265625,20.0665283203125,-115.235595703125
1758181398.523516,-0.34375,-0.0302734375,0.94140625,0.79345703125,-0.30517578125,-0.67138671875,-1.9775390625,20.06103515625,-115.2410888671875
1758181398.5335689,-0.34375,-0.0302734375,0.94140625,0.79345703125,-0.30517578125,-0.67138671875,-1.9720458984375,20.0555419921875,-115.24658203125
1758181398.5439174,-0.3408203125,-0.0341796875,0.93798828125,-0.06103515625,-0.30517578125,-0.54931640625,-1.9775390625,20.050048828125,-115.2520751953125
1758181398.5535834,-0.3408203125,-0.0341796875,0.93798828125,-0.06103515625,-0.30517578125,-0.54931640625,-1.9775390625,20.050048828125,-115.257568359375
1758181398.56383,-0.33740234375,-0.0341796875,0.93994140625,-0.18310546875,-0.3662109375,-0.54931640625,-1.9830322265625,20.0445556640625,-115.2630615234375
1758181398.5736868,-0.33740234375,-0.0341796875,0.93994140625,-0.18310546875,-0.3662109375,-0.54931640625,-1.9830322265625,20.0390625,-115.2685546875
1758181398.583606,-0.33447265625,-0.03271484375,0.943359375,0.244140625,-0.244140625,-0.48828125,-1.9830322265625,20.0335693359375,-115.2740478515625
1758181398.593611,-0.33447265625,-0.03271484375,0.943359375,0.244140625,-0.244140625,-0.48828125,-1.9830322265625,20.028076171875,-115.2740478515625
1758181398.6036296,-0.33203125,-0.0302734375,0.939453125,0.79345703125,-0.3662109375,-0.42724609375,-1.9775390625,20.028076171875,-115.279541015625
1758181398.6137936,-0.33203125,-0.0302734375,0.939453125,0.79345703125,-0.3662109375,-0.42724609375,-1.9720458984375,20.0225830078125,-115.2850341796875
1758181398.6237237,-0.3369140625,-0.03173828125,0.93994140625,0.42724609375,-0.54931640625,-0.3662109375,-1.966552734375,20.0115966796875,-115.2850341796875
1758181398.6336827,-0.3369140625,-0.03173828125,0.93994140625,0.42724609375,-0.54931640625,-0.3662109375,-1.966552734375,20.006103515625,-115.29052734375
1758181398.643902,-0.3349609375,-0.0322265625,0.94384765625,-0.48828125,-0.54931640625,-0.244140625,-1.9720458984375,20.0006103515625,-115.29052734375
1758181398.6536636,-0.3349609375,-0.0322265625,0.94384765625,-0.48828125,-0.54931640625,-0.244140625,-1.9775390625,19.9896240234375,-115.2960205078125
1758181398.6638913,-0.3310546875,-0.0341796875,0.9404296875,-0.48828125,-0.6103515625,-0.18310546875,-1.9830322265625,19.984130859375,-115.2960205078125
1758181398.6742287,-0.3310546875,-0.0341796875,0.9404296875,-0.48828125,-0.6103515625,-0.18310546875,-1.988525390625,19.97314453125,-115.2960205078125
1758181398.6838443,-0.32763671875,-0.03125,0.94384765625,-0.244140625,-0.732421875,-0.1220703125,-1.988525390625,19.9676513671875,-115.301513671875
1758181398.6938205,-0.32763671875,-0.03125,0.94384765625,-0.244140625,-0.732421875,-0.1220703125,-1.9940185546875,19.9566650390625,-115.301513671875
1758181398.7037325,-0.3291015625,-0.03125,0.94677734375,-0.79345703125,-0.6103515625,0.0,-1.99951171875,19.9456787109375,-115.301513671875
1758181398.7140903,-0.3330078125,-0.03466796875,0.9443359375,-1.220703125,-0.48828125,0.0,-2.010498046875,19.940185546875,-115.301513671875
1758181398.7238703,-0.3330078125,-0.03466796875,0.9443359375,-1.220703125,-0.48828125,0.0,-2.021484375,19.92919921875,-115.301513671875
1758181398.7338843,-0.33349609375,-0.03515625,0.93994140625,-0.79345703125,-0.42724609375,0.0,-2.032470703125,19.9237060546875,-115.301513671875
1758181398.7443025,-0.33349609375,-0.03515625,0.93994140625,-0.79345703125,-0.42724609375,0.0,-2.0379638671875,19.918212890625,-115.301513671875
1758181398.7538805,-0.33642578125,-0.03271484375,0.93994140625,-0.1220703125,-0.3662109375,-0.1220703125,-2.04345703125,19.9072265625,-115.301513671875
1758181398.7639005,-0.33642578125,-0.03271484375,0.93994140625,-0.1220703125,-0.3662109375,-0.1220703125,-2.04345703125,19.9017333984375,-115.3070068359375
1758181398.7743757,-0.33935546875,-0.02978515625,0.93994140625,0.0,-0.42724609375,-0.1220703125,-2.04345703125,19.896240234375,-115.3070068359375
1758181398.7839062,-0.33935546875,-0.02978515625,0.93994140625,0.0,-0.42724609375,-0.1220703125,-2.04345703125,19.8907470703125,-115.3070068359375
1758181398.7938755,-0.3388671875,-0.03076171875,0.93994140625,-0.06103515625,-0.42724609375,-0.06103515625,-2.04345703125,19.88525390625,-115.3070068359375
1758181398.8038905,-0.3388671875,-0.03076171875,0.93994140625,-0.06103515625,-0.42724609375,-0.06103515625,-2.04345703125,19.8797607421875,-115.301513671875
1758181398.8143284,-0.33642578125,-0.03515625,0.94140625,0.0,-0.42724609375,0.0,-2.04345703125,19.874267578125,-115.301513671875
1758181398.8240461,-0.33642578125,-0.03515625,0.94140625,0.0,-0.42724609375,0.0,-2.04345703125,19.8687744140625,-115.301513671875
1758181398.8341298,-0.3349609375,-0.03759765625,0.9404296875,0.06103515625,-0.42724609375,0.0,-2.04345703125,19.86328125,-115.301513671875
1758181398.8443568,-0.3349609375,-0.03759765625,0.9404296875,0.06103515625,-0.42724609375,0.0,-2.04345703125,19.8577880859375,-115.2960205078125
1758181398.85399,-0.3349609375,-0.03759765625,0.9404296875,0.1220703125,-0.42724609375,-0.06103515625,-2.04345703125,19.852294921875,-115.2960205078125
1758181398.8641515,-0.33642578125,-0.03369140625,0.94189453125,0.1220703125,-0.42724609375,-0.06103515625,-2.04345703125,19.8468017578125,-115.2960205078125
1758181398.8744307,-0.33984375,-0.03125,0.93994140625,0.42724609375,-0.30517578125,-0.06103515625,-2.0379638671875,19.84130859375,-115.2960205078125
1758181398.8840106,-0.33984375,-0.03125,0.93994140625,0.42724609375,-0.30517578125,-0.06103515625,-2.032470703125,19.8358154296875,-115.2960205078125
1758181398.89401,-0.3408203125,-0.0322265625,0.939453125,0.79345703125,-0.30517578125,-0.06103515625,-2.0269775390625,19.830322265625,-115.2960205078125
1758181398.9040139,-0.3408203125,-0.0322265625,0.939453125,0.79345703125,-0.30517578125,-0.06103515625,-2.021484375,19.830322265625,-115.29052734375
1758181398.9141648,-0.345703125,-0.03515625,0.93798828125,0.48828125,-0.30517578125,-0.1220703125,-2.0159912109375,19.8248291015625,-115.29052734375
1758181398.9241602,-0.345703125,-0.03515625,0.93798828125,0.48828125,-0.30517578125,-0.1220703125,-2.010498046875,19.8193359375,-115.29052734375
1758181398.934318,-0.3515625,-0.03564453125,0.93896484375,0.0,-0.244140625,-0.1220703125,-2.010498046875,19.8193359375,-115.29052734375
1758181398.9443183,-0.3515625,-0.03564453125,0.93896484375,0.0,-0.244140625,-0.1220703125,-2.010498046875,19.8138427734375,-115.29052734375
1758181398.954074,-0.3505859375,-0.033203125,0.93408203125,0.0,-0.18310546875,-0.1220703125,-2.010498046875,19.8138427734375,-115.29052734375
1758181398.9643736,-0.3505859375,-0.033203125,0.93408203125,0.0,-0.18310546875,-0.1220703125,-2.010498046875,19.8138427734375,-115.29052734375
1758181398.9777467,-0.35009765625,-0.0283203125,0.93408203125,0.06103515625,-0.42724609375,-0.06103515625,-2.010498046875,19.8138427734375,-115.29052734375
1758181398.9841776,-0.35009765625,-0.0283203125,0.93408203125,0.06103515625,-0.42724609375,-0.06103515625,-2.010498046875,19.808349609375,-115.2850341796875
1758181398.9943101,-0.34814453125,-0.029296875,0.93896484375,-0.732421875,-0.54931640625,0.0,-2.0159912109375,19.808349609375,-115.2850341796875
1758181399.0042257,-0.34814453125,-0.029296875,0.93896484375,-0.732421875,-0.54931640625,0.0,-2.021484375,19.8028564453125,-115.279541015625
1758181399.0142543,-0.345703125,-0.033203125,0.9404296875,-1.40380859375,-0.6103515625,0.1220703125,-2.032470703125,19.8028564453125,-115.279541015625
1758181399.0243301,-0.345703125,-0.033203125,0.9404296875,-1.40380859375,-0.6103515625,0.1220703125,-2.04345703125,19.79736328125,-115.2740478515625
1758181399.0341825,-0.34716796875,-0.03857421875,0.9365234375,-0.79345703125,-0.732421875,0.244140625,-2.054443359375,19.7918701171875,-115.2685546875
1758181399.0444808,-0.34716796875,-0.03857421875,0.9365234375,-0.79345703125,-0.732421875,0.244140625,-2.0599365234375,19.786376953125,-115.257568359375
1758181399.054227,-0.34765625,-0.03515625,0.9365234375,-0.244140625,-0.732421875,0.244140625,-2.0654296875,19.7808837890625,-115.2520751953125
1758181399.064401,-0.34765625,-0.03515625,0.9365234375,-0.244140625,-0.732421875,0.244140625,-2.0654296875,19.7808837890625,-115.24658203125
1758181399.0747564,-0.34423828125,-0.03076171875,0.9404296875,-0.67138671875,-0.67138671875,0.30517578125,-2.0709228515625,19.775390625,-115.2410888671875
1758181399.0842655,-0.34423828125,-0.03076171875,0.9404296875,-0.67138671875,-0.67138671875,0.30517578125,-2.076416015625,19.7698974609375,-115.2301025390625
1758181399.094485,-0.33984375,-0.03173828125,0.93798828125,-0.732421875,-0.54931640625,0.30517578125,-2.0819091796875,19.764404296875,-115.224609375
1758181399.1043131,-0.33984375,-0.03173828125,0.93798828125,-0.732421875,-0.54931640625,0.30517578125,-2.08740234375,19.764404296875,-115.2191162109375
1758181399.1145635,-0.33642578125,-0.0283203125,0.94091796875,-0.244140625,-0.54931640625,0.30517578125,-2.08740234375,19.7589111328125,-115.2081298828125
1758181399.1243079,-0.33642578125,-0.0283203125,0.94091796875,-0.244140625,-0.54931640625,0.30517578125,-2.08740234375,19.7589111328125,-115.20263671875
1758181399.1342864,-0.33935546875,-0.02978515625,0.9375,-0.6103515625,-0.48828125,0.3662109375,-2.0928955078125,19.75341796875,-115.1971435546875
1758181399.14452,-0.33935546875,-0.02978515625,0.9375,-0.6103515625,-0.48828125,0.3662109375,-2.0928955078125,19.75341796875,-115.1861572265625
1758181399.1543565,-0.34228515625,-0.03564453125,0.94140625,-1.0986328125,-0.3662109375,0.42724609375,-2.1038818359375,19.7479248046875,-115.1806640625
1758181399.1644056,-0.34228515625,-0.03564453125,0.94140625,-1.0986328125,-0.3662109375,0.42724609375,-2.109375,19.7479248046875,-115.169677734375
1758181399.1748917,-0.3388671875,-0.0341796875,0.939453125,-0.6103515625,-0.30517578125,0.30517578125,-2.1148681640625,19.7479248046875,-115.1641845703125
1758181399.1844094,-0.3388671875,-0.0341796875,0.939453125,-0.6103515625,-0.30517578125,0.30517578125,-2.120361328125,19.742431640625,-115.15869140625
1758181399.194631,-0.33544921875,-0.0390625,0.9423828125,-0.18310546875,-0.1220703125,0.06103515625,-2.120361328125,19.742431640625,-115.1531982421875
1758181399.2044523,-0.33544921875,-0.0390625,0.9423828125,-0.18310546875,-0.1220703125,0.06103515625,-2.1258544921875,19.742431640625,-115.147705078125
1758181399.2145185,-0.33740234375,-0.03759765625,0.94482421875,-0.18310546875,0.0,0.1220703125,-2.1258544921875,19.742431640625,-115.1422119140625
1758181399.2244172,-0.33740234375,-0.03759765625,0.94482421875,-0.18310546875,0.0,0.1220703125,-2.1258544921875,19.742431640625,-115.13671875
1758181399.2344284,-0.33154296875,-0.0341796875,0.94189453125,0.06103515625,-0.06103515625,0.18310546875,-2.1258544921875,19.742431640625,-115.13671875
1758181399.2446687,-0.33154296875,-0.0341796875,0.94189453125,0.06103515625,-0.06103515625,0.18310546875,-2.1258544921875,19.742431640625,-115.1312255859375
1758181399.2546244,-0.3408203125,-0.03271484375,0.9375,0.0,-0.1220703125,0.30517578125,-2.1258544921875,19.742431640625,-115.125732421875
1758181399.2646089,-0.3408203125,-0.03271484375,0.9375,0.0,-0.1220703125,0.30517578125,-2.120361328125,19.742431640625,-115.1202392578125
1758181399.2746966,-0.3447265625,-0.0341796875,0.93896484375,-0.9765625,-0.1220703125,0.42724609375,-2.1258544921875,19.742431640625,-115.1092529296875
1758181399.2846363,-0.3447265625,-0.0341796875,0.93896484375,-0.9765625,-0.1220703125,0.42724609375,-2.13134765625,19.742431640625,-115.103759765625
1758181399.2946148,-0.34326171875,-0.0361328125,0.9384765625,-1.3427734375,-0.1220703125,0.3662109375,-2.142333984375,19.742431640625,-115.0927734375
1758181399.3045728,-0.34326171875,-0.0361328125,0.9384765625,-1.3427734375,-0.1220703125,0.3662109375,-2.1533203125,19.742431640625,-115.0872802734375
1758181399.314603,-0.3427734375,-0.0341796875,0.93994140625,-0.54931640625,0.0,0.18310546875,-2.164306640625,19.742431640625,-115.081787109375
1758181399.3246155,-0.3427734375,-0.0341796875,0.93994140625,-0.54931640625,0.0,0.18310546875,-2.1697998046875,19.742431640625,-115.0762939453125
1758181399.3348608,-0.3466796875,-0.0341796875,0.93798828125,0.3662109375,0.06103515625,0.1220703125,-2.1697998046875,19.742431640625,-115.07080078125
1758181399.3449192,-0.3466796875,-0.0341796875,0.93798828125,0.3662109375,0.06103515625,0.1220703125,-2.164306640625,19.7479248046875,-115.07080078125
1758181399.3546095,-0.3486328125,-0.03466796875,0.93505859375,0.1220703125,0.0,0.18310546875,-2.1588134765625,19.7479248046875,-115.0653076171875
1758181399.3647,-0.3486328125,-0.03466796875,0.93505859375,0.1220703125,0.0,0.18310546875,-2.1588134765625,19.7479248046875,-115.0543212890625
1758181399.3747747,-0.34765625,-0.03515625,0.93603515625,-0.6103515625,-0.06103515625,0.1220703125,-2.1588134765625,19.75341796875,-115.048828125
1758181399.3847034,-0.34765625,-0.03515625,0.93603515625,-0.6103515625,-0.06103515625,0.1220703125,-2.164306640625,19.75341796875,-115.0433349609375
1758181399.3946922,-0.34375,-0.03466796875,0.93896484375,-0.79345703125,-0.18310546875,0.06103515625,-2.1697998046875,19.75341796875,-115.037841796875
1758181399.4047842,-0.34375,-0.03466796875,0.93896484375,-0.79345703125,-0.18310546875,0.06103515625,-2.17529296875,19.75341796875,-115.0323486328125
1758181399.4147549,-0.34033203125,-0.03515625,0.93994140625,-0.06103515625,-0.1220703125,0.06103515625,-2.1807861328125,19.75341796875,-115.02685546875
1758181399.4247248,-0.34033203125,-0.03515625,0.93994140625,-0.06103515625,-0.1220703125,0.06103515625,-2.1807861328125,19.7589111328125,-115.0213623046875
1758181399.434659,-0.34130859375,-0.037109375,0.93798828125,0.48828125,-0.18310546875,0.18310546875,-2.1807861328125,19.7589111328125,-115.015869140625
1758181399.445036,-0.34130859375,-0.037109375,0.93798828125,0.48828125,-0.18310546875,0.18310546875,-2.17529296875,19.7589111328125,-115.0103759765625
1758181399.4546936,-0.34033203125,-0.0380859375,0.9365234375,0.1220703125,-0.3662109375,0.244140625,-2.1697998046875,19.7589111328125,-115.0048828125
1758181399.4649436,-0.34033203125,-0.0380859375,0.9365234375,0.1220703125,-0.3662109375,0.244140625,-2.164306640625,19.75341796875,-114.9993896484375
1758181399.4748418,-0.33740234375,-0.03369140625,0.943359375,-0.8544921875,-0.3662109375,0.244140625,-2.1697998046875,19.75341796875,-114.993896484375
1758181399.4847558,-0.33740234375,-0.03369140625,0.943359375,-0.8544921875,-0.3662109375,0.244140625,-2.17529296875,19.7479248046875,-114.9884033203125
1758181399.4947965,-0.33154296875,-0.0341796875,0.9423828125,-0.6103515625,-0.30517578125,0.244140625,-2.1807861328125,19.7479248046875,-114.98291015625
1758181399.5048668,-0.33154296875,-0.0341796875,0.9423828125,-0.6103515625,-0.30517578125,0.244140625,-2.186279296875,19.7479248046875,-114.9774169921875
1758181399.5150137,-0.326171875,-0.03515625,0.943359375,0.0,-0.244140625,0.30517578125,-2.1917724609375,19.742431640625,-114.971923828125
1758181399.5247824,-0.326171875,-0.03515625,0.943359375,0.0,-0.244140625,0.30517578125,-2.186279296875,19.742431640625,-114.9664306640625
1758181399.5348837,-0.3212890625,-0.03662109375,0.953125,-0.54931640625,-0.1220703125,0.54931640625,-2.1917724609375,19.742431640625,-114.9609375
1758181399.5452244,-0.3212890625,-0.03662109375,0.953125,-0.54931640625,-0.1220703125,0.54931640625,-2.1917724609375,19.7369384765625,-114.9554443359375
1758181399.554807,-0.318359375,-0.0400390625,0.94677734375,-1.40380859375,0.0,0.8544921875,-2.197265625,19.7369384765625,-114.9444580078125
1758181399.565025,-0.318359375,-0.0400390625,0.94677734375,-1.40380859375,0.0,0.8544921875,-2.208251953125,19.7369384765625,-114.9334716796875
1758181399.5749755,-0.31396484375,-0.04248046875,0.953125,-2.38037109375,0.06103515625,0.8544921875,-2.2247314453125,19.7314453125,-114.9224853515625
1758181399.5849612,-0.31396484375,-0.04248046875,0.953125,-2.38037109375,0.06103515625,0.8544921875,-2.2467041015625,19.7314453125,-114.9169921875
1758181399.5955176,-0.31494140625,-0.04052734375,0.951171875,-1.28173828125,0.244140625,0.67138671875,-2.26318359375,19.7259521484375,-114.906005859375
1758181399.606303,-0.31494140625,-0.04052734375,0.951171875,-1.28173828125,0.244140625,0.67138671875,-2.274169921875,19.7259521484375,-114.9005126953125
1758181399.6152434,-0.32763671875,-0.037109375,0.939453125,1.0986328125,0.244140625,0.42724609375,-2.274169921875,19.7259521484375,-114.89501953125
1758181399.625125,-0.32763671875,-0.037109375,0.939453125,1.0986328125,0.244140625,0.42724609375,-2.2576904296875,19.7259521484375,-114.8895263671875
1758181399.635533,-0.33935546875,-0.03173828125,0.9404296875,1.40380859375,0.30517578125,0.30517578125,-2.2467041015625,19.720458984375,-114.8895263671875
1758181399.6455622,-0.33935546875,-0.03173828125,0.9404296875,1.40380859375,0.30517578125,0.30517578125,-2.230224609375,19.720458984375,-114.884033203125
1758181399.6549666,-0.3427734375,-0.033203125,0.9423828125,-0.3662109375,0.30517578125,0.30517578125,-2.2247314453125,19.720458984375,-114.8785400390625
1758181399.6652281,-0.3427734375,-0.033203125,0.9423828125,-0.3662109375,0.30517578125,0.30517578125,-2.2247314453125,19.720458984375,-114.873046875
1758181399.6750576,-0.34033203125,-0.03759765625,0.9375,-0.732421875,0.244140625,0.30517578125,-2.230224609375,19.720458984375,-114.873046875
1758181399.6852155,-0.34033203125,-0.03759765625,0.9375,-0.732421875,0.244140625,0.30517578125,-2.2357177734375,19.720458984375,-114.8675537109375
1758181399.6950665,-0.3388671875,-0.03955078125,0.93896484375,0.0,0.244140625,0.18310546875,-2.2412109375,19.7259521484375,-114.862060546875
1758181399.705355,-0.3388671875,-0.03955078125,0.93896484375,0.0,0.244140625,0.18310546875,-2.2412109375,19.7259521484375,-114.8565673828125
1758181399.7151554,-0.34033203125,-0.03759765625,0.94287109375,0.30517578125,0.244140625,0.06103515625,-2.2357177734375,19.7259521484375,-114.8565673828125
1758181399.7250664,-0.34033203125,-0.03759765625,0.94287109375,0.30517578125,0.244140625,0.06103515625,-2.2357177734375,19.7259521484375,-114.85107421875
1758181399.7353683,-0.33935546875,-0.03515625,0.93408203125,0.91552734375,0.06103515625,0.0,-2.2247314453125,19.7259521484375,-114.85107421875
1758181399.7453246,-0.33935546875,-0.03515625,0.93408203125,0.91552734375,0.06103515625,0.0,-2.2137451171875,19.7259521484375,-114.85107421875
1758181399.7551076,-0.34130859375,-0.0341796875,0.93994140625,0.79345703125,-0.1220703125,-0.18310546875,-2.208251953125,19.7259521484375,-114.8455810546875
1758181399.7651055,-0.34130859375,-0.0341796875,0.93994140625,0.79345703125,-0.1220703125,-0.18310546875,-2.2027587890625,19.7259521484375,-114.8455810546875
1758181399.775174,-0.3427734375,-0.03369140625,0.93798828125,0.1220703125,-0.30517578125,-0.244140625,-2.197265625,19.720458984375,-114.8455810546875
1758181399.785116,-0.3427734375,-0.03369140625,0.93798828125,0.1220703125,-0.30517578125,-0.244140625,-2.197265625,19.7149658203125,-114.8455810546875
1758181399.7952223,-0.34423828125,-0.03466796875,0.9384765625,0.1220703125,-0.30517578125,-0.30517578125,-2.197265625,19.7149658203125,-114.8455810546875
1758181399.805359,-0.34423828125,-0.03466796875,0.9384765625,0.1220703125,-0.30517578125,-0.30517578125,-2.197265625,19.7149658203125,-114.8455810546875
1758181399.8152583,-0.34521484375,-0.0361328125,0.93798828125,0.1220703125,-0.244140625,-0.3662109375,-2.197265625,19.70947265625,-114.8455810546875
1758181399.8252273,-0.34521484375,-0.0361328125,0.93798828125,0.1220703125,-0.244140625,-0.3662109375,-2.197265625,19.70947265625,-114.8455810546875
1758181399.8352427,-0.3447265625,-0.03662109375,0.93896484375,0.3662109375,-0.244140625,-0.54931640625,-2.197265625,19.70947265625,-114.85107421875
1758181399.8455062,-0.3447265625,-0.03662109375,0.93896484375,0.3662109375,-0.244140625,-0.54931640625,-2.197265625,19.7039794921875,-114.85107421875
1758181399.8552585,-0.34521484375,-0.0341796875,0.9326171875,0.91552734375,-0.30517578125,-0.79345703125,-2.186279296875,19.7039794921875,-114.8565673828125
1758181399.8655121,-0.34521484375,-0.0341796875,0.9326171875,0.91552734375,-0.30517578125,-0.79345703125,-2.1807861328125,19.7039794921875,-114.862060546875
1758181399.8753452,-0.341796875,-0.03173828125,0.94384765625,0.8544921875,-0.30517578125,-0.8544921875,-2.17529296875,19.7039794921875,-114.8675537109375
1758181399.885246,-0.341796875,-0.03173828125,0.94384765625,0.8544921875,-0.30517578125,-0.8544921875,-2.1697998046875,19.698486328125,-114.873046875
1758181399.895287,-0.341796875,-0.0361328125,0.93701171875,0.8544921875,-0.30517578125,-0.79345703125,-2.164306640625,19.698486328125,-114.873046875
1758181399.9063132,-0.341796875,-0.0361328125,0.93701171875,0.8544921875,-0.30517578125,-0.79345703125,-2.1588134765625,19.698486328125,-114.8785400390625
1758181399.9153764,-0.349609375,-0.04052734375,0.9365234375,0.91552734375,-0.3662109375,-0.732421875,-2.1533203125,19.6929931640625,-114.884033203125
1758181399.9253132,-0.349609375,-0.04052734375,0.9365234375,0.91552734375,-0.3662109375,-0.732421875,-2.1478271484375,19.6929931640625,-114.8895263671875
1758181399.935383,-0.35498046875,-0.0390625,0.9345703125,0.6103515625,-0.30517578125,-0.67138671875,-2.142333984375,19.6929931640625,-114.8895263671875
1758181399.9456718,-0.35498046875,-0.0390625,0.9345703125,0.6103515625,-0.30517578125,-0.67138671875,-2.1368408203125,19.6929931640625,-114.89501953125
1758181399.9553926,-0.34912109375,-0.03466796875,0.9384765625,0.732421875,-0.1220703125,-0.67138671875,-2.1368408203125,19.6929931640625,-114.9005126953125
1758181399.9653828,-0.34912109375,-0.03466796875,0.9384765625,0.732421875,-0.1220703125,-0.67138671875,-2.13134765625,19.6929931640625,-114.9005126953125
1758181399.9756088,-0.34228515625,-0.033203125,0.9375,1.28173828125,-0.1220703125,-0.6103515625,-2.120361328125,19.698486328125,-114.906005859375
1758181399.9855237,-0.34228515625,-0.033203125,0.9375,1.28173828125,-0.1220703125,-0.6103515625,-2.109375,19.698486328125,-114.906005859375
1758181399.9955785,-0.34814453125,-0.033203125,0.93798828125,0.9765625,-0.06103515625,-0.54931640625,-2.1038818359375,19.698486328125,-114.9114990234375
1758181400.0123572,-0.34814453125,-0.033203125,0.93798828125,0.9765625,-0.06103515625,-0.54931640625,-2.0928955078125,19.7039794921875,-114.9114990234375
1758181400.02031,-0.35546875,-0.03759765625,0.9384765625,0.67138671875,0.06103515625,-0.30517578125,-2.08740234375,19.70947265625,-114.9114990234375
1758181400.0267122,-0.35546875,-0.03759765625,0.9384765625,0.67138671875,0.06103515625,-0.30517578125,-2.08740234375,19.70947265625,-114.9114990234375
1758181400.0355775,-0.353515625,-0.0400390625,0.93701171875,0.9765625,0.244140625,-0.1220703125,-2.076416015625,19.7149658203125,-114.906005859375
1758181400.048365,-0.353515625,-0.0400390625,0.93701171875,0.9765625,0.244140625,-0.1220703125,-2.0654296875,19.7259521484375,-114.906005859375
1758181400.0554793,-0.34423828125,-0.0361328125,0.935546875,1.220703125,0.244140625,0.0,-2.054443359375,19.7314453125,-114.9005126953125
1758181400.0656898,-0.34423828125,-0.0361328125,0.935546875,1.220703125,0.244140625,0.0,-2.04345703125,19.7369384765625,-114.9005126953125
1758181400.0815945,-0.33837890625,-0.029296875,0.9384765625,0.6103515625,0.0,0.06103515625,-2.0379638671875,19.742431640625,-114.89501953125
1758181400.0884407,-0.33837890625,-0.029296875,0.9384765625,0.6103515625,0.0,0.06103515625,-2.032470703125,19.742431640625,-114.89501953125
1758181400.0955417,-0.33935546875,-0.0283203125,0.94384765625,-0.67138671875,0.0,0.30517578125,-2.0379638671875,19.7479248046875,-114.8895263671875
1758181400.1114917,-0.33935546875,-0.0283203125,0.94384765625,-0.67138671875,0.0,0.30517578125,-2.0489501953125,19.7479248046875,-114.884033203125
1758181400.1185513,-0.33935546875,-0.0283203125,0.94384765625,-1.03759765625,0.244140625,0.54931640625,-2.054443359375,19.75341796875,-114.873046875
1758181400.1256049,-0.34228515625,-0.0390625,0.94140625,-1.03759765625,0.244140625,0.54931640625,-2.0654296875,19.7589111328125,-114.862060546875
1758181400.1357012,-0.34228515625,-0.04150390625,0.94140625,0.0,0.6103515625,0.6103515625,-2.0599365234375,19.764404296875,-114.8565673828125
1758181400.1488068,-0.34228515625,-0.04150390625,0.94140625,0.0,0.6103515625,0.6103515625,-2.0599365234375,19.775390625,-114.8455810546875
1758181400.1556675,-0.3369140625,-0.0361328125,0.9375,1.3427734375,0.67138671875,0.6103515625,-2.0489501953125,19.786376953125,-114.840087890625
1758181400.165646,-0.3369140625,-0.0361328125,0.9375,1.3427734375,0.67138671875,0.6103515625,-2.032470703125,19.7918701171875,-114.8291015625
1758181400.1817966,-0.3310546875,-0.0263671875,0.94140625,0.732421875,0.48828125,0.48828125,-2.021484375,19.79736328125,-114.8236083984375
1758181400.187883,-0.3310546875,-0.0263671875,0.94140625,0.732421875,0.48828125,0.48828125,-2.0159912109375,19.8028564453125,-114.818115234375
1758181400.1956878,-0.33154296875,-0.02392578125,0.9501953125,-1.15966796875,0.54931640625,0.48828125,-2.0269775390625,19.808349609375,-114.80712890625
1758181400.2060838,-0.33154296875,-0.02392578125,0.9501953125,-1.15966796875,0.54931640625,0.48828125,-2.032470703125,19.8138427734375,-114.8016357421875
1758181400.2157907,-0.32568359375,-0.0322265625,0.94384765625,-0.8544921875,0.8544921875,0.48828125,-2.04345703125,19.8248291015625,-114.796142578125
1758181400.2257986,-0.32568359375,-0.0322265625,0.94384765625,-0.8544921875,0.8544921875,0.48828125,-2.0489501953125,19.830322265625,-114.78515625
1758181400.2358859,-0.31787109375,-0.04052734375,0.94970703125,0.42724609375,0.91552734375,0.6103515625,-2.0379638671875,19.84130859375,-114.7796630859375
1758181400.2460809,-0.31787109375,-0.04052734375,0.94970703125,0.42724609375,0.91552734375,0.6103515625,-2.032470703125,19.8468017578125,-114.7686767578125
1758181400.2557993,-0.3193359375,-0.041015625,0.9453125,0.18310546875,0.732421875,0.732421875,-2.032470703125,19.852294921875,-114.76318359375
1758181400.2657738,-0.3193359375,-0.041015625,0.9453125,0.18310546875,0.732421875,0.732421875,-2.0269775390625,19.8577880859375,-114.752197265625
1758181400.2758687,-0.32763671875,-0.0341796875,0.94482421875,0.0,0.6103515625,0.67138671875,-2.0269775390625,19.8577880859375,-114.7467041015625
1758181400.2857854,-0.32763671875,-0.0341796875,0.94482421875,0.0,0.6103515625,0.67138671875,-2.021484375,19.86328125,-114.7412109375
1758181400.2958477,-0.33349609375,-0.02978515625,0.93896484375,0.732421875,0.54931640625,0.67138671875,-2.0159912109375,19.86328125,-114.730224609375
1758181400.3064747,-0.33349609375,-0.02978515625,0.93896484375,0.732421875,0.54931640625,0.67138671875,-2.0050048828125,19.86328125,-114.7247314453125
1758181400.315917,-0.33447265625,-0.03125,0.94140625,0.732421875,0.30517578125,0.732421875,-1.9940185546875,19.86328125,-114.7137451171875
1758181400.3259022,-0.33447265625,-0.03125,0.94140625,0.732421875,0.30517578125,0.732421875,-1.9830322265625,19.86328125,-114.708251953125
1758181400.335983,-0.33203125,-0.0322265625,0.94140625,0.1220703125,0.18310546875,0.6103515625,-1.9830322265625,19.86328125,-114.7027587890625
1758181400.3460636,-0.33203125,-0.0322265625,0.94140625,0.1220703125,0.18310546875,0.6103515625,-1.9775390625,19.86328125,-114.6917724609375
1758181400.3559399,-0.33203125,-0.03125,0.94287109375,0.42724609375,0.06103515625,0.48828125,-1.9720458984375,19.86328125,-114.686279296875
1758181400.3659968,-0.33203125,-0.03125,0.94287109375,0.42724609375,0.06103515625,0.48828125,-1.966552734375,19.8577880859375,-114.6807861328125
1758181400.376099,-0.33251953125,-0.03125,0.94091796875,1.28173828125,0.0,0.42724609375,-1.95556640625,19.8577880859375,-114.6807861328125
1758181400.386024,-0.33251953125,-0.03125,0.94091796875,1.28173828125,0.0,0.42724609375,-1.9390869140625,19.852294921875,-114.67529296875
1758181400.396054,-0.33544921875,-0.02978515625,0.939453125,1.0986328125,-0.244140625,0.3662109375,-1.9281005859375,19.8468017578125,-114.6697998046875
1758181400.4064937,-0.33544921875,-0.02978515625,0.939453125,1.0986328125,-0.244140625,0.3662109375,-1.9171142578125,19.84130859375,-114.664306640625
1758181400.416078,-0.33203125,-0.02880859375,0.943359375,0.30517578125,-0.3662109375,0.30517578125,-1.91162109375,19.8358154296875,-114.6588134765625
1758181400.426013,-0.33203125,-0.02880859375,0.943359375,0.30517578125,-0.3662109375,0.30517578125,-1.9061279296875,19.830322265625,-114.6588134765625
1758181400.4360397,-0.33056640625,-0.03076171875,0.94189453125,0.6103515625,-0.3662109375,0.30517578125,-1.900634765625,19.8248291015625,-114.6533203125
1758181400.4462812,-0.33056640625,-0.03076171875,0.94189453125,0.6103515625,-0.3662109375,0.30517578125,-1.8896484375,19.8193359375,-114.6478271484375
1758181400.456032,-0.3310546875,-0.03271484375,0.94287109375,1.15966796875,-0.30517578125,0.30517578125,-1.878662109375,19.8138427734375,-114.642333984375
1758181400.4660764,-0.3310546875,-0.03271484375,0.94287109375,1.15966796875,-0.30517578125,0.30517578125,-1.86767578125,19.808349609375,-114.642333984375
1758181400.476176,-0.3330078125,-0.03173828125,0.94482421875,1.220703125,-0.18310546875,0.244140625,-1.856689453125,19.8028564453125,-114.6368408203125
1758181400.4860928,-0.3330078125,-0.03173828125,0.94482421875,1.220703125,-0.18310546875,0.244140625,-1.8402099609375,19.79736328125,-114.63134765625
1758181400.496108,-0.33251953125,-0.02880859375,0.943359375,1.15966796875,-0.1220703125,0.18310546875,-1.8292236328125,19.79736328125,-114.63134765625
1758181400.5067058,-0.33251953125,-0.02880859375,0.943359375,1.15966796875,-0.1220703125,0.18310546875,-1.8182373046875,19.7918701171875,-114.63134765625
1758181400.51613,-0.33056640625,-0.029296875,0.94189453125,1.708984375,-0.1220703125,0.0,-1.8017578125,19.7918701171875,-114.6258544921875
1758181400.526155,-0.33056640625,-0.029296875,0.94189453125,1.708984375,-0.1220703125,0.0,-1.7852783203125,19.786376953125,-114.6258544921875
1758181400.5369148,-0.32958984375,-0.02880859375,0.94384765625,2.0751953125,-0.18310546875,-0.1220703125,-1.7633056640625,19.7808837890625,-114.6258544921875
1758181400.5464664,-0.32958984375,-0.02880859375,0.94384765625,2.0751953125,-0.18310546875,-0.1220703125,-1.746826171875,19.775390625,-114.63134765625
1758181400.5562155,-0.32861328125,-0.01513671875,0.927734375,2.38037109375,-0.1220703125,-0.1220703125,-1.724853515625,19.775390625,-114.63134765625
1758181400.566428,-0.32861328125,-0.01513671875,0.927734375,2.38037109375,-0.1220703125,-0.1220703125,-1.6973876953125,19.7698974609375,-114.63134765625
1758181400.5763974,-0.34033203125,-0.01806640625,0.94873046875,2.38037109375,-0.244140625,-0.3662109375,-1.6754150390625,19.764404296875,-114.63134765625
1758181400.5862083,-0.34033203125,-0.01806640625,0.94873046875,2.38037109375,-0.244140625,-0.3662109375,-1.6534423828125,19.7589111328125,-114.63134765625
1758181400.596247,-0.34130859375,-0.02490234375,0.94775390625,1.3427734375,0.1220703125,-0.42724609375,-1.6424560546875,19.7589111328125,-114.63134765625
1758181400.6065311,-0.34130859375,-0.02490234375,0.94775390625,1.3427734375,0.1220703125,-0.42724609375,-1.6259765625,19.7589111328125,-114.6368408203125
1758181400.6163616,-0.33447265625,-0.0361328125,0.935546875,2.50244140625,0.1220703125,-0.67138671875,-1.60400390625,19.7589111328125,-114.642333984375
1758181400.6263125,-0.33447265625,-0.0361328125,0.935546875,2.50244140625,0.1220703125,-0.67138671875,-1.58203125,19.7589111328125,-114.6478271484375
1758181400.636332,-0.3330078125,-0.0302734375,0.9423828125,3.0517578125,-0.1220703125,-0.91552734375,-1.5545654296875,19.75341796875,-114.6588134765625
1758181400.6464112,-0.3330078125,-0.0302734375,0.9423828125,3.0517578125,-0.1220703125,-0.91552734375,-1.5325927734375,19.75341796875,-114.664306640625
1758181400.656372,-0.33349609375,-0.02099609375,0.94287109375,2.01416015625,-0.3662109375,-0.8544921875,-1.51611328125,19.7479248046875,-114.67529296875
1758181400.666719,-0.33349609375,-0.02099609375,0.94287109375,2.01416015625,-0.3662109375,-0.8544921875,-1.4996337890625,19.742431640625,-114.6807861328125
1758181400.6818528,-0.3359375,-0.01953125,0.94091796875,1.28173828125,-0.54931640625,-0.67138671875,-1.4886474609375,19.7369384765625,-114.686279296875
1758181400.6880493,-0.3359375,-0.01953125,0.94091796875,1.28173828125,-0.54931640625,-0.67138671875,-1.4776611328125,19.7314453125,-114.6917724609375
1758181400.6964006,-0.33203125,-0.0234375,0.9462890625,0.42724609375,-0.6103515625,-0.48828125,-1.4776611328125,19.720458984375,-114.697265625
1758181400.7065,-0.33203125,-0.0234375,0.9462890625,0.42724609375,-0.6103515625,-0.48828125,-1.47216796875,19.7149658203125,-114.7027587890625
1758181400.7164009,-0.32666015625,-0.0263671875,0.943359375,0.54931640625,-0.54931640625,-0.42724609375,-1.47216796875,19.70947265625,-114.708251953125
1758181400.7264526,-0.3251953125,-0.02587890625,0.94482421875,1.220703125,-0.6103515625,-0.3662109375,-1.461181640625,19.698486328125,-114.708251953125
1758181400.736459,-0.3251953125,-0.02587890625,0.94482421875,1.220703125,-0.6103515625,-0.3662109375,-1.4501953125,19.6929931640625,-114.7137451171875
1758181400.746883,-0.32470703125,-0.02294921875,0.94677734375,0.79345703125,-0.67138671875,-0.3662109375,-1.4447021484375,19.6820068359375,-114.71923828125
1758181400.7565064,-0.32470703125,-0.02294921875,0.94677734375,0.79345703125,-0.67138671875,-0.3662109375,-1.439208984375,19.6710205078125,-114.7247314453125
1758181400.7665331,-0.32275390625,-0.02001953125,0.947265625,0.06103515625,-0.732421875,-0.30517578125,-1.4337158203125,19.66552734375,-114.7247314453125
1758181400.7767467,-0.32275390625,-0.02001953125,0.947265625,0.06103515625,-0.732421875,-0.30517578125,-1.4337158203125,19.654541015625,-114.730224609375
1758181400.7864947,-0.32275390625,-0.02001953125,0.94677734375,0.0,-0.732421875,-0.244140625,-1.439208984375,19.6435546875,-114.730224609375
1758181400.7965443,-0.32275390625,-0.02001953125,0.94677734375,0.0,-0.732421875,-0.244140625,-1.439208984375,19.632568359375,-114.730224609375
1758181400.806639,-0.3203125,-0.02001953125,0.9462890625,-0.1220703125,-0.67138671875,-0.244140625,-1.439208984375,19.62158203125,-114.730224609375
1758181400.8165984,-0.3203125,-0.02001953125,0.9462890625,-0.1220703125,-0.67138671875,-0.244140625,-1.439208984375,19.610595703125,-114.7357177734375
1758181400.8265986,-0.31982421875,-0.0244140625,0.95068359375,-0.18310546875,-0.6103515625,-0.3662109375,-1.4447021484375,19.6051025390625,-114.7357177734375
1758181400.8365781,-0.31982421875,-0.0244140625,0.95068359375,-0.18310546875,-0.6103515625,-0.3662109375,-1.4447021484375,19.5941162109375,-114.7412109375
1758181400.8470619,-0.32080078125,-0.02392578125,0.9482421875,0.30517578125,-0.48828125,-0.3662109375,-1.4447021484375,19.5831298828125,-114.7412109375
1758181400.8566415,-0.32080078125,-0.02392578125,0.9482421875,0.30517578125,-0.48828125,-0.3662109375,-1.4447021484375,19.57763671875,-114.7467041015625
1758181400.866624,-0.32177734375,-0.021484375,0.94482421875,0.67138671875,-0.48828125,-0.30517578125,-1.439208984375,19.566650390625,-114.752197265625
1758181400.877008,-0.32177734375,-0.021484375,0.94482421875,0.67138671875,-0.48828125,-0.30517578125,-1.4337158203125,19.5556640625,-114.752197265625
1758181400.88661,-0.322265625,-0.02001953125,0.9453125,-0.244140625,-0.67138671875,-0.18310546875,-1.4337158203125,19.544677734375,-114.752197265625
1758181400.8968499,-0.322265625,-0.02001953125,0.9453125,-0.244140625,-0.67138671875,-0.18310546875,-1.4337158203125,19.5391845703125,-114.7576904296875
1758181400.906686,-0.32470703125,-0.02099609375,0.94384765625,-2.13623046875,-0.8544921875,-0.06103515625,-1.4447021484375,19.522705078125,-114.7576904296875
1758181400.916683,-0.32470703125,-0.02099609375,0.94384765625,-2.13623046875,-0.8544921875,-0.06103515625,-1.4666748046875,19.51171875,-114.7576904296875
1758181400.926735,-0.3251953125,-0.02392578125,0.94580078125,-2.9296875,-0.732421875,-0.1220703125,-1.494140625,19.500732421875,-114.7576904296875
1758181400.9367197,-0.3251953125,-0.02392578125,0.94580078125,-2.9296875,-0.732421875,-0.1220703125,-1.5216064453125,19.48974609375,-114.7576904296875
1758181400.9471583,-0.328125,-0.025390625,0.94677734375,-2.197265625,-0.54931640625,-0.18310546875,-1.5435791015625,19.478759765625,-114.7576904296875
1758181400.9567845,-0.328125,-0.025390625,0.94677734375,-2.197265625,-0.54931640625,-0.18310546875,-1.5655517578125,19.4732666015625,-114.7576904296875
1758181400.9668007,-0.328125,-0.025390625,0.94189453125,-0.8544921875,-0.48828125,-0.30517578125,-1.58203125,19.4622802734375,-114.76318359375
1758181400.977332,-0.328125,-0.025390625,0.94189453125,-0.8544921875,-0.48828125,-0.30517578125,-1.5875244140625,19.456787109375,-114.76318359375
1758181400.9868286,-0.330078125,-0.02490234375,0.9404296875,-0.732421875,-0.54931640625,-0.54931640625,-1.5985107421875,19.44580078125,-114.76318359375
1758181400.9969337,-0.330078125,-0.02490234375,0.9404296875,-0.732421875,-0.54931640625,-0.54931640625,-1.60400390625,19.4403076171875,-114.7686767578125
1758181401.0069034,-0.33056640625,-0.0224609375,0.943359375,-1.03759765625,-0.67138671875,-0.79345703125,-1.614990234375,19.4293212890625,-114.774169921875
1758181401.016915,-0.33056640625,-0.0224609375,0.943359375,-1.03759765625,-0.67138671875,-0.79345703125,-1.6259765625,19.423828125,-114.7796630859375
1758181401.0268993,-0.33056640625,-0.02490234375,0.9404296875,-0.79345703125,-0.732421875,-0.91552734375,-1.636962890625,19.412841796875,-114.78515625
1758181401.0369444,-0.33056640625,-0.02490234375,0.9404296875,-0.79345703125,-0.732421875,-0.91552734375,-1.64794921875,19.40185546875,-114.7906494140625
1758181401.0500484,-0.33740234375,-0.02978515625,0.94580078125,-0.48828125,-0.48828125,-0.91552734375,-1.658935546875,19.3963623046875,-114.796142578125
1758181401.0569382,-0.33740234375,-0.02978515625,0.94580078125,-0.48828125,-0.48828125,-0.91552734375,-1.6644287109375,19.390869140625,-114.8016357421875
1758181401.0668929,-0.33740234375,-0.0380859375,0.94189453125,0.9765625,-0.18310546875,-0.8544921875,-1.6644287109375,19.3853759765625,-114.80712890625
1758181401.082694,-0.33740234375,-0.0380859375,0.94189453125,0.9765625,-0.18310546875,-0.8544921875,-1.658935546875,19.3798828125,-114.8126220703125
1758181401.088902,-0.3359375,-0.0380859375,0.93505859375,4.0283203125,-0.244140625,-0.91552734375,-1.636962890625,19.3798828125,-114.818115234375
1758181401.0969472,-0.3359375,-0.0380859375,0.93505859375,4.0283203125,-0.244140625,-0.91552734375,-1.5985107421875,19.3743896484375,-114.8291015625
1758181401.1130884,-0.33349609375,-0.02587890625,0.9375,4.0283203125,-0.6103515625,-1.03759765625,-1.5655517578125,19.3743896484375,-114.840087890625
1758181401.1198702,-0.33349609375,-0.02587890625,0.9375,4.0283203125,-0.6103515625,-1.03759765625,-1.527099609375,19.368896484375,-114.8455810546875
1758181401.1269968,-0.33642578125,-0.0283203125,0.9375,2.44140625,-0.8544921875,-1.0986328125,-1.4996337890625,19.35791015625,-114.8565673828125
1758181401.1369824,-0.33642578125,-0.0283203125,0.9375,2.44140625,-0.8544921875,-1.0986328125,-1.483154296875,19.3524169921875,-114.8675537109375
1758181401.1502216,-0.34033203125,-0.01513671875,0.94677734375,1.3427734375,-0.8544921875,-0.91552734375,-1.4666748046875,19.3414306640625,-114.873046875
1758181401.1570954,-0.34033203125,-0.01513671875,0.94677734375,1.3427734375,-0.8544921875,-0.91552734375,-1.4556884765625,19.3359375,-114.8785400390625
1758181401.167027,-0.33984375,-0.02294921875,0.93896484375,2.197265625,-0.91552734375,-0.79345703125,-1.4447021484375,19.3304443359375,-114.884033203125
1758181401.1771822,-0.33984375,-0.02294921875,0.93896484375,2.197265625,-0.91552734375,-0.79345703125,-1.42822265625,19.3194580078125,-114.8895263671875
1758181401.187047,-0.34326171875,-0.02294921875,0.9404296875,2.44140625,-0.8544921875,-0.91552734375,-1.40625,19.31396484375,-114.89501953125
1758181401.1970937,-0.34326171875,-0.02294921875,0.9404296875,2.44140625,-0.8544921875,-0.91552734375,-1.38427734375,19.3084716796875,-114.9005126953125
1758181401.2129142,-0.341796875,-0.03369140625,0.93310546875,2.62451171875,-0.91552734375,-1.03759765625,-1.3677978515625,19.2974853515625,-114.906005859375
1758181401.2199776,-0.341796875,-0.03369140625,0.93310546875,2.62451171875,-0.91552734375,-1.03759765625,-1.3458251953125,19.2919921875,-114.9114990234375
1758181401.227146,-0.3427734375,-0.01611328125,0.94384765625,2.44140625,-1.03759765625,-0.91552734375,-1.3238525390625,19.2864990234375,-114.9169921875
1758181401.2371058,-0.3427734375,-0.01611328125,0.94384765625,2.44140625,-1.03759765625,-0.91552734375,-1.3018798828125,19.2755126953125,-114.9224853515625
1758181401.2500086,-0.34619140625,-0.01416015625,0.94189453125,1.46484375,-0.9765625,-0.79345703125,-1.2908935546875,19.27001953125,-114.927978515625
1758181401.25715,-0.34619140625,-0.01416015625,0.94189453125,1.46484375,-0.9765625,-0.79345703125,-1.2799072265625,19.2645263671875,-114.9334716796875
1758181401.267163,-0.3486328125,-0.01708984375,0.9404296875,0.67138671875,-0.732421875,-0.732421875,-1.2689208984375,19.259033203125,-114.9334716796875
1758181401.2773843,-0.3486328125,-0.01708984375,0.9404296875,0.67138671875,-0.732421875,-0.732421875,-1.263427734375,19.2535400390625,-114.93896484375
1758181401.2872953,-0.3466796875,-0.021484375,0.935546875,0.9765625,-0.67138671875,-0.6103515625,-1.2579345703125,19.2535400390625,-114.93896484375
1758181401.2975156,-0.3466796875,-0.021484375,0.935546875,0.9765625,-0.67138671875,-0.6103515625,-1.25244140625,19.2535400390625,-114.93896484375
1758181401.31367,-0.34423828125,-0.02197265625,0.9423828125,1.03759765625,-0.48828125,-0.6103515625,-1.2469482421875,19.248046875,-114.93896484375
1758181401.3199759,-0.34423828125,-0.02197265625,0.9423828125,1.03759765625,-0.48828125,-0.6103515625,-1.2359619140625,19.248046875,-114.9444580078125
1758181401.3272903,-0.3388671875,-0.01904296875,0.943359375,0.8544921875,-0.3662109375,-0.42724609375,-1.23046875,19.248046875,-114.93896484375
1758181401.3372378,-0.3388671875,-0.01904296875,0.943359375,0.8544921875,-0.3662109375,-0.42724609375,-1.2249755859375,19.248046875,-114.93896484375
1758181401.3503745,-0.3408203125,-0.025390625,0.93408203125,0.91552734375,-0.30517578125,-0.30517578125,-1.219482421875,19.2535400390625,-114.93896484375
1758181401.3572364,-0.3408203125,-0.025390625,0.93408203125,0.91552734375,-0.30517578125,-0.30517578125,-1.20849609375,19.2535400390625,-114.9334716796875
1758181401.3673742,-0.3466796875,-0.01806640625,0.94482421875,0.06103515625,-0.30517578125,-0.1220703125,-1.20849609375,19.2535400390625,-114.9334716796875
1758181401.3774092,-0.3466796875,-0.01806640625,0.94482421875,0.06103515625,-0.30517578125,-0.1220703125,-1.20849609375,19.2535400390625,-114.927978515625
1758181401.3873222,-0.34716796875,-0.0146484375,0.9404296875,-0.3662109375,-0.18310546875,0.06103515625,-1.20849609375,19.259033203125,-114.9224853515625
1758181401.397487,-0.34716796875,-0.0146484375,0.9404296875,-0.3662109375,-0.18310546875,0.06103515625,-1.2139892578125,19.259033203125,-114.9169921875
1758181401.4074929,-0.34375,-0.017578125,0.939453125,-0.244140625,-0.1220703125,0.1220703125,-1.2139892578125,19.2645263671875,-114.906005859375
1758181401.4173558,-0.34375,-0.017578125,0.939453125,-0.244140625,-0.1220703125,0.1220703125,-1.219482421875,19.27001953125,-114.9005126953125
1758181401.428119,-0.3388671875,-0.02001953125,0.939453125,0.0,-0.18310546875,0.244140625,-1.219482421875,19.27001953125,-114.8895263671875
1758181401.437463,-0.3388671875,-0.02001953125,0.939453125,0.0,-0.18310546875,0.244140625,-1.219482421875,19.2755126953125,-114.884033203125
1758181401.4479523,-0.33642578125,-0.0224609375,0.94189453125,-0.244140625,-0.244140625,0.3662109375,-1.219482421875,19.2755126953125,-114.873046875
1758181401.457409,-0.33642578125,-0.0224609375,0.94189453125,-0.244140625,-0.244140625,0.3662109375,-1.219482421875,19.2755126953125,-114.862060546875
1758181401.4675503,-0.32958984375,-0.0283203125,0.939453125,-0.18310546875,-0.244140625,0.42724609375,-1.219482421875,19.281005859375,-114.8565673828125
1758181401.4774346,-0.32958984375,-0.0283203125,0.939453125,-0.18310546875,-0.244140625,0.42724609375,-1.219482421875,19.281005859375,-114.8455810546875
1758181401.4876199,-0.33056640625,-0.01708984375,0.95361328125,-0.67138671875,-0.30517578125,0.54931640625,-1.2249755859375,19.281005859375,-114.8345947265625
1758181401.4976504,-0.33056640625,-0.01708984375,0.95361328125,-0.67138671875,-0.30517578125,0.54931640625,-1.23046875,19.281005859375,-114.8236083984375
1758181401.5076206,-0.32666015625,-0.0146484375,0.9462890625,-0.732421875,-0.244140625,0.79345703125,-1.23046875,19.281005859375,-114.8126220703125
1758181401.5176878,-0.32666015625,-0.0146484375,0.9462890625,-0.732421875,-0.244140625,0.79345703125,-1.2359619140625,19.281005859375,-114.796142578125
1758181401.5276134,-0.3271484375,-0.0185546875,0.94140625,-0.42724609375,-0.30517578125,0.91552734375,-1.241455078125,19.281005859375,-114.78515625
1758181401.5374374,-0.3271484375,-0.0185546875,0.94140625,-0.42724609375,-0.30517578125,0.91552734375,-1.241455078125,19.281005859375,-114.7686767578125
1758181401.5479052,-0.32861328125,-0.0224609375,0.94580078125,-1.220703125,-0.3662109375,1.03759765625,-1.2469482421875,19.2755126953125,-114.752197265625
1758181401.5575433,-0.32861328125,-0.0224609375,0.94580078125,-1.220703125,-0.3662109375,1.03759765625,-1.25244140625,19.2755126953125,-114.7357177734375
1758181401.5675557,-0.32958984375,-0.0234375,0.9443359375,-1.64794921875,-0.30517578125,1.15966796875,-1.263427734375,19.27001953125,-114.71923828125
1758181401.5775733,-0.32958984375,-0.0234375,0.9443359375,-1.64794921875,-0.30517578125,1.15966796875,-1.2744140625,19.27001953125,-114.7027587890625
1758181401.5875854,-0.328125,-0.021484375,0.94384765625,-0.8544921875,-0.30517578125,1.0986328125,-1.285400390625,19.27001953125,-114.686279296875
1758181401.5976093,-0.328125,-0.021484375,0.94384765625,-0.8544921875,-0.30517578125,1.0986328125,-1.2908935546875,19.2645263671875,-114.6697998046875
1758181401.607628,-0.3251953125,-0.01904296875,0.943359375,-0.42724609375,-0.30517578125,1.03759765625,-1.2908935546875,19.2645263671875,-114.6533203125
1758181401.6178439,-0.3251953125,-0.01904296875,0.943359375,-0.42724609375,-0.30517578125,1.03759765625,-1.2908935546875,19.259033203125,-114.6368408203125
1758181401.6276615,-0.32666015625,-0.01708984375,0.9453125,-0.9765625,-0.3662109375,0.91552734375,-1.29638671875,19.259033203125,-114.6258544921875
1758181401.6375873,-0.32666015625,-0.01708984375,0.9453125,-0.9765625,-0.3662109375,0.91552734375,-1.3018798828125,19.2535400390625,-114.609375
1758181401.648289,-0.326171875,-0.01806640625,0.9482421875,-1.3427734375,-0.244140625,0.91552734375,-1.307373046875,19.2535400390625,-114.598388671875
1758181401.6575975,-0.326171875,-0.01806640625,0.9482421875,-1.3427734375,-0.244140625,0.91552734375,-1.318359375,19.248046875,-114.5819091796875
1758181401.667737,-0.3232421875,-0.025390625,0.9423828125,-0.732421875,-0.18310546875,0.79345703125,-1.3238525390625,19.248046875,-114.5709228515625
1758181401.6777146,-0.3232421875,-0.025390625,0.9423828125,-0.732421875,-0.18310546875,0.79345703125,-1.329345703125,19.248046875,-114.5599365234375
1758181401.6876822,-0.31591796875,-0.041015625,0.93603515625,-0.18310546875,-0.1220703125,0.54931640625,-1.329345703125,19.2425537109375,-114.5489501953125
1758181401.6977193,-0.31591796875,-0.041015625,0.93603515625,-0.18310546875,-0.1220703125,0.54931640625,-1.329345703125,19.2425537109375,-114.5379638671875
1758181401.7078059,-0.32568359375,-0.01611328125,0.9541015625,0.1220703125,-0.48828125,0.67138671875,-1.329345703125,19.237060546875,-114.532470703125
1758181401.7177217,-0.32568359375,-0.01611328125,0.9541015625,0.1220703125,-0.48828125,0.67138671875,-1.3238525390625,19.2315673828125,-114.521484375
1758181401.7277555,-0.32373046875,-0.01171875,0.9453125,-0.6103515625,-0.48828125,0.732421875,-1.329345703125,19.22607421875,-114.510498046875
1758181401.737702,-0.32373046875,-0.01171875,0.9453125,-0.6103515625,-0.48828125,0.732421875,-1.3348388671875,19.2205810546875,-114.49951171875
1758181401.7484236,-0.3251953125,-0.0146484375,0.94384765625,-1.46484375,-0.54931640625,0.67138671875,-1.3458251953125,19.215087890625,-114.4940185546875
1758181401.7577147,-0.3251953125,-0.0146484375,0.94384765625,-1.46484375,-0.54931640625,0.67138671875,-1.3568115234375,19.2041015625,-114.4830322265625
1758181401.7678177,-0.326171875,-0.0205078125,0.95068359375,-2.44140625,-0.42724609375,0.67138671875,-1.3787841796875,19.1986083984375,-114.466552734375
1758181401.7777696,-0.326171875,-0.0205078125,0.95068359375,-2.44140625,-0.42724609375,0.67138671875,-1.4007568359375,19.193115234375,-114.45556640625
1758181401.7878416,-0.328125,-0.0283203125,0.94287109375,-2.38037109375,-0.30517578125,0.6103515625,-1.417236328125,19.193115234375,-114.444580078125
1758181401.7981186,-0.328125,-0.0283203125,0.94287109375,-2.38037109375,-0.30517578125,0.6103515625,-1.439208984375,19.1876220703125,-114.43359375
1758181401.8078828,-0.3251953125,-0.0263671875,0.9423828125,-0.732421875,-0.3662109375,0.3662109375,-1.4447021484375,19.18212890625,-114.4281005859375
1758181401.8180661,-0.3251953125,-0.0263671875,0.9423828125,-0.732421875,-0.3662109375,0.3662109375,-1.4501953125,19.1766357421875,-114.4171142578125
1758181401.8278973,-0.32666015625,-0.02099609375,0.94580078125,-0.244140625,-0.3662109375,0.244140625,-1.4501953125,19.1766357421875,-114.41162109375
1758181401.8378398,-0.32666015625,-0.02099609375,0.94580078125,-0.244140625,-0.3662109375,0.244140625,-1.4501953125,19.171142578125,-114.4061279296875
1758181401.8484104,-0.32861328125,-0.01953125,0.9453125,-0.79345703125,-0.3662109375,0.1220703125,-1.461181640625,19.1656494140625,-114.400634765625
1758181401.8578389,-0.32861328125,-0.01953125,0.9453125,-0.79345703125,-0.3662109375,0.1220703125,-1.4666748046875,19.16015625,-114.3896484375
1758181401.8683932,-0.328125,-0.02197265625,0.9443359375,-0.8544921875,-0.3662109375,0.06103515625,-1.47216796875,19.1546630859375,-114.3841552734375
1758181401.8779945,-0.328125,-0.02197265625,0.9443359375,-0.8544921875,-0.3662109375,0.06103515625,-1.4776611328125,19.1546630859375,-114.378662109375
1758181401.887902,-0.32666015625,-0.0263671875,0.9443359375,-0.79345703125,-0.30517578125,0.06103515625,-1.4886474609375,19.149169921875,-114.3731689453125
1758181401.8980796,-0.32666015625,-0.0263671875,0.9443359375,-0.79345703125,-0.30517578125,0.06103515625,-1.494140625,19.1436767578125,-114.3731689453125
1758181401.9079509,-0.32177734375,-0.0263671875,0.94287109375,-0.91552734375,-0.18310546875,0.0,-1.505126953125,19.1436767578125,-114.36767578125
1758181401.9182534,-0.32177734375,-0.0263671875,0.94287109375,-0.91552734375,-0.18310546875,0.0,-1.5106201171875,19.13818359375,-114.3621826171875
1758181401.9280097,-0.32421875,-0.025390625,0.95361328125,0.0,-0.06103515625,0.0,-1.5106201171875,19.13818359375,-114.356689453125
1758181401.9380903,-0.32421875,-0.025390625,0.95361328125,0.0,-0.06103515625,0.0,-1.5106201171875,19.13818359375,-114.356689453125
1758181401.9485493,-0.32080078125,-0.02197265625,0.95068359375,0.0,0.1220703125,-0.06103515625,-1.5106201171875,19.13818359375,-114.3511962890625
1758181401.9580634,-0.32080078125,-0.02197265625,0.95068359375,0.0,0.1220703125,-0.06103515625,-1.5106201171875,19.13818359375,-114.345703125
1758181401.9680176,-0.32470703125,-0.02099609375,0.943359375,0.0,0.1220703125,0.0,-1.5106201171875,19.13818359375,-114.345703125
1758181401.9783688,-0.32470703125,-0.02099609375,0.943359375,0.0,0.1220703125,0.0,-1.5106201171875,19.13818359375,-114.3402099609375
1758181401.9883475,-0.3291015625,-0.025390625,0.94384765625,-0.48828125,0.0,0.06103515625,-1.5106201171875,19.13818359375,-114.334716796875
1758181401.998276,-0.3291015625,-0.025390625,0.94384765625,-0.48828125,0.0,0.06103515625,-1.51611328125,19.13818359375,-114.3292236328125
1758181402.0140097,-0.330078125,-0.0283203125,0.943359375,-0.9765625,0.0,0.0,-1.527099609375,19.1326904296875,-114.32373046875
1758181402.0211778,-0.330078125,-0.0283203125,0.943359375,-0.9765625,0.0,0.0,-1.5325927734375,19.1326904296875,-114.3182373046875
1758181402.0281487,-0.328125,-0.025390625,0.9423828125,-0.06103515625,-0.06103515625,-0.06103515625,-1.5325927734375,19.1326904296875,-114.3182373046875
1758181402.0389357,-0.328125,-0.025390625,0.9423828125,-0.06103515625,-0.06103515625,-0.06103515625,-1.5380859375,19.1326904296875,-114.312744140625
1758181402.0523725,-0.32470703125,-0.02392578125,0.9453125,0.6103515625,-0.1220703125,-0.06103515625,-1.527099609375,19.1326904296875,-114.3072509765625
1758181402.0588803,-0.32470703125,-0.02392578125,0.9453125,0.6103515625,-0.1220703125,-0.06103515625,-1.5216064453125,19.127197265625,-114.3072509765625
1758181402.0682762,-0.32470703125,-0.02490234375,0.94580078125,0.30517578125,-0.18310546875,0.0,-1.5216064453125,19.127197265625,-114.3017578125
1758181402.0826325,-0.32470703125,-0.02490234375,0.94580078125,0.30517578125,-0.18310546875,0.0,-1.51611328125,19.1217041015625,-114.2962646484375
1758181402.0888402,-0.31982421875,-0.03271484375,0.9404296875,-0.30517578125,-0.30517578125,0.0,-1.5216064453125,19.1217041015625,-114.2962646484375
1758181402.0981405,-0.31982421875,-0.03271484375,0.9404296875,-0.30517578125,-0.30517578125,0.0,-1.5216064453125,19.1162109375,-114.290771484375
1758181402.1142693,-0.31982421875,-0.03271484375,0.9404296875,-0.732421875,-0.3662109375,0.06103515625,-1.5325927734375,19.1107177734375,-114.290771484375
1758181402.1206279,-0.31982421875,-0.03271484375,0.9404296875,-0.732421875,-0.3662109375,0.06103515625,-1.5380859375,19.105224609375,-114.2852783203125
1758181402.128291,-0.32568359375,-0.02490234375,0.9453125,-0.30517578125,-0.30517578125,0.1220703125,-1.5380859375,19.105224609375,-114.27978515625
1758181402.1382427,-0.32568359375,-0.02490234375,0.9453125,-0.30517578125,-0.30517578125,0.1220703125,-1.5435791015625,19.0997314453125,-114.2742919921875
1758181402.1513772,-0.3251953125,-0.025390625,0.94140625,0.67138671875,-0.3662109375,0.06103515625,-1.5380859375,19.09423828125,-114.268798828125
1758181402.1582918,-0.3251953125,-0.025390625,0.94140625,0.67138671875,-0.3662109375,0.06103515625,-1.527099609375,19.09423828125,-114.2633056640625
1758181402.168269,-0.3251953125,-0.02392578125,0.94580078125,0.42724609375,-0.54931640625,0.0,-1.527099609375,19.083251953125,-114.2578125
1758181402.1786637,-0.3251953125,-0.02392578125,0.94580078125,0.42724609375,-0.54931640625,0.0,-1.5216064453125,19.0777587890625,-114.2523193359375
1758181402.1883216,-0.3251953125,-0.021484375,0.94140625,-0.1220703125,-0.6103515625,-0.06103515625,-1.5216064453125,19.072265625,-114.2523193359375
1758181402.198551,-0.3251953125,-0.021484375,0.94140625,-0.1220703125,-0.6103515625,-0.06103515625,-1.5216064453125,19.0667724609375,-114.246826171875
1758181402.2084026,-0.328125,-0.02294921875,0.94580078125,-0.1220703125,-0.6103515625,-0.244140625,-1.527099609375,19.061279296875,-114.2413330078125
1758181402.2187006,-0.328125,-0.02294921875,0.94580078125,-0.1220703125,-0.6103515625,-0.244140625,-1.527099609375,19.0557861328125,-114.2413330078125
1758181402.2284126,-0.3232421875,-0.02392578125,0.9501953125,-0.1220703125,-0.42724609375,-0.244140625,-1.527099609375,19.05029296875,-114.2413330078125
1758181402.2384489,-0.3232421875,-0.02392578125,0.9501953125,-0.1220703125,-0.42724609375,-0.244140625,-1.5325927734375,19.0447998046875,-114.23583984375
1758181402.2488756,-0.322265625,-0.02685546875,0.94482421875,0.48828125,-0.3662109375,-0.30517578125,-1.527099609375,19.039306640625,-114.23583984375
1758181402.2584202,-0.322265625,-0.02685546875,0.94482421875,0.48828125,-0.3662109375,-0.30517578125,-1.5216064453125,19.0338134765625,-114.2303466796875
1758181402.2684553,-0.32177734375,-0.0263671875,0.9462890625,0.6103515625,-0.42724609375,-0.42724609375,-1.51611328125,19.0338134765625,-114.2303466796875
1758181402.2788954,-0.32177734375,-0.0263671875,0.9462890625,0.6103515625,-0.42724609375,-0.42724609375,-1.5106201171875,19.0283203125,-114.2303466796875
1758181402.288466,-0.322265625,-0.02392578125,0.9453125,0.1220703125,-0.42724609375,-0.42724609375,-1.5106201171875,19.0228271484375,-114.2303466796875
1758181402.2986593,-0.322265625,-0.02392578125,0.9453125,0.1220703125,-0.42724609375,-0.42724609375,-1.5106201171875,19.017333984375,-114.2303466796875
1758181402.3084862,-0.32568359375,-0.02392578125,0.95068359375,0.0,-0.3662109375,-0.42724609375,-1.51611328125,19.0118408203125,-114.2303466796875
1758181402.3189478,-0.32568359375,-0.02392578125,0.95068359375,0.0,-0.3662109375,-0.42724609375,-1.51611328125,19.00634765625,-114.2303466796875
1758181402.328699,-0.32275390625,-0.02685546875,0.9443359375,0.3662109375,-0.3662109375,-0.3662109375,-1.5106201171875,19.0008544921875,-114.2303466796875
1758181402.339784,-0.32275390625,-0.02685546875,0.9443359375,0.3662109375,-0.3662109375,-0.3662109375,-1.5106201171875,19.0008544921875,-114.2303466796875
1758181402.3522866,-0.3232421875,-0.0283203125,0.9443359375,0.732421875,-0.48828125,-0.244140625,-1.505126953125,18.995361328125,-114.224853515625
1758181402.3586967,-0.3232421875,-0.0283203125,0.9443359375,0.732421875,-0.48828125,-0.244140625,-1.4996337890625,18.9898681640625,-114.224853515625
1758181402.3687046,-0.322265625,-0.025390625,0.9482421875,0.18310546875,-0.48828125,-0.1220703125,-1.494140625,18.984375,-114.2193603515625
1758181402.379417,-0.322265625,-0.025390625,0.9482421875,0.18310546875,-0.48828125,-0.1220703125,-1.494140625,18.9788818359375,-114.2138671875
1758181402.3887658,-0.3212890625,-0.02294921875,0.9443359375,-0.06103515625,-0.54931640625,-0.06103515625,-1.494140625,18.9678955078125,-114.2138671875
1758181402.398619,-0.3212890625,-0.02294921875,0.9443359375,-0.06103515625,-0.54931640625,-0.06103515625,-1.4996337890625,18.96240234375,-114.2083740234375
1758181402.408723,-0.32275390625,-0.0234375,0.95068359375,-0.06103515625,-0.48828125,0.0,-1.4996337890625,18.9569091796875,-114.202880859375
1758181402.4190671,-0.32275390625,-0.0234375,0.95068359375,-0.06103515625,-0.48828125,0.0,-1.4996337890625,18.951416015625,-114.1973876953125
1758181402.4286795,-0.322265625,-0.02734375,0.9453125,0.18310546875,-0.48828125,0.06103515625,-1.494140625,18.9459228515625,-114.19189453125
1758181402.4386103,-0.322265625,-0.02734375,0.9453125,0.18310546875,-0.48828125,0.06103515625,-1.494140625,18.9404296875,-114.19189453125
1758181402.4489186,-0.31982421875,-0.02587890625,0.95166015625,0.3662109375,-0.67138671875,0.1220703125,-1.4886474609375,18.9349365234375,-114.1864013671875
1758181402.4587152,-0.31982421875,-0.02587890625,0.95166015625,0.3662109375,-0.67138671875,0.1220703125,-1.4886474609375,18.929443359375,-114.180908203125
1758181402.4688282,-0.3193359375,-0.02587890625,0.94091796875,-0.244140625,-0.732421875,0.30517578125,-1.4886474609375,18.91845703125,-114.169921875
1758181402.478857,-0.3193359375,-0.02587890625,0.94091796875,-0.244140625,-0.732421875,0.30517578125,-1.4886474609375,18.9129638671875,-114.1644287109375
1758181402.488737,-0.3173828125,-0.0244140625,0.94921875,-0.42724609375,-0.8544921875,0.3662109375,-1.494140625,18.9019775390625,-114.158935546875
1758181402.498771,-0.3173828125,-0.0244140625,0.94921875,-0.42724609375,-0.8544921875,0.3662109375,-1.494140625,18.8909912109375,-114.14794921875
1758181402.508778,-0.31591796875,-0.02880859375,0.94970703125,-0.79345703125,-0.67138671875,0.42724609375,-1.505126953125,18.885498046875,-114.1424560546875
1758181402.5190115,-0.31591796875,-0.02880859375,0.94970703125,-0.79345703125,-0.67138671875,0.42724609375,-1.5106201171875,18.87451171875,-114.136962890625
1758181402.5288029,-0.3125,-0.0263671875,0.94921875,-0.732421875,-0.54931640625,0.54931640625,-1.51611328125,18.8690185546875,-114.1259765625
1758181402.5390282,-0.3125,-0.0263671875,0.94921875,-0.732421875,-0.54931640625,0.54931640625,-1.5216064453125,18.863525390625,-114.114990234375
1758181402.549016,-0.314453125,-0.0234375,0.9521484375,0.3662109375,-0.30517578125,0.732421875,-1.51611328125,18.8580322265625,-114.10400390625
1758181402.558835,-0.314453125,-0.0234375,0.9521484375,0.3662109375,-0.30517578125,0.732421875,-1.5106201171875,18.8525390625,-114.093017578125
1758181402.5688543,-0.3125,-0.0263671875,0.95263671875,0.244140625,-0.1220703125,0.8544921875,-1.505126953125,18.8525390625,-114.08203125
1758181402.5794086,-0.3125,-0.0263671875,0.95263671875,0.244140625,-0.1220703125,0.8544921875,-1.4996337890625,18.8470458984375,-114.071044921875
1758181402.588852,-0.30859375,-0.0263671875,0.95068359375,-0.244140625,-0.18310546875,0.8544921875,-1.4996337890625,18.841552734375,-114.06005859375
1758181402.5988972,-0.30859375,-0.0263671875,0.95068359375,-0.244140625,-0.18310546875,0.8544921875,-1.4996337890625,18.8360595703125,-114.049072265625
1758181402.6089537,-0.3134765625,-0.02294921875,0.94921875,-0.79345703125,-0.244140625,0.8544921875,-1.505126953125,18.83056640625,-114.0325927734375
1758181402.6192062,-0.3134765625,-0.02294921875,0.94921875,-0.79345703125,-0.244140625,0.8544921875,-1.5106201171875,18.8250732421875,-114.0216064453125
1758181402.6289709,-0.31640625,-0.02197265625,0.94873046875,-0.79345703125,-0.244140625,0.79345703125,-1.51611328125,18.8250732421875,-114.0106201171875
1758181402.638897,-0.31640625,-0.02197265625,0.94873046875,-0.79345703125,-0.244140625,0.79345703125,-1.5216064453125,18.819580078125,-113.9996337890625
1758181402.6491866,-0.32080078125,-0.02197265625,0.9541015625,-0.9765625,-0.06103515625,0.8544921875,-1.527099609375,18.8140869140625,-113.9886474609375
1758181402.6589944,-0.32080078125,-0.02197265625,0.9541015625,-0.9765625,-0.06103515625,0.8544921875,-1.5325927734375,18.8140869140625,-113.97216796875
1758181402.6690798,-0.31298828125,-0.03515625,0.9365234375,-1.3427734375,0.244140625,0.79345703125,-1.5435791015625,18.8140869140625,-113.961181640625
1758181402.6793892,-0.31298828125,-0.03515625,0.9365234375,-1.3427734375,0.244140625,0.79345703125,-1.5545654296875,18.8140869140625,-113.9501953125
1758181402.6890798,-0.31591796875,-0.02685546875,0.95166015625,-0.91552734375,0.0,0.732421875,-1.56005859375,18.80859375,-113.939208984375
1758181402.6992683,-0.31591796875,-0.02685546875,0.95166015625,-0.91552734375,0.0,0.732421875,-1.5655517578125,18.80859375,-113.92822265625
1758181402.7090824,-0.322265625,-0.02197265625,0.9482421875,-0.732421875,0.0,0.54931640625,-1.571044921875,18.8031005859375,-113.917236328125
1758181402.7193048,-0.31884765625,-0.0205078125,0.94189453125,-0.42724609375,-0.1220703125,0.42724609375,-1.5765380859375,18.8031005859375,-113.90625
1758181402.7291064,-0.31884765625,-0.0205078125,0.94189453125,-0.42724609375,-0.1220703125,0.42724609375,-1.5765380859375,18.797607421875,-113.9007568359375
1758181402.7390344,-0.318359375,-0.0224609375,0.94677734375,-0.6103515625,-0.30517578125,0.244140625,-1.58203125,18.797607421875,-113.8897705078125
1758181402.7493174,-0.318359375,-0.0224609375,0.94677734375,-0.6103515625,-0.30517578125,0.244140625,-1.5875244140625,18.7921142578125,-113.88427734375
1758181402.7591262,-0.318359375,-0.025390625,0.94775390625,-1.03759765625,-0.48828125,0.06103515625,-1.593017578125,18.78662109375,-113.8787841796875
1758181402.7694314,-0.318359375,-0.025390625,0.94775390625,-1.03759765625,-0.48828125,0.06103515625,-1.60400390625,18.7811279296875,-113.873291015625
1758181402.7796044,-0.3173828125,-0.02685546875,0.9453125,-0.67138671875,-0.6103515625,-0.06103515625,-1.6094970703125,18.7701416015625,-113.8677978515625
1758181402.789178,-0.3173828125,-0.02685546875,0.9453125,-0.67138671875,-0.6103515625,-0.06103515625,-1.614990234375,18.7646484375,-113.8677978515625
1758181402.7993996,-0.3193359375,-0.02880859375,0.94970703125,-0.42724609375,-0.6103515625,-0.18310546875,-1.6204833984375,18.7591552734375,-113.8623046875
1758181402.8092437,-0.3193359375,-0.02880859375,0.94970703125,-0.42724609375,-0.6103515625,-0.18310546875,-1.6259765625,18.7481689453125,-113.8568115234375
1758181402.819565,-0.31982421875,-0.02587890625,0.94873046875,-0.3662109375,-0.48828125,-0.48828125,-1.6314697265625,18.74267578125,-113.8568115234375
1758181402.8292115,-0.31982421875,-0.02587890625,0.94873046875,-0.3662109375,-0.48828125,-0.48828125,-1.636962890625,18.7371826171875,-113.8568115234375
1758181402.8392868,-0.31884765625,-0.02392578125,0.9453125,0.0,-0.42724609375,-0.732421875,-1.636962890625,18.731689453125,-113.8568115234375
1758181402.8493993,-0.31884765625,-0.02392578125,0.9453125,0.0,-0.42724609375,-0.732421875,-1.6424560546875,18.7261962890625,-113.8623046875
1758181402.8592777,-0.31494140625,-0.0224609375,0.9462890625,0.244140625,-0.67138671875,-0.91552734375,-1.6424560546875,18.720703125,-113.8623046875
1758181402.8693128,-0.31494140625,-0.0224609375,0.9462890625,0.244140625,-0.67138671875,-0.91552734375,-1.6424560546875,18.709716796875,-113.8677978515625
1758181402.879669,-0.3125,-0.0224609375,0.947265625,-0.30517578125,-0.9765625,-1.15966796875,-1.6424560546875,18.7042236328125,-113.873291015625
1758181402.8893228,-0.3125,-0.0224609375,0.947265625,-0.30517578125,-0.9765625,-1.15966796875,-1.64794921875,18.687744140625,-113.8787841796875
1758181402.899526,-0.30908203125,-0.02490234375,0.9521484375,-1.3427734375,-0.9765625,-1.15966796875,-1.658935546875,18.6767578125,-113.88427734375
1758181402.90934,-0.30908203125,-0.02490234375,0.9521484375,-1.3427734375,-0.9765625,-1.15966796875,-1.6754150390625,18.665771484375,-113.8897705078125
1758181402.9195182,-0.30322265625,-0.03173828125,0.9521484375,-1.52587890625,-0.9765625,-1.0986328125,-1.69189453125,18.65478515625,-113.895263671875
1758181402.9300418,-0.30322265625,-0.03173828125,0.9521484375,-1.52587890625,-0.9765625,-1.0986328125,-1.7138671875,18.643798828125,-113.9007568359375
1758181402.9410872,-0.2998046875,-0.03515625,0.9541015625,-0.67138671875,-0.91552734375,-1.0986328125,-1.724853515625,18.6328125,-113.90625
1758181402.9496582,-0.2998046875,-0.03515625,0.9541015625,-0.67138671875,-0.91552734375,-1.0986328125,-1.73583984375,18.6163330078125,-113.9117431640625
1758181402.9593735,-0.29931640625,-0.03076171875,0.9521484375,-0.30517578125,-0.91552734375,-1.15966796875,-1.7413330078125,18.6053466796875,-113.917236328125
1758181402.9695647,-0.29931640625,-0.03076171875,0.9521484375,-0.30517578125,-0.91552734375,-1.15966796875,-1.7523193359375,18.5943603515625,-113.92822265625
1758181402.9798832,-0.298828125,-0.02734375,0.95361328125,-0.6103515625,-0.9765625,-1.0986328125,-1.7578125,18.577880859375,-113.9337158203125
1758181402.989416,-0.298828125,-0.02734375,0.95361328125,-0.6103515625,-0.9765625,-1.0986328125,-1.768798828125,18.56689453125,-113.939208984375
1758181402.999524,-0.2978515625,-0.02880859375,0.95361328125,-0.91552734375,-1.03759765625,-1.03759765625,-1.77978515625,18.5504150390625,-113.9447021484375
1758181403.0095608,-0.2978515625,-0.02880859375,0.95361328125,-0.91552734375,-1.03759765625,-1.03759765625,-1.790771484375,18.533935546875,-113.9556884765625
1758181403.0206614,-0.302734375,-0.03076171875,0.9541015625,-0.91552734375,-0.9765625,-0.91552734375,-1.8017578125,18.52294921875,-113.961181640625
1758181403.029404,-0.302734375,-0.03076171875,0.9541015625,-0.91552734375,-0.9765625,-0.91552734375,-1.812744140625,18.5064697265625,-113.9666748046875
1758181403.0399268,-0.3037109375,-0.03369140625,0.9521484375,-0.79345703125,-0.79345703125,-0.79345703125,-1.82373046875,18.4954833984375,-113.9666748046875
1758181403.0499957,-0.3037109375,-0.03369140625,0.9521484375,-0.79345703125,-0.79345703125,-0.79345703125,-1.834716796875,18.47900390625,-113.97216796875
1758181403.0595353,-0.30859375,-0.03466796875,0.95263671875,-0.48828125,-0.54931640625,-0.6103515625,-1.8402099609375,18.468017578125,-113.9776611328125
