timestamp,acc_x,acc_y,acc_z,gyro_x,gyro_y,gyro_z,angle_x,angle_y,angle_z
1758877603.4000897,-0.72998046875,-0.2265625,0.6552734375,3.173828125,1.77001953125,-0.8544921875,-18.6767578125,50.394287109375,77.552490234375
1758877603.4126763,-0.73046875,-0.193359375,0.66015625,2.5634765625,1.40380859375,-0.8544921875,-18.665771484375,50.3997802734375,77.5360107421875
1758877603.4294958,-0.73046875,-0.193359375,0.66015625,2.5634765625,1.40380859375,-0.8544921875,-18.6492919921875,50.4052734375,77.5140380859375
1758877603.4408245,-0.7548828125,-0.16943359375,0.62744140625,-2.685546875,0.54931640625,-1.0986328125,-18.687744140625,50.3997802734375,77.49755859375
1758877603.4498506,-0.7548828125,-0.16943359375,0.62744140625,-2.685546875,0.54931640625,-1.0986328125,-18.7261962890625,50.3997802734375,77.4755859375
1758877603.4585557,-0.7802734375,-0.19140625,0.591796875,-6.53076171875,-0.30517578125,-1.15966796875,-18.797607421875,50.38330078125,77.464599609375
1758877603.466757,-0.7802734375,-0.19140625,0.591796875,-6.53076171875,-0.30517578125,-1.15966796875,-18.8690185546875,50.372314453125,77.4481201171875
1758877603.4738636,-0.791015625,-0.22216796875,0.56640625,-5.79833984375,-0.67138671875,-1.03759765625,-18.929443359375,50.361328125,77.4371337890625
1758877603.480172,-0.791015625,-0.22216796875,0.56640625,-5.79833984375,-0.67138671875,-1.03759765625,-18.9898681640625,50.350341796875,77.4261474609375
1758877603.4882739,-0.791015625,-0.22802734375,0.55810546875,-1.220703125,-1.0986328125,-0.67138671875,-19.00634765625,50.33935546875,77.420654296875
1758877603.4982786,-0.791015625,-0.22802734375,0.55810546875,-1.220703125,-1.0986328125,-0.67138671875,-19.0228271484375,50.328369140625,77.4151611328125
1758877603.508296,-0.80029296875,-0.22802734375,0.55810546875,2.01416015625,-1.40380859375,-0.244140625,-19.0008544921875,50.3173828125,77.4151611328125
1758877603.5183275,-0.80029296875,-0.22802734375,0.55810546875,2.01416015625,-1.40380859375,-0.244140625,-18.9788818359375,50.3118896484375,77.420654296875
1758877603.528337,-0.79248046875,-0.2158203125,0.56396484375,3.0517578125,-1.46484375,0.0,-18.951416015625,50.3009033203125,77.4261474609375
1758877603.5383246,-0.79248046875,-0.2158203125,0.56396484375,3.0517578125,-1.46484375,0.0,-18.91845703125,50.29541015625,77.431640625
1758877603.5483031,-0.7802734375,-0.20458984375,0.58544921875,5.615234375,-1.40380859375,0.0,-18.863525390625,50.2899169921875,77.4371337890625
1758877603.5586364,-0.7802734375,-0.20458984375,0.58544921875,5.615234375,-1.40380859375,0.0,-18.80859375,50.2789306640625,77.4371337890625
1758877603.5684197,-0.77099609375,-0.20263671875,0.6142578125,5.92041015625,-1.15966796875,-0.3662109375,-18.753662109375,50.2734375,77.4371337890625
1758877603.578439,-0.77099609375,-0.20263671875,0.6142578125,5.92041015625,-1.15966796875,-0.3662109375,-18.69873046875,50.2679443359375,77.4371337890625
1758877603.5883858,-0.75537109375,-0.19482421875,0.62451171875,5.43212890625,-0.8544921875,-0.67138671875,-18.6492919921875,50.262451171875,77.4261474609375
1758877603.5983872,-0.75537109375,-0.19482421875,0.62451171875,5.43212890625,-0.8544921875,-0.67138671875,-18.6053466796875,50.2569580078125,77.420654296875
1758877603.6084168,-0.748046875,-0.197265625,0.6298828125,3.7841796875,-0.91552734375,-0.8544921875,-18.5723876953125,50.2459716796875,77.40966796875
1758877603.6184149,-0.748046875,-0.197265625,0.6298828125,3.7841796875,-0.91552734375,-0.8544921875,-18.544921875,50.2349853515625,77.398681640625
1758877603.6284745,-0.75244140625,-0.1962890625,0.634765625,1.28173828125,-0.79345703125,-0.732421875,-18.5394287109375,50.2294921875,77.3876953125
1758877603.638442,-0.75244140625,-0.1962890625,0.634765625,1.28173828125,-0.79345703125,-0.732421875,-18.5284423828125,50.218505859375,77.3822021484375
1758877603.6484582,-0.75244140625,-0.1962890625,0.634765625,-0.244140625,-0.67138671875,-0.79345703125,-18.5394287109375,50.20751953125,77.3712158203125
1758877603.658464,-0.7548828125,-0.20166015625,0.626953125,-0.244140625,-0.67138671875,-0.79345703125,-18.544921875,50.196533203125,77.3602294921875
1758877603.6684682,-0.7587890625,-0.19873046875,0.607421875,-0.42724609375,-1.03759765625,-1.03759765625,-18.555908203125,50.1800537109375,77.3492431640625
1758877603.6784813,-0.7587890625,-0.19873046875,0.607421875,-0.42724609375,-1.03759765625,-1.03759765625,-18.56689453125,50.16357421875,77.3382568359375
1758877603.6885135,-0.76904296875,-0.19189453125,0.59423828125,-1.0986328125,-1.5869140625,-1.46484375,-18.5833740234375,50.1470947265625,77.3272705078125
1758877603.6985,-0.76904296875,-0.19189453125,0.59423828125,-1.0986328125,-1.5869140625,-1.46484375,-18.6053466796875,50.1251220703125,77.310791015625
1758877603.7085123,-0.771484375,-0.197265625,0.6044921875,-1.89208984375,-1.64794921875,-1.77001953125,-18.6328125,50.1031494140625,77.2943115234375
1758877603.718516,-0.771484375,-0.197265625,0.6044921875,-1.89208984375,-1.64794921875,-1.77001953125,-18.665771484375,50.0811767578125,77.2723388671875
1758877603.728544,-0.76611328125,-0.21142578125,0.61279296875,-1.89208984375,-1.52587890625,-1.77001953125,-18.6932373046875,50.0592041015625,77.2503662109375
1758877603.738556,-0.76611328125,-0.21142578125,0.61279296875,-1.89208984375,-1.52587890625,-1.77001953125,-18.7261962890625,50.042724609375,77.2283935546875
1758877603.7485764,-0.76611328125,-0.212890625,0.60888671875,-0.732421875,-1.220703125,-1.708984375,-18.7481689453125,50.0262451171875,77.2119140625
1758877603.7585742,-0.76611328125,-0.212890625,0.60888671875,-0.732421875,-1.220703125,-1.708984375,-18.7646484375,50.009765625,77.18994140625
1758877603.7685838,-0.76806640625,-0.21142578125,0.60400390625,0.0,-1.0986328125,-1.52587890625,-18.7811279296875,49.9932861328125,77.1734619140625
1758877603.7785857,-0.76806640625,-0.21142578125,0.60400390625,0.0,-1.0986328125,-1.52587890625,-18.7921142578125,49.976806640625,77.156982421875
1758877603.788599,-0.76904296875,-0.20556640625,0.59912109375,0.0,-1.15966796875,-1.40380859375,-18.8031005859375,49.9658203125,77.1405029296875
1758877603.7986042,-0.76904296875,-0.20556640625,0.59912109375,0.0,-1.15966796875,-1.40380859375,-18.8140869140625,49.9493408203125,77.1240234375
1758877603.8086271,-0.76904296875,-0.20361328125,0.60498046875,0.42724609375,-1.03759765625,-1.52587890625,-18.819580078125,49.932861328125,77.10205078125
1758877603.8186238,-0.76904296875,-0.20361328125,0.60498046875,0.42724609375,-1.03759765625,-1.52587890625,-18.83056640625,49.921875,77.0855712890625
1758877603.828636,-0.76171875,-0.2080078125,0.61083984375,0.18310546875,-1.0986328125,-1.52587890625,-18.8360595703125,49.9053955078125,77.069091796875
1758877603.8386528,-0.76171875,-0.2080078125,0.61083984375,0.18310546875,-1.0986328125,-1.52587890625,-18.8470458984375,49.8944091796875,77.0526123046875
1758877603.8486686,-0.759765625,-0.2109375,0.6162109375,0.0,-1.15966796875,-1.3427734375,-18.8580322265625,49.8779296875,77.0361328125
1758877603.8587322,-0.759765625,-0.2109375,0.6162109375,0.0,-1.15966796875,-1.3427734375,-18.8690185546875,49.866943359375,77.0196533203125
1758877603.8687234,-0.759765625,-0.21337890625,0.6083984375,0.0,-1.3427734375,-1.03759765625,-18.87451171875,49.8504638671875,77.0086669921875
1758877603.8787498,-0.759765625,-0.21337890625,0.6083984375,0.0,-1.3427734375,-1.03759765625,-18.8800048828125,49.833984375,76.9976806640625
1758877603.8887818,-0.76220703125,-0.21142578125,0.61083984375,-0.30517578125,-1.40380859375,-0.732421875,-18.885498046875,49.8175048828125,76.9921875
1758877603.898757,-0.76220703125,-0.21142578125,0.61083984375,-0.30517578125,-1.40380859375,-0.732421875,-18.8909912109375,49.801025390625,76.9866943359375
1758877603.908776,-0.7607421875,-0.21240234375,0.6123046875,-0.1220703125,-1.46484375,-0.54931640625,-18.896484375,49.7900390625,76.9866943359375
1758877603.9188006,-0.7607421875,-0.21240234375,0.6123046875,-0.1220703125,-1.46484375,-0.54931640625,-18.896484375,49.7735595703125,76.9866943359375
1758877603.9288144,-0.7607421875,-0.2080078125,0.609375,-0.42724609375,-1.64794921875,-0.54931640625,-18.9019775390625,49.757080078125,76.9866943359375
1758877603.9388201,-0.7607421875,-0.2080078125,0.609375,-0.42724609375,-1.64794921875,-0.54931640625,-18.907470703125,49.7406005859375,76.9866943359375
1758877603.9488087,-0.763671875,-0.20361328125,0.611328125,-0.67138671875,-1.64794921875,-0.67138671875,-18.9129638671875,49.72412109375,76.981201171875
1758877603.9588628,-0.7626953125,-0.2099609375,0.61328125,-0.79345703125,-1.40380859375,-0.732421875,-18.9239501953125,49.7076416015625,76.981201171875
1758877603.9688272,-0.7626953125,-0.2099609375,0.61328125,-0.79345703125,-1.40380859375,-0.732421875,-18.929443359375,49.691162109375,76.9757080078125
1758877603.9788568,-0.75927734375,-0.21484375,0.615234375,0.0,-0.91552734375,-0.732421875,-18.9404296875,49.6746826171875,76.9647216796875
1758877603.9888487,-0.75927734375,-0.21484375,0.615234375,0.0,-0.91552734375,-0.732421875,-18.9459228515625,49.669189453125,76.959228515625
1758877603.9989033,-0.75390625,-0.2158203125,0.619140625,1.0986328125,-0.79345703125,-0.732421875,-18.9404296875,49.658203125,76.9537353515625
1758877604.0089655,-0.75390625,-0.2158203125,0.619140625,1.0986328125,-0.79345703125,-0.732421875,-18.9349365234375,49.647216796875,76.9427490234375
1758877604.0188823,-0.7529296875,-0.205078125,0.61669921875,0.48828125,-1.03759765625,-0.79345703125,-18.9349365234375,49.63623046875,76.937255859375
1758877604.0292406,-0.7529296875,-0.205078125,0.61669921875,0.48828125,-1.03759765625,-0.79345703125,-18.9349365234375,49.6197509765625,76.9317626953125
1758877604.0392103,-0.7568359375,-0.20361328125,0.61962890625,-0.79345703125,-1.15966796875,-0.732421875,-18.9404296875,49.6087646484375,76.92626953125
1758877604.0489845,-0.7568359375,-0.20361328125,0.61962890625,-0.79345703125,-1.15966796875,-0.732421875,-18.951416015625,49.59228515625,76.915283203125
1758877604.059285,-0.7578125,-0.212890625,0.619140625,-1.708984375,-1.0986328125,-0.67138671875,-18.9678955078125,49.581298828125,76.9097900390625
1758877604.0693092,-0.7578125,-0.212890625,0.619140625,-1.708984375,-1.0986328125,-0.67138671875,-18.984375,49.5648193359375,76.904296875
1758877604.078961,-0.759765625,-0.21484375,0.61572265625,-1.03759765625,-1.0986328125,-0.67138671875,-19.0008544921875,49.5538330078125,76.8988037109375
1758877604.0890503,-0.759765625,-0.21484375,0.61572265625,-1.03759765625,-1.0986328125,-0.67138671875,-19.0118408203125,49.537353515625,76.893310546875
1758877604.0995653,-0.763671875,-0.21337890625,0.6025390625,-0.30517578125,-1.3427734375,-0.79345703125,-19.0228271484375,49.5263671875,76.88232421875
1758877604.109022,-0.763671875,-0.21337890625,0.6025390625,-0.30517578125,-1.3427734375,-0.79345703125,-19.0283203125,49.5098876953125,76.8768310546875
1758877604.1190398,-0.76953125,-0.208984375,0.59521484375,0.06103515625,-1.708984375,-0.91552734375,-19.0338134765625,49.493408203125,76.8658447265625
1758877604.1294277,-0.76953125,-0.208984375,0.59521484375,0.06103515625,-1.708984375,-0.91552734375,-19.0338134765625,49.4769287109375,76.8603515625
1758877604.139019,-0.7666015625,-0.21142578125,0.599609375,0.6103515625,-1.953125,-1.0986328125,-19.039306640625,49.4549560546875,76.849365234375
1758877604.1490202,-0.7666015625,-0.21142578125,0.599609375,0.6103515625,-1.953125,-1.0986328125,-19.0338134765625,49.4329833984375,76.8438720703125
1758877604.1593783,-0.7607421875,-0.2109375,0.611328125,0.9765625,-2.13623046875,-1.220703125,-19.0338134765625,49.41650390625,76.8328857421875
1758877604.1694372,-0.7607421875,-0.2109375,0.611328125,0.9765625,-2.13623046875,-1.220703125,-19.0283203125,49.39453125,76.8218994140625
1758877604.1793919,-0.7548828125,-0.21240234375,0.62060546875,0.79345703125,-2.197265625,-1.28173828125,-19.0283203125,49.37255859375,76.81640625
1758877604.1893148,-0.7548828125,-0.21240234375,0.62060546875,0.79345703125,-2.197265625,-1.28173828125,-19.0228271484375,49.3505859375,76.805419921875
1758877604.199178,-0.7490234375,-0.21142578125,0.625,0.18310546875,-2.25830078125,-1.15966796875,-19.0228271484375,49.3231201171875,76.79443359375
1758877604.2091467,-0.7490234375,-0.21142578125,0.625,0.18310546875,-2.25830078125,-1.15966796875,-19.0283203125,49.3011474609375,76.7889404296875
1758877604.2192552,-0.74462890625,-0.21435546875,0.62841796875,-0.48828125,-2.44140625,-0.9765625,-19.0338134765625,49.2791748046875,76.783447265625
1758877604.2291024,-0.74462890625,-0.21435546875,0.62841796875,-0.48828125,-2.44140625,-0.9765625,-19.039306640625,49.251708984375,76.7779541015625
1758877604.2391934,-0.74462890625,-0.21484375,0.62841796875,-1.220703125,-2.9296875,-0.6103515625,-19.0447998046875,49.2242431640625,76.7779541015625
1758877604.24951,-0.74462890625,-0.21484375,0.62841796875,-1.220703125,-2.9296875,-0.6103515625,-19.05029296875,49.1912841796875,76.783447265625
1758877604.2592256,-0.75,-0.21484375,0.61962890625,-1.89208984375,-3.60107421875,-0.244140625,-19.061279296875,49.1583251953125,76.79443359375
1758877604.2691672,-0.75,-0.21484375,0.61962890625,-1.89208984375,-3.60107421875,-0.244140625,-19.0667724609375,49.1253662109375,76.805419921875
1758877604.279159,-0.75537109375,-0.216796875,0.60693359375,-2.62451171875,-4.2724609375,0.30517578125,-19.072265625,49.0869140625,76.8218994140625
1758877604.2896743,-0.75537109375,-0.216796875,0.60693359375,-2.62451171875,-4.2724609375,0.30517578125,-19.0777587890625,49.0484619140625,76.8438720703125
1758877604.2992394,-0.7626953125,-0.232421875,0.61474609375,-3.0517578125,-4.69970703125,0.79345703125,-19.083251953125,49.010009765625,76.871337890625
1758877604.3092265,-0.7626953125,-0.232421875,0.61474609375,-3.0517578125,-4.69970703125,0.79345703125,-19.0887451171875,48.966064453125,76.904296875
1758877604.3196082,-0.7607421875,-0.228515625,0.60595703125,-1.40380859375,-4.45556640625,1.3427734375,-19.0887451171875,48.9276123046875,76.9427490234375
1758877604.3292913,-0.7607421875,-0.228515625,0.60595703125,-1.40380859375,-4.45556640625,1.3427734375,-19.072265625,48.8946533203125,76.981201171875
1758877604.3393013,-0.76171875,-0.224609375,0.603515625,1.3427734375,-4.150390625,1.46484375,-19.0447998046875,48.856201171875,77.0196533203125
1758877604.3497524,-0.76171875,-0.224609375,0.603515625,1.3427734375,-4.150390625,1.46484375,-19.00634765625,48.8287353515625,77.0526123046875
1758877604.3593147,-0.76513671875,-0.21533203125,0.61376953125,2.74658203125,-3.5400390625,1.40380859375,-18.9569091796875,48.7957763671875,77.091064453125
1758877604.3692617,-0.76513671875,-0.21533203125,0.61376953125,2.74658203125,-3.5400390625,1.40380859375,-18.907470703125,48.7738037109375,77.1240234375
1758877604.3793814,-0.7587890625,-0.20703125,0.6171875,3.173828125,-2.9296875,1.15966796875,-18.8580322265625,48.7518310546875,77.1514892578125
1758877604.389738,-0.7587890625,-0.20703125,0.6171875,3.173828125,-2.9296875,1.15966796875,-18.80859375,48.7298583984375,77.178955078125
1758877604.3993754,-0.7548828125,-0.2021484375,0.62548828125,2.99072265625,-2.38037109375,0.67138671875,-18.7591552734375,48.71337890625,77.200927734375
1758877604.409346,-0.7548828125,-0.2021484375,0.62548828125,2.99072265625,-2.38037109375,0.67138671875,-18.7152099609375,48.6968994140625,77.222900390625
1758877604.4194705,-0.744140625,-0.20263671875,0.63623046875,2.9296875,-2.01416015625,0.1220703125,-18.6767578125,48.680419921875,77.23388671875
1758877604.4294152,-0.744140625,-0.20263671875,0.63623046875,2.9296875,-2.01416015625,0.1220703125,-18.643798828125,48.6639404296875,77.2393798828125
1758877604.439476,-0.73486328125,-0.205078125,0.64208984375,1.77001953125,-2.01416015625,-0.18310546875,-18.61083984375,48.6474609375,77.244873046875
1758877604.4496949,-0.73486328125,-0.205078125,0.64208984375,1.77001953125,-2.01416015625,-0.18310546875,-18.5888671875,48.6309814453125,77.2503662109375
1758877604.4594417,-0.73486328125,-0.20458984375,0.64697265625,0.18310546875,-2.197265625,-0.30517578125,-18.577880859375,48.6090087890625,77.2503662109375
1758877604.4694197,-0.73486328125,-0.20458984375,0.64697265625,0.18310546875,-2.197265625,-0.30517578125,-18.5723876953125,48.5870361328125,77.255859375
1758877604.479432,-0.7412109375,-0.205078125,0.63818359375,-1.0986328125,-2.25830078125,-0.3662109375,-18.56689453125,48.5650634765625,77.255859375
1758877604.489878,-0.7412109375,-0.205078125,0.63818359375,-1.0986328125,-2.25830078125,-0.3662109375,-18.5723876953125,48.5430908203125,77.2613525390625
1758877604.4995344,-0.74560546875,-0.21240234375,0.62939453125,-1.64794921875,-2.38037109375,-0.42724609375,-18.5833740234375,48.515625,77.2613525390625
1758877604.5095253,-0.74560546875,-0.21240234375,0.62939453125,-1.64794921875,-2.38037109375,-0.42724609375,-18.5943603515625,48.49365234375,77.266845703125
1758877604.5197978,-0.75146484375,-0.21630859375,0.62060546875,-1.03759765625,-2.5634765625,-0.3662109375,-18.599853515625,48.4661865234375,77.266845703125
1758877604.5295084,-0.75146484375,-0.21630859375,0.62060546875,-1.03759765625,-2.5634765625,-0.3662109375,-18.6053466796875,48.438720703125,77.2723388671875
1758877604.5396242,-0.75244140625,-0.2158203125,0.6142578125,0.18310546875,-2.685546875,-0.48828125,-18.6053466796875,48.416748046875,77.27783203125
1758877604.549789,-0.75244140625,-0.2158203125,0.6142578125,0.18310546875,-2.685546875,-0.48828125,-18.599853515625,48.3892822265625,77.2833251953125
1758877604.5596125,-0.75146484375,-0.20947265625,0.62109375,1.52587890625,-2.685546875,-0.732421875,-18.5888671875,48.36181640625,77.2833251953125
1758877604.5695868,-0.75146484375,-0.20947265625,0.62109375,1.52587890625,-2.685546875,-0.732421875,-18.5723876953125,48.3343505859375,77.2833251953125
1758877604.5795577,-0.74365234375,-0.20556640625,0.63330078125,1.46484375,-2.74658203125,-1.03759765625,-18.555908203125,48.3123779296875,77.27783203125
1758877604.5900364,-0.74365234375,-0.20556640625,0.63330078125,1.46484375,-2.74658203125,-1.03759765625,-18.544921875,48.284912109375,77.2723388671875
1758877604.5996134,-0.7431640625,-0.20361328125,0.6396484375,0.79345703125,-2.9296875,-1.46484375,-18.533935546875,48.251953125,77.266845703125
1758877604.609871,-0.7431640625,-0.20361328125,0.6396484375,0.79345703125,-2.9296875,-1.46484375,-18.533935546875,48.2244873046875,77.255859375
1758877604.6200662,-0.74462890625,-0.203125,0.6337890625,-0.1220703125,-2.86865234375,-1.953125,-18.533935546875,48.1915283203125,77.244873046875
1758877604.6296694,-0.74462890625,-0.203125,0.6337890625,-0.1220703125,-2.86865234375,-1.953125,-18.544921875,48.1585693359375,77.2283935546875
1758877604.6396785,-0.74658203125,-0.20458984375,0.6328125,0.0,-2.50244140625,-2.5634765625,-18.5614013671875,48.1256103515625,77.2064208984375
1758877604.6496654,-0.74658203125,-0.20458984375,0.6328125,0.0,-2.50244140625,-2.5634765625,-18.577880859375,48.09814453125,77.178955078125
1758877604.6600325,-0.7451171875,-0.208984375,0.634765625,0.244140625,-2.13623046875,-3.11279296875,-18.5943603515625,48.0706787109375,77.1514892578125
1758877604.6696858,-0.7451171875,-0.208984375,0.634765625,0.244140625,-2.13623046875,-3.11279296875,-18.6163330078125,48.0377197265625,77.113037109375
1758877604.6796837,-0.7451171875,-0.208984375,0.634765625,0.67138671875,-1.89208984375,-3.41796875,-18.6328125,48.01025390625,77.0745849609375
1758877604.6902757,-0.74169921875,-0.2119140625,0.63330078125,0.67138671875,-1.89208984375,-3.41796875,-18.65478515625,47.9827880859375,77.0306396484375
1758877604.6997368,-0.74072265625,-0.21337890625,0.6357421875,0.54931640625,-1.708984375,-3.41796875,-18.6767578125,47.9608154296875,76.9921875
1758877604.709892,-0.74072265625,-0.21337890625,0.6357421875,0.54931640625,-1.708984375,-3.41796875,-18.69873046875,47.933349609375,76.9482421875
1758877604.7201505,-0.73193359375,-0.22216796875,0.64111328125,0.30517578125,-1.77001953125,-3.0517578125,-18.720703125,47.9058837890625,76.9097900390625
1758877604.7298188,-0.73193359375,-0.22216796875,0.64111328125,0.30517578125,-1.77001953125,-3.0517578125,-18.7371826171875,47.8839111328125,76.8768310546875
1758877604.7400122,-0.72998046875,-0.22607421875,0.6455078125,-0.54931640625,-2.01416015625,-2.3193359375,-18.7591552734375,47.8564453125,76.8438720703125
1758877604.749899,-0.72998046875,-0.22607421875,0.6455078125,-0.54931640625,-2.01416015625,-2.3193359375,-18.7811279296875,47.8289794921875,76.8218994140625
1758877604.7616007,-0.73681640625,-0.22705078125,0.63916015625,-1.52587890625,-2.13623046875,-1.3427734375,-18.8031005859375,47.8070068359375,76.805419921875
1758877604.7701523,-0.73681640625,-0.22705078125,0.63916015625,-1.52587890625,-2.13623046875,-1.3427734375,-18.8250732421875,47.779541015625,76.79443359375
1758877604.7800703,-0.73583984375,-0.22509765625,0.62890625,-1.40380859375,-2.13623046875,-0.42724609375,-18.841552734375,47.757568359375,76.79443359375
1758877604.7902825,-0.73583984375,-0.22509765625,0.62890625,-1.40380859375,-2.13623046875,-0.42724609375,-18.8525390625,47.735595703125,76.79443359375
1758877604.799997,-0.7451171875,-0.24755859375,0.6357421875,-0.244140625,-1.89208984375,0.67138671875,-18.8525390625,47.713623046875,76.805419921875
1758877604.8103778,-0.7451171875,-0.24755859375,0.6357421875,-0.244140625,-1.89208984375,0.67138671875,-18.841552734375,47.70263671875,76.8218994140625
1758877604.8201902,-0.72900390625,-0.23583984375,0.62939453125,2.5634765625,-1.15966796875,1.5869140625,-18.819580078125,47.691650390625,76.8438720703125
1758877604.829922,-0.72900390625,-0.23583984375,0.62939453125,2.5634765625,-1.15966796875,1.5869140625,-18.775634765625,47.6806640625,76.871337890625
1758877604.840002,-0.72412109375,-0.22998046875,0.6650390625,4.45556640625,-0.48828125,2.13623046875,-18.7261962890625,47.6806640625,76.8988037109375
1758877604.8499115,-0.72412109375,-0.22998046875,0.6650390625,4.45556640625,-0.48828125,2.13623046875,-18.6602783203125,47.6806640625,76.92626953125
1758877604.8602896,-0.71533203125,-0.20751953125,0.67041015625,5.18798828125,-0.244140625,2.01416015625,-18.5943603515625,47.6806640625,76.959228515625
1758877604.8700204,-0.71533203125,-0.20751953125,0.67041015625,5.18798828125,-0.244140625,2.01416015625,-18.5284423828125,47.6806640625,76.9866943359375
1758877604.8800511,-0.70458984375,-0.19287109375,0.6533203125,5.67626953125,-0.79345703125,1.28173828125,-18.45703125,47.6806640625,77.0086669921875
1758877604.8905206,-0.70458984375,-0.19287109375,0.6533203125,5.67626953125,-0.79345703125,1.28173828125,-18.3856201171875,47.669677734375,77.025146484375
1758877604.9000218,-0.7099609375,-0.197265625,0.6826171875,6.103515625,-1.46484375,0.732421875,-18.314208984375,47.65869140625,77.047119140625
1758877604.910272,-0.7099609375,-0.197265625,0.6826171875,6.103515625,-1.46484375,0.732421875,-18.2373046875,47.63671875,77.0635986328125
1758877604.9204917,-0.671875,-0.20703125,0.6845703125,7.14111328125,-3.173828125,0.91552734375,-18.1549072265625,47.6092529296875,77.0855712890625
1758877604.930135,-0.671875,-0.20703125,0.6845703125,7.14111328125,-3.173828125,0.91552734375,-18.0615234375,47.5762939453125,77.113037109375
1758877604.940084,-0.71240234375,-0.2412109375,0.70703125,11.29150390625,-4.33349609375,1.64794921875,-17.9461669921875,47.5323486328125,77.1514892578125
1758877604.950138,-0.71240234375,-0.2412109375,0.70703125,11.29150390625,-4.33349609375,1.64794921875,-17.8033447265625,47.48291015625,77.1954345703125
1758877604.9604607,-0.6875,-0.24951171875,0.71142578125,15.0146484375,-4.638671875,2.3193359375,-17.6385498046875,47.4334716796875,77.244873046875
1758877604.970412,-0.6875,-0.24951171875,0.71142578125,15.0146484375,-4.638671875,2.3193359375,-17.4517822265625,47.384033203125,77.2998046875
1758877604.980115,-0.66552734375,-0.22314453125,0.716796875,25.7568359375,-4.150390625,1.8310546875,-17.1661376953125,47.3345947265625,77.3492431640625
1758877604.9908915,-0.66552734375,-0.22314453125,0.716796875,25.7568359375,-4.150390625,1.8310546875,-16.885986328125,47.28515625,77.3931884765625
1758877605.000142,-0.67431640625,-0.19091796875,0.78125,30.1513671875,-3.72314453125,1.40380859375,-16.5618896484375,47.230224609375,77.4371337890625
1758877605.010728,-0.67431640625,-0.19091796875,0.78125,30.1513671875,-3.72314453125,1.40380859375,-16.2432861328125,47.1807861328125,77.4755859375
1758877605.0203228,-0.662109375,-0.1611328125,0.75341796875,32.28759765625,-3.72314453125,1.46484375,-15.897216796875,47.1258544921875,77.5140380859375
1758877605.0307362,-0.662109375,-0.1611328125,0.75341796875,32.28759765625,-3.72314453125,1.46484375,-15.5511474609375,47.0654296875,77.5579833984375
1758877605.0402298,-0.6552734375,-0.19482421875,0.72998046875,34.0576171875,-3.84521484375,2.25830078125,-15.18310546875,47.010498046875,77.607421875
1758877605.0503728,-0.6552734375,-0.19482421875,0.72998046875,34.0576171875,-3.84521484375,2.25830078125,-14.8150634765625,46.95556640625,77.662353515625
1758877605.0611608,-0.65380859375,-0.1923828125,0.7626953125,37.9638671875,-4.150390625,2.25830078125,-14.4085693359375,46.8951416015625,77.7117919921875
1758877605.0708463,-0.65380859375,-0.1923828125,0.7626953125,37.9638671875,-4.150390625,2.25830078125,-14.0020751953125,46.8292236328125,77.7667236328125
1758877605.0802724,-0.67724609375,-0.1787109375,0.74658203125,45.7763671875,-4.57763671875,1.708984375,-13.524169921875,46.7633056640625,77.8106689453125
1758877605.0918372,-0.67724609375,-0.1787109375,0.74658203125,45.7763671875,-4.57763671875,1.708984375,-13.0517578125,46.69189453125,77.860107421875
1758877605.10099,-0.67919921875,-0.16015625,0.7080078125,45.95947265625,-4.2724609375,1.28173828125,-12.5848388671875,46.6259765625,77.8985595703125
1758877605.1102662,-0.67919921875,-0.16015625,0.7080078125,45.95947265625,-4.2724609375,1.28173828125,-12.117919921875,46.56005859375,77.93701171875
1758877605.1202765,-0.66552734375,-0.13134765625,0.7451171875,34.5458984375,-4.45556640625,1.15966796875,-11.766357421875,46.494140625,77.9754638671875
1758877605.1306663,-0.66552734375,-0.13134765625,0.7451171875,34.5458984375,-4.45556640625,1.15966796875,-11.414794921875,46.4227294921875,78.0084228515625
1758877605.140368,-0.70654296875,-0.06201171875,0.728515625,16.845703125,-4.45556640625,1.40380859375,-11.2335205078125,46.3568115234375,78.0523681640625
1758877605.1505866,-0.70654296875,-0.06201171875,0.728515625,16.845703125,-4.45556640625,1.40380859375,-11.0467529296875,46.29638671875,78.0908203125
1758877605.1607904,-0.75634765625,-0.07958984375,0.703125,12.26806640625,-5.67626953125,1.5869140625,-10.9039306640625,46.219482421875,78.1402587890625
1758877605.1703937,-0.75634765625,-0.07958984375,0.703125,12.26806640625,-5.67626953125,1.5869140625,-10.755615234375,46.1480712890625,78.1842041015625
1758877605.1804092,-0.79345703125,-0.15283203125,0.6533203125,15.869140625,-6.591796875,2.8076171875,-10.5633544921875,46.07666015625,78.2501220703125
1758877605.1908648,-0.79345703125,-0.15283203125,0.6533203125,15.869140625,-6.591796875,2.8076171875,-10.3656005859375,46.0052490234375,78.310546875
1758877605.2006917,-0.79736328125,-0.16943359375,0.634765625,15.19775390625,-7.32421875,3.96728515625,-10.17333984375,45.933837890625,78.3929443359375
1758877605.2104352,-0.79736328125,-0.16943359375,0.634765625,15.19775390625,-7.32421875,3.96728515625,-9.9755859375,45.867919921875,78.475341796875
1758877605.2204096,-0.76513671875,-0.1328125,0.59228515625,17.02880859375,-6.7138671875,4.39453125,-9.766845703125,45.81298828125,78.5577392578125
1758877605.230426,-0.76513671875,-0.1328125,0.59228515625,17.02880859375,-6.7138671875,4.39453125,-9.5526123046875,45.758056640625,78.64013671875
1758877605.2404587,-0.7333984375,-0.10205078125,0.54931640625,13.61083984375,-6.16455078125,4.45556640625,-9.3768310546875,45.714111328125,78.7225341796875
1758877605.2512178,-0.7333984375,-0.10205078125,0.54931640625,13.61083984375,-6.16455078125,4.45556640625,-9.2010498046875,45.670166015625,78.7994384765625
1758877605.2609732,-0.73388671875,-0.0966796875,0.61376953125,4.5166015625,-5.79833984375,5.06591796875,-9.1131591796875,45.63720703125,78.892822265625
1758877605.2705157,-0.73388671875,-0.0966796875,0.61376953125,4.5166015625,-5.79833984375,5.06591796875,-9.019775390625,45.5987548828125,78.980712890625
1758877605.2805367,-0.73193359375,-0.1083984375,0.67724609375,0.79345703125,-5.4931640625,6.2255859375,-8.953857421875,45.5712890625,79.0850830078125
1758877605.2908802,-0.73193359375,-0.1083984375,0.67724609375,0.79345703125,-5.4931640625,6.2255859375,-8.887939453125,45.538330078125,79.1839599609375
1758877605.3009417,-0.72314453125,-0.10546875,0.71337890625,-7.080078125,-6.16455078125,7.62939453125,-8.8824462890625,45.50537109375,79.310302734375
1758877605.310537,-0.72314453125,-0.10546875,0.71337890625,-7.080078125,-6.16455078125,7.62939453125,-8.876953125,45.4669189453125,79.4366455078125
1758877605.320564,-0.701171875,-0.08544921875,0.68896484375,-16.78466796875,-6.28662109375,8.72802734375,-8.9593505859375,45.428466796875,79.573974609375
1758877605.3309126,-0.701171875,-0.08544921875,0.68896484375,-16.78466796875,-6.28662109375,8.72802734375,-9.03076171875,45.3900146484375,79.716796875
1758877605.3406606,-0.68798828125,-0.08935546875,0.68896484375,-12.451171875,-5.79833984375,8.1787109375,-9.0692138671875,45.3570556640625,79.8486328125
1758877605.3508167,-0.68798828125,-0.08935546875,0.68896484375,-12.451171875,-5.79833984375,8.1787109375,-9.107666015625,45.318603515625,79.98046875
1758877605.3616235,-0.68896484375,-0.10693359375,0.728515625,-6.16455078125,-4.94384765625,7.568359375,-9.085693359375,45.28564453125,80.101318359375
1758877605.37098,-0.68896484375,-0.10693359375,0.728515625,-6.16455078125,-4.94384765625,7.568359375,-9.063720703125,45.252685546875,80.22216796875
1758877605.3809054,-0.70263671875,-0.099609375,0.75634765625,-6.9580078125,-4.69970703125,7.4462890625,-9.052734375,45.2252197265625,80.343017578125
1758877605.3907106,-0.70263671875,-0.099609375,0.75634765625,-6.9580078125,-4.69970703125,7.4462890625,-9.0362548828125,45.186767578125,80.4638671875
1758877605.402285,-0.6953125,-0.0869140625,0.73095703125,-12.87841796875,-5.0048828125,7.99560546875,-9.0802001953125,45.15380859375,80.5902099609375
1758877605.4106832,-0.6953125,-0.0869140625,0.73095703125,-12.87841796875,-5.0048828125,7.99560546875,-9.1131591796875,45.1153564453125,80.716552734375
1758877605.4209602,-0.6787109375,-0.08642578125,0.7255859375,-17.333984375,-5.67626953125,8.7890625,-9.1900634765625,45.0714111328125,80.859375
1758877605.431009,-0.6787109375,-0.08642578125,0.7255859375,-17.333984375,-5.67626953125,8.7890625,-9.2559814453125,45.0274658203125,81.002197265625
1758877605.4412582,-0.658203125,-0.11083984375,0.728515625,-22.76611328125,-5.79833984375,10.009765625,-9.371337890625,44.9835205078125,81.156005859375
1758877605.4511564,-0.658203125,-0.11083984375,0.728515625,-22.76611328125,-5.79833984375,10.009765625,-9.481201171875,44.93408203125,81.3153076171875
1758877605.4611187,-0.64697265625,-0.10791015625,0.7197265625,-24.4140625,-5.79833984375,11.04736328125,-9.60205078125,44.89013671875,81.4910888671875
1758877605.4713244,-0.64697265625,-0.10791015625,0.7197265625,-24.4140625,-5.79833984375,11.04736328125,-9.7174072265625,44.84619140625,81.661376953125
1758877605.4813144,-0.6513671875,-0.09228515625,0.73388671875,-24.2919921875,-5.18798828125,11.474609375,-9.8272705078125,44.80224609375,81.8426513671875
1758877605.4908578,-0.6513671875,-0.09228515625,0.73388671875,-24.2919921875,-5.18798828125,11.474609375,-9.942626953125,44.7637939453125,82.0184326171875
1758877605.5023603,-0.65771484375,-0.1015625,0.767578125,-22.39990234375,-5.0048828125,12.02392578125,-10.0250244140625,44.725341796875,82.2052001953125
1758877605.510877,-0.65771484375,-0.1015625,0.767578125,-22.39990234375,-5.0048828125,12.02392578125,-10.1129150390625,44.6868896484375,82.3919677734375
1758877605.521312,-0.6416015625,-0.11474609375,0.75,-23.193359375,-4.57763671875,12.8173828125,-10.1953125,44.6484375,82.5897216796875
1758877605.530862,-0.6416015625,-0.11474609375,0.75,-23.193359375,-4.57763671875,12.8173828125,-10.283203125,44.615478515625,82.7874755859375
1758877605.541135,-0.66064453125,-0.09130859375,0.72705078125,-26.91650390625,-4.2724609375,13.61083984375,-10.3985595703125,44.58251953125,82.9962158203125
1758877605.551384,-0.66064453125,-0.09130859375,0.72705078125,-26.91650390625,-4.2724609375,13.61083984375,-10.513916015625,44.549560546875,83.2049560546875
1758877605.5609362,-0.64697265625,-0.0888671875,0.666015625,-26.0009765625,-3.47900390625,13.916015625,-10.61279296875,44.527587890625,83.4136962890625
1758877605.5711246,-0.64697265625,-0.0888671875,0.666015625,-26.0009765625,-3.47900390625,13.916015625,-10.7171630859375,44.505615234375,83.6224365234375
1758877605.5810192,-0.68115234375,-0.130859375,0.66455078125,-26.123046875,-3.0517578125,14.46533203125,-10.8160400390625,44.49462890625,83.836669921875
1758877605.5909808,-0.68115234375,-0.130859375,0.66455078125,-26.123046875,-3.0517578125,14.46533203125,-10.9149169921875,44.483642578125,84.0509033203125
1758877605.601437,-0.73681640625,-0.123046875,0.6796875,-25.390625,-3.23486328125,15.07568359375,-11.0028076171875,44.47265625,84.2706298828125
1758877605.6114542,-0.73681640625,-0.123046875,0.6796875,-25.390625,-3.23486328125,15.07568359375,-11.0906982421875,44.461669921875,84.495849609375
1758877605.6210134,-0.7919921875,-0.0966796875,0.6650390625,-21.728515625,-2.74658203125,15.80810546875,-11.1346435546875,44.4671630859375,84.7265625
1758877605.631419,-0.7919921875,-0.0966796875,0.6650390625,-21.728515625,-2.74658203125,15.80810546875,-11.18408203125,44.47265625,84.957275390625
1758877605.6410902,-0.80029296875,-0.11328125,0.587890625,-29.84619140625,-3.35693359375,16.05224609375,-11.304931640625,44.4781494140625,85.1934814453125
1758877605.651053,-0.80029296875,-0.11328125,0.587890625,-29.84619140625,-3.35693359375,16.05224609375,-11.42578125,44.483642578125,85.4296875
1758877605.6613417,-0.81640625,-0.0703125,0.58740234375,-41.07666015625,-3.173828125,17.02880859375,-11.6510009765625,44.505615234375,85.6768798828125
1758877605.6714022,-0.81640625,-0.0703125,0.58740234375,-41.07666015625,-3.173828125,17.02880859375,-11.876220703125,44.527587890625,85.924072265625
1758877605.6810818,-0.8271484375,-0.08447265625,0.6015625,-55.11474609375,-3.90625,17.7001953125,-12.227783203125,44.549560546875,86.1822509765625
1758877605.6910777,-0.8271484375,-0.08447265625,0.6015625,-55.11474609375,-3.90625,17.7001953125,-12.579345703125,44.571533203125,86.4404296875
1758877605.7010982,-0.82373046875,-0.1171875,0.6220703125,-71.22802734375,-5.126953125,18.61572265625,-13.0792236328125,44.593505859375,86.715087890625
1758877605.7115169,-0.82373046875,-0.1171875,0.6220703125,-71.22802734375,-5.126953125,18.61572265625,-13.5736083984375,44.615478515625,86.9842529296875
1758877605.7210968,-0.802734375,-0.14892578125,0.59765625,-69.580078125,-5.67626953125,18.6767578125,-14.051513671875,44.637451171875,87.264404296875
1758877605.731152,-0.802734375,-0.14892578125,0.59765625,-69.580078125,-5.67626953125,18.6767578125,-14.52392578125,44.659423828125,87.5445556640625
1758877605.7415156,-0.78271484375,-0.1904296875,0.5634765625,-62.43896484375,-5.92041015625,18.4326171875,-14.9359130859375,44.6868896484375,87.8192138671875
1758877605.751244,-0.78271484375,-0.1904296875,0.5634765625,-62.43896484375,-5.92041015625,18.4326171875,-15.347900390625,44.71435546875,88.099365234375
1758877605.7611856,-0.75537109375,-0.2177734375,0.61767578125,-55.7861328125,-5.55419921875,18.4326171875,-15.6939697265625,44.7418212890625,88.3795166015625
1758877605.7713382,-0.75537109375,-0.2177734375,0.61767578125,-55.7861328125,-5.55419921875,18.4326171875,-16.0455322265625,44.7747802734375,88.6651611328125
1758877605.7816546,-0.73193359375,-0.244140625,0.6484375,-52.42919921875,-4.57763671875,19.04296875,-16.358642578125,44.8187255859375,88.9508056640625
1758877605.7914605,-0.73193359375,-0.244140625,0.6484375,-52.42919921875,-4.57763671875,19.04296875,-16.67724609375,44.857177734375,89.241943359375
1758877605.8012671,-0.68603515625,-0.23974609375,0.68212890625,-49.98779296875,-3.84521484375,19.04296875,-16.973876953125,44.901123046875,89.5330810546875
1758877605.8121924,-0.68603515625,-0.23974609375,0.68212890625,-49.98779296875,-3.84521484375,19.04296875,-17.2705078125,44.945068359375,89.8187255859375
1758877605.8212507,-0.65673828125,-0.23583984375,0.72802734375,-48.4619140625,-3.0517578125,19.22607421875,-17.5506591796875,44.9945068359375,90.10986328125
1758877605.831517,-0.65673828125,-0.23583984375,0.72802734375,-48.4619140625,-3.0517578125,19.22607421875,-17.830810546875,45.032958984375,90.3955078125
1758877605.841937,-0.6474609375,-0.20703125,0.76904296875,-48.095703125,-2.5634765625,19.95849609375,-18.10546875,45.0823974609375,90.692138671875
1758877605.8518605,-0.6474609375,-0.20703125,0.76904296875,-48.095703125,-2.5634765625,19.95849609375,-18.369140625,45.1263427734375,90.98876953125
1758877605.8617096,-0.6240234375,-0.19091796875,0.78662109375,-50.78125,-2.3193359375,20.56884765625,-18.65478515625,45.164794921875,91.2908935546875
1758877605.872211,-0.6240234375,-0.19091796875,0.78662109375,-50.78125,-2.3193359375,20.56884765625,-18.9404296875,45.2032470703125,91.593017578125
1758877605.8813853,-0.60498046875,-0.1884765625,0.78955078125,-62.01171875,-2.197265625,21.05712890625,-19.324951171875,45.2471923828125,91.900634765625
1758877605.8916464,-0.60498046875,-0.1884765625,0.78955078125,-62.01171875,-2.197265625,21.05712890625,-19.70947265625,45.2801513671875,92.2027587890625
1758877605.9016948,-0.58642578125,-0.1826171875,0.7939453125,-67.07763671875,-2.62451171875,21.42333984375,-20.137939453125,45.3131103515625,92.515869140625
1758877605.9125404,-0.58642578125,-0.1826171875,0.7939453125,-67.07763671875,-2.62451171875,21.42333984375,-20.555419921875,45.340576171875,92.8289794921875
1758877605.921377,-0.5849609375,-0.197265625,0.77587890625,-64.3310546875,-2.74658203125,21.66748046875,-20.9454345703125,45.362548828125,93.14208984375
1758877605.9321008,-0.5849609375,-0.197265625,0.77587890625,-64.3310546875,-2.74658203125,21.66748046875,-21.3299560546875,45.3900146484375,93.4552001953125
1758877605.9414914,-0.60107421875,-0.25048828125,0.767578125,-62.19482421875,-3.41796875,21.3623046875,-21.697998046875,45.406494140625,93.768310546875
1758877605.9521165,-0.60107421875,-0.25048828125,0.767578125,-62.19482421875,-3.41796875,21.3623046875,-22.060546875,45.41748046875,94.0869140625
1758877605.961755,-0.58447265625,-0.28173828125,0.78125,-61.4013671875,-4.39453125,20.69091796875,-22.4176025390625,45.4229736328125,94.39453125
1758877605.9731922,-0.56982421875,-0.26220703125,0.6796875,-55.908203125,-3.5400390625,19.775390625,-22.7581787109375,45.4229736328125,94.6966552734375
1758877605.9818914,-0.56982421875,-0.26220703125,0.6796875,-55.908203125,-3.5400390625,19.775390625,-23.0767822265625,45.4339599609375,94.9932861328125
1758877605.991503,-0.56494140625,-0.23779296875,0.63916015625,-43.88427734375,-2.0751953125,18.4326171875,-23.3404541015625,45.4449462890625,95.2734375
1758877606.001664,-0.56494140625,-0.23779296875,0.63916015625,-43.88427734375,-2.0751953125,18.4326171875,-23.5601806640625,45.4559326171875,95.537109375
1758877606.0118968,-0.54833984375,-0.21923828125,0.63623046875,-35.94970703125,-0.54931640625,16.66259765625,-23.7469482421875,45.4779052734375,95.789794921875
1758877606.0215137,-0.54833984375,-0.21923828125,0.63623046875,-35.94970703125,-0.54931640625,16.66259765625,-23.9117431640625,45.50537109375,96.0260009765625
1758877606.0321174,-0.59130859375,-0.2685546875,0.689453125,-27.9541015625,0.1220703125,15.0146484375,-24.0435791015625,45.52734375,96.251220703125
1758877606.0416877,-0.59130859375,-0.2685546875,0.689453125,-27.9541015625,0.1220703125,15.0146484375,-24.1424560546875,45.54931640625,96.4654541015625
1758877606.0516312,-0.66650390625,-0.28857421875,0.71337890625,-11.1083984375,0.732421875,13.36669921875,-24.169921875,45.5767822265625,96.6632080078125
1758877606.0616543,-0.66650390625,-0.28857421875,0.71337890625,-11.1083984375,0.732421875,13.36669921875,-24.1259765625,45.5987548828125,96.8499755859375
1758877606.0722463,-0.7080078125,-0.3125,0.6953125,3.90625,0.42724609375,10.31494140625,-24.0216064453125,45.615234375,97.0257568359375
1758877606.0816891,-0.7080078125,-0.3125,0.6953125,3.90625,0.42724609375,10.31494140625,-23.8568115234375,45.626220703125,97.1795654296875
1758877606.0917156,-0.64794921875,-0.2802734375,0.63720703125,-5.0048828125,0.30517578125,7.9345703125,-23.7579345703125,45.63720703125,97.31689453125
1758877606.101942,-0.64794921875,-0.2802734375,0.63720703125,-5.0048828125,0.30517578125,7.9345703125,-23.70849609375,45.63720703125,97.4432373046875
1758877606.1117773,-0.6484375,-0.2158203125,0.5078125,-2.86865234375,1.89208984375,6.77490234375,-23.66455078125,45.648193359375,97.55859375
1758877606.1216927,-0.6484375,-0.2158203125,0.5078125,-2.86865234375,1.89208984375,6.77490234375,-23.62060546875,45.670166015625,97.6629638671875
1758877606.1317866,-0.68017578125,-0.2587890625,0.4755859375,7.080078125,3.84521484375,4.5166015625,-23.543701171875,45.6976318359375,97.7508544921875
1758877606.1421113,-0.68017578125,-0.2587890625,0.4755859375,7.080078125,3.84521484375,4.5166015625,-23.433837890625,45.736083984375,97.8167724609375
1758877606.1517026,-0.974609375,-0.2734375,0.78369140625,-18.06640625,1.0986328125,3.47900390625,-23.4503173828125,45.76904296875,97.88818359375
1758877606.1617646,-0.974609375,-0.2734375,0.78369140625,-18.06640625,1.0986328125,3.47900390625,-23.5931396484375,45.7855224609375,97.9595947265625
1758877606.172331,-1.2294921875,-0.20361328125,0.90185546875,-29.60205078125,-3.60107421875,4.45556640625,-23.7744140625,45.7855224609375,98.052978515625
1758877606.1818078,-1.2294921875,-0.20361328125,0.90185546875,-29.60205078125,-3.60107421875,4.45556640625,-23.9886474609375,45.780029296875,98.162841796875
1758877606.191901,-0.9921875,-0.4443359375,0.73095703125,-5.55419921875,-9.94873046875,-0.244140625,-24.093017578125,45.736083984375,98.2672119140625
1758877606.202149,-0.9921875,-0.4443359375,0.73095703125,-5.55419921875,-9.94873046875,-0.244140625,-24.093017578125,45.6536865234375,98.3551025390625
1758877606.211883,-0.7744140625,-0.39111328125,0.4091796875,7.62939453125,-10.009765625,0.8544921875,-24.027099609375,45.582275390625,98.45947265625
1758877606.2218962,-0.7744140625,-0.39111328125,0.4091796875,7.62939453125,-10.009765625,0.8544921875,-23.90625,45.5108642578125,98.5693359375
1758877606.2321122,-0.73974609375,-0.251953125,0.2265625,29.35791015625,-6.89697265625,-0.6103515625,-23.697509765625,45.4559326171875,98.668212890625
1758877606.2422214,-0.73974609375,-0.251953125,0.2265625,29.35791015625,-6.89697265625,-0.6103515625,-23.40087890625,45.4229736328125,98.756103515625
1758877606.2518513,-0.740234375,-0.2890625,0.3935546875,47.42431640625,-2.99072265625,-2.685546875,-23.038330078125,45.406494140625,98.8165283203125
1758877606.2625778,-0.740234375,-0.2890625,0.3935546875,47.42431640625,-2.99072265625,-2.685546875,-22.6153564453125,45.406494140625,98.8604736328125
1758877606.2723446,-0.75390625,-0.33251953125,0.5361328125,45.654296875,-0.48828125,-3.23486328125,-22.2088623046875,45.41748046875,98.89892578125
1758877606.2821407,-0.75390625,-0.33251953125,0.5361328125,45.654296875,-0.48828125,-3.23486328125,-21.829833984375,45.439453125,98.9263916015625
1758877606.2919877,-0.81689453125,-0.3115234375,0.6787109375,42.48046875,0.48828125,-4.150390625,-21.4727783203125,45.46142578125,98.94287109375
1758877606.3030567,-0.81689453125,-0.3115234375,0.6787109375,42.48046875,0.48828125,-4.150390625,-21.1322021484375,45.4833984375,98.9483642578125
1758877606.311999,-0.8388671875,-0.25634765625,0.63330078125,38.57421875,0.06103515625,-4.7607421875,-20.8135986328125,45.4998779296875,98.9483642578125
1758877606.3222618,-0.8388671875,-0.25634765625,0.63330078125,38.57421875,0.06103515625,-4.7607421875,-20.5169677734375,45.516357421875,98.9483642578125
1758877606.3322988,-0.82861328125,-0.193359375,0.568359375,25.87890625,-1.40380859375,-4.2724609375,-20.28076171875,45.52734375,98.9483642578125
1758877606.3423777,-0.82861328125,-0.193359375,0.568359375,25.87890625,-1.40380859375,-4.2724609375,-20.093994140625,45.5328369140625,98.9593505859375
1758877606.3519628,-0.7978515625,-0.2294921875,0.5634765625,18.310546875,-0.67138671875,-3.662109375,-19.9456787109375,45.5438232421875,98.975830078125
1758877606.363213,-0.7978515625,-0.2294921875,0.5634765625,18.310546875,-0.67138671875,-3.662109375,-19.830322265625,45.560302734375,98.9923095703125
1758877606.3720462,-0.75537109375,-0.28466796875,0.548828125,16.845703125,-0.3662109375,-3.41796875,-19.720458984375,45.5767822265625,99.0032958984375
1758877606.3825378,-0.75537109375,-0.28466796875,0.548828125,16.845703125,-0.3662109375,-3.41796875,-19.6160888671875,45.5987548828125,99.019775390625
1758877606.3921425,-0.7236328125,-0.275390625,0.5771484375,23.681640625,1.15966796875,-3.72314453125,-19.48974609375,45.6207275390625,99.03076171875
1758877606.4032445,-0.7236328125,-0.275390625,0.5771484375,23.681640625,1.15966796875,-3.72314453125,-19.3304443359375,45.6536865234375,99.0362548828125
1758877606.4121003,-0.71484375,-0.23095703125,0.6220703125,29.4189453125,2.0751953125,-4.638671875,-19.149169921875,45.6866455078125,99.03076171875
1758877606.4227982,-0.71484375,-0.23095703125,0.6220703125,29.4189453125,2.0751953125,-4.638671875,-18.9459228515625,45.714111328125,99.0142822265625
1758877606.432138,-0.69677734375,-0.22607421875,0.68505859375,36.43798828125,2.685546875,-5.4931640625,-18.7042236328125,45.7470703125,98.98681640625
1758877606.4427502,-0.69677734375,-0.22607421875,0.68505859375,36.43798828125,2.685546875,-5.4931640625,-18.43505859375,45.780029296875,98.953857421875
1758877606.4527993,-0.65478515625,-0.22607421875,0.70068359375,41.015625,2.62451171875,-5.615234375,-18.1439208984375,45.802001953125,98.9154052734375
1758877606.463382,-0.65478515625,-0.22607421875,0.70068359375,41.015625,2.62451171875,-5.615234375,-17.8253173828125,45.823974609375,98.8714599609375
1758877606.4725394,-0.607421875,-0.2236328125,0.7255859375,49.1943359375,3.11279296875,-6.103515625,-17.46826171875,45.845947265625,98.822021484375
1758877606.4822314,-0.607421875,-0.2236328125,0.7255859375,49.1943359375,3.11279296875,-6.103515625,-17.0672607421875,45.8624267578125,98.7615966796875
1758877606.4930873,-0.57958984375,-0.20654296875,0.79345703125,59.02099609375,3.11279296875,-7.4462890625,-16.6278076171875,45.867919921875,98.6956787109375
1758877606.502242,-0.57958984375,-0.20654296875,0.79345703125,59.02099609375,3.11279296875,-7.4462890625,-16.1444091796875,45.8734130859375,98.61328125
1758877606.512579,-0.56298828125,-0.1689453125,0.84521484375,63.29345703125,3.7841796875,-8.97216796875,-15.64453125,45.8734130859375,98.514404296875
1758877606.5225203,-0.56298828125,-0.1689453125,0.84521484375,63.29345703125,3.7841796875,-8.97216796875,-15.1336669921875,45.867919921875,98.404541015625
1758877606.5323164,-0.54443359375,-0.16162109375,0.826171875,55.96923828125,3.2958984375,-10.31494140625,-14.65576171875,45.8514404296875,98.28369140625
1758877606.542205,-0.54443359375,-0.16162109375,0.826171875,55.96923828125,3.2958984375,-10.31494140625,-14.2218017578125,45.8294677734375,98.15185546875
1758877606.5522883,-0.5322265625,-0.17333984375,0.826171875,44.98291015625,2.197265625,-10.92529296875,-13.8482666015625,45.7965087890625,98.02001953125
1758877606.5631263,-0.5322265625,-0.17333984375,0.826171875,44.98291015625,2.197265625,-10.92529296875,-13.524169921875,45.7525634765625,97.877197265625
1758877606.5729406,-0.5859375,-0.1640625,0.83642578125,30.8837890625,1.03759765625,-11.8408203125,-13.271484375,45.6976318359375,97.734375
1758877606.582234,-0.5859375,-0.1640625,0.83642578125,30.8837890625,1.03759765625,-11.8408203125,-13.095703125,45.63720703125,97.5860595703125
1758877606.592368,-0.6728515625,-0.11962890625,0.75537109375,19.95849609375,0.30517578125,-11.71875,-12.9693603515625,45.5712890625,97.437744140625
1758877606.6074655,-0.6728515625,-0.11962890625,0.75537109375,19.95849609375,0.30517578125,-11.71875,-12.8924560546875,45.5108642578125,97.2894287109375
1758877606.6139796,-0.79833984375,-0.080078125,0.759765625,10.19287109375,-1.89208984375,-12.26806640625,-12.8594970703125,45.4339599609375,97.1466064453125
1758877606.6223044,-0.79833984375,-0.080078125,0.759765625,10.19287109375,-1.89208984375,-12.26806640625,-12.8704833984375,45.3570556640625,96.998291015625
1758877606.6387296,-0.76513671875,-0.1005859375,0.65283203125,3.41796875,-2.13623046875,-11.3525390625,-12.908935546875,45.2801513671875,96.8609619140625
1758877606.645574,-0.76513671875,-0.1005859375,0.65283203125,3.41796875,-2.13623046875,-11.3525390625,-12.974853515625,45.208740234375,96.7291259765625
1758877606.6529067,-0.76513671875,-0.1005859375,0.65283203125,7.080078125,-2.01416015625,-11.04736328125,-13.018798828125,45.1483154296875,96.5972900390625
1758877606.662432,-0.68798828125,-0.23046875,0.5771484375,7.080078125,-2.01416015625,-11.04736328125,-13.0517578125,45.087890625,96.470947265625
1758877606.672798,-0.66943359375,-0.2880859375,0.517578125,12.14599609375,0.06103515625,-10.009765625,-13.0572509765625,45.0439453125,96.35009765625
1758877606.6854734,-0.66943359375,-0.2880859375,0.517578125,12.14599609375,0.06103515625,-10.009765625,-13.0462646484375,45.010986328125,96.2347412109375
1758877606.6925788,-0.7080078125,-0.26171875,0.54248046875,28.74755859375,2.13623046875,-9.82666015625,-12.9583740234375,44.9945068359375,96.119384765625
1758877606.7024238,-0.7080078125,-0.26171875,0.54248046875,28.74755859375,2.13623046875,-9.82666015625,-12.7935791015625,44.9945068359375,96.009521484375
1758877606.716086,-0.72607421875,-0.22216796875,0.6875,39.85595703125,3.23486328125,-9.58251953125,-12.579345703125,45.0,95.8941650390625
1758877606.7244844,-0.72607421875,-0.22216796875,0.6875,39.85595703125,3.23486328125,-9.58251953125,-12.3101806640625,45.0054931640625,95.7843017578125
1758877606.732625,-0.72509765625,-0.18017578125,0.689453125,38.4521484375,3.96728515625,-9.765625,-12.052001953125,45.02197265625,95.6689453125
1758877606.74273,-0.72509765625,-0.18017578125,0.689453125,38.4521484375,3.96728515625,-9.765625,-11.8048095703125,45.0439453125,95.548095703125
1758877606.7532399,-0.70263671875,-0.12255859375,0.65087890625,35.5224609375,4.5166015625,-9.033203125,-11.568603515625,45.06591796875,95.4327392578125
1758877606.7627301,-0.70263671875,-0.12255859375,0.65087890625,35.5224609375,4.5166015625,-9.033203125,-11.337890625,45.0933837890625,95.3173828125
1758877606.772717,-0.7041015625,-0.1220703125,0.744140625,35.7666015625,4.94384765625,-8.36181640625,-11.1016845703125,45.120849609375,95.20751953125
1758877606.7836854,-0.7041015625,-0.1220703125,0.744140625,35.7666015625,4.94384765625,-8.36181640625,-10.8599853515625,45.15380859375,95.1031494140625
1758877606.7928963,-0.705078125,-0.12744140625,0.759765625,28.50341796875,5.55419921875,-7.38525390625,-10.6512451171875,45.1922607421875,94.998779296875
1758877606.8033466,-0.705078125,-0.12744140625,0.759765625,28.50341796875,5.55419921875,-7.38525390625,-10.469970703125,45.2252197265625,94.89990234375
1758877606.8128545,-0.67529296875,-0.0859375,0.73779296875,16.9677734375,5.06591796875,-7.4462890625,-10.3436279296875,45.263671875,94.801025390625
1758877606.8241026,-0.67529296875,-0.0859375,0.73779296875,16.9677734375,5.06591796875,-7.4462890625,-10.272216796875,45.2911376953125,94.7021484375
1758877606.8327763,-0.63916015625,-0.04736328125,0.7109375,-5.55419921875,5.615234375,-6.34765625,-10.2996826171875,45.3240966796875,94.6087646484375
1758877606.8438454,-0.63916015625,-0.04736328125,0.7109375,-5.55419921875,5.615234375,-6.34765625,-10.43701171875,45.362548828125,94.5208740234375
1758877606.8528948,-0.6240234375,-0.03125,0.70263671875,-21.05712890625,6.4697265625,-5.126953125,-10.634765625,45.4010009765625,94.4384765625
1758877606.8647914,-0.6240234375,-0.03125,0.70263671875,-21.05712890625,6.4697265625,-5.126953125,-10.9039306640625,45.4449462890625,94.3560791015625
1758877606.8734095,-0.578125,-0.0947265625,0.65380859375,-27.4658203125,8.056640625,-4.2724609375,-11.195068359375,45.494384765625,94.2791748046875
1758877606.8845048,-0.578125,-0.0947265625,0.65380859375,-27.4658203125,8.056640625,-4.2724609375,-11.513671875,45.54931640625,94.207763671875
1758877606.8929172,-0.638671875,-0.16015625,0.66259765625,-20.99609375,8.72802734375,-4.21142578125,-11.79931640625,45.6097412109375,94.130859375
1758877606.9035192,-0.638671875,-0.16015625,0.66259765625,-20.99609375,8.72802734375,-4.21142578125,-12.052001953125,45.670166015625,94.053955078125
1758877606.914068,-0.638671875,-0.16015625,0.66259765625,-13.24462890625,9.521484375,-4.82177734375,-12.2772216796875,45.7305908203125,93.9715576171875
1758877606.923268,-0.6484375,-0.19921875,0.72412109375,-13.24462890625,9.521484375,-4.82177734375,-12.4639892578125,45.7965087890625,93.8836669921875
1758877606.9328723,-0.751953125,-0.1865234375,0.8369140625,-11.04736328125,7.9345703125,-4.2724609375,-12.6397705078125,45.8514404296875,93.80126953125
1758877606.9438105,-0.751953125,-0.1865234375,0.8369140625,-11.04736328125,7.9345703125,-4.2724609375,-12.8045654296875,45.90087890625,93.724365234375
1758877606.9533315,-1.25,-0.041015625,1.14501953125,-21.1181640625,1.3427734375,-3.84521484375,-13.0023193359375,45.9173583984375,93.658447265625
1758877606.9633021,-1.25,-0.041015625,1.14501953125,-21.1181640625,1.3427734375,-3.84521484375,-13.2330322265625,45.9063720703125,93.603515625
1758877606.9729602,-0.97705078125,-0.08837890625,0.8564453125,-35.5224609375,-4.57763671875,-0.8544921875,-13.5076904296875,45.8734130859375,93.5760498046875
1758877606.9842029,-0.97705078125,-0.08837890625,0.8564453125,-35.5224609375,-4.57763671875,-0.8544921875,-13.8262939453125,45.8184814453125,93.58154296875
1758877606.9929883,-0.78466796875,-0.18212890625,0.39990234375,-44.86083984375,-5.0048828125,2.5634765625,-14.2108154296875,45.7745361328125,93.636474609375
1758877607.0037286,-0.78466796875,-0.18212890625,0.39990234375,-44.86083984375,-5.0048828125,2.5634765625,-14.58984375,45.7415771484375,93.69140625
1758877607.0135796,-0.7197265625,-0.15966796875,0.34033203125,-34.5458984375,-3.90625,1.03759765625,-14.8919677734375,45.7196044921875,93.724365234375
1758877607.0243545,-0.7197265625,-0.15966796875,0.34033203125,-34.5458984375,-3.90625,1.03759765625,-15.194091796875,45.7086181640625,93.7518310546875
1758877607.0330513,-0.70361328125,-0.1845703125,0.4501953125,-7.75146484375,0.79345703125,-0.1220703125,-15.260009765625,45.736083984375,93.7518310546875
1758877607.0435853,-0.70361328125,-0.1845703125,0.4501953125,-7.75146484375,0.79345703125,-0.1220703125,-15.325927734375,45.7745361328125,93.7518310546875
1758877607.0541723,-0.69580078125,-0.2626953125,0.56640625,-1.953125,3.47900390625,-1.3427734375,-15.3643798828125,45.8294677734375,93.7298583984375
1758877607.0640776,-0.69580078125,-0.2626953125,0.56640625,-1.953125,3.47900390625,-1.3427734375,-15.40283203125,45.8843994140625,93.7078857421875
1758877607.0730271,-0.6611328125,-0.24365234375,0.6884765625,-11.23046875,5.55419921875,-1.5869140625,-15.5511474609375,45.955810546875,93.66943359375
1758877607.0835776,-0.6611328125,-0.24365234375,0.6884765625,-11.23046875,5.55419921875,-1.5869140625,-15.6939697265625,46.021728515625,93.636474609375
1758877607.0939615,-0.65673828125,-0.1767578125,0.693359375,1.708984375,5.55419921875,-2.25830078125,-15.7159423828125,46.0821533203125,93.592529296875
1758877607.103766,-0.65673828125,-0.1767578125,0.693359375,1.708984375,5.55419921875,-2.25830078125,-15.7379150390625,46.142578125,93.548583984375
1758877607.1132894,-0.66162109375,-0.18505859375,0.705078125,28.01513671875,4.94384765625,-2.44140625,-15.501708984375,46.1865234375,93.4991455078125
1758877607.1248052,-0.66162109375,-0.18505859375,0.705078125,28.01513671875,4.94384765625,-2.44140625,-15.260009765625,46.23046875,93.4552001953125
1758877607.1332483,-0.6767578125,-0.24169921875,0.70654296875,41.80908203125,4.5166015625,-3.23486328125,-14.8919677734375,46.2689208984375,93.394775390625
1758877607.1436906,-0.6767578125,-0.24169921875,0.70654296875,41.80908203125,4.5166015625,-3.23486328125,-14.5294189453125,46.29638671875,93.33984375
1758877607.1539576,-0.69677734375,-0.23681640625,0.69482421875,36.31591796875,4.2724609375,-4.2724609375,-14.2327880859375,46.3238525390625,93.27392578125
1758877607.1636121,-0.69677734375,-0.23681640625,0.69482421875,36.31591796875,4.2724609375,-4.2724609375,-13.941650390625,46.351318359375,93.2025146484375
1758877607.1732924,-0.69384765625,-0.14306640625,0.6904296875,30.6396484375,4.21142578125,-5.615234375,-13.7164306640625,46.373291015625,93.1146240234375
1758877607.185103,-0.69384765625,-0.14306640625,0.6904296875,30.6396484375,4.21142578125,-5.615234375,-13.4912109375,46.3897705078125,93.0322265625
1758877607.1933296,-0.6611328125,-0.0927734375,0.6240234375,14.2822265625,4.57763671875,-6.103515625,-13.436279296875,46.417236328125,92.933349609375
1758877607.2038834,-0.6611328125,-0.0927734375,0.6240234375,14.2822265625,4.57763671875,-6.103515625,-13.370361328125,46.439208984375,92.8399658203125
1758877607.213968,-0.638671875,-0.072265625,0.54296875,-6.591796875,4.2724609375,-5.9814453125,-13.51318359375,46.461181640625,92.74658203125
1758877607.223794,-0.638671875,-0.072265625,0.54296875,-6.591796875,4.2724609375,-5.9814453125,-13.6505126953125,46.4886474609375,92.647705078125
1758877607.233272,-0.6875,-0.12939453125,0.6123046875,-15.07568359375,4.5166015625,-5.43212890625,-13.86474609375,46.51611328125,92.559814453125
1758877607.2450082,-0.6875,-0.12939453125,0.6123046875,-15.07568359375,4.5166015625,-5.43212890625,-14.0789794921875,46.5435791015625,92.471923828125
1758877607.253284,-0.7919921875,-0.21923828125,0.69189453125,-11.23046875,3.7841796875,-5.92041015625,-14.26025390625,46.5655517578125,92.3785400390625
1758877607.263687,-0.7919921875,-0.21923828125,0.69189453125,-11.23046875,3.7841796875,-5.92041015625,-14.43603515625,46.5875244140625,92.28515625
1758877607.2741928,-0.84716796875,-0.25048828125,0.71630859375,2.8076171875,1.40380859375,-6.77490234375,-14.4854736328125,46.5875244140625,92.1917724609375
1758877607.2839746,-0.84716796875,-0.25048828125,0.71630859375,2.8076171875,1.40380859375,-6.77490234375,-14.5294189453125,46.5875244140625,92.0928955078125
1758877607.2933881,-0.802734375,-0.205078125,0.64453125,21.728515625,-0.1220703125,-7.4462890625,-14.3975830078125,46.571044921875,91.9940185546875
1758877607.3040192,-0.802734375,-0.205078125,0.64453125,21.728515625,-0.1220703125,-7.4462890625,-14.26025390625,46.5545654296875,91.8951416015625
1758877607.3141403,-0.73486328125,-0.16943359375,0.541015625,28.99169921875,-0.244140625,-7.6904296875,-14.0625,46.5435791015625,91.790771484375
1758877607.3237436,-0.73486328125,-0.16943359375,0.541015625,28.99169921875,-0.244140625,-7.6904296875,-13.8592529296875,46.5325927734375,91.69189453125
1758877607.3334217,-0.759765625,-0.1884765625,0.529296875,23.25439453125,-0.42724609375,-8.30078125,-13.7274169921875,46.5216064453125,91.58203125
1758877607.3440754,-0.759765625,-0.1884765625,0.529296875,23.25439453125,-0.42724609375,-8.30078125,-13.5955810546875,46.5106201171875,91.47216796875
1758877607.3541248,-0.92236328125,-0.16162109375,0.6845703125,6.40869140625,-2.01416015625,-8.72802734375,-13.6285400390625,46.494140625,91.3623046875
1758877607.363749,-0.92236328125,-0.16162109375,0.6845703125,6.40869140625,-2.01416015625,-8.72802734375,-13.6614990234375,46.47216796875,91.2469482421875
1758877607.373507,-0.93359375,-0.06103515625,0.68408203125,-14.2822265625,-3.60107421875,-7.8125,-13.8812255859375,46.439208984375,91.153564453125
1758877607.384377,-0.93359375,-0.06103515625,0.68408203125,-14.2822265625,-3.60107421875,-7.8125,-14.095458984375,46.4117431640625,91.0601806640625
1758877607.3936596,-0.8525390625,-0.11083984375,0.4970703125,-24.7802734375,-4.0283203125,-7.6904296875,-14.4085693359375,46.38427734375,90.966796875
1758877607.4039328,-0.8525390625,-0.11083984375,0.4970703125,-24.7802734375,-4.0283203125,-7.6904296875,-14.7161865234375,46.3623046875,90.8734130859375
1758877607.4139585,-0.80517578125,-0.20654296875,0.44482421875,-18.4326171875,-3.662109375,-9.09423828125,-14.9798583984375,46.34033203125,90.758056640625
1758877607.4244647,-0.80517578125,-0.20654296875,0.44482421875,-18.4326171875,-3.662109375,-9.09423828125,-15.2490234375,46.3238525390625,90.648193359375
1758877607.4335856,-0.80908203125,-0.25927734375,0.4765625,2.685546875,-3.23486328125,-12.20703125,-15.3424072265625,46.307373046875,90.494384765625
1758877607.443743,-0.80908203125,-0.25927734375,0.4765625,2.685546875,-3.23486328125,-12.20703125,-15.435791015625,46.2908935546875,90.340576171875
1758877607.4539328,-0.80615234375,-0.2353515625,0.5751953125,17.822265625,-3.23486328125,-14.70947265625,-15.413818359375,46.263427734375,90.15380859375
1758877607.466835,-0.80615234375,-0.2353515625,0.5751953125,17.822265625,-3.23486328125,-14.70947265625,-15.391845703125,46.241455078125,89.9615478515625
1758877607.4761846,-0.78369140625,-0.15966796875,0.603515625,21.91162109375,-3.47900390625,-16.11328125,-15.3424072265625,46.20849609375,89.75830078125
1758877607.4838958,-0.78369140625,-0.15966796875,0.603515625,21.91162109375,-3.47900390625,-16.11328125,-15.2874755859375,46.175537109375,89.549560546875
1758877607.4937367,-0.76171875,-0.13330078125,0.6123046875,14.892578125,-4.39453125,-16.41845703125,-15.303955078125,46.131591796875,89.3353271484375
1758877607.504887,-0.76171875,-0.13330078125,0.6123046875,14.892578125,-4.39453125,-16.41845703125,-15.31494140625,46.087646484375,89.1265869140625
1758877607.5136828,-0.748046875,-0.15234375,0.63525390625,5.4931640625,-5.18798828125,-16.2353515625,-15.413818359375,46.03271484375,88.9178466796875
1758877607.5239613,-0.748046875,-0.15234375,0.63525390625,5.4931640625,-5.18798828125,-16.2353515625,-15.5126953125,45.977783203125,88.7091064453125
1758877607.5345476,-0.75,-0.20849609375,0.6103515625,2.74658203125,-5.67626953125,-15.44189453125,-15.62255859375,45.9173583984375,88.5113525390625
1758877607.5438747,-0.75,-0.20849609375,0.6103515625,2.74658203125,-5.67626953125,-15.44189453125,-15.7379150390625,45.85693359375,88.319091796875
1758877607.5537581,-0.75390625,-0.2353515625,0.6142578125,5.37109375,-6.40869140625,-15.0146484375,-15.8203125,45.7855224609375,88.13232421875
1758877607.5645442,-0.75390625,-0.2353515625,0.6142578125,5.37109375,-6.40869140625,-15.0146484375,-15.908203125,45.7196044921875,87.945556640625
1758877607.574214,-0.732421875,-0.23388671875,0.63720703125,12.26806640625,-6.40869140625,-14.404296875,-15.919189453125,45.648193359375,87.769775390625
1758877607.583978,-0.732421875,-0.23388671875,0.63720703125,12.26806640625,-6.40869140625,-14.404296875,-15.93017578125,45.5767822265625,87.5885009765625
1758877607.5939267,-0.71826171875,-0.21630859375,0.658203125,16.54052734375,-6.103515625,-13.85498046875,-15.897216796875,45.50537109375,87.418212890625
1758877607.6048229,-0.71826171875,-0.21630859375,0.658203125,16.54052734375,-6.103515625,-13.85498046875,-15.8587646484375,45.4339599609375,87.2479248046875
1758877607.6138697,-0.7109375,-0.1884765625,0.6982421875,15.80810546875,-5.4931640625,-13.3056640625,-15.8258056640625,45.3680419921875,87.0831298828125
1758877607.6240206,-0.7109375,-0.1884765625,0.6982421875,15.80810546875,-5.4931640625,-13.3056640625,-15.7928466796875,45.3021240234375,86.9183349609375
1758877607.634802,-0.7041015625,-0.15966796875,0.70068359375,8.7890625,-4.8828125,-12.51220703125,-15.8203125,45.2362060546875,86.759033203125
1758877607.6440718,-0.7041015625,-0.15966796875,0.70068359375,8.7890625,-4.8828125,-12.51220703125,-15.8477783203125,45.17578125,86.59423828125
1758877607.6539795,-0.7041015625,-0.15966796875,0.70068359375,4.0283203125,-4.5166015625,-11.41357421875,-15.9027099609375,45.1153564453125,86.451416015625
1758877607.6647472,-0.681640625,-0.17626953125,0.697265625,4.0283203125,-4.5166015625,-11.41357421875,-15.963134765625,45.0494384765625,86.3031005859375
1758877607.6739168,-0.67724609375,-0.23095703125,0.72265625,4.21142578125,-3.90625,-10.25390625,-16.0125732421875,44.9945068359375,86.165771484375
1758877607.6841335,-0.67724609375,-0.23095703125,0.72265625,4.21142578125,-3.90625,-10.25390625,-16.0565185546875,44.9395751953125,86.033935546875
1758877607.6945148,-0.67041015625,-0.23974609375,0.7353515625,6.591796875,-3.11279296875,-9.3994140625,-16.072998046875,44.8846435546875,85.9075927734375
1758877607.7047422,-0.67041015625,-0.23974609375,0.7353515625,6.591796875,-3.11279296875,-9.3994140625,-16.094970703125,44.8297119140625,85.78125
1758877607.7141223,-0.6669921875,-0.2255859375,0.73486328125,11.77978515625,-2.38037109375,-8.72802734375,-16.0565185546875,44.7857666015625,85.6658935546875
1758877607.7242017,-0.6669921875,-0.2255859375,0.73486328125,11.77978515625,-2.38037109375,-8.72802734375,-16.0235595703125,44.736328125,85.5450439453125
1758877607.735406,-0.66259765625,-0.20947265625,0.73291015625,16.90673828125,-1.708984375,-8.30078125,-15.93017578125,44.6923828125,85.4296875
1758877607.744187,-0.66259765625,-0.20947265625,0.73291015625,16.90673828125,-1.708984375,-8.30078125,-15.84228515625,44.6484375,85.3143310546875
1758877607.7540739,-0.646484375,-0.20068359375,0.734375,21.97265625,-1.3427734375,-8.4228515625,-15.7049560546875,44.6044921875,85.1934814453125
1758877607.766499,-0.646484375,-0.20068359375,0.734375,21.97265625,-1.3427734375,-8.4228515625,-15.5621337890625,44.560546875,85.078125
1758877607.7776763,-0.63720703125,-0.19775390625,0.76171875,26.611328125,-1.220703125,-8.60595703125,-15.380859375,44.5166015625,84.957275390625
1758877607.7859402,-0.63720703125,-0.19775390625,0.76171875,26.611328125,-1.220703125,-8.60595703125,-15.1995849609375,44.4671630859375,84.8309326171875
1758877607.7942502,-0.62548828125,-0.17919921875,0.8056640625,25.0244140625,-1.15966796875,-8.72802734375,-15.0347900390625,44.4232177734375,84.7100830078125
1758877607.8052115,-0.62548828125,-0.17919921875,0.8056640625,25.0244140625,-1.15966796875,-8.72802734375,-14.864501953125,44.3682861328125,84.583740234375
1758877607.8145444,-0.61083984375,-0.15869140625,0.78857421875,22.0947265625,-1.5869140625,-8.6669921875,-14.7271728515625,44.3133544921875,84.462890625
1758877607.8242905,-0.61083984375,-0.15869140625,0.78857421875,22.0947265625,-1.5869140625,-8.6669921875,-14.5843505859375,44.2529296875,84.342041015625
1758877607.8342505,-0.6005859375,-0.177734375,0.78857421875,20.8740234375,-2.44140625,-7.8125,-14.4415283203125,44.18701171875,84.232177734375
1758877607.8452399,-0.6005859375,-0.177734375,0.78857421875,20.8740234375,-2.44140625,-7.8125,-14.2987060546875,44.12109375,84.1278076171875
1758877607.854197,-0.583984375,-0.19140625,0.791015625,16.41845703125,-2.9296875,-6.8359375,-14.1943359375,44.044189453125,84.034423828125
1758877607.8643503,-0.583984375,-0.19140625,0.791015625,16.41845703125,-2.9296875,-6.8359375,-14.08447265625,43.9727783203125,83.9410400390625
1758877607.875419,-0.57373046875,-0.203125,0.86181640625,15.869140625,-2.9296875,-6.04248046875,-13.9801025390625,43.8958740234375,83.8641357421875
1758877607.8843827,-0.57373046875,-0.203125,0.86181640625,15.869140625,-2.9296875,-6.04248046875,-13.8702392578125,43.8189697265625,83.78173828125
1758877607.8941164,-0.5849609375,-0.19091796875,0.826171875,19.10400390625,-1.8310546875,-6.2255859375,-13.73291015625,43.74755859375,83.69384765625
1758877607.9044003,-0.5849609375,-0.19091796875,0.826171875,19.10400390625,-1.8310546875,-6.2255859375,-13.5955810546875,43.681640625,83.6114501953125
1758877607.9161334,-0.5849609375,-0.19091796875,0.826171875,30.21240234375,-1.3427734375,-6.89697265625,-13.359375,43.6102294921875,83.5125732421875
1758877607.9243774,-0.62451171875,-0.19287109375,0.771484375,30.21240234375,-1.3427734375,-6.89697265625,-13.1231689453125,43.5443115234375,83.419189453125
1758877607.9341936,-0.66455078125,-0.181640625,0.72802734375,31.005859375,0.732421875,-6.53076171875,-12.8814697265625,43.505859375,83.3203125
1758877607.9453552,-0.66455078125,-0.181640625,0.72802734375,31.005859375,0.732421875,-6.53076171875,-12.6397705078125,43.4619140625,83.2269287109375
1758877607.9545813,-0.693359375,-0.16259765625,0.7294921875,18.73779296875,1.28173828125,-5.859375,-12.5189208984375,43.4344482421875,83.133544921875
1758877607.9644222,-0.68017578125,-0.12548828125,0.6865234375,8.85009765625,1.15966796875,-4.5166015625,-12.4365234375,43.406982421875,83.0511474609375
1758877607.9746785,-0.68017578125,-0.12548828125,0.6865234375,8.85009765625,1.15966796875,-4.5166015625,-12.3980712890625,43.385009765625,82.9742431640625
1758877607.9849794,-0.66845703125,-0.14501953125,0.6953125,4.69970703125,0.42724609375,-3.23486328125,-12.3760986328125,43.3685302734375,82.9083251953125
1758877607.9942558,-0.66845703125,-0.14501953125,0.6953125,4.69970703125,0.42724609375,-3.23486328125,-12.359619140625,43.3465576171875,82.8533935546875
1758877608.004473,-0.69091796875,-0.1767578125,0.63232421875,2.25830078125,1.15966796875,-1.953125,-12.3541259765625,43.330078125,82.8094482421875
1758877608.015646,-0.69091796875,-0.1767578125,0.63232421875,2.25830078125,1.15966796875,-1.953125,-12.359619140625,43.3245849609375,82.7655029296875
1758877608.0245445,-0.70166015625,-0.1875,0.6923828125,4.39453125,0.91552734375,-1.77001953125,-12.3486328125,43.319091796875,82.72705078125
1758877608.0344896,-0.70166015625,-0.1875,0.6923828125,4.39453125,0.91552734375,-1.77001953125,-12.3321533203125,43.319091796875,82.6885986328125
1758877608.0450416,-0.70166015625,-0.1630859375,0.6708984375,10.80322265625,0.8544921875,-1.77001953125,-12.28271484375,43.3135986328125,82.650146484375
1758877608.0543425,-0.70166015625,-0.1630859375,0.6708984375,10.80322265625,0.8544921875,-1.77001953125,-12.2003173828125,43.3135986328125,82.6116943359375
1758877608.0652318,-0.70263671875,-0.15966796875,0.64501953125,16.4794921875,0.54931640625,-1.8310546875,-12.0904541015625,43.3135986328125,82.5732421875
1758877608.0746875,-0.70263671875,-0.15966796875,0.64501953125,16.4794921875,0.54931640625,-1.8310546875,-11.9586181640625,43.3135986328125,82.5347900390625
1758877608.084556,-0.7509765625,-0.16796875,0.6884765625,15.380859375,0.67138671875,-1.77001953125,-11.8267822265625,43.319091796875,82.496337890625
1758877608.0945323,-0.7509765625,-0.16796875,0.6884765625,15.380859375,0.67138671875,-1.77001953125,-11.700439453125,43.3245849609375,82.4578857421875
1758877608.1051118,-0.7646484375,-0.1328125,0.6728515625,12.51220703125,1.220703125,-2.197265625,-11.5960693359375,43.3355712890625,82.4139404296875
1758877608.114462,-0.7646484375,-0.1328125,0.6728515625,12.51220703125,1.220703125,-2.197265625,-11.502685546875,43.35205078125,82.3699951171875
1758877608.1246438,-0.734375,-0.10009765625,0.61572265625,9.8876953125,2.01416015625,-2.74658203125,-11.42578125,43.3685302734375,82.320556640625
1758877608.1356516,-0.734375,-0.10009765625,0.61572265625,9.8876953125,2.01416015625,-2.74658203125,-11.3653564453125,43.39599609375,82.2601318359375
1758877608.1446996,-0.728515625,-0.1123046875,0.6025390625,7.6904296875,2.9296875,-3.662109375,-11.31591796875,43.428955078125,82.1942138671875
1758877608.1544907,-0.728515625,-0.1123046875,0.6025390625,7.6904296875,2.9296875,-3.662109375,-11.2884521484375,43.4674072265625,82.122802734375
1758877608.1647902,-0.7294921875,-0.130859375,0.65771484375,4.0283203125,3.84521484375,-4.0283203125,-11.27197265625,43.5113525390625,82.0458984375
1758877608.1758864,-0.7294921875,-0.130859375,0.65771484375,4.0283203125,3.84521484375,-4.0283203125,-11.282958984375,43.560791015625,81.9635009765625
1758877608.1849563,-0.712890625,-0.13720703125,0.69873046875,3.72314453125,4.69970703125,-4.57763671875,-11.2939453125,43.6102294921875,81.8756103515625
1758877608.19455,-0.712890625,-0.13720703125,0.69873046875,3.72314453125,4.69970703125,-4.57763671875,-11.31591796875,43.6651611328125,81.7822265625
1758877608.205142,-0.69580078125,-0.14892578125,0.7060546875,5.06591796875,5.126953125,-5.31005859375,-11.326904296875,43.7200927734375,81.6888427734375
1758877608.2155836,-0.69580078125,-0.14892578125,0.7060546875,5.06591796875,5.126953125,-5.31005859375,-11.337890625,43.76953125,81.58447265625
1758877608.2247767,-0.67724609375,-0.15673828125,0.66650390625,10.07080078125,5.31005859375,-5.9814453125,-11.3323974609375,43.824462890625,81.474609375
1758877608.2346833,-0.67724609375,-0.15673828125,0.66650390625,10.07080078125,5.31005859375,-5.9814453125,-11.2994384765625,43.8739013671875,81.36474609375
1758877608.2453027,-0.69189453125,-0.1865234375,0.68212890625,20.81298828125,5.43212890625,-7.080078125,-11.2225341796875,43.9288330078125,81.243896484375
1758877608.254703,-0.69189453125,-0.1865234375,0.68212890625,20.81298828125,5.43212890625,-7.080078125,-11.1016845703125,43.9727783203125,81.123046875
1758877608.2648206,-0.7333984375,-0.18212890625,0.72900390625,30.33447265625,5.18798828125,-8.056640625,-10.9368896484375,44.022216796875,80.9912109375
1758877608.2760594,-0.7333984375,-0.18212890625,0.72900390625,30.33447265625,5.18798828125,-8.056640625,-10.7281494140625,44.066162109375,80.8538818359375
1758877608.2854767,-0.775390625,-0.125,0.6953125,35.888671875,5.06591796875,-9.09423828125,-10.5029296875,44.1046142578125,80.716552734375
1758877608.2947156,-0.775390625,-0.125,0.6953125,35.888671875,5.06591796875,-9.09423828125,-10.2557373046875,44.1485595703125,80.562744140625
1758877608.3048537,-0.794921875,-0.09765625,0.619140625,39.36767578125,4.5166015625,-9.8876953125,-9.9920654296875,44.18701171875,80.408935546875
1758877608.316019,-0.794921875,-0.09765625,0.619140625,39.36767578125,4.5166015625,-9.8876953125,-9.7119140625,44.23095703125,80.2496337890625
1758877608.324794,-0.80615234375,-0.09033203125,0.60107421875,34.7900390625,4.2724609375,-9.765625,-9.4537353515625,44.27490234375,80.0848388671875
1758877608.3347483,-0.80615234375,-0.09033203125,0.60107421875,34.7900390625,4.2724609375,-9.765625,-9.2230224609375,44.31884765625,79.925537109375
1758877608.3457491,-0.798828125,-0.0908203125,0.603515625,27.77099609375,4.638671875,-9.033203125,-9.019775390625,44.373779296875,79.7662353515625
1758877608.354969,-0.798828125,-0.0908203125,0.603515625,27.77099609375,4.638671875,-9.033203125,-8.843994140625,44.4287109375,79.6124267578125
1758877608.3660023,-0.79345703125,-0.109375,0.58251953125,24.96337890625,4.82177734375,-8.30078125,-8.6846923828125,44.4891357421875,79.464111328125
1758877608.3765254,-0.79345703125,-0.109375,0.58251953125,24.96337890625,4.82177734375,-8.30078125,-8.536376953125,44.5550537109375,79.3157958984375
1758877608.3930473,-0.765625,-0.095703125,0.6298828125,22.03369140625,5.126953125,-7.99560546875,-8.3990478515625,44.6209716796875,79.1729736328125
1758877608.4003835,-0.765625,-0.095703125,0.6298828125,22.03369140625,5.126953125,-7.99560546875,-8.272705078125,44.6923828125,79.0301513671875
1758877608.4080627,-0.73583984375,-0.0859375,0.65185546875,20.08056640625,5.18798828125,-7.75146484375,-8.1573486328125,44.7637939453125,78.8873291015625
1758877608.4164882,-0.73583984375,-0.0859375,0.65185546875,20.08056640625,5.18798828125,-7.75146484375,-8.052978515625,44.8297119140625,78.75
1758877608.424808,-0.73583984375,-0.0859375,0.65185546875,22.64404296875,5.2490234375,-7.38525390625,-7.9266357421875,44.901123046875,78.6126708984375
1758877608.4349275,-0.70166015625,-0.0966796875,0.71044921875,22.64404296875,5.2490234375,-7.38525390625,-7.7947998046875,44.967041015625,78.4808349609375
1758877608.4456074,-0.6630859375,-0.111328125,0.748046875,25.20751953125,4.82177734375,-7.080078125,-7.6409912109375,45.0274658203125,78.3489990234375
1758877608.4549038,-0.6630859375,-0.111328125,0.748046875,25.20751953125,4.82177734375,-7.080078125,-7.4761962890625,45.076904296875,78.22265625
1758877608.4655087,-0.6416015625,-0.10986328125,0.7763671875,28.9306640625,4.150390625,-6.591796875,-7.2894287109375,45.1263427734375,78.101806640625
1758877608.4757485,-0.6416015625,-0.10986328125,0.7763671875,28.9306640625,4.150390625,-6.591796875,-7.0806884765625,45.164794921875,77.9864501953125
1758877608.484914,-0.642578125,-0.0869140625,0.77294921875,29.541015625,3.23486328125,-5.92041015625,-6.866455078125,45.19775390625,77.8765869140625
1758877608.4970975,-0.642578125,-0.0869140625,0.77294921875,29.541015625,3.23486328125,-5.92041015625,-6.646728515625,45.2197265625,77.7777099609375
1758877608.5053647,-0.6435546875,-0.0859375,0.75390625,30.8837890625,2.3193359375,-5.126953125,-6.416015625,45.2362060546875,77.684326171875
1758877608.5155754,-0.6435546875,-0.0859375,0.75390625,30.8837890625,2.3193359375,-5.126953125,-6.17431640625,45.2471923828125,77.596435546875
1758877608.5256512,-0.64208984375,-0.080078125,0.79443359375,38.26904296875,1.46484375,-4.82177734375,-5.8941650390625,45.252685546875,77.508544921875
1758877608.535822,-0.64208984375,-0.080078125,0.79443359375,38.26904296875,1.46484375,-4.82177734375,-5.5755615234375,45.2471923828125,77.4261474609375
1758877608.545046,-0.625,-0.07568359375,0.83154296875,46.142578125,1.15966796875,-4.69970703125,-5.2130126953125,45.24169921875,77.3492431640625
1758877608.555973,-0.625,-0.07568359375,0.83154296875,46.142578125,1.15966796875,-4.69970703125,-4.8175048828125,45.230712890625,77.2723388671875
1758877608.5651166,-0.611328125,-0.0576171875,0.78759765625,48.27880859375,0.8544921875,-5.18798828125,-4.4110107421875,45.2142333984375,77.1954345703125
1758877608.5756822,-0.611328125,-0.0576171875,0.78759765625,48.27880859375,0.8544921875,-5.18798828125,-3.9990234375,45.19775390625,77.113037109375
1758877608.5858445,-0.61474609375,-0.02734375,0.81201171875,55.5419921875,0.18310546875,-6.04248046875,-3.5540771484375,45.1702880859375,77.0306396484375
1758877608.595545,-0.61474609375,-0.02734375,0.81201171875,55.5419921875,0.18310546875,-6.04248046875,-3.076171875,45.142822265625,76.937255859375
1758877608.6052613,-0.564453125,-0.01953125,0.81689453125,41.1376953125,-0.42724609375,-5.18798828125,-2.6641845703125,45.10986328125,76.8548583984375
1758877608.6164832,-0.564453125,-0.01953125,0.81689453125,41.1376953125,-0.42724609375,-5.18798828125,-2.3236083984375,45.0714111328125,76.7779541015625
1758877608.6251848,-0.60400390625,0.0458984375,0.7822265625,18.61572265625,0.54931640625,-4.21142578125,-2.08740234375,45.032958984375,76.70654296875
1758877608.635647,-0.60400390625,0.0458984375,0.7822265625,18.61572265625,0.54931640625,-4.21142578125,-1.95556640625,45.0,76.6461181640625
1758877608.6458704,-0.63134765625,0.04443359375,0.74951171875,5.859375,1.28173828125,-3.5400390625,-1.878662109375,44.9725341796875,76.585693359375
1758877608.6556058,-0.63134765625,0.04443359375,0.74951171875,5.859375,1.28173828125,-3.5400390625,-1.8621826171875,44.9505615234375,76.53076171875
1758877608.6663544,-0.658203125,0.02880859375,0.7216796875,-4.57763671875,1.77001953125,-3.173828125,-1.8896484375,44.9285888671875,76.4813232421875
1758877608.6788845,-0.658203125,0.02880859375,0.7216796875,-4.57763671875,1.77001953125,-3.173828125,-1.966552734375,44.9176025390625,76.4263916015625
1758877608.6877754,-0.6943359375,0.03662109375,0.6962890625,-11.65771484375,1.3427734375,-1.8310546875,-2.0709228515625,44.901123046875,76.387939453125
1758877608.69576,-0.6943359375,0.03662109375,0.6962890625,-11.65771484375,1.3427734375,-1.8310546875,-2.197265625,44.8846435546875,76.35498046875
1758877608.7060473,-0.73388671875,0.02197265625,0.69921875,-18.310546875,-0.3662109375,-0.732421875,-2.3455810546875,44.8681640625,76.3275146484375
1758877608.7161424,-0.73388671875,0.02197265625,0.69921875,-18.310546875,-0.3662109375,-0.732421875,-2.52685546875,44.8406982421875,76.31103515625
1758877608.7252529,-0.7802734375,-0.0185546875,0.6875,-21.97265625,-1.708984375,0.8544921875,-2.7081298828125,44.813232421875,76.300048828125
1758877608.736268,-0.7802734375,-0.0185546875,0.6875,-21.97265625,-1.708984375,0.8544921875,-2.9058837890625,44.7857666015625,76.3055419921875
1758877608.7460554,-0.80029296875,-0.07373046875,0.6806640625,-22.39990234375,-3.90625,2.3193359375,-3.0926513671875,44.747314453125,76.3165283203125
1758877608.7556474,-0.80029296875,-0.07373046875,0.6806640625,-22.39990234375,-3.90625,2.3193359375,-3.2794189453125,44.703369140625,76.3330078125
1758877608.7653248,-0.7802734375,-0.09033203125,0.64306640625,-15.869140625,-4.7607421875,3.60107421875,-3.427734375,44.6649169921875,76.365966796875
1758877608.7770061,-0.7802734375,-0.09033203125,0.64306640625,-15.869140625,-4.7607421875,3.60107421875,-3.5430908203125,44.6209716796875,76.4044189453125
1758877608.7852983,-0.75341796875,-0.08349609375,0.638671875,-5.7373046875,-4.7607421875,4.08935546875,-3.603515625,44.58251953125,76.44287109375
1758877608.7958522,-0.75341796875,-0.08349609375,0.638671875,-5.7373046875,-4.7607421875,4.08935546875,-3.614501953125,44.5440673828125,76.48681640625
1758877608.806363,-0.73095703125,-0.0625,0.6748046875,-0.91552734375,-4.21142578125,4.33349609375,-3.603515625,44.5111083984375,76.53076171875
1758877608.8166165,-0.73095703125,-0.0625,0.6748046875,-0.91552734375,-4.21142578125,4.33349609375,-3.5650634765625,44.483642578125,76.5802001953125
1758877608.8254895,-0.697265625,-0.03466796875,0.7041015625,-2.8076171875,-3.90625,4.57763671875,-3.53759765625,44.4561767578125,76.6241455078125
1758877608.8372202,-0.697265625,-0.03466796875,0.7041015625,-2.8076171875,-3.90625,4.57763671875,-3.5211181640625,44.4342041015625,76.673583984375
1758877608.845461,-0.65478515625,0.00341796875,0.73095703125,-12.8173828125,-4.33349609375,5.126953125,-3.548583984375,44.4012451171875,76.728515625
1758877608.855726,-0.65478515625,0.00341796875,0.73095703125,-12.8173828125,-4.33349609375,5.126953125,-3.6199951171875,44.3682861328125,76.7889404296875
1758877608.8661733,-0.63232421875,0.029296875,0.7548828125,-23.74267578125,-4.638671875,5.7373046875,-3.7408447265625,44.3353271484375,76.849365234375
1758877608.876088,-0.63232421875,0.029296875,0.7548828125,-23.74267578125,-4.638671875,5.7373046875,-3.9056396484375,44.296875,76.9207763671875
1758877608.885445,-0.64111328125,0.00634765625,0.79248046875,-37.04833984375,-5.0048828125,6.40869140625,-4.1363525390625,44.2474365234375,76.9921875
1758877608.8959033,-0.64111328125,0.00634765625,0.79248046875,-37.04833984375,-5.0048828125,6.40869140625,-4.4219970703125,44.2034912109375,77.069091796875
1758877608.9061892,-0.63671875,-0.01513671875,0.767578125,-48.76708984375,-4.94384765625,6.89697265625,-4.7625732421875,44.154052734375,77.1514892578125
1758877608.9158182,-0.63671875,-0.01513671875,0.767578125,-48.76708984375,-4.94384765625,6.89697265625,-5.1580810546875,44.09912109375,77.2393798828125
1758877608.925577,-0.62451171875,-0.03955078125,0.7080078125,-52.18505859375,-4.7607421875,6.89697265625,-5.5645751953125,44.0496826171875,77.3272705078125
1758877608.936689,-0.62451171875,-0.03955078125,0.7080078125,-52.18505859375,-4.7607421875,6.89697265625,-5.9930419921875,44.000244140625,77.4151611328125
1758877608.9456663,-0.61962890625,-0.07470703125,0.7236328125,-45.95947265625,-4.0283203125,6.8359375,-6.383056640625,43.9508056640625,77.49755859375
1758877608.9557521,-0.61962890625,-0.07470703125,0.7236328125,-45.95947265625,-4.0283203125,6.8359375,-6.74560546875,43.912353515625,77.58544921875
1758877608.9659126,-0.64208984375,-0.119140625,0.7529296875,-35.15625,-3.0517578125,6.591796875,-7.00927734375,43.8739013671875,77.662353515625
1758877608.9766603,-0.64208984375,-0.119140625,0.7529296875,-35.15625,-3.0517578125,6.591796875,-7.2674560546875,43.8409423828125,77.7447509765625
1758877608.985616,-0.669921875,-0.13330078125,0.77880859375,-22.5830078125,-2.50244140625,5.37109375,-7.4212646484375,43.8134765625,77.8106689453125
1758877608.9959052,-0.669921875,-0.13330078125,0.77880859375,-22.5830078125,-2.50244140625,5.37109375,-7.5750732421875,43.780517578125,77.8765869140625
1758877609.0064511,-0.6650390625,-0.119140625,0.70947265625,-13.3056640625,-1.52587890625,4.57763671875,-7.646484375,43.758544921875,77.9315185546875
1758877609.0159657,-0.6650390625,-0.119140625,0.70947265625,-13.3056640625,-1.52587890625,4.57763671875,-7.723388671875,43.736572265625,77.98095703125
1758877609.0257094,-0.66162109375,-0.08447265625,0.67333984375,-4.45556640625,-1.0986328125,3.84521484375,-7.7178955078125,43.7200927734375,78.02490234375
1758877609.0367918,-0.66162109375,-0.08447265625,0.67333984375,-4.45556640625,-1.0986328125,3.84521484375,-7.71240234375,43.70361328125,78.06884765625
1758877609.046067,-0.67578125,-0.0732421875,0.7236328125,-3.84521484375,-0.54931640625,3.662109375,-7.7069091796875,43.6981201171875,78.1072998046875
1758877609.0558543,-0.67578125,-0.0732421875,0.7236328125,-3.84521484375,-0.54931640625,3.662109375,-7.6959228515625,43.6871337890625,78.145751953125
1758877609.0658119,-0.66650390625,-0.07177734375,0.70654296875,-4.94384765625,-0.18310546875,4.08935546875,-7.6959228515625,43.681640625,78.1842041015625
1758877609.0767927,-0.66650390625,-0.07177734375,0.70654296875,-4.94384765625,-0.18310546875,4.08935546875,-7.6959228515625,43.6761474609375,78.2281494140625
1758877609.085804,-0.6552734375,-0.1005859375,0.66015625,-0.67138671875,0.1220703125,3.72314453125,-7.657470703125,43.6761474609375,78.2666015625
1758877609.0959394,-0.6552734375,-0.1005859375,0.66015625,-0.67138671875,0.1220703125,3.72314453125,-7.6190185546875,43.681640625,78.3050537109375
1758877609.105873,-0.685546875,-0.1279296875,0.70947265625,8.11767578125,0.1220703125,2.86865234375,-7.5091552734375,43.681640625,78.33251953125
1758877609.1166186,-0.685546875,-0.1279296875,0.70947265625,8.11767578125,0.1220703125,2.86865234375,-7.3992919921875,43.681640625,78.3599853515625
1758877609.125775,-0.73095703125,-0.1298828125,0.76611328125,15.5029296875,0.18310546875,1.89208984375,-7.2235107421875,43.681640625,78.3709716796875
1758877609.1360233,-0.73095703125,-0.1298828125,0.76611328125,15.5029296875,0.18310546875,1.89208984375,-7.05322265625,43.681640625,78.387451171875
1758877609.1462896,-0.72119140625,-0.09716796875,0.62744140625,16.90673828125,0.48828125,1.77001953125,-6.8719482421875,43.6871337890625,78.4039306640625
1758877609.15613,-0.72119140625,-0.09716796875,0.62744140625,16.90673828125,0.48828125,1.77001953125,-6.6961669921875,43.692626953125,78.4149169921875
1758877609.1658335,-0.7001953125,-0.0478515625,0.64990234375,12.63427734375,0.1220703125,1.46484375,-6.558837890625,43.70361328125,78.4259033203125
1758877609.1763866,-0.7001953125,-0.0478515625,0.64990234375,12.63427734375,0.1220703125,1.46484375,-6.427001953125,43.7091064453125,78.4368896484375
1758877609.1866293,-0.69580078125,-0.01171875,0.70458984375,1.77001953125,0.67138671875,1.52587890625,-6.39404296875,43.7255859375,78.4478759765625
1758877609.196111,-0.69580078125,-0.01171875,0.70458984375,1.77001953125,0.67138671875,1.52587890625,-6.361083984375,43.736572265625,78.453369140625
1758877609.206147,-0.708984375,-0.0361328125,0.68115234375,1.15966796875,0.79345703125,1.03759765625,-6.339111328125,43.7530517578125,78.453369140625
1758877609.2168484,-0.708984375,-0.0361328125,0.68115234375,1.15966796875,0.79345703125,1.03759765625,-6.3116455078125,43.76953125,78.4588623046875
1758877609.2262034,-0.740234375,-0.1083984375,0.69287109375,7.01904296875,0.48828125,-0.06103515625,-6.240234375,43.780517578125,78.4423828125
1758877609.2361395,-0.740234375,-0.1083984375,0.69287109375,7.01904296875,0.48828125,-0.06103515625,-6.1688232421875,43.79150390625,78.431396484375
1758877609.2468367,-0.78564453125,-0.14892578125,0.7529296875,16.9677734375,-0.54931640625,-1.0986328125,-6.009521484375,43.7969970703125,78.4039306640625
1758877609.2560565,-0.78564453125,-0.14892578125,0.7529296875,16.9677734375,-0.54931640625,-1.0986328125,-5.8612060546875,43.7969970703125,78.3819580078125
1758877609.266902,-0.80517578125,-0.12353515625,0.72412109375,28.01513671875,-0.91552734375,-1.953125,-5.60302734375,43.7969970703125,78.343505859375
1758877609.2788115,-0.80517578125,-0.12353515625,0.72412109375,28.01513671875,-0.91552734375,-1.953125,-5.3558349609375,43.7969970703125,78.310546875
1758877609.2867513,-0.76513671875,-0.0791015625,0.65234375,30.6396484375,-1.5869140625,-3.0517578125,-5.0921630859375,43.79150390625,78.2611083984375
1758877609.296192,-0.76513671875,-0.0791015625,0.65234375,30.6396484375,-1.5869140625,-3.0517578125,-4.8284912109375,43.79150390625,78.211669921875
1758877609.3064818,-0.74462890625,-0.00634765625,0.61279296875,22.15576171875,-1.0986328125,-3.35693359375,-4.6527099609375,43.7969970703125,78.15673828125
1758877609.3166044,-0.74462890625,-0.00634765625,0.61279296875,22.15576171875,-1.0986328125,-3.35693359375,-4.471435546875,43.802490234375,78.101806640625
1758877609.3259716,-0.732421875,0.00439453125,0.64990234375,17.9443359375,-1.03759765625,-3.90625,-4.3341064453125,43.8079833984375,78.035888671875
1758877609.3362896,-0.732421875,0.00439453125,0.64990234375,17.9443359375,-1.03759765625,-3.90625,-4.2022705078125,43.8189697265625,77.9754638671875
1758877609.3467758,-0.72509765625,-0.00732421875,0.70068359375,11.962890625,-0.732421875,-3.90625,-4.119873046875,43.8299560546875,77.904052734375
1758877609.3561883,-0.72509765625,-0.00732421875,0.70068359375,11.962890625,-0.732421875,-3.90625,-4.0374755859375,43.8409423828125,77.838134765625
1758877609.366095,-0.70556640625,-0.03271484375,0.7158203125,5.2490234375,-0.18310546875,-3.84521484375,-4.02099609375,43.8519287109375,77.772216796875
1758877609.376953,-0.70556640625,-0.03271484375,0.7158203125,5.2490234375,-0.18310546875,-3.84521484375,-4.0045166015625,43.868408203125,77.706298828125
1758877609.3861294,-0.69384765625,-0.05029296875,0.72119140625,2.0751953125,0.54931640625,-3.72314453125,-4.02099609375,43.8848876953125,77.6458740234375
1758877609.396396,-0.69384765625,-0.05029296875,0.72119140625,2.0751953125,0.54931640625,-3.72314453125,-4.0374755859375,43.9013671875,77.5799560546875
1758877609.4070127,-0.68115234375,-0.0615234375,0.7236328125,5.4931640625,1.64794921875,-4.08935546875,-4.02099609375,43.9288330078125,77.5140380859375
1758877609.416375,-0.68115234375,-0.0615234375,0.7236328125,5.4931640625,1.64794921875,-4.08935546875,-4.010009765625,43.9508056640625,77.442626953125
1758877609.426125,-0.68115234375,-0.0615234375,0.7236328125,6.9580078125,2.44140625,-4.2724609375,-3.9825439453125,43.9837646484375,77.3712158203125
1758877609.4372652,-0.66357421875,-0.0576171875,0.73876953125,6.9580078125,2.44140625,-4.2724609375,-3.955078125,44.01123046875,77.3052978515625
1758877609.4462137,-0.6435546875,-0.0380859375,0.7509765625,7.01904296875,2.8076171875,-4.33349609375,-3.93310546875,44.0386962890625,77.23388671875
1758877609.4563355,-0.6435546875,-0.0380859375,0.7509765625,7.01904296875,2.8076171875,-4.33349609375,-3.9056396484375,44.0606689453125,77.16796875
1758877609.4666755,-0.63134765625,-0.0419921875,0.76611328125,10.009765625,3.0517578125,-4.0283203125,-3.84521484375,44.088134765625,77.10205078125
1758877609.4764483,-0.63134765625,-0.0419921875,0.76611328125,10.009765625,3.0517578125,-4.0283203125,-3.7847900390625,44.110107421875,77.0361328125
1758877609.4862678,-0.64501953125,-0.052734375,0.77490234375,9.58251953125,3.23486328125,-3.2958984375,-3.724365234375,44.1375732421875,76.9866943359375
1758877609.4972334,-0.64501953125,-0.052734375,0.77490234375,9.58251953125,3.23486328125,-3.2958984375,-3.6639404296875,44.1595458984375,76.9317626953125
1758877609.5064375,-0.64990234375,-0.03955078125,0.779296875,4.7607421875,3.11279296875,-2.50244140625,-3.6419677734375,44.176025390625,76.893310546875
1758877609.5164702,-0.64990234375,-0.03955078125,0.779296875,4.7607421875,3.11279296875,-2.50244140625,-3.6199951171875,44.1925048828125,76.8548583984375
1758877609.5263307,-0.6513671875,-0.01171875,0.78125,-3.662109375,3.0517578125,-1.52587890625,-3.6749267578125,44.208984375,76.827392578125
1758877609.537077,-0.6513671875,-0.01171875,0.78125,-3.662109375,3.0517578125,-1.52587890625,-3.724365234375,44.219970703125,76.7999267578125
1758877609.5462668,-0.671875,-0.037109375,0.75732421875,-5.9814453125,2.8076171875,-0.732421875,-3.790283203125,44.2364501953125,76.783447265625
1758877609.556492,-0.671875,-0.037109375,0.75732421875,-5.9814453125,2.8076171875,-0.732421875,-3.8507080078125,44.2474365234375,76.7669677734375
1758877609.5725675,-0.70654296875,-0.07568359375,0.76904296875,-1.52587890625,2.74658203125,-0.06103515625,-3.8671875,44.2584228515625,76.761474609375
1758877609.5787044,-0.70654296875,-0.07568359375,0.76904296875,-1.52587890625,2.74658203125,-0.06103515625,-3.8836669921875,44.2694091796875,76.7559814453125
1758877609.5881562,-0.7275390625,-0.06396484375,0.74951171875,1.220703125,3.173828125,0.30517578125,-3.8671875,44.285888671875,76.75048828125
1758877609.5965474,-0.7275390625,-0.06396484375,0.74951171875,1.220703125,3.173828125,0.30517578125,-3.8507080078125,44.307861328125,76.75048828125
1758877609.6064177,-0.78173828125,-0.01708984375,0.71533203125,0.244140625,3.11279296875,0.79345703125,-3.84521484375,44.329833984375,76.75048828125
1758877609.6171956,-0.78173828125,-0.01708984375,0.71533203125,0.244140625,3.11279296875,0.79345703125,-3.834228515625,44.351806640625,76.7559814453125
1758877609.6263611,-0.75537109375,0.00537109375,0.61767578125,-5.2490234375,3.47900390625,1.52587890625,-3.8671875,44.384765625,76.7669677734375
1758877609.6370554,-0.75537109375,0.00537109375,0.61767578125,-5.2490234375,3.47900390625,1.52587890625,-3.900146484375,44.4232177734375,76.7779541015625
1758877609.6465833,-0.7685546875,-0.04345703125,0.62939453125,-8.1787109375,3.2958984375,2.25830078125,-3.955078125,44.4561767578125,76.79443359375
1758877609.6566074,-0.7685546875,-0.04345703125,0.62939453125,-8.1787109375,3.2958984375,2.25830078125,-4.010009765625,44.5001220703125,76.81640625
1758877609.6668062,-0.779296875,-0.0732421875,0.669921875,-8.60595703125,3.662109375,2.5634765625,-4.0704345703125,44.5440673828125,76.83837890625
1758877609.6772306,-0.779296875,-0.0732421875,0.669921875,-8.60595703125,3.662109375,2.5634765625,-4.130859375,44.593505859375,76.8603515625
1758877609.686595,-0.751953125,-0.060546875,0.66064453125,-7.568359375,3.60107421875,2.86865234375,-4.1748046875,44.6429443359375,76.8878173828125
1758877609.6967297,-0.751953125,-0.060546875,0.66064453125,-7.568359375,3.60107421875,2.86865234375,-4.2242431640625,44.6923828125,76.915283203125
1758877609.7076685,-0.7255859375,-0.04248046875,0.650390625,-8.48388671875,3.96728515625,3.2958984375,-4.273681640625,44.747314453125,76.9482421875
1758877609.7167819,-0.7255859375,-0.04248046875,0.650390625,-8.48388671875,3.96728515625,3.2958984375,-4.32861328125,44.80224609375,76.9757080078125
1758877609.7265387,-0.71240234375,-0.03369140625,0.6767578125,-8.9111328125,4.150390625,3.47900390625,-4.383544921875,44.8626708984375,77.01416015625
1758877609.7371714,-0.71240234375,-0.03369140625,0.6767578125,-8.9111328125,4.150390625,3.47900390625,-4.4329833984375,44.9176025390625,77.047119140625
1758877609.7468932,-0.7001953125,-0.0517578125,0.72509765625,-12.14599609375,4.69970703125,3.96728515625,-4.515380859375,44.97802734375,77.0855712890625
1758877609.7567103,-0.7001953125,-0.0517578125,0.72509765625,-12.14599609375,4.69970703125,3.96728515625,-4.5977783203125,45.032958984375,77.1295166015625
1758877609.7669404,-0.677734375,-0.056640625,0.73828125,-13.18359375,5.55419921875,4.39453125,-4.68017578125,45.098876953125,77.178955078125
1758877609.7772038,-0.677734375,-0.056640625,0.73828125,-13.18359375,5.55419921875,4.39453125,-4.76806640625,45.1593017578125,77.2283935546875
1758877609.7865815,-0.66455078125,-0.0625,0.7314453125,-10.498046875,6.8359375,4.39453125,-4.8284912109375,45.2362060546875,77.2723388671875
1758877609.796869,-0.66455078125,-0.0625,0.7314453125,-10.498046875,6.8359375,4.39453125,-4.8944091796875,45.3021240234375,77.32177734375
1758877609.807992,-0.64697265625,-0.06494140625,0.74560546875,-7.26318359375,7.9345703125,4.08935546875,-4.9273681640625,45.384521484375,77.36572265625
1758877609.8168135,-0.64697265625,-0.06494140625,0.74560546875,-7.26318359375,7.9345703125,4.08935546875,-4.9603271484375,45.46142578125,77.40966796875
1758877609.8266516,-0.6298828125,-0.05419921875,0.74609375,-5.37109375,9.09423828125,4.0283203125,-4.976806640625,45.5438232421875,77.45361328125
1758877609.83724,-0.6298828125,-0.05419921875,0.74609375,-5.37109375,9.09423828125,4.0283203125,-4.9932861328125,45.626220703125,77.49755859375
1758877609.8466697,-0.62646484375,-0.0341796875,0.7646484375,-12.14599609375,9.82666015625,4.08935546875,-5.07568359375,45.7086181640625,77.54150390625
1758877609.8568761,-0.62646484375,-0.0341796875,0.7646484375,-12.14599609375,9.82666015625,4.08935546875,-5.1580810546875,45.7965087890625,77.58544921875
1758877609.8679311,-0.6298828125,-0.01708984375,0.7607421875,-21.30126953125,10.07080078125,4.82177734375,-5.3173828125,45.87890625,77.640380859375
1758877609.87696,-0.6298828125,-0.01708984375,0.7607421875,-21.30126953125,10.07080078125,4.82177734375,-5.482177734375,45.9613037109375,77.6953125
1758877609.886828,-0.638671875,-0.0166015625,0.73388671875,-29.4189453125,10.19287109375,5.18798828125,-5.7183837890625,46.043701171875,77.7557373046875
1758877609.897544,-0.638671875,-0.0166015625,0.73388671875,-29.4189453125,10.19287109375,5.18798828125,-5.9490966796875,46.1260986328125,77.816162109375
1758877609.9067566,-0.6796875,-0.02392578125,0.73291015625,-35.46142578125,9.33837890625,5.615234375,-6.2347412109375,46.197509765625,77.882080078125
1758877609.9170318,-0.6796875,-0.02392578125,0.73291015625,-35.46142578125,9.33837890625,5.615234375,-6.5203857421875,46.2744140625,77.947998046875
1758877609.9278858,-0.70458984375,-0.05078125,0.740234375,-44.921875,8.544921875,6.28662109375,-6.888427734375,46.34033203125,78.02490234375
1758877609.9370048,-0.70458984375,-0.05078125,0.740234375,-44.921875,8.544921875,6.28662109375,-7.261962890625,46.40625,78.101806640625
1758877609.946809,-0.740234375,-0.0693359375,0.7109375,-44.3115234375,7.8125,7.2021484375,-7.613525390625,46.47216796875,78.189697265625
1758877609.957275,-0.740234375,-0.0693359375,0.7109375,-44.3115234375,7.8125,7.2021484375,-7.965087890625,46.5380859375,78.277587890625
1758877609.967123,-0.77001953125,-0.1005859375,0.6904296875,-37.7197265625,7.62939453125,7.50732421875,-8.2452392578125,46.60400390625,78.365478515625
1758877609.9770045,-0.7919921875,-0.11474609375,0.6298828125,-37.59765625,7.14111328125,7.6904296875,-8.5308837890625,46.6754150390625,78.453369140625
1758877609.987707,-0.7919921875,-0.11474609375,0.6298828125,-37.59765625,7.14111328125,7.6904296875,-8.81103515625,46.7413330078125,78.5467529296875
1758877609.997495,-0.8076171875,-0.109375,0.59228515625,-32.16552734375,7.080078125,7.32421875,-9.0692138671875,46.8182373046875,78.6346435546875
1758877610.0069332,-0.8076171875,-0.109375,0.59228515625,-32.16552734375,7.080078125,7.32421875,-9.305419921875,46.8951416015625,78.717041015625
1758877610.0169957,-0.77978515625,-0.119140625,0.62060546875,-26.611328125,7.080078125,6.28662109375,-9.5196533203125,46.9720458984375,78.7884521484375
1758877610.028028,-0.77978515625,-0.119140625,0.62060546875,-26.611328125,7.080078125,6.28662109375,-9.7119140625,47.054443359375,78.8543701171875
1758877610.0370257,-0.78173828125,-0.1103515625,0.62353515625,-17.88330078125,7.14111328125,5.615234375,-9.8712158203125,47.1368408203125,78.914794921875
1758877610.0469663,-0.78173828125,-0.1103515625,0.62353515625,-17.88330078125,7.14111328125,5.615234375,-9.986572265625,47.21923828125,78.9697265625
1758877610.0574749,-0.79150390625,-0.1298828125,0.60400390625,-11.41357421875,7.2021484375,4.69970703125,-10.074462890625,47.30712890625,79.0191650390625
1758877610.0671866,-0.79150390625,-0.1298828125,0.60400390625,-11.41357421875,7.2021484375,4.69970703125,-10.140380859375,47.39501953125,79.0576171875
1758877610.0770247,-0.8212890625,-0.13427734375,0.599609375,-7.14111328125,7.38525390625,3.90625,-10.1898193359375,47.48291015625,79.090576171875
1758877610.087209,-0.8212890625,-0.13427734375,0.599609375,-7.14111328125,7.38525390625,3.90625,-10.2227783203125,47.57080078125,79.1180419921875
1758877610.0975614,-0.82861328125,-0.1240234375,0.576171875,-7.14111328125,7.568359375,3.35693359375,-10.26123046875,47.6641845703125,79.1400146484375
1758877610.107075,-0.82861328125,-0.1240234375,0.576171875,-7.14111328125,7.568359375,3.35693359375,-10.30517578125,47.7630615234375,79.1619873046875
1758877610.1170845,-0.82177734375,-0.1220703125,0.54296875,-6.8359375,8.1787109375,2.86865234375,-10.3546142578125,47.8619384765625,79.178466796875
1758877610.1281734,-0.82177734375,-0.1220703125,0.54296875,-6.8359375,8.1787109375,2.86865234375,-10.404052734375,47.96630859375,79.1839599609375
1758877610.1372042,-0.82763671875,-0.11962890625,0.537109375,-8.7890625,8.4228515625,2.8076171875,-10.4644775390625,48.076171875,79.1949462890625
1758877610.147046,-0.82763671875,-0.11962890625,0.537109375,-8.7890625,8.4228515625,2.8076171875,-10.535888671875,48.18603515625,79.200439453125
1758877610.1573417,-0.826171875,-0.13330078125,0.546875,-9.521484375,9.09423828125,2.86865234375,-10.61279296875,48.306884765625,79.21142578125
1758877610.174093,-0.826171875,-0.13330078125,0.546875,-9.521484375,9.09423828125,2.86865234375,-10.6951904296875,48.427734375,79.2169189453125
1758877610.1810675,-0.8173828125,-0.1396484375,0.54638671875,-7.080078125,9.033203125,3.11279296875,-10.7666015625,48.548583984375,79.2279052734375
1758877610.1884577,-0.8173828125,-0.1396484375,0.54638671875,-7.080078125,9.033203125,3.11279296875,-10.8270263671875,48.6749267578125,79.2388916015625
1758877610.1978393,-0.80810546875,-0.13818359375,0.54541015625,-6.28662109375,9.033203125,3.5400390625,-10.87646484375,48.7957763671875,79.2498779296875
1758877610.2072213,-0.80810546875,-0.13818359375,0.54541015625,-6.28662109375,9.033203125,3.5400390625,-10.9259033203125,48.922119140625,79.266357421875
1758877610.217136,-0.79052734375,-0.13525390625,0.5869140625,-3.11279296875,8.6669921875,3.662109375,-10.9588623046875,49.04296875,79.288330078125
1758877610.227224,-0.79052734375,-0.13525390625,0.5869140625,-3.11279296875,8.6669921875,3.662109375,-10.975341796875,49.163818359375,79.310302734375
1758877610.2390676,-0.76513671875,-0.14208984375,0.61376953125,-1.708984375,8.48388671875,3.90625,-10.9808349609375,49.2791748046875,79.332275390625
1758877610.247682,-0.76513671875,-0.14208984375,0.61376953125,-1.708984375,8.48388671875,3.90625,-10.9808349609375,49.39453125,79.3597412109375
1758877610.2572067,-0.75048828125,-0.13134765625,0.6357421875,0.732421875,7.9345703125,3.5400390625,-10.9698486328125,49.50439453125,79.38720703125
1758877610.2691193,-0.75048828125,-0.13134765625,0.6357421875,0.732421875,7.9345703125,3.5400390625,-10.9423828125,49.603271484375,79.4091796875
1758877610.277335,-0.7529296875,-0.12060546875,0.658203125,3.35693359375,7.50732421875,2.5634765625,-10.9149169921875,49.7021484375,79.43115234375
1758877610.2876809,-0.7529296875,-0.12060546875,0.658203125,3.35693359375,7.50732421875,2.5634765625,-10.8709716796875,49.7955322265625,79.442138671875
1758877610.2973075,-0.75,-0.0986328125,0.66943359375,4.5166015625,7.62939453125,1.0986328125,-10.83251953125,49.8834228515625,79.442138671875
1758877610.3084536,-0.75,-0.0986328125,0.66943359375,4.5166015625,7.62939453125,1.0986328125,-10.799560546875,49.9658203125,79.43115234375
1758877610.3172832,-0.73681640625,-0.08935546875,0.66259765625,3.7841796875,7.26318359375,-0.54931640625,-10.7720947265625,50.042724609375,79.4146728515625
1758877610.3272333,-0.73681640625,-0.08935546875,0.66259765625,3.7841796875,7.26318359375,-0.54931640625,-10.755615234375,50.11962890625,79.3817138671875
1758877610.337668,-0.740234375,-0.10791015625,0.66796875,4.638671875,6.89697265625,-2.0751953125,-10.74462890625,50.185546875,79.3377685546875
1758877610.349225,-0.740234375,-0.10791015625,0.66796875,4.638671875,6.89697265625,-2.0751953125,-10.733642578125,50.2459716796875,79.2828369140625
1758877610.3573158,-0.74267578125,-0.12353515625,0.6474609375,7.080078125,6.28662109375,-3.47900390625,-10.72265625,50.306396484375,79.222412109375
1758877610.367813,-0.74267578125,-0.12353515625,0.6474609375,7.080078125,6.28662109375,-3.47900390625,-10.70068359375,50.3558349609375,79.1510009765625
1758877610.3781672,-0.744140625,-0.12158203125,0.65869140625,9.6435546875,5.55419921875,-4.8828125,-10.6787109375,50.3997802734375,79.068603515625
1758877610.3878183,-0.744140625,-0.12158203125,0.65869140625,9.6435546875,5.55419921875,-4.8828125,-10.6512451171875,50.438232421875,78.9752197265625
1758877610.3973927,-0.744140625,-0.109375,0.66064453125,10.68115234375,4.5166015625,-6.103515625,-10.623779296875,50.47119140625,78.8763427734375
1758877610.4079533,-0.744140625,-0.109375,0.66064453125,10.68115234375,4.5166015625,-6.103515625,-10.601806640625,50.4986572265625,78.77197265625
1758877610.4182994,-0.7373046875,-0.10498046875,0.6669921875,12.451171875,2.9296875,-7.50732421875,-10.56884765625,50.5096435546875,78.6566162109375
1758877610.4277363,-0.7373046875,-0.10498046875,0.6669921875,12.451171875,2.9296875,-7.50732421875,-10.5413818359375,50.51513671875,78.5357666015625
1758877610.4381065,-0.7314453125,-0.11328125,0.66796875,15.44189453125,1.3427734375,-8.6669921875,-10.4974365234375,50.5096435546875,78.4039306640625
1758877610.4481497,-0.7314453125,-0.11328125,0.66796875,15.44189453125,1.3427734375,-8.6669921875,-10.447998046875,50.4986572265625,78.2666015625
1758877610.4574656,-0.73828125,-0.10302734375,0.67822265625,15.80810546875,-0.18310546875,-9.09423828125,-10.39306640625,50.4766845703125,78.134765625
1758877610.476165,-0.73828125,-0.10302734375,0.67822265625,15.80810546875,-0.18310546875,-9.09423828125,-10.338134765625,50.4437255859375,77.9974365234375
1758877610.48426,-0.751953125,-0.1103515625,0.67724609375,12.51220703125,-1.3427734375,-9.033203125,-10.2996826171875,50.4052734375,77.860107421875
1758877610.4909952,-0.751953125,-0.1103515625,0.67724609375,12.51220703125,-1.3427734375,-9.033203125,-10.2777099609375,50.361328125,77.728271484375
1758877610.498048,-0.75244140625,-0.1064453125,0.63525390625,10.009765625,-2.13623046875,-8.7890625,-10.26123046875,50.3173828125,77.596435546875
1758877610.5088599,-0.75244140625,-0.1064453125,0.63525390625,10.009765625,-2.13623046875,-8.7890625,-10.2557373046875,50.2679443359375,77.4700927734375
1758877610.5176418,-0.75634765625,-0.12158203125,0.63037109375,11.474609375,-2.44140625,-8.4228515625,-10.2392578125,50.218505859375,77.3492431640625
1758877610.5278804,-0.75634765625,-0.12158203125,0.63037109375,11.474609375,-2.44140625,-8.4228515625,-10.21728515625,50.1690673828125,77.2283935546875
1758877610.5383017,-0.75732421875,-0.1298828125,0.6337890625,11.90185546875,-2.5634765625,-7.75146484375,-10.1898193359375,50.1251220703125,77.113037109375
1758877610.548091,-0.75732421875,-0.1298828125,0.6337890625,11.90185546875,-2.5634765625,-7.75146484375,-10.1513671875,50.07568359375,77.003173828125
1758877610.5576406,-0.75732421875,-0.12109375,0.63916015625,8.97216796875,-2.50244140625,-6.9580078125,-10.12939453125,50.03173828125,76.8988037109375
1758877610.5687742,-0.75732421875,-0.12109375,0.63916015625,8.97216796875,-2.50244140625,-6.9580078125,-10.118408203125,49.98779296875,76.7999267578125
1758877610.5778835,-0.75439453125,-0.12255859375,0.6572265625,5.7373046875,-2.5634765625,-5.79833984375,-10.1129150390625,49.94384765625,76.70654296875
1758877610.5879586,-0.75439453125,-0.12255859375,0.6572265625,5.7373046875,-2.5634765625,-5.79833984375,-10.118408203125,49.89990234375,76.6241455078125
1758877610.598228,-0.7431640625,-0.1259765625,0.65234375,2.62451171875,-2.62451171875,-4.5166015625,-10.1348876953125,49.8614501953125,76.552734375
1758877610.6080263,-0.7431640625,-0.1259765625,0.65234375,2.62451171875,-2.62451171875,-4.5166015625,-10.1568603515625,49.8175048828125,76.48681640625
1758877610.6179395,-0.74169921875,-0.13134765625,0.65625,2.50244140625,-3.11279296875,-3.41796875,-10.17333984375,49.779052734375,76.431884765625
1758877610.627567,-0.74169921875,-0.13134765625,0.65625,2.50244140625,-3.11279296875,-3.41796875,-10.184326171875,49.735107421875,76.387939453125
1758877610.6393132,-0.7451171875,-0.14208984375,0.671875,4.5166015625,-3.35693359375,-2.685546875,-10.1788330078125,49.691162109375,76.3494873046875
1758877610.6476173,-0.7451171875,-0.14208984375,0.671875,4.5166015625,-3.35693359375,-2.685546875,-10.162353515625,49.6417236328125,76.31103515625
1758877610.6579266,-0.7451171875,-0.14208984375,0.671875,9.521484375,-3.5400390625,-2.38037109375,-10.118408203125,49.5977783203125,76.2835693359375
1758877610.6679456,-0.74853515625,-0.1357421875,0.66845703125,9.521484375,-3.5400390625,-2.38037109375,-10.0469970703125,49.54833984375,76.256103515625
1758877610.6787407,-0.74169921875,-0.14013671875,0.6669921875,14.83154296875,-3.47900390625,-1.64794921875,-9.9481201171875,49.50439453125,76.234130859375
1758877610.6876662,-0.74169921875,-0.14013671875,0.6669921875,14.83154296875,-3.47900390625,-1.64794921875,-9.82177734375,49.46044921875,76.212158203125
1758877610.6981068,-0.7333984375,-0.13671875,0.68115234375,17.76123046875,-3.5400390625,-1.220703125,-9.678955078125,49.41650390625,76.201171875
1758877610.7081687,-0.7333984375,-0.13671875,0.68115234375,17.76123046875,-3.5400390625,-1.220703125,-9.51416015625,49.3670654296875,76.190185546875
1758877610.7183564,-0.71044921875,-0.12890625,0.68359375,23.62060546875,-3.662109375,-1.220703125,-9.327392578125,49.3231201171875,76.17919921875
1758877610.7277894,-0.71044921875,-0.12890625,0.68359375,23.62060546875,-3.662109375,-1.220703125,-9.107666015625,49.273681640625,76.168212890625
1758877610.7392185,-0.70458984375,-0.1005859375,0.689453125,30.1513671875,-3.84521484375,-1.46484375,-8.8604736328125,49.21875,76.1572265625
1758877610.7480044,-0.70458984375,-0.1005859375,0.689453125,30.1513671875,-3.84521484375,-1.46484375,-8.5858154296875,49.1693115234375,76.1407470703125
1758877610.7577252,-0.69970703125,-0.0859375,0.6943359375,31.25,-3.90625,-1.46484375,-8.3001708984375,49.1143798828125,76.1297607421875
1758877610.7678533,-0.69970703125,-0.0859375,0.6943359375,31.25,-3.90625,-1.46484375,-8.009033203125,49.0594482421875,76.1187744140625
1758877610.7782073,-0.69970703125,-0.07861328125,0.69482421875,27.7099609375,-3.96728515625,-1.5869140625,-7.7398681640625,49.0045166015625,76.102294921875
1758877610.7877746,-0.69970703125,-0.07861328125,0.69482421875,27.7099609375,-3.96728515625,-1.5869140625,-7.4871826171875,48.9495849609375,76.0858154296875
1758877610.797785,-0.69775390625,-0.08740234375,0.67724609375,29.35791015625,-3.84521484375,-2.01416015625,-7.22900390625,48.88916015625,76.0693359375
1758877610.8079376,-0.69775390625,-0.08740234375,0.67724609375,29.35791015625,-3.84521484375,-2.01416015625,-6.96533203125,48.834228515625,76.04736328125
1758877610.8177838,-0.7099609375,-0.09033203125,0.6689453125,31.8603515625,-3.96728515625,-2.9296875,-6.690673828125,48.779296875,76.0198974609375
1758877610.8280666,-0.7099609375,-0.09033203125,0.6689453125,31.8603515625,-3.96728515625,-2.9296875,-6.416015625,48.7188720703125,75.9814453125
1758877610.8380544,-0.72509765625,-0.06494140625,0.66650390625,27.28271484375,-3.5400390625,-3.11279296875,-6.163330078125,48.6639404296875,75.9429931640625
1758877610.8478422,-0.72509765625,-0.06494140625,0.66650390625,27.28271484375,-3.5400390625,-3.11279296875,-5.9381103515625,48.614501953125,75.904541015625
1758877610.8578846,-0.7470703125,-0.0322265625,0.6748046875,16.357421875,-3.35693359375,-3.2958984375,-5.7623291015625,48.5650634765625,75.860595703125
1758877610.8681223,-0.7470703125,-0.0322265625,0.6748046875,16.357421875,-3.35693359375,-3.2958984375,-5.64697265625,48.515625,75.816650390625
1758877610.8779051,-0.75390625,-0.05322265625,0.61865234375,12.3291015625,-3.41796875,-2.86865234375,-5.5426025390625,48.4661865234375,75.7781982421875
1758877610.8885698,-0.75390625,-0.05322265625,0.61865234375,12.3291015625,-3.41796875,-2.86865234375,-5.4547119140625,48.4222412109375,75.73974609375
1758877610.8979669,-0.76318359375,-0.09716796875,0.60595703125,12.39013671875,-4.08935546875,-2.44140625,-5.3668212890625,48.3782958984375,75.7012939453125
1758877610.9082408,-0.76318359375,-0.09716796875,0.60595703125,12.39013671875,-4.08935546875,-2.44140625,-5.2734375,48.3343505859375,75.6683349609375
1758877610.9179053,-0.7705078125,-0.1025390625,0.615234375,14.404296875,-4.150390625,-2.25830078125,-5.174560546875,48.2904052734375,75.6353759765625
1758877610.9280071,-0.7705078125,-0.1025390625,0.615234375,14.404296875,-4.150390625,-2.25830078125,-5.064697265625,48.2464599609375,75.60791015625
1758877610.9380085,-0.7919921875,-0.0771484375,0.6015625,19.22607421875,-3.90625,-1.89208984375,-4.932861328125,48.2080078125,75.574951171875
1758877610.9479625,-0.7919921875,-0.0771484375,0.6015625,19.22607421875,-3.90625,-1.89208984375,-4.7735595703125,48.175048828125,75.5474853515625
1758877610.9579632,-0.796875,-0.0517578125,0.59814453125,21.3623046875,-4.39453125,-1.15966796875,-4.603271484375,48.14208984375,75.531005859375
1758877610.9683888,-0.796875,-0.0517578125,0.59814453125,21.3623046875,-4.39453125,-1.15966796875,-4.4110107421875,48.1036376953125,75.5145263671875
1758877610.9779797,-0.78759765625,-0.03173828125,0.626953125,16.4794921875,-3.96728515625,0.0,-4.2572021484375,48.076171875,75.5145263671875
1758877610.9880512,-0.78759765625,-0.03173828125,0.626953125,16.4794921875,-3.96728515625,0.0,-4.1033935546875,48.0487060546875,75.5145263671875
1758877610.99809,-0.78564453125,-0.02685546875,0.62646484375,10.68115234375,-4.0283203125,0.732421875,-3.9990234375,48.0267333984375,75.52001953125
1758877611.0085385,-0.78564453125,-0.02685546875,0.62646484375,10.68115234375,-4.0283203125,0.732421875,-3.88916015625,47.999267578125,75.531005859375
1758877611.0180812,-0.77685546875,-0.033203125,0.6455078125,5.126953125,-3.41796875,1.52587890625,-3.8287353515625,47.9827880859375,75.552978515625
1758877611.0284433,-0.77685546875,-0.033203125,0.6455078125,5.126953125,-3.41796875,1.52587890625,-3.768310546875,47.96630859375,75.5694580078125
1758877611.038359,-0.77392578125,-0.04541015625,0.65673828125,3.5400390625,-2.8076171875,1.89208984375,-3.7188720703125,47.9498291015625,75.596923828125
1758877611.0485067,-0.77392578125,-0.04541015625,0.65673828125,3.5400390625,-2.8076171875,1.89208984375,-3.6639404296875,47.9388427734375,75.618896484375
1758877611.0580902,-0.763671875,-0.0458984375,0.6552734375,2.86865234375,-2.44140625,2.50244140625,-3.614501953125,47.9278564453125,75.65185546875
1758877611.0696604,-0.763671875,-0.0458984375,0.6552734375,2.86865234375,-2.44140625,2.50244140625,-3.5650634765625,47.92236328125,75.6903076171875
1758877611.0785027,-0.74462890625,-0.03173828125,0.6630859375,-0.91552734375,-2.3193359375,2.99072265625,-3.5430908203125,47.911376953125,75.728759765625
1758877611.0884767,-0.74462890625,-0.03173828125,0.6630859375,-0.91552734375,-2.3193359375,2.99072265625,-3.5211181640625,47.900390625,75.7672119140625
1758877611.0982358,-0.7333984375,-0.0263671875,0.69091796875,-5.55419921875,-2.44140625,3.60107421875,-3.5430908203125,47.889404296875,75.816650390625
1758877611.10957,-0.7333984375,-0.0263671875,0.69091796875,-5.55419921875,-2.44140625,3.60107421875,-3.5595703125,47.8729248046875,75.87158203125
1758877611.1182036,-0.716796875,-0.0185546875,0.72607421875,-11.1083984375,-2.5634765625,4.150390625,-3.6199951171875,47.8564453125,75.926513671875
1758877611.1286492,-0.716796875,-0.0185546875,0.72607421875,-11.1083984375,-2.5634765625,4.150390625,-3.6859130859375,47.8399658203125,75.9869384765625
1758877611.1385205,-0.7275390625,-0.0126953125,0.7099609375,-11.8408203125,-2.5634765625,4.5166015625,-3.746337890625,47.8179931640625,76.0528564453125
1758877611.1493676,-0.7275390625,-0.0126953125,0.7099609375,-11.8408203125,-2.5634765625,4.5166015625,-3.812255859375,47.7960205078125,76.124267578125
1758877611.1583157,-0.74853515625,-0.037109375,0.6796875,-10.19287109375,-1.89208984375,4.82177734375,-3.8507080078125,47.779541015625,76.190185546875
1758877611.1698167,-0.74853515625,-0.037109375,0.6796875,-10.19287109375,-1.89208984375,4.82177734375,-3.8946533203125,47.7630615234375,76.2615966796875
1758877611.1784391,-0.76806640625,-0.04443359375,0.6376953125,-11.16943359375,-1.03759765625,5.37109375,-3.944091796875,47.757568359375,76.3385009765625
1758877611.188901,-0.76806640625,-0.04443359375,0.6376953125,-11.16943359375,-1.03759765625,5.37109375,-3.988037109375,47.757568359375,76.4208984375
1758877611.1986747,-0.77783203125,-0.02734375,0.62939453125,-12.51220703125,-0.18310546875,5.79833984375,-4.04296875,47.7630615234375,76.5032958984375
1758877611.2094076,-0.77783203125,-0.02734375,0.62939453125,-12.51220703125,-0.18310546875,5.79833984375,-4.097900390625,47.7685546875,76.585693359375
1758877611.218341,-0.7822265625,-0.0224609375,0.62841796875,-15.68603515625,0.732421875,6.2255859375,-4.1802978515625,47.79052734375,76.6680908203125
1758877611.2286947,-0.7822265625,-0.0224609375,0.62841796875,-15.68603515625,0.732421875,6.2255859375,-4.2626953125,47.8070068359375,76.7559814453125
1758877611.2383778,-0.77197265625,-0.02734375,0.62646484375,-19.8974609375,1.15966796875,6.65283203125,-4.3780517578125,47.83447265625,76.849365234375
1758877611.248394,-0.77197265625,-0.02734375,0.62646484375,-19.8974609375,1.15966796875,6.65283203125,-4.4989013671875,47.8619384765625,76.937255859375
1758877611.2586238,-0.7646484375,-0.05810546875,0.6416015625,-21.728515625,1.0986328125,7.2021484375,-4.625244140625,47.889404296875,77.0416259765625
1758877611.2685468,-0.7646484375,-0.05810546875,0.6416015625,-21.728515625,1.0986328125,7.2021484375,-4.757080078125,47.9168701171875,77.1405029296875
1758877611.278441,-0.75439453125,-0.07080078125,0.65185546875,-21.484375,0.9765625,7.8125,-4.8779296875,47.9388427734375,77.244873046875
1758877611.2887647,-0.75439453125,-0.07080078125,0.65185546875,-21.484375,0.9765625,7.8125,-4.998779296875,47.96630859375,77.354736328125
1758877611.2988749,-0.74560546875,-0.07666015625,0.64990234375,-20.56884765625,0.732421875,8.544921875,-5.1031494140625,47.98828125,77.4755859375
1758877611.3084917,-0.74560546875,-0.07666015625,0.64990234375,-20.56884765625,0.732421875,8.544921875,-5.2130126953125,48.0157470703125,77.596435546875
1758877611.3185375,-0.7412109375,-0.0751953125,0.66552734375,-18.06640625,0.48828125,9.09423828125,-5.284423828125,48.0322265625,77.728271484375
1758877611.328865,-0.7412109375,-0.0751953125,0.66552734375,-18.06640625,0.48828125,9.09423828125,-5.361328125,48.05419921875,77.860107421875
1758877611.3385205,-0.732421875,-0.06884765625,0.671875,-14.5263671875,0.42724609375,9.1552734375,-5.4052734375,48.0706787109375,77.991943359375
1758877611.3485498,-0.732421875,-0.06884765625,0.671875,-14.5263671875,0.42724609375,9.1552734375,-5.4437255859375,48.087158203125,78.123779296875
1758877611.3591194,-0.72802734375,-0.048828125,0.68115234375,-13.73291015625,0.42724609375,9.21630859375,-5.4766845703125,48.1036376953125,78.255615234375
