timestamp,acc_x,acc_y,acc_z,gyro_x,gyro_y,gyro_z,angle_x,angle_y,angle_z
1758878085.2923465,-0.89599609375,0.087890625,0.4296875,2.50244140625,-0.06103515625,-3.60107421875,12.0684814453125,62.7264404296875,123.189697265625
1758878085.3033948,-0.890625,0.0986328125,0.421875,1.64794921875,-0.6103515625,-3.41796875,12.0245361328125,62.73193359375,123.11279296875
1758878085.312463,-0.890625,0.0986328125,0.421875,1.64794921875,-0.6103515625,-3.41796875,11.9805908203125,62.7374267578125,123.0413818359375
1758878085.3250704,-0.890625,0.109375,0.4365234375,-1.28173828125,-0.91552734375,-3.35693359375,11.920166015625,62.7374267578125,122.969970703125
1758878085.3381066,-0.890625,0.109375,0.4365234375,-1.28173828125,-0.91552734375,-3.35693359375,11.8487548828125,62.7374267578125,122.8985595703125
1758878085.34819,-0.87890625,0.1025390625,0.4453125,-2.197265625,-1.52587890625,-3.84521484375,11.7608642578125,62.7374267578125,122.8216552734375
1758878085.3553736,-0.87890625,0.1025390625,0.4453125,-2.197265625,-1.52587890625,-3.84521484375,11.6729736328125,62.73193359375,122.7392578125
1758878085.3628502,-0.88330078125,0.10107421875,0.4541015625,0.1220703125,-2.8076171875,-4.8828125,11.57958984375,62.720947265625,122.640380859375
1758878085.3716016,-0.88330078125,0.10107421875,0.4541015625,0.1220703125,-2.8076171875,-4.8828125,11.480712890625,62.7044677734375,122.5250244140625
1758878085.3814652,-0.888671875,0.09814453125,0.44189453125,1.220703125,-3.96728515625,-5.55419921875,11.3873291015625,62.6824951171875,122.4041748046875
1758878085.3914714,-0.888671875,0.09814453125,0.44189453125,1.220703125,-3.96728515625,-5.55419921875,11.2884521484375,62.655029296875,122.2723388671875
1758878085.4014828,-0.89013671875,0.0908203125,0.43408203125,0.1220703125,-5.126953125,-5.9814453125,11.1785888671875,62.6220703125,122.135009765625
1758878085.4114342,-0.89013671875,0.0908203125,0.43408203125,0.1220703125,-5.126953125,-5.9814453125,11.0577392578125,62.589111328125,121.9921875
1758878085.4213285,-0.888671875,0.09375,0.43017578125,0.79345703125,-6.7138671875,-6.7138671875,10.931396484375,62.545166015625,121.83837890625
1758878085.4316437,-0.888671875,0.09375,0.43017578125,0.79345703125,-6.7138671875,-6.7138671875,10.7940673828125,62.4957275390625,121.673583984375
1758878085.441318,-0.89013671875,0.09765625,0.4375,0.732421875,-8.1787109375,-7.2021484375,10.65673828125,62.435302734375,121.497802734375
1758878085.4513626,-0.89013671875,0.09765625,0.4375,0.732421875,-8.1787109375,-7.2021484375,10.513916015625,62.3748779296875,121.322021484375
1758878085.4614196,-0.88916015625,0.08642578125,0.43603515625,-1.64794921875,-9.521484375,-7.01904296875,10.3546142578125,62.303466796875,121.1407470703125
1758878085.4716167,-0.88916015625,0.08642578125,0.43603515625,-1.64794921875,-9.521484375,-7.01904296875,10.1898193359375,62.2320556640625,120.9649658203125
1758878085.4813817,-0.8916015625,0.06640625,0.43798828125,-3.60107421875,-10.25390625,-6.2255859375,10.01953125,62.149658203125,120.794677734375
1758878085.491393,-0.8916015625,0.06640625,0.43798828125,-3.60107421875,-10.25390625,-6.2255859375,9.84375,62.0672607421875,120.6353759765625
1758878085.5013947,-0.89013671875,0.05810546875,0.4501953125,-2.99072265625,-10.6201171875,-5.4931640625,9.6844482421875,61.98486328125,120.47607421875
1758878085.5114126,-0.89013671875,0.05810546875,0.4501953125,-2.99072265625,-10.6201171875,-5.4931640625,9.525146484375,61.89697265625,120.333251953125
1758878085.521423,-0.88037109375,0.0615234375,0.470703125,-1.52587890625,-10.7421875,-4.638671875,9.38232421875,61.8035888671875,120.1904296875
1758878085.5314317,-0.88037109375,0.0615234375,0.470703125,-1.52587890625,-10.7421875,-4.638671875,9.2559814453125,61.7156982421875,120.0640869140625
1758878085.5415673,-0.873046875,0.07080078125,0.4775390625,-1.15966796875,-11.16943359375,-4.0283203125,9.140625,61.622314453125,119.937744140625
1758878085.5514612,-0.873046875,0.07080078125,0.4775390625,-1.15966796875,-11.16943359375,-4.0283203125,9.0252685546875,61.5234375,119.8223876953125
1758878085.5614724,-0.87255859375,0.0712890625,0.47216796875,-0.30517578125,-11.474609375,-3.90625,8.9208984375,61.424560546875,119.70703125
1758878085.5714898,-0.87255859375,0.0712890625,0.47216796875,-0.30517578125,-11.474609375,-3.90625,8.8165283203125,61.32568359375,119.5916748046875
1758878085.5815506,-0.8876953125,0.068359375,0.4794921875,-0.79345703125,-10.8642578125,-4.33349609375,8.712158203125,61.226806640625,119.4708251953125
1758878085.5915728,-0.8876953125,0.068359375,0.4794921875,-0.79345703125,-10.8642578125,-4.33349609375,8.602294921875,61.1334228515625,119.3499755859375
1758878085.6015613,-0.84375,0.10595703125,0.49755859375,1.77001953125,-10.498046875,-5.9814453125,8.492431640625,61.0400390625,119.212646484375
1758878085.6115913,-0.84375,0.10595703125,0.49755859375,1.77001953125,-10.498046875,-5.9814453125,8.382568359375,60.9521484375,119.0643310546875
1758878085.6216037,-0.80419921875,0.111328125,0.52978515625,-0.8544921875,-13.61083984375,-6.89697265625,8.250732421875,60.84228515625,118.8995361328125
1758878085.6316168,-0.80419921875,0.111328125,0.52978515625,-0.8544921875,-13.61083984375,-6.89697265625,8.096923828125,60.721435546875,118.71826171875
1758878085.641632,-0.80615234375,0.0556640625,0.57958984375,-9.58251953125,-20.99609375,-7.9345703125,7.8826904296875,60.556640625,118.5205078125
1758878085.6516442,-0.80615234375,0.0556640625,0.57958984375,-9.58251953125,-20.99609375,-7.9345703125,7.613525390625,60.35888671875,118.3062744140625
1758878085.6617196,-0.81005859375,0.08740234375,0.56787109375,-5.7373046875,-28.3203125,-11.53564453125,7.3223876953125,60.1226806640625,118.0426025390625
1758878085.6717312,-0.81005859375,0.08740234375,0.56787109375,-5.7373046875,-28.3203125,-11.53564453125,7.0147705078125,59.8480224609375,117.740478515625
1758878085.6817374,-0.86572265625,0.14453125,0.595703125,3.60107421875,-31.1279296875,-17.76123046875,6.712646484375,59.5623779296875,117.3834228515625
1758878085.691736,-0.86572265625,0.14453125,0.595703125,3.60107421875,-31.1279296875,-17.76123046875,6.4105224609375,59.2657470703125,116.9659423828125
1758878085.701734,-0.90234375,0.1767578125,0.53466796875,16.357421875,-31.005859375,-23.5595703125,6.1358642578125,58.974609375,116.5045166015625
1758878085.7117312,-0.90234375,0.1767578125,0.53466796875,16.357421875,-31.005859375,-23.5595703125,5.888671875,58.6834716796875,115.99365234375
1758878085.7217462,-0.91259765625,0.08056640625,0.419921875,21.97265625,-27.52685546875,-23.3154296875,5.6854248046875,58.414306640625,115.499267578125
1758878085.7317514,-0.91259765625,0.08056640625,0.419921875,21.97265625,-27.52685546875,-23.3154296875,5.5206298828125,58.1671142578125,115.015869140625
1758878085.7417715,-0.82958984375,-0.10888671875,0.38818359375,11.16943359375,-21.05712890625,-18.24951171875,5.350341796875,57.952880859375,114.5928955078125
1758878085.7517838,-0.82958984375,-0.10888671875,0.38818359375,11.16943359375,-21.05712890625,-18.24951171875,5.1690673828125,57.7716064453125,114.224853515625
1758878085.761844,-0.833984375,-0.11083984375,0.53466796875,-2.50244140625,-16.54052734375,-13.97705078125,4.9383544921875,57.6123046875,113.9007568359375
1758878085.7718296,-0.833984375,-0.11083984375,0.53466796875,-2.50244140625,-16.54052734375,-13.97705078125,4.6746826171875,57.4749755859375,113.62060546875
1758878085.7818367,-0.8740234375,0.056640625,0.66357421875,10.55908203125,-15.2587890625,-13.3056640625,4.482421875,57.3431396484375,113.345947265625
1758878085.7918777,-0.8740234375,0.056640625,0.66357421875,10.55908203125,-15.2587890625,-13.3056640625,4.3560791015625,57.2113037109375,113.0767822265625
1758878085.8020766,-0.83935546875,0.08935546875,0.5732421875,20.751953125,-15.68603515625,-14.404296875,4.2791748046875,57.073974609375,112.8021240234375
1758878085.8118966,-0.83935546875,0.08935546875,0.5732421875,20.751953125,-15.68603515625,-14.404296875,4.251708984375,56.9366455078125,112.5164794921875
1758878085.8220868,-0.83935546875,0.08935546875,0.5732421875,9.94873046875,-15.19775390625,-14.22119140625,4.1748046875,56.79931640625,112.236328125
1758878085.8319595,-0.8232421875,0.09423828125,0.50390625,9.94873046875,-15.19775390625,-14.22119140625,4.0484619140625,56.66748046875,111.9561767578125
1758878085.8421824,-0.826171875,0.01904296875,0.53466796875,-3.7841796875,-14.7705078125,-13.61083984375,3.8671875,56.53564453125,111.68701171875
1758878085.8519545,-0.826171875,0.01904296875,0.53466796875,-3.7841796875,-14.7705078125,-13.61083984375,3.6199951171875,56.40380859375,111.42333984375
1758878085.8620977,-0.83544921875,-0.01318359375,0.55908203125,-2.44140625,-14.2822265625,-13.7939453125,3.3782958984375,56.2774658203125,111.1651611328125
1758878085.8720272,-0.83544921875,-0.01318359375,0.55908203125,-2.44140625,-14.2822265625,-13.7939453125,3.14208984375,56.151123046875,110.9014892578125
1758878085.8821695,-0.81689453125,0.02685546875,0.591796875,2.3193359375,-13.24462890625,-14.95361328125,2.92236328125,56.0302734375,110.6268310546875
1758878085.8921854,-0.81689453125,0.02685546875,0.591796875,2.3193359375,-13.24462890625,-14.95361328125,2.724609375,55.909423828125,110.3466796875
1758878085.9022887,-0.8154296875,0.05615234375,0.61962890625,5.2490234375,-11.16943359375,-16.17431640625,2.52685546875,55.799560546875,110.0555419921875
1758878085.912117,-0.8154296875,0.05615234375,0.61962890625,5.2490234375,-11.16943359375,-16.17431640625,2.3455810546875,55.70068359375,109.7589111328125
1758878085.922387,-0.79052734375,0.0224609375,0.63623046875,5.859375,-10.07080078125,-16.357421875,2.1697998046875,55.601806640625,109.456787109375
1758878085.9321105,-0.79052734375,0.0224609375,0.63623046875,5.859375,-10.07080078125,-16.357421875,1.9940185546875,55.5084228515625,109.1546630859375
1758878085.9423413,-0.7900390625,-0.01171875,0.64794921875,2.50244140625,-9.46044921875,-15.9912109375,1.8072509765625,55.4150390625,108.8580322265625
1758878085.9523582,-0.7900390625,-0.01171875,0.64794921875,2.50244140625,-9.46044921875,-15.9912109375,1.60400390625,55.3216552734375,108.5614013671875
1758878085.9622254,-0.78125,-0.0087890625,0.6640625,3.0517578125,-9.70458984375,-15.869140625,1.40625,55.2227783203125,108.270263671875
1758878085.9721956,-0.78125,-0.0087890625,0.6640625,3.0517578125,-9.70458984375,-15.869140625,1.20849609375,55.118408203125,107.9736328125
1758878085.9826348,-0.7783203125,0.00390625,0.681640625,5.7373046875,-10.1318359375,-15.380859375,1.03271484375,55.0140380859375,107.68798828125
1758878085.9922194,-0.7783203125,0.00390625,0.681640625,5.7373046875,-10.1318359375,-15.380859375,0.8734130859375,54.9041748046875,107.40234375
1758878086.0023077,-0.76904296875,-0.02001953125,0.71923828125,5.79833984375,-10.68115234375,-14.22119140625,0.7196044921875,54.7833251953125,107.127685546875
1758878086.0122552,-0.76904296875,-0.02001953125,0.71923828125,5.79833984375,-10.68115234375,-14.22119140625,0.5767822265625,54.6624755859375,106.864013671875
1758878086.0226545,-0.7685546875,-0.02392578125,0.71337890625,10.1318359375,-11.29150390625,-12.6953125,0.4669189453125,54.5361328125,106.611328125
1758878086.0323713,-0.7685546875,-0.02392578125,0.71337890625,10.1318359375,-11.29150390625,-12.6953125,0.3900146484375,54.404296875,106.36962890625
1758878086.0423925,-0.771484375,-0.056640625,0.66162109375,15.2587890625,-11.53564453125,-10.43701171875,0.3515625,54.2669677734375,106.14990234375
1758878086.0523033,-0.771484375,-0.056640625,0.66162109375,15.2587890625,-11.53564453125,-10.43701171875,0.3570556640625,54.129638671875,105.9521484375
1758878086.0625918,-0.81982421875,-0.07763671875,0.5888671875,26.79443359375,-12.51220703125,-8.7890625,0.4229736328125,53.9923095703125,105.765380859375
1758878086.0723367,-0.81982421875,-0.07763671875,0.5888671875,26.79443359375,-12.51220703125,-8.7890625,0.5548095703125,53.8494873046875,105.5950927734375
1758878086.0825188,-0.8623046875,-0.064453125,0.515625,49.01123046875,-13.24462890625,-7.75146484375,0.802001953125,53.7066650390625,105.4302978515625
1758878086.0923595,-0.8623046875,-0.064453125,0.515625,49.01123046875,-13.24462890625,-7.75146484375,1.16455078125,53.5638427734375,105.2764892578125
1758878086.1026073,-0.87255859375,-0.03515625,0.48291015625,60.546875,-13.12255859375,-7.080078125,1.58203125,53.4320068359375,105.128173828125
1758878086.1124308,-0.87255859375,-0.03515625,0.48291015625,60.546875,-13.12255859375,-7.080078125,2.0599365234375,53.3056640625,104.9853515625
1758878086.1224806,-0.8486328125,0.02978515625,0.48681640625,48.40087890625,-11.90185546875,-7.01904296875,2.471923828125,53.1903076171875,104.8480224609375
1758878086.1323993,-0.8486328125,0.02978515625,0.48681640625,48.40087890625,-11.90185546875,-7.01904296875,2.823486328125,53.0859375,104.7052001953125
1758878086.1425953,-0.8505859375,0.05419921875,0.42333984375,35.15625,-10.07080078125,-6.8359375,3.1146240234375,52.9925537109375,104.5733642578125
1758878086.1524134,-0.8505859375,0.05419921875,0.42333984375,35.15625,-10.07080078125,-6.8359375,3.3453369140625,52.9156494140625,104.4415283203125
1758878086.1624753,-0.85498046875,0.05810546875,0.40380859375,26.0009765625,-8.72802734375,-7.080078125,3.5321044921875,52.8497314453125,104.3096923828125
1758878086.1723962,-0.85498046875,0.05810546875,0.40380859375,26.0009765625,-8.72802734375,-7.080078125,3.66943359375,52.7947998046875,104.1778564453125
1758878086.1827757,-0.86572265625,0.076171875,0.43994140625,7.26318359375,-6.28662109375,-7.6904296875,3.7188720703125,52.7618408203125,104.04052734375
1758878086.1925025,-0.86572265625,0.076171875,0.43994140625,7.26318359375,-6.28662109375,-7.6904296875,3.6749267578125,52.7398681640625,103.9031982421875
1758878086.2025778,-0.85986328125,0.0869140625,0.45947265625,-2.25830078125,-4.5166015625,-8.6669921875,3.58154296875,52.7288818359375,103.7603759765625
1758878086.2125127,-0.85986328125,0.0869140625,0.45947265625,-2.25830078125,-4.5166015625,-8.6669921875,3.438720703125,52.7288818359375,103.612060546875
1758878086.2226045,-0.83935546875,0.06689453125,0.5029296875,-1.89208984375,-3.23486328125,-9.521484375,3.3013916015625,52.734375,103.4527587890625
1758878086.2324932,-0.83935546875,0.06689453125,0.5029296875,-1.89208984375,-3.23486328125,-9.521484375,3.1585693359375,52.7508544921875,103.2879638671875
1758878086.2425764,-0.78857421875,0.03515625,0.59033203125,-8.6669921875,-2.685546875,-10.31494140625,2.9827880859375,52.7618408203125,103.11767578125
1758878086.252591,-0.78857421875,0.03515625,0.59033203125,-8.6669921875,-2.685546875,-10.31494140625,2.7685546875,52.7783203125,102.9364013671875
1758878086.2630403,-0.75732421875,0.0283203125,0.65869140625,-9.94873046875,-2.62451171875,-10.92529296875,2.5323486328125,52.7838134765625,102.7496337890625
1758878086.2724893,-0.75732421875,0.0283203125,0.65869140625,-9.94873046875,-2.62451171875,-10.92529296875,2.296142578125,52.789306640625,102.557373046875
1758878086.282624,-0.751953125,0.0087890625,0.7099609375,-2.86865234375,-3.173828125,-11.29150390625,2.1258544921875,52.7783203125,102.359619140625
1758878086.292987,-0.751953125,0.0087890625,0.7099609375,-2.86865234375,-3.173828125,-11.29150390625,1.95556640625,52.767333984375,102.1563720703125
1758878086.3032556,-0.75244140625,-0.017578125,0.6884765625,7.568359375,-3.96728515625,-11.04736328125,1.8896484375,52.7398681640625,101.9586181640625
1758878086.3125987,-0.75244140625,-0.017578125,0.6884765625,7.568359375,-3.96728515625,-11.04736328125,1.8182373046875,52.7069091796875,101.75537109375
1758878086.3317604,-0.76171875,-0.02392578125,0.64013671875,16.05224609375,-4.7607421875,-9.6435546875,1.8511962890625,52.6629638671875,101.57958984375
1758878086.400634,-0.76171875,-0.02392578125,0.64013671875,16.05224609375,-4.7607421875,-9.6435546875,1.8841552734375,52.62451171875,101.40380859375
1758878086.407126,-0.77734375,-0.0478515625,0.6630859375,13.5498046875,-5.43212890625,-6.9580078125,1.9171142578125,52.569580078125,101.2664794921875
1758878086.4134452,-0.77734375,-0.0478515625,0.6630859375,13.5498046875,-5.43212890625,-6.9580078125,1.9500732421875,52.5146484375,101.129150390625
1758878086.4207032,-0.7607421875,-0.0224609375,0.716796875,6.40869140625,-6.28662109375,-5.37109375,1.9281005859375,52.4542236328125,101.019287109375
1758878086.4281564,-0.7607421875,-0.0224609375,0.716796875,6.40869140625,-6.28662109375,-5.37109375,1.9061279296875,52.3828125,100.909423828125
1758878086.435389,-0.71875,0.01171875,0.73583984375,10.31494140625,-7.6904296875,-4.45556640625,1.9390869140625,52.3004150390625,100.810546875
1758878086.442469,-0.71875,0.01171875,0.73583984375,10.31494140625,-7.6904296875,-4.45556640625,1.966552734375,52.20703125,100.7061767578125
1758878086.4491796,-0.67431640625,0.021484375,0.77099609375,13.427734375,-9.6435546875,-3.84521484375,2.032470703125,52.09716796875,100.6182861328125
1758878086.4562585,-0.67431640625,0.021484375,0.77099609375,13.427734375,-9.6435546875,-3.84521484375,2.1038818359375,51.9818115234375,100.52490234375
1758878086.4634054,-0.61181640625,0.02490234375,0.81884765625,5.9814453125,-11.1083984375,-3.173828125,2.1038818359375,51.844482421875,100.4425048828125
1758878086.46983,-0.61181640625,0.02490234375,0.81884765625,5.9814453125,-11.1083984375,-3.173828125,2.109375,51.70166015625,100.3546142578125
1758878086.4761362,-0.5341796875,0.02294921875,0.86279296875,-3.96728515625,-12.3291015625,-2.685546875,2.0159912109375,51.5423583984375,100.2777099609375
1758878086.4829838,-0.5341796875,0.02294921875,0.86279296875,-3.96728515625,-12.3291015625,-2.685546875,1.9281005859375,51.3720703125,100.2008056640625
1758878086.4898927,-0.4921875,0.0517578125,0.83984375,-15.56396484375,-12.26806640625,-1.5869140625,1.7413330078125,51.1962890625,100.140380859375
1758878086.4977582,-0.4921875,0.0517578125,0.83984375,-15.56396484375,-12.26806640625,-1.5869140625,1.5545654296875,51.0150146484375,100.0799560546875
1758878086.504201,-0.44140625,0.06787109375,0.77783203125,-37.7197265625,-11.5966796875,0.18310546875,1.175537109375,50.8392333984375,100.0469970703125
1758878086.5105824,-0.44140625,0.06787109375,0.77783203125,-37.7197265625,-11.5966796875,0.18310546875,0.802001953125,50.6524658203125,100.01953125
1758878086.5169218,-0.42578125,0.0703125,0.6650390625,-48.095703125,-9.21630859375,2.44140625,0.3570556640625,50.4876708984375,100.0250244140625
1758878086.523747,-0.42578125,0.0703125,0.6650390625,-48.095703125,-9.21630859375,2.44140625,-0.076904296875,50.3228759765625,100.030517578125
1758878086.5312283,-0.49755859375,0.02880859375,0.61865234375,-48.64501953125,-7.26318359375,4.0283203125,-0.494384765625,50.1800537109375,100.0689697265625
1758878086.5378902,-0.49755859375,0.02880859375,0.61865234375,-48.64501953125,-7.26318359375,4.0283203125,-0.9173583984375,50.03173828125,100.1019287109375
1758878086.5442061,-0.53466796875,-0.03759765625,0.478515625,-42.29736328125,-5.0048828125,4.2724609375,-1.2689208984375,49.9163818359375,100.140380859375
1758878086.55299,-0.53466796875,-0.03759765625,0.478515625,-42.29736328125,-5.0048828125,4.2724609375,-1.6204833984375,49.8065185546875,100.1788330078125
1758878086.5631852,-0.72607421875,-0.10791015625,0.80859375,-29.1748046875,-6.103515625,2.0751953125,-1.86767578125,49.6856689453125,100.184326171875
1758878086.5729384,-0.72607421875,-0.10791015625,0.80859375,-29.1748046875,-6.103515625,2.0751953125,-2.1258544921875,49.5703125,100.1898193359375
1758878086.5829315,-1.2744140625,-0.04443359375,1.31787109375,-25.390625,-9.765625,2.38037109375,-2.3345947265625,49.4219970703125,100.2008056640625
1758878086.5932934,-1.2744140625,-0.04443359375,1.31787109375,-25.390625,-9.765625,2.38037109375,-2.548828125,49.273681640625,100.21728515625
1758878086.6033437,-0.97998046875,-0.03662109375,0.859375,1.40380859375,-13.48876953125,0.67138671875,-2.515869140625,49.097900390625,100.206298828125
1758878086.6130116,-0.97998046875,-0.03662109375,0.859375,1.40380859375,-13.48876953125,0.67138671875,-2.4774169921875,48.9276123046875,100.1953125
1758878086.623043,-0.7451171875,-0.1298828125,0.32958984375,35.64453125,-13.427734375,-0.91552734375,-2.1258544921875,48.7628173828125,100.162353515625
1758878086.6332598,-0.7451171875,-0.1298828125,0.32958984375,35.64453125,-13.427734375,-0.91552734375,-1.77978515625,48.6090087890625,100.12939453125
1758878086.6430387,-0.7822265625,-0.14306640625,0.326171875,36.376953125,-10.31494140625,-2.9296875,-1.4556884765625,48.4991455078125,100.0689697265625
1758878086.6530545,-0.7822265625,-0.14306640625,0.326171875,36.376953125,-10.31494140625,-2.9296875,-1.142578125,48.4002685546875,100.008544921875
1758878086.6630344,-0.97509765625,-0.02490234375,0.537109375,30.09033203125,-9.27734375,-3.96728515625,-0.9063720703125,48.31787109375,99.931640625
1758878086.6739554,-0.97509765625,-0.02490234375,0.537109375,30.09033203125,-9.27734375,-3.96728515625,-0.6756591796875,48.2464599609375,99.8602294921875
1758878086.683107,-0.94921875,0.05517578125,0.62109375,26.06201171875,-8.72802734375,-6.16455078125,-0.4998779296875,48.1805419921875,99.755859375
1758878086.6931856,-0.94921875,0.05517578125,0.62109375,26.06201171875,-8.72802734375,-6.16455078125,-0.318603515625,48.1201171875,99.6514892578125
1758878086.703153,-0.8212890625,0.02392578125,0.48486328125,33.38623046875,-7.87353515625,-6.89697265625,-0.076904296875,48.076171875,99.5361328125
1758878086.7140713,-0.8212890625,0.02392578125,0.48486328125,33.38623046875,-7.87353515625,-6.89697265625,0.164794921875,48.0322265625,99.42626953125
1758878086.7231472,-0.736328125,-0.01806640625,0.451171875,43.15185546875,-5.4931640625,-6.34765625,0.5108642578125,48.01025390625,99.31640625
1758878086.7332242,-0.736328125,-0.01806640625,0.451171875,43.15185546875,-5.4931640625,-6.34765625,0.85693359375,47.999267578125,99.217529296875
1758878086.7439237,-0.7587890625,0.0,0.53369140625,28.80859375,-3.662109375,-6.16455078125,1.0601806640625,48.0047607421875,99.1131591796875
1758878086.7545943,-0.7587890625,0.0,0.53369140625,28.80859375,-3.662109375,-6.16455078125,1.263427734375,48.01025390625,99.0142822265625
1758878086.7631655,-0.80810546875,0.05810546875,0.6513671875,17.822265625,-3.0517578125,-5.859375,1.3623046875,48.0157470703125,98.9208984375
1758878086.7732196,-0.80810546875,0.05810546875,0.6513671875,17.822265625,-3.0517578125,-5.859375,1.4666748046875,48.0267333984375,98.822021484375
1758878086.783422,-0.87841796875,0.02783203125,0.7353515625,20.6298828125,-3.23486328125,-5.2490234375,1.60400390625,48.0267333984375,98.734130859375
1758878086.793582,-0.87841796875,0.02783203125,0.7353515625,20.6298828125,-3.23486328125,-5.2490234375,1.7413330078125,48.0267333984375,98.646240234375
1758878086.8032637,-0.93115234375,-0.0234375,0.68896484375,15.0146484375,-3.84521484375,-5.2490234375,1.82373046875,48.021240234375,98.558349609375
1758878086.8138204,-0.93115234375,-0.0234375,0.68896484375,15.0146484375,-3.84521484375,-5.2490234375,1.9061279296875,48.0157470703125,98.4649658203125
1758878086.8233025,-0.93115234375,-0.0234375,0.68896484375,9.82666015625,-4.94384765625,-5.4931640625,1.9281005859375,48.0047607421875,98.37158203125
1758878086.8333278,-0.91552734375,-0.00146484375,0.6826171875,9.82666015625,-4.94384765625,-5.4931640625,1.95556640625,47.98828125,98.28369140625
1758878086.8433511,-0.88134765625,0.0341796875,0.57568359375,11.41357421875,-5.18798828125,-5.615234375,1.9940185546875,47.9718017578125,98.184814453125
1758878086.854165,-0.88134765625,0.0341796875,0.57568359375,11.41357421875,-5.18798828125,-5.615234375,2.032470703125,47.955322265625,98.0914306640625
1758878086.8633008,-0.82763671875,0.04345703125,0.4853515625,10.986328125,-4.8828125,-5.43212890625,2.076416015625,47.9443359375,97.998046875
1758878086.8733816,-0.82763671875,0.04345703125,0.4853515625,10.986328125,-4.8828125,-5.43212890625,2.120361328125,47.9388427734375,97.9046630859375
1758878086.8837192,-0.80078125,0.0224609375,0.478515625,6.28662109375,-3.35693359375,-5.126953125,2.120361328125,47.955322265625,97.8167724609375
1758878086.8937914,-0.80078125,0.0224609375,0.478515625,6.28662109375,-3.35693359375,-5.126953125,2.120361328125,47.96630859375,97.7288818359375
1758878086.9034367,-0.80859375,0.013671875,0.5205078125,1.0986328125,-2.197265625,-4.69970703125,2.076416015625,47.9937744140625,97.646484375
1758878086.9134765,-0.80859375,0.013671875,0.5205078125,1.0986328125,-2.197265625,-4.69970703125,2.032470703125,48.021240234375,97.5640869140625
1758878086.923801,-0.806640625,0.0146484375,0.548828125,-0.48828125,-1.40380859375,-4.150390625,1.9775390625,48.05419921875,97.49267578125
1758878086.933552,-0.806640625,0.0146484375,0.548828125,-0.48828125,-1.40380859375,-4.150390625,1.922607421875,48.087158203125,97.4212646484375
1758878086.9434476,-0.78662109375,0.00634765625,0.57421875,0.9765625,-0.79345703125,-3.60107421875,1.8896484375,48.1256103515625,97.3553466796875
1758878086.9534454,-0.78662109375,0.00634765625,0.57421875,0.9765625,-0.79345703125,-3.60107421875,1.8621826171875,48.1640625,97.2894287109375
1758878086.9640965,-0.7822265625,-0.00244140625,0.6201171875,6.04248046875,-0.3662109375,-3.11279296875,1.8841552734375,48.2025146484375,97.22900390625
1758878086.973523,-0.7822265625,-0.00244140625,0.6201171875,6.04248046875,-0.3662109375,-3.11279296875,1.9061279296875,48.240966796875,97.1685791015625
1758878086.9835348,-0.76611328125,-0.00537109375,0.64501953125,5.92041015625,-0.42724609375,-2.197265625,1.93359375,48.27392578125,97.1246337890625
1758878086.9940164,-0.76611328125,-0.00537109375,0.64501953125,5.92041015625,-0.42724609375,-2.197265625,1.9610595703125,48.306884765625,97.0806884765625
1758878087.0041583,-0.7431640625,0.01806640625,0.66015625,0.54931640625,-0.79345703125,-1.220703125,1.9500732421875,48.328857421875,97.0477294921875
1758878087.0135787,-0.7431640625,0.01806640625,0.66015625,0.54931640625,-0.79345703125,-1.220703125,1.93359375,48.350830078125,97.0147705078125
1758878087.0236008,-0.734375,0.03173828125,0.67822265625,-2.25830078125,-1.220703125,-0.244140625,1.9061279296875,48.36181640625,96.9927978515625
1758878087.0340688,-0.734375,0.03173828125,0.67822265625,-2.25830078125,-1.220703125,-0.244140625,1.8731689453125,48.372802734375,96.976318359375
1758878087.043956,-0.7265625,0.01904296875,0.68994140625,-5.7373046875,-1.708984375,0.54931640625,1.8182373046875,48.372802734375,96.96533203125
1758878087.0535786,-0.7265625,0.01904296875,0.68994140625,-5.7373046875,-1.708984375,0.54931640625,1.7633056640625,48.372802734375,96.954345703125
1758878087.0636048,-0.72119140625,0.01318359375,0.7001953125,-7.99560546875,-2.13623046875,1.03759765625,1.6973876953125,48.36181640625,96.954345703125
1758878087.0742722,-0.72119140625,0.01318359375,0.7001953125,-7.99560546875,-2.13623046875,1.03759765625,1.6259765625,48.350830078125,96.9488525390625
1758878087.0838063,-0.70556640625,0.01318359375,0.7158203125,-9.033203125,-2.74658203125,1.5869140625,1.549072265625,48.328857421875,96.954345703125
1758878087.0938015,-0.70556640625,0.01318359375,0.7158203125,-9.033203125,-2.74658203125,1.5869140625,1.47216796875,48.306884765625,96.9598388671875
1758878087.1037617,-0.7021484375,0.02294921875,0.7255859375,-11.90185546875,-3.35693359375,1.953125,1.373291015625,48.27392578125,96.9708251953125
1758878087.1139605,-0.7021484375,0.02294921875,0.7255859375,-11.90185546875,-3.35693359375,1.953125,1.2799072265625,48.240966796875,96.976318359375
1758878087.1237795,-0.69189453125,0.02001953125,0.740234375,-17.578125,-3.84521484375,2.685546875,1.131591796875,48.197021484375,96.998291015625
1758878087.1338418,-0.69189453125,0.02001953125,0.740234375,-17.578125,-3.84521484375,2.685546875,0.98876953125,48.153076171875,97.0147705078125
1758878087.1437347,-0.6943359375,0.0078125,0.74169921875,-17.7001953125,-4.0283203125,3.173828125,0.845947265625,48.1036376953125,97.042236328125
1758878087.1545224,-0.6943359375,0.0078125,0.74169921875,-17.7001953125,-4.0283203125,3.173828125,0.7086181640625,48.05419921875,97.064208984375
1758878087.1637406,-0.6865234375,-0.00732421875,0.74267578125,-13.18359375,-4.21142578125,3.41796875,0.615234375,47.999267578125,97.09716796875
1758878087.1739788,-0.6865234375,-0.00732421875,0.74267578125,-13.18359375,-4.21142578125,3.41796875,0.5218505859375,47.9443359375,97.1246337890625
1758878087.1844766,-0.685546875,-0.01611328125,0.73486328125,-10.68115234375,-4.08935546875,3.84521484375,0.4559326171875,47.8839111328125,97.1575927734375
1758878087.1939638,-0.685546875,-0.01611328125,0.73486328125,-10.68115234375,-4.08935546875,3.84521484375,0.3955078125,47.8289794921875,97.196044921875
1758878087.2038286,-0.67236328125,-0.01025390625,0.7353515625,-10.43701171875,-4.08935546875,4.0283203125,0.3350830078125,47.7685546875,97.2344970703125
1758878087.214113,-0.67236328125,-0.01025390625,0.7353515625,-10.43701171875,-4.08935546875,4.0283203125,0.2691650390625,47.713623046875,97.27294921875
1758878087.2243836,-0.68896484375,-0.00244140625,0.734375,-11.8408203125,-3.90625,4.39453125,0.19775390625,47.6531982421875,97.31689453125
1758878087.2339652,-0.69677734375,0.00439453125,0.71728515625,-13.36669921875,-4.0283203125,4.69970703125,0.120849609375,47.5927734375,97.36083984375
1758878087.2445135,-0.69677734375,0.00439453125,0.71728515625,-13.36669921875,-4.0283203125,4.69970703125,0.0384521484375,47.537841796875,97.4102783203125
1758878087.2540786,-0.71240234375,0.00146484375,0.70068359375,-13.3056640625,-4.57763671875,4.638671875,-0.032958984375,47.471923828125,97.459716796875
1758878087.2639575,-0.71240234375,0.00146484375,0.70068359375,-13.3056640625,-4.57763671875,4.638671875,-0.1153564453125,47.4114990234375,97.5091552734375
1758878087.2740984,-0.72998046875,-0.0126953125,0.6865234375,-10.31494140625,-4.82177734375,4.57763671875,-0.1812744140625,47.3455810546875,97.55859375
1758878087.2844253,-0.72998046875,-0.0126953125,0.6865234375,-10.31494140625,-4.82177734375,4.57763671875,-0.2362060546875,47.28515625,97.6080322265625
1758878087.29406,-0.73193359375,0.0048828125,0.6728515625,-14.0380859375,-4.8828125,4.39453125,-0.3076171875,47.2247314453125,97.6519775390625
1758878087.3040028,-0.73193359375,0.0048828125,0.6728515625,-14.0380859375,-4.8828125,4.39453125,-0.4010009765625,47.164306640625,97.701416015625
1758878087.3146656,-0.73193359375,0.0048828125,0.6728515625,-19.04296875,-4.69970703125,4.5166015625,-0.5108642578125,47.1038818359375,97.745361328125
1758878087.324086,-0.74072265625,0.0244140625,0.65771484375,-19.04296875,-4.69970703125,4.5166015625,-0.648193359375,47.054443359375,97.7947998046875
1758878087.3342505,-0.74072265625,0.0244140625,0.65771484375,-20.6298828125,-4.7607421875,4.638671875,-0.791015625,46.99951171875,97.84423828125
1758878087.3444805,-0.7412109375,0.0166015625,0.62939453125,-20.6298828125,-4.7607421875,4.638671875,-0.9393310546875,46.9500732421875,97.899169921875
1758878087.3545728,-0.72802734375,-0.0068359375,0.65771484375,-24.35302734375,-4.94384765625,4.5166015625,-1.1041259765625,46.900634765625,97.9486083984375
1758878087.3640413,-0.72802734375,-0.0068359375,0.65771484375,-24.35302734375,-4.94384765625,4.5166015625,-1.285400390625,46.8511962890625,97.998046875
1758878087.3741896,-0.73779296875,-0.01904296875,0.6669921875,-26.7333984375,-5.18798828125,4.8828125,-1.4776611328125,46.8017578125,98.052978515625
1758878087.384111,-0.73779296875,-0.01904296875,0.6669921875,-26.7333984375,-5.18798828125,4.8828125,-1.680908203125,46.7523193359375,98.10791015625
1758878087.3946276,-0.7314453125,-0.02001953125,0.65380859375,-26.18408203125,-5.7373046875,5.0048828125,-1.8841552734375,46.702880859375,98.1683349609375
1758878087.4041543,-0.7314453125,-0.02001953125,0.65380859375,-26.18408203125,-5.7373046875,5.0048828125,-2.076416015625,46.64794921875,98.228759765625
1758878087.4142385,-0.7421875,-0.02880859375,0.654296875,-27.52685546875,-6.04248046875,5.7373046875,-2.274169921875,46.5985107421875,98.294677734375
1758878087.425381,-0.7421875,-0.02880859375,0.654296875,-27.52685546875,-6.04248046875,5.7373046875,-2.4774169921875,46.5435791015625,98.3660888671875
1758878087.434301,-0.736328125,-0.0361328125,0.6455078125,-30.09033203125,-6.34765625,6.65283203125,-2.6861572265625,46.4886474609375,98.4429931640625
1758878087.4441683,-0.736328125,-0.0361328125,0.6455078125,-30.09033203125,-6.34765625,6.65283203125,-2.900390625,46.439208984375,98.525390625
1758878087.4543314,-0.73681640625,-0.05029296875,0.66064453125,-30.70068359375,-6.28662109375,7.568359375,-3.1146240234375,46.38427734375,98.6187744140625
1758878087.4651656,-0.73681640625,-0.05029296875,0.66064453125,-30.70068359375,-6.28662109375,7.568359375,-3.328857421875,46.3348388671875,98.7176513671875
1758878087.4743586,-0.72705078125,-0.06396484375,0.6689453125,-29.1748046875,-6.28662109375,7.99560546875,-3.5321044921875,46.285400390625,98.822021484375
1758878087.4842558,-0.72705078125,-0.06396484375,0.6689453125,-29.1748046875,-6.28662109375,7.99560546875,-3.7298583984375,46.2359619140625,98.931884765625
1758878087.4946823,-0.73583984375,-0.076171875,0.68212890625,-23.681640625,-6.2255859375,7.99560546875,-3.900146484375,46.1920166015625,99.041748046875
1758878087.5051332,-0.73583984375,-0.076171875,0.68212890625,-23.681640625,-6.2255859375,7.99560546875,-4.04296875,46.142578125,99.151611328125
1758878087.5143702,-0.7431640625,-0.07763671875,0.6708984375,-15.0146484375,-6.103515625,7.26318359375,-4.1473388671875,46.0931396484375,99.25048828125
1758878087.5242836,-0.7431640625,-0.07763671875,0.6708984375,-15.0146484375,-6.103515625,7.26318359375,-4.2132568359375,46.0491943359375,99.3548583984375
1758878087.534844,-0.73828125,-0.060546875,0.66748046875,-9.82666015625,-6.2255859375,6.34765625,-4.2572021484375,45.999755859375,99.4482421875
1758878087.544451,-0.73828125,-0.060546875,0.66748046875,-9.82666015625,-6.2255859375,6.34765625,-4.28466796875,45.955810546875,99.5361328125
1758878087.5544772,-0.73388671875,-0.04052734375,0.6767578125,-10.07080078125,-6.16455078125,5.79833984375,-4.3121337890625,45.9063720703125,99.6185302734375
1758878087.56439,-0.73388671875,-0.04052734375,0.6767578125,-10.07080078125,-6.16455078125,5.79833984375,-4.3505859375,45.8624267578125,99.700927734375
1758878087.5748963,-0.72314453125,-0.04345703125,0.67626953125,-9.82666015625,-6.34765625,5.126953125,-4.383544921875,45.81298828125,99.7723388671875
1758878087.5843613,-0.72314453125,-0.04345703125,0.67626953125,-9.82666015625,-6.34765625,5.126953125,-4.4219970703125,45.7635498046875,99.84375
1758878087.5945184,-0.7197265625,-0.04638671875,0.68603515625,-11.5966796875,-6.40869140625,4.638671875,-4.471435546875,45.714111328125,99.9151611328125
1758878087.6045148,-0.7197265625,-0.04638671875,0.68603515625,-11.5966796875,-6.40869140625,4.638671875,-4.5318603515625,45.6646728515625,99.9755859375
1758878087.6149287,-0.71484375,-0.0537109375,0.69580078125,-11.3525390625,-6.591796875,3.90625,-4.59228515625,45.6097412109375,100.0360107421875
1758878087.6244087,-0.71484375,-0.0537109375,0.69580078125,-11.3525390625,-6.591796875,3.90625,-4.658203125,45.560302734375,100.0909423828125
1758878087.634614,-0.7197265625,-0.0673828125,0.6962890625,-9.82666015625,-6.2255859375,3.23486328125,-4.7186279296875,45.50537109375,100.140380859375
1758878087.6453238,-0.7197265625,-0.0673828125,0.6962890625,-9.82666015625,-6.2255859375,3.23486328125,-4.7735595703125,45.4559326171875,100.184326171875
1758878087.6557105,-0.7197265625,-0.0712890625,0.69873046875,-5.92041015625,-5.31005859375,2.50244140625,-4.8175048828125,45.406494140625,100.2227783203125
1758878087.6644783,-0.7197265625,-0.0712890625,0.69873046875,-5.92041015625,-5.31005859375,2.50244140625,-4.8394775390625,45.362548828125,100.2557373046875
1758878087.6749682,-0.72998046875,-0.07080078125,0.71533203125,-4.82177734375,-4.150390625,2.25830078125,-4.866943359375,45.3240966796875,100.2886962890625
1758878087.684687,-0.72998046875,-0.07080078125,0.71533203125,-4.82177734375,-4.150390625,2.25830078125,-4.888916015625,45.2911376953125,100.3216552734375
1758878087.69464,-0.73974609375,-0.07275390625,0.69580078125,-2.74658203125,-2.86865234375,2.25830078125,-4.89990234375,45.263671875,100.3546142578125
1758878087.7045908,-0.73974609375,-0.07275390625,0.69580078125,-2.74658203125,-2.86865234375,2.25830078125,-4.89990234375,45.2471923828125,100.382080078125
1758878087.7151184,-0.7236328125,-0.080078125,0.68896484375,-2.13623046875,-1.8310546875,2.3193359375,-4.89990234375,45.230712890625,100.4150390625
1758878087.724555,-0.7236328125,-0.080078125,0.68896484375,-2.13623046875,-1.8310546875,2.3193359375,-4.89990234375,45.2252197265625,100.4425048828125
1758878087.7346678,-0.7275390625,-0.07275390625,0.6923828125,-3.60107421875,-0.54931640625,2.50244140625,-4.9053955078125,45.2197265625,100.4754638671875
1758878087.7449045,-0.7275390625,-0.07275390625,0.6923828125,-3.60107421875,-0.54931640625,2.50244140625,-4.9163818359375,45.2252197265625,100.5084228515625
1758878087.7549312,-0.7265625,-0.06591796875,0.6982421875,-1.77001953125,0.48828125,2.25830078125,-4.921875,45.230712890625,100.535888671875
1758878087.764672,-0.7265625,-0.06591796875,0.6982421875,-1.77001953125,0.48828125,2.25830078125,-4.921875,45.2471923828125,100.5633544921875
1758878087.7747893,-0.724609375,-0.060546875,0.69873046875,1.3427734375,1.46484375,1.77001953125,-4.910888671875,45.263671875,100.5908203125
1758878087.7852068,-0.724609375,-0.060546875,0.69873046875,1.3427734375,1.46484375,1.77001953125,-4.8834228515625,45.28564453125,100.61279296875
1758878087.7948039,-0.71435546875,-0.06005859375,0.69189453125,2.50244140625,2.197265625,1.0986328125,-4.8504638671875,45.3076171875,100.6292724609375
1758878087.8047037,-0.71435546875,-0.06005859375,0.69189453125,2.50244140625,2.197265625,1.0986328125,-4.822998046875,45.3350830078125,100.6402587890625
1758878087.8152792,-0.7041015625,-0.05859375,0.6953125,0.67138671875,2.74658203125,0.67138671875,-4.801025390625,45.3680419921875,100.645751953125
1758878087.8248007,-0.7041015625,-0.05859375,0.6953125,0.67138671875,2.74658203125,0.67138671875,-4.7900390625,45.4010009765625,100.6512451171875
1758878087.834869,-0.69970703125,-0.05712890625,0.716796875,-0.18310546875,3.11279296875,0.244140625,-4.7900390625,45.428466796875,100.6512451171875
1758878087.844893,-0.69970703125,-0.05712890625,0.716796875,-0.18310546875,3.11279296875,0.244140625,-4.7955322265625,45.46142578125,100.6512451171875
1758878087.855437,-0.69189453125,-0.0625,0.72021484375,0.244140625,3.23486328125,-0.30517578125,-4.7955322265625,45.494384765625,100.6402587890625
1758878087.8648202,-0.69189453125,-0.0625,0.72021484375,0.244140625,3.23486328125,-0.30517578125,-4.801025390625,45.52734375,100.6292724609375
1758878087.8748817,-0.689453125,-0.06396484375,0.71728515625,0.9765625,3.11279296875,-0.79345703125,-4.8065185546875,45.5548095703125,100.6182861328125
1758878087.8854897,-0.689453125,-0.06396484375,0.71728515625,0.9765625,3.11279296875,-0.79345703125,-4.8065185546875,45.582275390625,100.601806640625
1758878087.894899,-0.67822265625,-0.0595703125,0.736328125,2.50244140625,3.0517578125,-1.15966796875,-4.8065185546875,45.6097412109375,100.579833984375
1758878087.904854,-0.67822265625,-0.0595703125,0.736328125,2.50244140625,3.0517578125,-1.15966796875,-4.7955322265625,45.63720703125,100.5523681640625
1758878087.9155097,-0.67822265625,-0.06298828125,0.74609375,1.64794921875,3.173828125,-1.0986328125,-4.7900390625,45.6591796875,100.5303955078125
1758878087.9249518,-0.67822265625,-0.06298828125,0.74609375,1.64794921875,3.173828125,-1.0986328125,-4.7900390625,45.68115234375,100.5084228515625
1758878087.9349449,-0.66552734375,-0.06982421875,0.7421875,1.64794921875,3.11279296875,-0.91552734375,-4.7845458984375,45.703125,100.48095703125
1758878087.944983,-0.66552734375,-0.06982421875,0.7421875,1.64794921875,3.11279296875,-0.91552734375,-4.7845458984375,45.7196044921875,100.458984375
1758878087.9555192,-0.65576171875,-0.072265625,0.75732421875,2.0751953125,2.86865234375,-0.732421875,-4.779052734375,45.736083984375,100.43701171875
1758878087.965069,-0.65576171875,-0.072265625,0.75732421875,2.0751953125,2.86865234375,-0.732421875,-4.76806640625,45.7470703125,100.4205322265625
1758878087.9751182,-0.65185546875,-0.07373046875,0.75390625,0.6103515625,2.38037109375,-0.91552734375,-4.76806640625,45.758056640625,100.3985595703125
1758878087.9855275,-0.65185546875,-0.07373046875,0.75390625,0.6103515625,2.38037109375,-0.91552734375,-4.779052734375,45.7635498046875,100.3765869140625
1758878087.9949608,-0.65380859375,-0.06005859375,0.75732421875,3.35693359375,1.220703125,-0.9765625,-4.76806640625,45.7635498046875,100.3546142578125
1758878088.005082,-0.65380859375,-0.06005859375,0.75732421875,3.35693359375,1.220703125,-0.9765625,-4.7515869140625,45.7525634765625,100.3271484375
1758878088.01516,-0.6611328125,-0.05078125,0.751953125,2.0751953125,0.79345703125,-0.79345703125,-4.735107421875,45.7415771484375,100.30517578125
1758878088.0250812,-0.6611328125,-0.05078125,0.751953125,2.0751953125,0.79345703125,-0.79345703125,-4.72412109375,45.7305908203125,100.2886962890625
1758878088.0350494,-0.658203125,-0.0498046875,0.7216796875,-1.15966796875,0.48828125,-0.42724609375,-4.7296142578125,45.714111328125,100.2667236328125
1758878088.045562,-0.658203125,-0.0498046875,0.7216796875,-1.15966796875,0.48828125,-0.42724609375,-4.74609375,45.6976318359375,100.2557373046875
1758878088.0550928,-0.65478515625,-0.06005859375,0.71240234375,-3.84521484375,0.9765625,0.0,-4.7735595703125,45.68115234375,100.2392578125
1758878088.065069,-0.65478515625,-0.06005859375,0.71240234375,-3.84521484375,0.9765625,0.0,-4.81201171875,45.670166015625,100.228271484375
1758878088.0756702,-0.6689453125,-0.0771484375,0.7236328125,-1.953125,1.40380859375,0.79345703125,-4.8394775390625,45.6591796875,100.228271484375
1758878088.0851934,-0.6689453125,-0.0771484375,0.7236328125,-1.953125,1.40380859375,0.79345703125,-4.8504638671875,45.6536865234375,100.228271484375
1758878088.095107,-0.67333984375,-0.095703125,0.73388671875,1.0986328125,2.0751953125,1.64794921875,-4.844970703125,45.6536865234375,100.2337646484375
1758878088.1062365,-0.67333984375,-0.095703125,0.73388671875,1.0986328125,2.0751953125,1.64794921875,-4.822998046875,45.6536865234375,100.2447509765625
1758878088.115222,-0.69140625,-0.08740234375,0.7109375,3.173828125,2.44140625,2.0751953125,-4.7900390625,45.6591796875,100.26123046875
1758878088.1251976,-0.69140625,-0.08740234375,0.7109375,3.173828125,2.44140625,2.0751953125,-4.7406005859375,45.6646728515625,100.2777099609375
1758878088.1352315,-0.69921875,-0.080078125,0.70703125,4.21142578125,2.62451171875,2.62451171875,-4.691162109375,45.6756591796875,100.30517578125
1758878088.1460683,-0.69921875,-0.080078125,0.70703125,4.21142578125,2.62451171875,2.62451171875,-4.6307373046875,45.6866455078125,100.3271484375
1758878088.1552002,-0.7138671875,-0.0595703125,0.68017578125,4.2724609375,2.5634765625,3.0517578125,-4.5703125,45.6976318359375,100.360107421875
1758878088.1652842,-0.7138671875,-0.0595703125,0.68017578125,4.2724609375,2.5634765625,3.0517578125,-4.50439453125,45.714111328125,100.39306640625
1758878088.1757936,-0.70849609375,-0.0556640625,0.66845703125,7.4462890625,2.197265625,3.0517578125,-4.427490234375,45.72509765625,100.426025390625
1758878088.1855104,-0.70849609375,-0.0556640625,0.66845703125,7.4462890625,2.197265625,3.0517578125,-4.32861328125,45.7415771484375,100.4644775390625
1758878088.195265,-0.69873046875,-0.06298828125,0.669921875,8.4228515625,2.3193359375,3.23486328125,-4.229736328125,45.758056640625,100.4974365234375
1758878088.2052684,-0.69873046875,-0.06298828125,0.669921875,8.4228515625,2.3193359375,3.23486328125,-4.119873046875,45.7745361328125,100.535888671875
1758878088.2158146,-0.6962890625,-0.05908203125,0.6806640625,8.36181640625,2.44140625,3.23486328125,-4.0155029296875,45.791015625,100.579833984375
1758878088.2253628,-0.6962890625,-0.05908203125,0.6806640625,8.36181640625,2.44140625,3.23486328125,-3.9056396484375,45.81298828125,100.6182861328125
1758878088.235373,-0.69384765625,-0.056640625,0.6748046875,11.1083984375,2.62451171875,2.86865234375,-3.779296875,45.8349609375,100.6512451171875
1758878088.2457767,-0.69384765625,-0.056640625,0.6748046875,11.1083984375,2.62451171875,2.86865234375,-3.6474609375,45.8514404296875,100.689697265625
1758878088.2560964,-0.7099609375,-0.06298828125,0.6943359375,15.0146484375,2.9296875,2.13623046875,-3.4881591796875,45.87890625,100.711669921875
1758878088.265356,-0.7099609375,-0.06298828125,0.6943359375,15.0146484375,2.9296875,2.13623046875,-3.3343505859375,45.90087890625,100.7391357421875
1758878088.2753816,-0.7294921875,-0.06103515625,0.7119140625,19.22607421875,3.23486328125,1.3427734375,-3.14208984375,45.9283447265625,100.7501220703125
1758878088.2862544,-0.7294921875,-0.06103515625,0.7119140625,19.22607421875,3.23486328125,1.3427734375,-2.9498291015625,45.955810546875,100.7666015625
1758878088.2953644,-0.740234375,-0.04931640625,0.72119140625,16.9677734375,3.41796875,0.91552734375,-2.7850341796875,45.98876953125,100.777587890625
1758878088.3054373,-0.740234375,-0.04931640625,0.72119140625,16.9677734375,3.41796875,0.91552734375,-2.6202392578125,46.0162353515625,100.7830810546875
1758878088.316093,-0.740234375,-0.04931640625,0.72119140625,11.16943359375,3.173828125,0.79345703125,-2.515869140625,46.043701171875,100.7940673828125
1758878088.3255029,-0.7470703125,-0.00244140625,0.712890625,11.16943359375,3.173828125,0.79345703125,-2.406005859375,46.0711669921875,100.799560546875
1758878088.3354564,-0.7373046875,0.02099609375,0.6923828125,4.94384765625,3.41796875,0.79345703125,-2.362060546875,46.1041259765625,100.8050537109375
1758878088.3455703,-0.7373046875,0.02099609375,0.6923828125,4.94384765625,3.41796875,0.79345703125,-2.30712890625,46.1370849609375,100.810546875
1758878088.3560603,-0.73876953125,0.01025390625,0.65185546875,-1.8310546875,3.90625,0.9765625,-2.3236083984375,46.175537109375,100.821533203125
1758878088.365532,-0.73876953125,0.01025390625,0.65185546875,-1.8310546875,3.90625,0.9765625,-2.3291015625,46.2139892578125,100.83251953125
1758878088.3755236,-0.732421875,-0.013671875,0.634765625,-4.08935546875,4.5166015625,0.79345703125,-2.3675537109375,46.2579345703125,100.8380126953125
1758878088.3861678,-0.732421875,-0.013671875,0.634765625,-4.08935546875,4.5166015625,0.79345703125,-2.4005126953125,46.307373046875,100.8489990234375
1758878088.3956404,-0.7451171875,-0.03466796875,0.68603515625,-4.0283203125,4.82177734375,0.79345703125,-2.4334716796875,46.3568115234375,100.8544921875
1758878088.4055943,-0.7451171875,-0.03466796875,0.68603515625,-4.0283203125,4.82177734375,0.79345703125,-2.4664306640625,46.4117431640625,100.8599853515625
1758878088.4156168,-0.7392578125,-0.0400390625,0.705078125,-4.69970703125,4.8828125,0.6103515625,-2.5048828125,46.461181640625,100.865478515625
1758878088.4264455,-0.7392578125,-0.0400390625,0.705078125,-4.69970703125,4.8828125,0.6103515625,-2.548828125,46.5106201171875,100.8709716796875
1758878088.4355955,-0.712890625,-0.03564453125,0.67138671875,-3.662109375,4.8828125,0.42724609375,-2.581787109375,46.56005859375,100.8709716796875
1758878088.4456797,-0.712890625,-0.03564453125,0.67138671875,-3.662109375,4.8828125,0.42724609375,-2.61474609375,46.6094970703125,100.8709716796875
1758878088.4561234,-0.7138671875,-0.0263671875,0.66943359375,-3.47900390625,5.06591796875,0.18310546875,-2.6531982421875,46.6644287109375,100.865478515625
1758878088.4657314,-0.7138671875,-0.0263671875,0.66943359375,-3.47900390625,5.06591796875,0.18310546875,-2.6861572265625,46.7138671875,100.865478515625
1758878088.4756565,-0.72119140625,-0.0263671875,0.67626953125,-4.39453125,5.126953125,0.30517578125,-2.7301025390625,46.7633056640625,100.865478515625
1758878088.4863436,-0.72119140625,-0.0263671875,0.67626953125,-4.39453125,5.126953125,0.30517578125,-2.7685546875,46.8182373046875,100.865478515625
1758878088.4956565,-0.716796875,-0.0244140625,0.66455078125,-4.33349609375,5.31005859375,0.54931640625,-2.8070068359375,46.86767578125,100.865478515625
1758878088.5057156,-0.716796875,-0.0244140625,0.66455078125,-4.33349609375,5.31005859375,0.54931640625,-2.845458984375,46.922607421875,100.865478515625
1758878088.5160282,-0.71728515625,-0.03076171875,0.66455078125,-5.92041015625,5.2490234375,0.8544921875,-2.8948974609375,46.9720458984375,100.8709716796875
1758878088.5257804,-0.71728515625,-0.03076171875,0.66455078125,-5.92041015625,5.2490234375,0.8544921875,-2.9443359375,47.0269775390625,100.87646484375
1758878088.536192,-0.7109375,-0.0390625,0.677734375,-8.72802734375,5.615234375,1.64794921875,-3.0157470703125,47.0819091796875,100.8984375
1758878088.5465043,-0.7109375,-0.0390625,0.677734375,-8.72802734375,5.615234375,1.64794921875,-3.0816650390625,47.1368408203125,100.9149169921875
1758878088.5562673,-0.71923828125,-0.064453125,0.6806640625,-6.16455078125,5.79833984375,2.0751953125,-3.1256103515625,47.1917724609375,100.9368896484375
1758878088.5658307,-0.71923828125,-0.064453125,0.6806640625,-6.16455078125,5.79833984375,2.0751953125,-3.1695556640625,47.2467041015625,100.96435546875
1758878088.5757937,-0.7353515625,-0.06396484375,0.7041015625,-4.33349609375,5.859375,2.3193359375,-3.1915283203125,47.30712890625,100.986328125
1758878088.5860147,-0.7353515625,-0.06396484375,0.7041015625,-4.33349609375,5.859375,2.3193359375,-3.2135009765625,47.362060546875,101.0137939453125
1758878088.5958471,-0.7529296875,-0.02099609375,0.70703125,-2.86865234375,5.4931640625,2.38037109375,-3.218994140625,47.4114990234375,101.041259765625
1758878088.6060133,-0.7529296875,-0.02099609375,0.70703125,-2.86865234375,5.4931640625,2.38037109375,-3.2244873046875,47.4609375,101.0687255859375
1758878088.616571,-0.8369140625,0.00634765625,0.7158203125,-7.26318359375,4.39453125,2.38037109375,-3.27392578125,47.5048828125,101.09619140625
1758878088.6260877,-0.8369140625,0.00634765625,0.7158203125,-7.26318359375,4.39453125,2.38037109375,-3.31787109375,47.548828125,101.1236572265625
1758878088.6359262,-0.87353515625,0.005859375,0.677734375,-14.70947265625,2.9296875,2.3193359375,-3.4332275390625,47.5762939453125,101.151123046875
1758878088.6460729,-0.87353515625,0.005859375,0.677734375,-14.70947265625,2.9296875,2.3193359375,-3.548583984375,47.61474609375,101.18408203125
1758878088.656363,-0.85986328125,-0.05322265625,0.61181640625,-14.404296875,1.77001953125,1.708984375,-3.66943359375,47.63671875,101.2005615234375
1758878088.6660717,-0.85986328125,-0.05322265625,0.61181640625,-14.404296875,1.77001953125,1.708984375,-3.7847900390625,47.6641845703125,101.22802734375
1758878088.6759436,-0.8369140625,-0.0791015625,0.54345703125,-6.4697265625,1.64794921875,1.15966796875,-3.834228515625,47.6971435546875,101.239013671875
1758878088.6864493,-0.8369140625,-0.0791015625,0.54345703125,-6.4697265625,1.64794921875,1.15966796875,-3.8836669921875,47.7301025390625,101.260986328125
1758878088.6960397,-0.81884765625,-0.0771484375,0.5166015625,2.99072265625,2.5634765625,0.79345703125,-3.84521484375,47.779541015625,101.27197265625
1758878088.7061467,-0.81884765625,-0.0771484375,0.5166015625,2.99072265625,2.5634765625,0.79345703125,-3.812255859375,47.8289794921875,101.282958984375
1758878088.716157,-0.8095703125,-0.0625,0.51708984375,8.056640625,3.7841796875,0.732421875,-3.7298583984375,47.8948974609375,101.2994384765625
1758878088.726213,-0.8095703125,-0.0625,0.51708984375,8.056640625,3.7841796875,0.732421875,-3.6474609375,47.9608154296875,101.31591796875
1758878088.7360356,-0.78515625,-0.03759765625,0.5439453125,4.21142578125,5.06591796875,0.91552734375,-3.603515625,48.043212890625,101.3323974609375
1758878088.7462852,-0.78515625,-0.03759765625,0.5439453125,4.21142578125,5.06591796875,0.91552734375,-3.5595703125,48.1256103515625,101.348876953125
1758878088.7568011,-0.75830078125,-0.02734375,0.62353515625,-3.662109375,5.92041015625,1.03759765625,-3.592529296875,48.2135009765625,101.370849609375
1758878088.7661886,-0.75830078125,-0.02734375,0.62353515625,-3.662109375,5.92041015625,1.03759765625,-3.62548828125,48.3013916015625,101.3873291015625
1758878088.776185,-0.74462890625,-0.02734375,0.6904296875,-6.591796875,6.40869140625,0.67138671875,-3.69140625,48.3892822265625,101.392822265625
1758878088.7867148,-0.74462890625,-0.02734375,0.6904296875,-6.591796875,6.40869140625,0.67138671875,-3.75732421875,48.4716796875,101.40380859375
1758878088.7961924,-0.7353515625,-0.04296875,0.7138671875,-0.6103515625,6.103515625,-0.18310546875,-3.768310546875,48.548583984375,101.3983154296875
1758878088.806311,-0.7353515625,-0.04296875,0.7138671875,-0.6103515625,6.103515625,-0.18310546875,-3.779296875,48.62548828125,101.392822265625
1758878088.8166857,-0.7216796875,-0.0546875,0.70751953125,5.18798828125,5.79833984375,-1.03759765625,-3.746337890625,48.69140625,101.370849609375
1758878088.8263333,-0.7216796875,-0.0546875,0.70751953125,5.18798828125,5.79833984375,-1.03759765625,-3.7078857421875,48.7518310546875,101.348876953125
1758878088.8361804,-0.7216796875,-0.04345703125,0.6982421875,7.99560546875,5.7373046875,-1.953125,-3.658447265625,48.812255859375,101.31591796875
1758878088.846369,-0.7216796875,-0.04345703125,0.6982421875,7.99560546875,5.7373046875,-1.953125,-3.603515625,48.8726806640625,101.2774658203125
1758878088.85675,-0.73388671875,-0.03857421875,0.70166015625,12.87841796875,5.859375,-2.62451171875,-3.5101318359375,48.9276123046875,101.22802734375
1758878088.8663473,-0.73388671875,-0.03857421875,0.70166015625,12.87841796875,5.859375,-2.62451171875,-3.416748046875,48.9825439453125,101.18408203125
1758878088.876461,-0.73876953125,-0.04345703125,0.7001953125,15.13671875,5.92041015625,-3.11279296875,-3.306884765625,49.031982421875,101.1236572265625
1758878088.8863106,-0.73876953125,-0.04345703125,0.7001953125,15.13671875,5.92041015625,-3.11279296875,-3.197021484375,49.0869140625,101.0687255859375
1758878088.8962362,-0.7421875,-0.03369140625,0.68212890625,16.845703125,5.92041015625,-3.41796875,-3.076171875,49.1363525390625,101.00830078125
1758878088.9064338,-0.7421875,-0.03369140625,0.68212890625,16.845703125,5.92041015625,-3.41796875,-2.955322265625,49.185791015625,100.9478759765625
1758878088.916341,-0.74462890625,-0.03125,0.6796875,20.08056640625,6.2255859375,-3.662109375,-2.801513671875,49.2352294921875,100.887451171875
1758878088.9264464,-0.74462890625,-0.03125,0.6796875,20.08056640625,6.2255859375,-3.662109375,-2.6531982421875,49.2901611328125,100.821533203125
1758878088.936804,-0.74560546875,-0.0419921875,0.6884765625,23.4375,6.2255859375,-3.72314453125,-2.4664306640625,49.339599609375,100.755615234375
1758878088.9464662,-0.74560546875,-0.0419921875,0.6884765625,23.4375,6.2255859375,-3.72314453125,-2.28515625,49.39453125,100.689697265625
1758878088.9565084,-0.75244140625,-0.03955078125,0.67529296875,25.32958984375,6.16455078125,-3.60107421875,-2.08740234375,49.4439697265625,100.623779296875
1758878088.9669168,-0.75244140625,-0.03955078125,0.67529296875,25.32958984375,6.16455078125,-3.60107421875,-1.8841552734375,49.493408203125,100.5633544921875
1758878088.9763606,-0.75537109375,-0.02490234375,0.654296875,25.5126953125,5.9814453125,-3.41796875,-1.680908203125,49.5428466796875,100.5029296875
1758878088.986957,-0.75537109375,-0.02490234375,0.654296875,25.5126953125,5.9814453125,-3.41796875,-1.4776611328125,49.59228515625,100.4425048828125
1758878088.9964564,-0.7578125,-0.00634765625,0.6376953125,21.05712890625,5.859375,-2.99072265625,-1.3128662109375,49.6417236328125,100.3875732421875
1758878089.006474,-0.7578125,-0.00634765625,0.6376953125,21.05712890625,5.859375,-2.99072265625,-1.153564453125,49.691162109375,100.338134765625
1758878089.01663,-0.75830078125,0.001953125,0.62646484375,15.56396484375,5.92041015625,-2.44140625,-1.03271484375,49.7406005859375,100.294189453125
1758878089.0267053,-0.75830078125,0.001953125,0.62646484375,15.56396484375,5.92041015625,-2.44140625,-0.9173583984375,49.7955322265625,100.2557373046875
1758878089.0364592,-0.765625,-0.00341796875,0.63623046875,11.16943359375,5.92041015625,-2.01416015625,-0.8349609375,49.8504638671875,100.21728515625
1758878089.046634,-0.765625,-0.00341796875,0.63623046875,11.16943359375,5.92041015625,-2.01416015625,-0.758056640625,49.89990234375,100.1788330078125
1758878089.0571148,-0.75830078125,-0.01416015625,0.6416015625,10.92529296875,5.4931640625,-1.77001953125,-0.6756591796875,49.9493408203125,100.1513671875
1758878089.066596,-0.75830078125,-0.01416015625,0.6416015625,10.92529296875,5.4931640625,-1.77001953125,-0.59326171875,49.998779296875,100.118408203125
1758878089.0765314,-0.7509765625,-0.0166015625,0.650390625,10.92529296875,4.8828125,-1.52587890625,-0.5108642578125,50.042724609375,100.08544921875
1758878089.087053,-0.7509765625,-0.0166015625,0.650390625,10.92529296875,4.8828125,-1.52587890625,-0.428466796875,50.086669921875,100.0579833984375
1758878089.0965018,-0.75390625,-0.00146484375,0.6611328125,8.1787109375,4.21142578125,-1.40380859375,-0.37353515625,50.1251220703125,100.030517578125
1758878089.1066363,-0.75390625,-0.00146484375,0.6611328125,8.1787109375,4.21142578125,-1.40380859375,-0.3131103515625,50.1580810546875,100.0030517578125
1758878089.1170378,-0.751953125,0.01025390625,0.6640625,3.5400390625,3.35693359375,-1.15966796875,-0.296630859375,50.185546875,99.9810791015625
1758878089.1266963,-0.751953125,0.01025390625,0.6640625,3.5400390625,3.35693359375,-1.15966796875,-0.2801513671875,50.2130126953125,99.9591064453125
1758878089.1371074,-0.75244140625,0.00634765625,0.66259765625,0.06103515625,2.62451171875,-0.9765625,-0.296630859375,50.2294921875,99.9371337890625
1758878089.14749,-0.75244140625,0.00634765625,0.66259765625,0.06103515625,2.62451171875,-0.9765625,-0.3131103515625,50.25146484375,99.9151611328125
1758878089.1566644,-0.7568359375,-0.00830078125,0.65869140625,2.01416015625,1.708984375,-0.9765625,-0.3021240234375,50.2569580078125,99.8931884765625
1758878089.1667366,-0.7568359375,-0.00830078125,0.65869140625,2.01416015625,1.708984375,-0.9765625,-0.296630859375,50.2679443359375,99.8712158203125
1758878089.1769812,-0.75634765625,-0.01416015625,0.67236328125,6.16455078125,0.67138671875,-1.03759765625,-0.252685546875,50.2679443359375,99.8492431640625
1758878089.1873574,-0.75634765625,-0.01416015625,0.67236328125,6.16455078125,0.67138671875,-1.03759765625,-0.208740234375,50.262451171875,99.8272705078125
1758878089.1966279,-0.74853515625,-0.0078125,0.6748046875,7.99560546875,0.06103515625,-0.67138671875,-0.1373291015625,50.2569580078125,99.810791015625
1758878089.2067716,-0.7333984375,-0.0068359375,0.6923828125,5.92041015625,-0.42724609375,0.06103515625,-0.076904296875,50.2459716796875,99.7998046875
1758878089.217184,-0.7333984375,-0.0068359375,0.6923828125,5.92041015625,-0.42724609375,0.06103515625,-0.02197265625,50.2294921875,99.7943115234375
1758878089.226879,-0.72705078125,-0.0048828125,0.732421875,3.23486328125,-1.40380859375,1.03759765625,0.02197265625,50.20751953125,99.7943115234375
1758878089.237293,-0.72705078125,-0.0048828125,0.732421875,3.23486328125,-1.40380859375,1.03759765625,0.0604248046875,50.1800537109375,99.8052978515625
1758878089.2468667,-0.701171875,-0.01220703125,0.76123046875,4.39453125,-2.86865234375,1.708984375,0.10986328125,50.1416015625,99.82177734375
1758878089.2567186,-0.701171875,-0.01220703125,0.76123046875,4.39453125,-2.86865234375,1.708984375,0.1702880859375,50.09765625,99.8382568359375
1758878089.2669642,-0.6591796875,-0.01416015625,0.76806640625,7.568359375,-4.57763671875,2.01416015625,0.24169921875,50.0372314453125,99.8602294921875
1758878089.277515,-0.6591796875,-0.01416015625,0.76806640625,7.568359375,-4.57763671875,2.01416015625,0.3350830078125,49.9658203125,99.8822021484375
1758878089.2868533,-0.61865234375,-0.0078125,0.7861328125,8.72802734375,-6.04248046875,2.50244140625,0.4339599609375,49.888916015625,99.90966796875
1758878089.2967706,-0.61865234375,-0.0078125,0.7861328125,8.72802734375,-6.04248046875,2.50244140625,0.5438232421875,49.7955322265625,99.9371337890625
1758878089.3073964,-0.58056640625,0.0,0.78955078125,7.01904296875,-6.9580078125,3.5400390625,0.648193359375,49.6966552734375,99.9700927734375
1758878089.316801,-0.58056640625,0.0,0.78955078125,7.01904296875,-6.9580078125,3.5400390625,0.7470703125,49.5867919921875,100.0140380859375
1758878089.3269012,-0.5751953125,-0.0048828125,0.75341796875,5.79833984375,-7.080078125,4.8828125,0.8514404296875,49.4769287109375,100.0634765625
1758878089.337083,-0.5751953125,-0.0048828125,0.75341796875,5.79833984375,-7.080078125,4.8828125,0.955810546875,49.361572265625,100.1239013671875
1758878089.3471513,-0.59033203125,-0.02197265625,0.701171875,6.16455078125,-6.4697265625,6.16455078125,1.065673828125,49.2462158203125,100.1898193359375
1758878089.3568513,-0.59033203125,-0.02197265625,0.701171875,6.16455078125,-6.4697265625,6.16455078125,1.1865234375,49.1363525390625,100.272216796875
1758878089.3670275,-0.65478515625,-0.0029296875,0.7197265625,5.9814453125,-6.103515625,7.38525390625,1.307373046875,49.0264892578125,100.360107421875
1758878089.3774333,-0.65478515625,-0.0029296875,0.7197265625,5.9814453125,-6.103515625,7.38525390625,1.4337158203125,48.922119140625,100.458984375
1758878089.3869934,-0.72412109375,0.01708984375,0.71728515625,2.38037109375,-6.16455078125,7.32421875,1.5435791015625,48.8177490234375,100.5523681640625
1758878089.3969622,-0.72412109375,0.01708984375,0.71728515625,2.38037109375,-6.16455078125,7.32421875,1.636962890625,48.71337890625,100.6512451171875
1758878089.4077082,-0.71826171875,0.04296875,0.6201171875,5.55419921875,-6.65283203125,7.01904296875,1.7413330078125,48.6090087890625,100.74462890625
1758878089.4170787,-0.71826171875,0.04296875,0.6201171875,5.55419921875,-6.65283203125,7.01904296875,1.8621826171875,48.5101318359375,100.8380126953125
1758878089.4270494,-0.7744140625,0.06494140625,0.56396484375,3.23486328125,-5.9814453125,6.65283203125,1.9720458984375,48.416748046875,100.931396484375
1758878089.4375803,-0.7744140625,0.06494140625,0.56396484375,3.23486328125,-5.9814453125,6.65283203125,2.0709228515625,48.3343505859375,101.019287109375
1758878089.4477057,-0.87060546875,0.09912109375,0.57275390625,-15.07568359375,-5.43212890625,6.9580078125,2.0819091796875,48.2574462890625,101.1126708984375
1758878089.4578025,-0.87060546875,0.09912109375,0.57275390625,-15.07568359375,-5.43212890625,6.9580078125,2.010498046875,48.1915283203125,101.2115478515625
1758878089.4671009,-0.91650390625,0.1005859375,0.5810546875,-30.82275390625,-5.37109375,6.7138671875,1.856689453125,48.1365966796875,101.304931640625
1758878089.477078,-0.91650390625,0.1005859375,0.5810546875,-30.82275390625,-5.37109375,6.7138671875,1.636962890625,48.0816650390625,101.40380859375
1758878089.487227,-0.89990234375,0.05029296875,0.53515625,-35.64453125,-5.2490234375,6.04248046875,1.38427734375,48.0377197265625,101.49169921875
1758878089.497067,-0.89990234375,0.05029296875,0.53515625,-35.64453125,-5.2490234375,6.04248046875,1.1151123046875,48.0047607421875,101.5850830078125
1758878089.5070982,-0.85498046875,0.01513671875,0.51416015625,-30.45654296875,-5.06591796875,4.638671875,0.85693359375,47.9718017578125,101.6619873046875
1758878089.5170994,-0.85498046875,0.01513671875,0.51416015625,-30.45654296875,-5.06591796875,4.638671875,0.6207275390625,47.9498291015625,101.7333984375
1758878089.5275133,-0.81103515625,0.001953125,0.4912109375,-20.08056640625,-4.57763671875,3.11279296875,0.428466796875,47.9278564453125,101.79931640625
1758878089.5371861,-0.81103515625,0.001953125,0.4912109375,-20.08056640625,-4.57763671875,3.11279296875,0.2801513671875,47.9168701171875,101.8487548828125
1758878089.547138,-0.79296875,0.00146484375,0.49365234375,-12.63427734375,-3.662109375,1.52587890625,0.1593017578125,47.911376953125,101.8927001953125
1758878089.5577536,-0.79296875,0.00146484375,0.49365234375,-12.63427734375,-3.662109375,1.52587890625,0.06591796875,47.9168701171875,101.9256591796875
1758878089.5672894,-0.79296875,0.00146484375,0.49365234375,-15.19775390625,-2.38037109375,0.42724609375,-0.0439453125,47.9278564453125,101.9476318359375
1758878089.5772214,-0.79296875,0.02783203125,0.52294921875,-15.19775390625,-2.38037109375,0.42724609375,-0.17578125,47.9443359375,101.964111328125
1758878089.587269,-0.8037109375,0.05029296875,0.59814453125,-21.97265625,-1.8310546875,0.0,-0.3460693359375,47.96630859375,101.97509765625
1758878089.5977619,-0.8037109375,0.05029296875,0.59814453125,-21.97265625,-1.8310546875,0.0,-0.5438232421875,47.98828125,101.986083984375
1758878089.6072764,-0.8046875,0.04052734375,0.6796875,-28.1982421875,-1.46484375,-0.1220703125,-0.7745361328125,48.01025390625,101.9970703125
1758878089.6172092,-0.8046875,0.04052734375,0.6796875,-28.1982421875,-1.46484375,-0.1220703125,-1.03271484375,48.0322265625,102.0025634765625
1758878089.6274307,-0.80908203125,-0.0185546875,0.68408203125,-25.32958984375,-1.52587890625,-0.18310546875,-1.2799072265625,48.0487060546875,102.008056640625
1758878089.6379666,-0.80908203125,-0.0185546875,0.68408203125,-25.32958984375,-1.52587890625,-0.18310546875,-1.5106201171875,48.065185546875,102.0135498046875
1758878089.647258,-0.7978515625,-0.080078125,0.6689453125,-17.08984375,-2.0751953125,-0.48828125,-1.7083740234375,48.076171875,102.01904296875
1758878089.6574833,-0.7978515625,-0.080078125,0.6689453125,-17.08984375,-2.0751953125,-0.48828125,-1.86767578125,48.0816650390625,102.01904296875
1758878089.667303,-0.79248046875,-0.09521484375,0.63818359375,-6.9580078125,-2.86865234375,-1.3427734375,-1.9830322265625,48.087158203125,102.01904296875
1758878089.677312,-0.79248046875,-0.09521484375,0.63818359375,-6.9580078125,-2.86865234375,-1.3427734375,-2.0599365234375,48.0816650390625,102.008056640625
1758878089.6878705,-0.80078125,-0.06640625,0.6376953125,2.01416015625,-3.5400390625,-2.13623046875,-2.098388671875,48.0706787109375,101.9915771484375
1758878089.6974826,-0.80078125,-0.06640625,0.6376953125,2.01416015625,-3.5400390625,-2.13623046875,-2.1038818359375,48.0596923828125,101.97509765625
1758878089.707353,-0.81201171875,-0.013671875,0.62646484375,7.9345703125,-3.7841796875,-2.8076171875,-2.0819091796875,48.0487060546875,101.9476318359375
1758878089.7176347,-0.81201171875,-0.013671875,0.62646484375,7.9345703125,-3.7841796875,-2.8076171875,-2.032470703125,48.0322265625,101.920166015625
1758878089.7278624,-0.8134765625,0.00634765625,0.5791015625,9.8876953125,-3.35693359375,-2.9296875,-1.9720458984375,48.021240234375,101.88720703125
1758878089.7374,-0.8134765625,0.00634765625,0.5791015625,9.8876953125,-3.35693359375,-2.9296875,-1.9061279296875,48.01025390625,101.854248046875
1758878089.7474332,-0.79833984375,-0.00244140625,0.5791015625,4.0283203125,-2.38037109375,-2.50244140625,-1.8621826171875,48.01025390625,101.8267822265625
1758878089.7579825,-0.79833984375,-0.00244140625,0.5791015625,4.0283203125,-2.38037109375,-2.50244140625,-1.845703125,48.0157470703125,101.79931640625
1758878089.7674234,-0.7802734375,-0.009765625,0.58740234375,-2.86865234375,-1.0986328125,-1.89208984375,-1.8621826171875,48.0267333984375,101.77734375
1758878089.777491,-0.7802734375,-0.009765625,0.58740234375,-2.86865234375,-1.0986328125,-1.89208984375,-1.91162109375,48.043212890625,101.7608642578125
1758878089.7880406,-0.7587890625,-0.0322265625,0.64404296875,-5.37109375,-0.54931640625,-1.03759765625,-1.9610595703125,48.0596923828125,101.7498779296875
1758878089.797478,-0.7587890625,-0.0322265625,0.64404296875,-5.37109375,-0.54931640625,-1.03759765625,-2.0269775390625,48.0816650390625,101.744384765625
1758878089.8074634,-0.732421875,-0.04638671875,0.705078125,-4.08935546875,-0.48828125,-0.48828125,-2.0819091796875,48.09814453125,101.744384765625
1758878089.8179705,-0.732421875,-0.04638671875,0.705078125,-4.08935546875,-0.48828125,-0.48828125,-2.1258544921875,48.1146240234375,101.744384765625
1758878089.8275073,-0.7138671875,-0.06298828125,0.7275390625,3.96728515625,-0.54931640625,-0.244140625,-2.13134765625,48.1256103515625,101.744384765625
1758878089.8375902,-0.7138671875,-0.06298828125,0.7275390625,3.96728515625,-0.54931640625,-0.244140625,-2.0928955078125,48.1365966796875,101.7498779296875
1758878089.8480856,-0.7119140625,-0.06298828125,0.72705078125,12.939453125,-0.3662109375,-0.1220703125,-2.0159912109375,48.1365966796875,101.75537109375
1758878089.8576608,-0.7119140625,-0.06298828125,0.72705078125,12.939453125,-0.3662109375,-0.1220703125,-1.8951416015625,48.14208984375,101.75537109375
1758878089.8675816,-0.7109375,-0.03857421875,0.7236328125,18.73779296875,-0.3662109375,-0.1220703125,-1.7413330078125,48.14208984375,101.7608642578125
1758878089.878341,-0.7109375,-0.03857421875,0.7236328125,18.73779296875,-0.3662109375,-0.1220703125,-1.5655517578125,48.1365966796875,101.7608642578125
1758878089.887907,-0.68701171875,-0.0107421875,0.72802734375,18.98193359375,-0.6103515625,-0.06103515625,-1.3897705078125,48.131103515625,101.7608642578125
1758878089.8976219,-0.68701171875,-0.0107421875,0.72802734375,18.98193359375,-0.6103515625,-0.06103515625,-1.20849609375,48.1201171875,101.766357421875
1758878089.9080684,-0.67333984375,0.00830078125,0.74072265625,14.0380859375,-0.48828125,-0.06103515625,-1.0546875,48.109130859375,101.766357421875
1758878089.9183633,-0.67333984375,0.00830078125,0.74072265625,14.0380859375,-0.48828125,-0.06103515625,-0.9228515625,48.0926513671875,101.766357421875
1758878089.9276478,-0.67529296875,0.01513671875,0.77392578125,8.97216796875,-0.42724609375,-0.1220703125,-0.81298828125,48.076171875,101.766357421875
1758878089.9379919,-0.67529296875,0.01513671875,0.77392578125,8.97216796875,-0.42724609375,-0.1220703125,-0.7305908203125,48.0596923828125,101.7608642578125
1758878089.9478357,-0.6796875,0.001953125,0.79638671875,6.65283203125,-0.79345703125,-0.54931640625,-0.6591796875,48.0377197265625,101.7498779296875
1758878089.9576993,-0.6796875,0.001953125,0.79638671875,6.65283203125,-0.79345703125,-0.54931640625,-0.604248046875,48.01025390625,101.7388916015625
1758878089.968285,-0.66796875,-0.009765625,0.78125,8.544921875,-1.46484375,-1.3427734375,-0.538330078125,47.9718017578125,101.722412109375
1758878089.9778502,-0.66796875,-0.009765625,0.78125,8.544921875,-1.46484375,-1.3427734375,-0.472412109375,47.933349609375,101.700439453125
1758878089.9877708,-0.65380859375,-0.02001953125,0.76123046875,12.63427734375,-1.5869140625,-2.62451171875,-0.3955078125,47.8948974609375,101.6619873046875
1758878089.9979856,-0.65380859375,-0.02001953125,0.76123046875,12.63427734375,-1.5869140625,-2.62451171875,-0.3021240234375,47.8509521484375,101.62353515625
1758878090.0080516,-0.658203125,0.0,0.78076171875,15.19775390625,-2.25830078125,-4.08935546875,-0.2032470703125,47.801513671875,101.568603515625
1758878090.0177643,-0.658203125,0.0,0.78076171875,15.19775390625,-2.25830078125,-4.08935546875,-0.1043701171875,47.74658203125,101.502685546875
1758878090.0279639,-0.681640625,0.03125,0.765625,18.5546875,-2.86865234375,-5.4931640625,0.0054931640625,47.691650390625,101.42578125
1758878090.0385685,-0.681640625,0.03125,0.765625,18.5546875,-2.86865234375,-5.4931640625,0.1263427734375,47.6312255859375,101.337890625
1758878090.0480108,-0.7158203125,0.01171875,0.70068359375,22.4609375,-2.685546875,-6.2255859375,0.263671875,47.5762939453125,101.2445068359375
1758878090.0585184,-0.7158203125,0.01171875,0.70068359375,22.4609375,-2.685546875,-6.2255859375,0.4119873046875,47.5213623046875,101.151123046875
1758878090.0678787,-0.765625,0.001953125,0.6767578125,19.47021484375,-2.01416015625,-6.9580078125,0.54931640625,47.471923828125,101.0467529296875
1758878090.0783617,-0.765625,0.001953125,0.6767578125,19.47021484375,-2.01416015625,-6.9580078125,0.6646728515625,47.427978515625,100.9423828125
1758878090.0881705,-0.77734375,0.0224609375,0.623046875,15.9912109375,-0.79345703125,-7.26318359375,0.758056640625,47.39501953125,100.83251953125
1758878090.0982533,-0.77734375,0.0224609375,0.623046875,15.9912109375,-0.79345703125,-7.26318359375,0.8349609375,47.373046875,100.72265625
1758878090.1078813,-0.771484375,0.02294921875,0.61474609375,13.0615234375,-0.30517578125,-7.01904296875,0.90087890625,47.3565673828125,100.6182861328125
1758878090.117931,-0.771484375,0.02294921875,0.61474609375,13.0615234375,-0.30517578125,-7.01904296875,0.9503173828125,47.3455810546875,100.513916015625
1758878090.128456,-0.75390625,0.02587890625,0.63232421875,5.126953125,-0.1220703125,-6.77490234375,0.966796875,47.340087890625,100.4150390625
1758878090.1381462,-0.75390625,0.02587890625,0.63232421875,5.126953125,-0.1220703125,-6.77490234375,0.9393310546875,47.340087890625,100.316162109375
1758878090.1479564,-0.75439453125,0.0390625,0.6298828125,0.9765625,-0.54931640625,-6.53076171875,0.90087890625,47.3345947265625,100.21728515625
1758878090.1587472,-0.75439453125,0.0390625,0.6298828125,0.9765625,-0.54931640625,-6.53076171875,0.8404541015625,47.3291015625,100.118408203125
1758878090.1679938,-0.775390625,0.01025390625,0.58447265625,1.0986328125,0.06103515625,-6.4697265625,0.7855224609375,47.3345947265625,100.0250244140625
1758878090.1781604,-0.775390625,0.01025390625,0.58447265625,1.0986328125,0.06103515625,-6.4697265625,0.7305908203125,47.340087890625,99.9261474609375
1758878090.1881588,-0.76904296875,-0.02099609375,0.56494140625,1.89208984375,0.1220703125,-5.67626953125,0.6866455078125,47.35107421875,99.84375
1758878090.1980293,-0.76904296875,-0.02099609375,0.56494140625,1.89208984375,0.1220703125,-5.67626953125,0.648193359375,47.362060546875,99.766845703125
1758878090.2080293,-0.75341796875,-0.00927734375,0.658203125,-5.9814453125,1.28173828125,-4.7607421875,0.538330078125,47.3895263671875,99.6954345703125
1758878090.2184913,-0.75341796875,-0.00927734375,0.658203125,-5.9814453125,1.28173828125,-4.7607421875,0.4229736328125,47.4114990234375,99.6295166015625
1758878090.2281208,-0.72119140625,0.0029296875,0.677734375,-7.14111328125,1.3427734375,-3.662109375,0.3131103515625,47.4334716796875,99.5745849609375
1758878090.238219,-0.72119140625,0.0029296875,0.677734375,-7.14111328125,1.3427734375,-3.662109375,0.2032470703125,47.4554443359375,99.525146484375
1758878090.248385,-0.7177734375,-0.0107421875,0.7216796875,-5.67626953125,0.6103515625,-2.62451171875,0.120849609375,47.471923828125,99.481201171875
1758878090.2587512,-0.7177734375,-0.0107421875,0.7216796875,-5.67626953125,0.6103515625,-2.62451171875,0.032958984375,47.48291015625,99.4427490234375
1758878090.2681587,-0.69775390625,-0.01513671875,0.71044921875,-4.0283203125,-0.6103515625,-2.01416015625,-0.02197265625,47.4774169921875,99.4097900390625
1758878090.2783308,-0.69775390625,-0.01513671875,0.71044921875,-4.0283203125,-0.6103515625,-2.01416015625,-0.0823974609375,47.471923828125,99.38232421875
1758878090.2882526,-0.6689453125,-0.013671875,0.70751953125,-1.5869140625,-1.5869140625,-1.8310546875,-0.120849609375,47.449951171875,99.349365234375
1758878090.2982967,-0.6689453125,-0.013671875,0.70751953125,-1.5869140625,-1.5869140625,-1.8310546875,-0.15380859375,47.4334716796875,99.3218994140625
1758878090.3081672,-0.6669921875,-0.00537109375,0.7568359375,-3.96728515625,-2.38037109375,-1.28173828125,-0.208740234375,47.4005126953125,99.2999267578125
1758878090.3186579,-0.6669921875,-0.00537109375,0.7568359375,-3.96728515625,-2.38037109375,-1.28173828125,-0.263671875,47.3675537109375,99.2724609375
1758878090.3283346,-0.6787109375,0.00341796875,0.77099609375,-6.7138671875,-3.2958984375,-0.8544921875,-0.340576171875,47.3236083984375,99.2559814453125
1758878090.3387167,-0.6787109375,0.00341796875,0.77099609375,-6.7138671875,-3.2958984375,-0.8544921875,-0.41748046875,47.274169921875,99.239501953125
1758878090.3486052,-0.68994140625,0.0009765625,0.78662109375,-6.16455078125,-4.94384765625,-0.30517578125,-0.4779052734375,47.208251953125,99.228515625
1758878090.359116,-0.68994140625,0.0009765625,0.78662109375,-6.16455078125,-4.94384765625,-0.30517578125,-0.5438232421875,47.142333984375,99.217529296875
1758878090.3683472,-0.6767578125,-0.00439453125,0.76171875,-6.7138671875,-5.79833984375,-0.06103515625,-0.604248046875,47.0654296875,99.20654296875
1758878090.378425,-0.6767578125,-0.00439453125,0.76171875,-6.7138671875,-5.79833984375,-0.06103515625,-0.670166015625,46.988525390625,99.2010498046875
1758878090.3883114,-0.66259765625,-0.0205078125,0.70458984375,-1.8310546875,-5.9814453125,0.18310546875,-0.6866455078125,46.9061279296875,99.195556640625
1758878090.3989744,-0.66259765625,-0.0205078125,0.70458984375,-1.8310546875,-5.9814453125,0.18310546875,-0.6976318359375,46.8292236328125,99.1900634765625
1758878090.4083717,-0.65283203125,-0.03466796875,0.71044921875,-0.18310546875,-6.2255859375,0.732421875,-0.692138671875,46.746826171875,99.195556640625
1758878090.4188457,-0.65283203125,-0.03466796875,0.71044921875,-0.18310546875,-6.2255859375,0.732421875,-0.6866455078125,46.6644287109375,99.2010498046875
1758878090.4284189,-0.6328125,-0.029296875,0.6865234375,-5.79833984375,-5.7373046875,1.28173828125,-0.7305908203125,46.5875244140625,99.2120361328125
1758878090.438493,-0.6328125,-0.029296875,0.6865234375,-5.79833984375,-5.7373046875,1.28173828125,-0.780029296875,46.5106201171875,99.228515625
1758878090.448749,-0.61181640625,0.001953125,0.69287109375,-9.70458984375,-4.57763671875,1.953125,-0.85693359375,46.4447021484375,99.25048828125
1758878090.4589672,-0.61181640625,0.001953125,0.69287109375,-9.70458984375,-4.57763671875,1.953125,-0.9283447265625,46.3787841796875,99.2724609375
1758878090.468411,-0.61572265625,0.02587890625,0.68701171875,-12.6953125,-3.662109375,2.86865234375,-1.0272216796875,46.3238525390625,99.305419921875
1758878090.4786265,-0.61572265625,0.02587890625,0.68701171875,-12.6953125,-3.662109375,2.86865234375,-1.12060546875,46.2689208984375,99.33837890625
1758878090.4885297,-0.7138671875,0.01708984375,0.76318359375,-19.95849609375,-3.96728515625,3.84521484375,-1.2689208984375,46.20849609375,99.3878173828125
1758878090.498649,-0.7138671875,0.01708984375,0.76318359375,-19.95849609375,-3.96728515625,3.84521484375,-1.4227294921875,46.1480712890625,99.437255859375
1758878090.5085325,-0.7685546875,-0.02880859375,0.79345703125,-15.13671875,-5.92041015625,4.2724609375,-1.5216064453125,46.0711669921875,99.4921875
1758878090.5189452,-0.7685546875,-0.02880859375,0.79345703125,-15.13671875,-5.92041015625,4.2724609375,-1.6204833984375,45.9942626953125,99.547119140625
1758878090.5286324,-0.7373046875,-0.10302734375,0.76025390625,11.90185546875,-7.50732421875,3.662109375,-1.4556884765625,45.9063720703125,99.5965576171875
1758878090.538688,-0.7373046875,-0.10302734375,0.76025390625,11.90185546875,-7.50732421875,3.662109375,-1.3018798828125,45.81298828125,99.64599609375
1758878090.5485532,-0.70654296875,-0.1201171875,0.642578125,32.65380859375,-7.32421875,2.685546875,-0.9503173828125,45.7305908203125,99.678955078125
1758878090.5592995,-0.70654296875,-0.1201171875,0.642578125,32.65380859375,-7.32421875,2.685546875,-0.615234375,45.648193359375,99.7174072265625
1758878090.5686123,-0.70654296875,-0.1201171875,0.642578125,31.06689453125,-6.34765625,1.8310546875,-0.3021240234375,45.5767822265625,99.7393798828125
1758878090.5787296,-0.66162109375,-0.05029296875,0.54638671875,31.06689453125,-6.34765625,1.8310546875,0.0,45.5108642578125,99.766845703125
1758878090.5891209,-0.64013671875,0.046875,0.5634765625,14.58740234375,-4.69970703125,1.953125,0.1483154296875,45.46142578125,99.7943115234375
1758878090.5987597,-0.64013671875,0.046875,0.5634765625,14.58740234375,-4.69970703125,1.953125,0.296630859375,45.4119873046875,99.82177734375
1758878090.6087024,-0.82470703125,0.1064453125,0.71240234375,-8.1787109375,-4.638671875,2.25830078125,0.230712890625,45.37353515625,99.854736328125
1758878090.619021,-0.82470703125,0.1064453125,0.71240234375,-8.1787109375,-4.638671875,2.25830078125,0.164794921875,45.32958984375,99.8876953125
1758878090.6288133,-0.9814453125,0.07080078125,0.94677734375,-22.88818359375,-7.32421875,2.50244140625,-0.032958984375,45.263671875,99.920654296875
1758878090.638788,-0.9814453125,0.07080078125,0.94677734375,-22.88818359375,-7.32421875,2.50244140625,-0.230712890625,45.19775390625,99.95361328125
1758878090.648727,-0.787109375,-0.0224609375,0.73681640625,-8.1787109375,-8.4228515625,1.5869140625,-0.28564453125,45.120849609375,99.9755859375
1758878090.6591988,-0.787109375,-0.0224609375,0.73681640625,-8.1787109375,-8.4228515625,1.5869140625,-0.3460693359375,45.0439453125,99.99755859375
1758878090.6687157,-0.650390625,-0.07080078125,0.4814453125,13.97705078125,-6.8359375,0.54931640625,-0.2032470703125,44.989013671875,100.008544921875
1758878090.6788633,-0.650390625,-0.07080078125,0.4814453125,13.97705078125,-6.8359375,0.54931640625,-0.0604248046875,44.93408203125,100.0140380859375
1758878090.689344,-0.6630859375,-0.0791015625,0.53369140625,23.4375,-4.638671875,-0.9765625,0.15380859375,44.9066162109375,100.008544921875
1758878090.698917,-0.6630859375,-0.0791015625,0.53369140625,23.4375,-4.638671875,-0.9765625,0.362548828125,44.879150390625,99.99755859375
1758878090.7088478,-0.705078125,-0.0009765625,0.69384765625,24.10888671875,-3.90625,-2.3193359375,0.5657958984375,44.857177734375,99.9700927734375
1758878090.7189457,-0.705078125,-0.0009765625,0.69384765625,24.10888671875,-3.90625,-2.3193359375,0.76904296875,44.835205078125,99.942626953125
1758878090.7294338,-0.71484375,0.0869140625,0.73681640625,22.0947265625,-4.5166015625,-2.9296875,0.9503173828125,44.80224609375,99.9041748046875
1758878090.7389538,-0.71484375,0.0869140625,0.73681640625,22.0947265625,-4.5166015625,-2.9296875,1.1370849609375,44.7747802734375,99.86572265625
1758878090.748891,-0.70849609375,0.126953125,0.71142578125,6.53076171875,-5.126953125,-3.23486328125,1.16455078125,44.736328125,99.82177734375
1758878090.7591515,-0.70849609375,0.126953125,0.71142578125,6.53076171875,-5.126953125,-3.23486328125,1.2030029296875,44.6923828125,99.77783203125
1758878090.7689538,-0.74169921875,0.10400390625,0.7421875,-13.97705078125,-5.615234375,-2.685546875,1.043701171875,44.6484375,99.7393798828125
1758878090.7790852,-0.74169921875,0.10400390625,0.7421875,-13.97705078125,-5.615234375,-2.685546875,0.889892578125,44.6044921875,99.700927734375
1758878090.7889636,-0.79736328125,0.05078125,0.7548828125,-15.13671875,-6.04248046875,-2.01416015625,0.7305908203125,44.5550537109375,99.66796875
1758878090.7994814,-0.79736328125,0.05078125,0.7548828125,-15.13671875,-6.04248046875,-2.01416015625,0.5767822265625,44.505615234375,99.6405029296875
1758878090.8090036,-0.81591796875,-0.0478515625,0.73486328125,1.89208984375,-7.01904296875,-2.13623046875,0.5877685546875,44.4451904296875,99.6075439453125
1758878090.8194401,-0.81591796875,-0.0478515625,0.73486328125,1.89208984375,-7.01904296875,-2.13623046875,0.59326171875,44.3902587890625,99.580078125
1758878090.8290834,-0.80078125,-0.06787109375,0.67333984375,18.61572265625,-7.4462890625,-1.8310546875,0.7635498046875,44.329833984375,99.55810546875
1758878090.8390849,-0.80078125,-0.06787109375,0.67333984375,18.61572265625,-7.4462890625,-1.8310546875,0.933837890625,44.27490234375,99.5361328125
1758878090.8490553,-0.7607421875,-0.04931640625,0.6220703125,26.123046875,-6.89697265625,-1.8310546875,1.1700439453125,44.2254638671875,99.51416015625
1758878090.8595562,-0.7607421875,-0.04931640625,0.6220703125,26.123046875,-6.89697265625,-1.8310546875,1.4007568359375,44.176025390625,99.4921875
1758878090.8691084,-0.68603515625,0.001953125,0.6328125,17.27294921875,-5.9814453125,-0.8544921875,1.5545654296875,44.1375732421875,99.4866943359375
1758878090.879211,-0.68603515625,0.001953125,0.6328125,17.27294921875,-5.9814453125,-0.8544921875,1.7083740234375,44.09912109375,99.481201171875
1758878090.8892894,-0.64990234375,0.0615234375,0.67236328125,2.62451171875,-4.5166015625,0.79345703125,1.7303466796875,44.0771484375,99.4976806640625
1758878090.8992155,-0.64990234375,0.0615234375,0.67236328125,2.62451171875,-4.5166015625,0.79345703125,1.7578125,44.0496826171875,99.51416015625
1758878090.909127,-0.63525390625,0.0771484375,0.7060546875,-8.6669921875,-3.60107421875,2.38037109375,1.69189453125,44.0277099609375,99.547119140625
1758878090.9195254,-0.63525390625,0.0771484375,0.7060546875,-8.6669921875,-3.60107421875,2.38037109375,1.6259765625,44.0057373046875,99.580078125
1758878090.9295638,-0.60986328125,0.0615234375,0.7421875,-20.93505859375,-3.11279296875,3.96728515625,1.4556884765625,43.9837646484375,99.635009765625
1758878090.9396827,-0.60986328125,0.0615234375,0.7421875,-20.93505859375,-3.11279296875,3.96728515625,1.2908935546875,43.9617919921875,99.68994140625
1758878090.9494982,-0.58154296875,0.033203125,0.7333984375,-26.85546875,-2.86865234375,5.06591796875,1.07666015625,43.934326171875,99.755859375
1758878090.9596972,-0.58154296875,0.033203125,0.7333984375,-26.85546875,-2.86865234375,5.06591796875,0.867919921875,43.9013671875,99.82177734375
1758878090.9692278,-0.6044921875,-0.0009765625,0.7568359375,-29.6630859375,-2.8076171875,5.67626953125,0.63720703125,43.8739013671875,99.898681640625
1758878090.9793108,-0.6044921875,-0.0009765625,0.7568359375,-29.6630859375,-2.8076171875,5.67626953125,0.4010009765625,43.83544921875,99.9700927734375
1758878090.9894907,-0.66796875,-0.01171875,0.78662109375,-33.99658203125,-3.2958984375,6.28662109375,0.1318359375,43.7969970703125,100.052490234375
1758878091.0005872,-0.66796875,-0.01171875,0.78662109375,-33.99658203125,-3.2958984375,6.28662109375,-0.1318359375,43.758544921875,100.1348876953125
1758878091.0092473,-0.673828125,0.0,0.740234375,-29.9072265625,-3.47900390625,7.26318359375,-0.3515625,43.714599609375,100.2337646484375
1758878091.0193286,-0.673828125,0.0,0.740234375,-29.9072265625,-3.47900390625,7.26318359375,-0.5712890625,43.670654296875,100.3271484375
1758878091.029799,-0.646484375,-0.013671875,0.681640625,-25.93994140625,-1.953125,7.87353515625,-0.7470703125,43.6431884765625,100.4315185546875
1758878091.0392892,-0.646484375,-0.013671875,0.681640625,-25.93994140625,-1.953125,7.87353515625,-0.9228515625,43.6212158203125,100.535888671875
1758878091.0492883,-0.6220703125,-0.0185546875,0.66015625,-24.96337890625,0.0,8.11767578125,-1.0821533203125,43.61572265625,100.645751953125
1758878091.0595753,-0.6220703125,-0.0185546875,0.66015625,-24.96337890625,0.0,8.11767578125,-1.2469482421875,43.6102294921875,100.755615234375
1758878091.0699613,-0.6611328125,-0.01220703125,0.7529296875,-31.25,1.708984375,8.11767578125,-1.47216796875,43.6212158203125,100.8599853515625
1758878091.0794828,-0.6611328125,-0.01220703125,0.7529296875,-31.25,1.708984375,8.11767578125,-1.6973876953125,43.6376953125,100.9698486328125
1758878091.0894141,-0.68896484375,-0.00537109375,0.7578125,-28.076171875,2.25830078125,8.23974609375,-1.8896484375,43.6541748046875,101.0797119140625
1758878091.0998468,-0.68896484375,-0.00537109375,0.7578125,-28.076171875,2.25830078125,8.23974609375,-2.076416015625,43.670654296875,101.1895751953125
1758878091.1094403,-0.7177734375,-0.03759765625,0.7451171875,-19.10400390625,2.44140625,7.99560546875,-2.1807861328125,43.692626953125,101.2939453125
1758878091.1194687,-0.7177734375,-0.03759765625,0.7451171875,-19.10400390625,2.44140625,7.99560546875,-2.28515625,43.714599609375,101.40380859375
1758878091.129767,-0.71728515625,-0.06884765625,0.74169921875,-12.75634765625,2.13623046875,7.568359375,-2.3345947265625,43.7310791015625,101.502685546875
1758878091.1395135,-0.6943359375,-0.05810546875,0.70703125,-1.953125,1.953125,6.53076171875,-2.3345947265625,43.74755859375,101.6015625
1758878091.149501,-0.6943359375,-0.05810546875,0.70703125,-1.953125,1.953125,6.53076171875,-2.2906494140625,43.76953125,101.689453125
1758878091.1595042,-0.69482421875,-0.05126953125,0.6767578125,9.1552734375,1.953125,5.06591796875,-2.197265625,43.7860107421875,101.7718505859375
1758878091.170042,-0.69482421875,-0.05126953125,0.6767578125,9.1552734375,1.953125,5.06591796875,-2.0599365234375,43.802490234375,101.84326171875
1758878091.1794984,-0.6806640625,-0.029296875,0.64697265625,15.869140625,2.8076171875,3.47900390625,-1.8951416015625,43.8299560546875,101.9091796875
1758878091.1895397,-0.6806640625,-0.029296875,0.64697265625,15.869140625,2.8076171875,3.47900390625,-1.7083740234375,43.857421875,101.9586181640625
1758878091.2001238,-0.67724609375,0.00048828125,0.68310546875,17.08984375,3.173828125,2.197265625,-1.5216064453125,43.890380859375,102.0025634765625
1758878091.2095525,-0.67724609375,0.00048828125,0.68310546875,17.08984375,3.173828125,2.197265625,-1.3348388671875,43.92333984375,102.041015625
1758878091.2199411,-0.68359375,0.02685546875,0.77197265625,9.3994140625,3.41796875,0.8544921875,-1.1920166015625,43.9617919921875,102.06298828125
1758878091.2296631,-0.68359375,0.02685546875,0.77197265625,9.3994140625,3.41796875,0.8544921875,-1.087646484375,43.9947509765625,102.0794677734375
1758878091.2400966,-0.671875,0.0244140625,0.74658203125,0.54931640625,3.662109375,-0.18310546875,-1.0382080078125,44.0277099609375,102.0849609375
1758878091.2498245,-0.671875,0.0244140625,0.74658203125,0.54931640625,3.662109375,-0.18310546875,-1.03271484375,44.0606689453125,102.0849609375
1758878091.259692,-0.71484375,0.00390625,0.76025390625,-3.60107421875,2.50244140625,-1.3427734375,-1.0546875,44.088134765625,102.073974609375
1758878091.2696946,-0.71484375,0.00390625,0.76025390625,-3.60107421875,2.50244140625,-1.3427734375,-1.0986328125,44.110107421875,102.0574951171875
1758878091.2796574,-0.7919921875,-0.01513671875,0.84521484375,1.953125,0.8544921875,-2.38037109375,-1.12060546875,44.12109375,102.0355224609375
1758878091.2901096,-0.7919921875,-0.01513671875,0.84521484375,1.953125,0.8544921875,-2.38037109375,-1.12060546875,44.12109375,102.008056640625
1758878091.2998083,-0.72119140625,-0.04931640625,0.751953125,22.4609375,-0.42724609375,-3.72314453125,-1.0272216796875,44.12109375,101.964111328125
1758878091.3096807,-0.72119140625,-0.04931640625,0.751953125,22.4609375,-0.42724609375,-3.72314453125,-0.8349609375,44.110107421875,101.920166015625
1758878091.319698,-0.72119140625,-0.04931640625,0.751953125,39.306640625,-0.3662109375,-5.126953125,-0.5767822265625,44.1046142578125,101.8597412109375
1758878091.3304894,-0.68359375,-0.06591796875,0.62451171875,39.306640625,-0.3662109375,-5.126953125,-0.2362060546875,44.09912109375,101.7938232421875
1758878091.339682,-0.70166015625,-0.037109375,0.689453125,38.57421875,0.30517578125,-6.103515625,0.076904296875,44.0936279296875,101.722412109375
1758878091.3498018,-0.70166015625,-0.037109375,0.689453125,38.57421875,0.30517578125,-6.103515625,0.3900146484375,44.09912109375,101.6455078125
1758878091.3600233,-0.6865234375,0.03564453125,0.736328125,27.2216796875,0.732421875,-6.53076171875,0.6427001953125,44.110107421875,101.5631103515625
1758878091.3705122,-0.6865234375,0.03564453125,0.736328125,27.2216796875,0.732421875,-6.53076171875,0.8404541015625,44.1156005859375,101.480712890625
1758878091.3798137,-0.6572265625,0.06103515625,0.671875,20.93505859375,0.54931640625,-7.4462890625,0.999755859375,44.12109375,101.392822265625
1758878091.3898408,-0.6572265625,0.06103515625,0.671875,20.93505859375,0.54931640625,-7.4462890625,1.1260986328125,44.132080078125,101.2994384765625
1758878091.4003432,-0.67724609375,0.03857421875,0.6875,15.2587890625,0.3662109375,-8.1787109375,1.2249755859375,44.1375732421875,101.195068359375
1758878091.4098237,-0.67724609375,0.03857421875,0.6875,15.2587890625,0.3662109375,-8.1787109375,1.2908935546875,44.14306640625,101.085205078125
1758878091.4198093,-0.732421875,0.0458984375,0.740234375,8.36181640625,0.0,-8.4228515625,1.3238525390625,44.1485595703125,100.9808349609375
1758878091.4304094,-0.732421875,0.0458984375,0.740234375,8.36181640625,0.0,-8.4228515625,1.3238525390625,44.1485595703125,100.865478515625
1758878091.439885,-0.77880859375,0.041015625,0.77734375,7.4462890625,-1.03759765625,-8.6669921875,1.318359375,44.1485595703125,100.755615234375
1758878091.4499094,-0.77880859375,0.041015625,0.77734375,7.4462890625,-1.03759765625,-8.6669921875,1.3128662109375,44.14306640625,100.6402587890625
1758878091.4601326,-0.7529296875,0.01171875,0.7197265625,6.7138671875,-1.77001953125,-8.4228515625,1.3018798828125,44.132080078125,100.52490234375
1758878091.4705641,-0.7529296875,0.01171875,0.7197265625,6.7138671875,-1.77001953125,-8.4228515625,1.285400390625,44.1156005859375,100.4150390625
1758878091.4799423,-0.8056640625,-0.0263671875,0.728515625,9.21630859375,-2.99072265625,-8.30078125,1.285400390625,44.09912109375,100.30517578125
1758878091.489971,-0.8056640625,-0.0263671875,0.728515625,9.21630859375,-2.99072265625,-8.30078125,1.2908935546875,44.0771484375,100.1953125
1758878091.5001862,-0.8291015625,-0.02880859375,0.7119140625,22.52197265625,-3.41796875,-7.75146484375,1.3677978515625,44.0606689453125,100.0909423828125
1758878091.50996,-0.8291015625,-0.02880859375,0.7119140625,22.52197265625,-3.41796875,-7.75146484375,1.5106201171875,44.0386962890625,99.9920654296875
1758878091.5199645,-0.78173828125,-0.03564453125,0.62451171875,38.0859375,-3.7841796875,-7.2021484375,1.7303466796875,44.0167236328125,99.8931884765625
1758878091.5304847,-0.78173828125,-0.03564453125,0.62451171875,38.0859375,-3.7841796875,-7.2021484375,2.0269775390625,44.000244140625,99.8052978515625
1758878091.5400784,-0.7353515625,-0.01171875,0.55419921875,35.70556640625,-3.11279296875,-6.89697265625,2.3126220703125,43.9837646484375,99.7174072265625
1758878091.5500014,-0.7353515625,-0.01171875,0.55419921875,35.70556640625,-3.11279296875,-6.89697265625,2.581787109375,43.978271484375,99.6295166015625
1758878091.560604,-0.7216796875,0.04638671875,0.587890625,22.8271484375,-2.38037109375,-5.92041015625,2.7960205078125,43.978271484375,99.5526123046875
1758878091.570099,-0.7216796875,0.04638671875,0.587890625,22.8271484375,-2.38037109375,-5.92041015625,2.9498291015625,43.9837646484375,99.481201171875
1758878091.5800831,-0.720703125,0.091796875,0.64892578125,9.1552734375,-1.708984375,-4.45556640625,3.043212890625,43.9947509765625,99.4207763671875
1758878091.590116,-0.720703125,0.091796875,0.64892578125,9.1552734375,-1.708984375,-4.45556640625,3.076171875,44.0057373046875,99.371337890625
1758878091.6007063,-0.7177734375,0.083984375,0.67529296875,0.3662109375,-1.03759765625,-2.99072265625,3.0816650390625,44.022216796875,99.327392578125
1758878091.6101222,-0.7177734375,0.083984375,0.67529296875,0.3662109375,-1.03759765625,-2.99072265625,3.0487060546875,44.0386962890625,99.2889404296875
1758878091.6206152,-0.70263671875,0.04833984375,0.67724609375,-3.2958984375,0.0,-1.77001953125,3.01025390625,44.0606689453125,99.261474609375
1758878091.6301217,-0.70263671875,0.04833984375,0.67724609375,-3.2958984375,0.0,-1.77001953125,2.9608154296875,44.0826416015625,99.2449951171875
1758878091.6401496,-0.701171875,0.0244140625,0.69091796875,-5.06591796875,1.40380859375,-0.67138671875,2.9058837890625,44.110107421875,99.228515625
1758878091.650621,-0.701171875,0.0244140625,0.69091796875,-5.06591796875,1.40380859375,-0.67138671875,2.8509521484375,44.14306640625,99.228515625
1758878091.6606064,-0.6875,0.01171875,0.7138671875,-5.126953125,2.74658203125,0.18310546875,2.7960205078125,44.18701171875,99.228515625
1758878091.6701872,-0.6875,0.01171875,0.7138671875,-5.126953125,2.74658203125,0.18310546875,2.74658203125,44.23095703125,99.2340087890625
1758878091.6802158,-0.6865234375,0.0087890625,0.71875,-4.150390625,4.0283203125,1.220703125,2.7081298828125,44.27490234375,99.25048828125
1758878091.6903841,-0.6865234375,0.0087890625,0.71875,-4.150390625,4.0283203125,1.220703125,2.6806640625,44.329833984375,99.2724609375
1758878091.7002053,-0.67626953125,0.01318359375,0.7294921875,-3.47900390625,5.18798828125,1.77001953125,2.6531982421875,44.384765625,99.2999267578125
1758878091.7103682,-0.67626953125,0.01318359375,0.7294921875,-3.47900390625,5.18798828125,1.77001953125,2.63671875,44.439697265625,99.327392578125
1758878091.7206066,-0.6767578125,0.03173828125,0.720703125,-2.50244140625,6.28662109375,1.89208984375,2.6202392578125,44.505615234375,99.3603515625
1758878091.7304366,-0.6767578125,0.03173828125,0.720703125,-2.50244140625,6.28662109375,1.89208984375,2.61474609375,44.571533203125,99.3878173828125
1758878091.7402468,-0.6728515625,0.0390625,0.72119140625,-1.3427734375,7.080078125,1.708984375,2.6092529296875,44.637451171875,99.4207763671875
1758878091.7504907,-0.6728515625,0.0390625,0.72119140625,-1.3427734375,7.080078125,1.708984375,2.61474609375,44.7088623046875,99.4482421875
1758878091.7609704,-0.6806640625,0.0458984375,0.7158203125,-4.94384765625,7.4462890625,1.0986328125,2.5982666015625,44.7802734375,99.47021484375
1758878091.7704499,-0.6806640625,0.0458984375,0.7158203125,-4.94384765625,7.4462890625,1.0986328125,2.5653076171875,44.8516845703125,99.4921875
1758878091.78036,-0.67724609375,0.06640625,0.70458984375,-7.87353515625,7.38525390625,0.1220703125,2.5103759765625,44.923095703125,99.503173828125
1758878091.7906017,-0.67724609375,0.06640625,0.70458984375,-7.87353515625,7.38525390625,0.1220703125,2.43896484375,44.9945068359375,99.5086669921875
1758878091.800368,-0.70068359375,0.064453125,0.7109375,-8.056640625,7.2021484375,-1.28173828125,2.3565673828125,45.0604248046875,99.4976806640625
1758878091.8104944,-0.70068359375,0.064453125,0.7109375,-8.056640625,7.2021484375,-1.28173828125,2.274169921875,45.1318359375,99.481201171875
1758878091.821043,-0.71240234375,0.04833984375,0.72900390625,-4.94384765625,6.40869140625,-2.99072265625,2.197265625,45.1922607421875,99.4537353515625
1758878091.8305106,-0.71240234375,0.04833984375,0.72900390625,-4.94384765625,6.40869140625,-2.99072265625,2.13134765625,45.252685546875,99.4097900390625
1758878091.8409142,-0.736328125,0.02001953125,0.71923828125,3.23486328125,5.859375,-4.7607421875,2.0928955078125,45.3131103515625,99.3548583984375
1758878091.8505304,-0.736328125,0.02001953125,0.71923828125,3.23486328125,5.859375,-4.7607421875,2.08740234375,45.3680419921875,99.283447265625
1758878091.8608637,-0.748046875,-0.0224609375,0.68408203125,14.83154296875,5.31005859375,-5.9814453125,2.1258544921875,45.41748046875,99.20654296875
1758878091.8705685,-0.748046875,-0.0224609375,0.68408203125,14.83154296875,5.31005859375,-5.9814453125,2.21923828125,45.472412109375,99.1241455078125
1758878091.8806062,-0.75830078125,-0.01318359375,0.6669921875,19.10400390625,5.126953125,-6.7138671875,2.3291015625,45.52734375,99.0362548828125
1758878091.891347,-0.75830078125,-0.01318359375,0.6669921875,19.10400390625,5.126953125,-6.7138671875,2.449951171875,45.5767822265625,98.94287109375
1758878091.900537,-0.76708984375,0.037109375,0.65234375,20.751953125,5.06591796875,-7.080078125,2.5762939453125,45.63720703125,98.843994140625
1758878091.9106762,-0.76708984375,0.037109375,0.65234375,20.751953125,5.06591796875,-7.080078125,2.7081298828125,45.692138671875,98.7506103515625
1758878091.9206064,-0.7734375,0.0654296875,0.658203125,18.798828125,5.18798828125,-6.9580078125,2.8289794921875,45.7525634765625,98.6572265625
1758878091.9312596,-0.7734375,0.0654296875,0.658203125,18.798828125,5.18798828125,-6.9580078125,2.9443359375,45.81298828125,98.558349609375
1758878091.94062,-0.77783203125,0.0751953125,0.63623046875,11.53564453125,5.4931640625,-6.40869140625,3.0322265625,45.87890625,98.470458984375
1758878091.9507163,-0.77783203125,0.0751953125,0.63623046875,11.53564453125,5.4931640625,-6.40869140625,3.0816650390625,45.94482421875,98.382568359375
1758878091.9612396,-0.76806640625,0.06591796875,0.6279296875,4.08935546875,5.37109375,-5.55419921875,3.1036376953125,46.0162353515625,98.3001708984375
1758878091.9707596,-0.76806640625,0.06591796875,0.6279296875,4.08935546875,5.37109375,-5.55419921875,3.0926513671875,46.0821533203125,98.228759765625
1758878091.9806063,-0.77197265625,0.048828125,0.63671875,-1.708984375,4.8828125,-4.5166015625,3.0596923828125,46.1480712890625,98.1573486328125
1758878091.9907753,-0.77197265625,0.048828125,0.63671875,-1.708984375,4.8828125,-4.5166015625,3.0047607421875,46.2139892578125,98.096923828125
1758878092.0012643,-0.7705078125,0.0234375,0.650390625,-2.3193359375,4.21142578125,-3.60107421875,2.9498291015625,46.2799072265625,98.0419921875
1758878092.010743,-0.7705078125,0.0234375,0.650390625,-2.3193359375,4.21142578125,-3.60107421875,2.8948974609375,46.3348388671875,97.9925537109375
1758878092.0212042,-0.76806640625,0.00537109375,0.6513671875,-0.67138671875,3.7841796875,-2.685546875,2.8509521484375,46.395263671875,97.9486083984375
1758878092.0308034,-0.76806640625,0.00537109375,0.6513671875,-0.67138671875,3.7841796875,-2.685546875,2.823486328125,46.4501953125,97.91015625
1758878092.0407224,-0.75634765625,0.01220703125,0.65087890625,0.48828125,3.47900390625,-1.77001953125,2.801513671875,46.4996337890625,97.877197265625
1758878092.0511684,-0.75634765625,0.01220703125,0.65087890625,0.48828125,3.47900390625,-1.77001953125,2.79052734375,46.549072265625,97.855224609375
1758878092.0609882,-0.7392578125,0.0341796875,0.67041015625,-0.06103515625,3.11279296875,-0.9765625,2.7740478515625,46.5985107421875,97.833251953125
1758878092.0709205,-0.7392578125,0.0341796875,0.67041015625,-0.06103515625,3.11279296875,-0.9765625,2.7685546875,46.6424560546875,97.8167724609375
1758878092.080822,-0.7236328125,0.03955078125,0.68603515625,-1.3427734375,2.74658203125,-0.1220703125,2.757568359375,46.6864013671875,97.811279296875
1758878092.091409,-0.7236328125,0.03955078125,0.68603515625,-1.3427734375,2.74658203125,-0.1220703125,2.7410888671875,46.724853515625,97.8057861328125
1758878092.100772,-0.71337890625,0.02880859375,0.6943359375,-2.3193359375,2.3193359375,0.48828125,2.7301025390625,46.7578125,97.8057861328125
1758878092.1109252,-0.71337890625,0.02880859375,0.6943359375,-2.3193359375,2.3193359375,0.48828125,2.713623046875,46.790771484375,97.811279296875
1758878092.1214662,-0.7099609375,0.0244140625,0.7001953125,-2.3193359375,1.89208984375,0.9765625,2.6971435546875,46.8182373046875,97.822265625
1758878092.1309645,-0.7099609375,0.0244140625,0.7001953125,-2.3193359375,1.89208984375,0.9765625,2.6861572265625,46.8402099609375,97.833251953125
1758878092.1416998,-0.71142578125,0.02685546875,0.69970703125,-2.8076171875,1.8310546875,1.46484375,2.6751708984375,46.8621826171875,97.855224609375
1758878092.151231,-0.71142578125,0.02685546875,0.69970703125,-2.8076171875,1.8310546875,1.46484375,2.65869140625,46.8841552734375,97.8717041015625
1758878092.1609166,-0.7177734375,0.0302734375,0.6962890625,-2.86865234375,2.01416015625,1.708984375,2.647705078125,46.900634765625,97.8936767578125
1758878092.171048,-0.7177734375,0.0302734375,0.6962890625,-2.86865234375,2.01416015625,1.708984375,2.6422119140625,46.922607421875,97.9156494140625
1758878092.1814897,-0.72021484375,0.033203125,0.69580078125,-2.01416015625,2.3193359375,1.64794921875,2.63671875,46.944580078125,97.93212890625
1758878092.191026,-0.72021484375,0.033203125,0.69580078125,-2.01416015625,2.3193359375,1.64794921875,2.63671875,46.966552734375,97.9541015625
1758878092.2009592,-0.720703125,0.03759765625,0.69189453125,-1.64794921875,2.5634765625,1.46484375,2.63671875,46.988525390625,97.9705810546875
1758878092.211482,-0.720703125,0.03759765625,0.69189453125,-1.64794921875,2.5634765625,1.46484375,2.63671875,47.010498046875,97.9925537109375
1758878092.221015,-0.71875,0.0380859375,0.6904296875,-1.953125,2.8076171875,1.220703125,2.6312255859375,47.032470703125,98.0035400390625
1758878092.231319,-0.71875,0.0380859375,0.6904296875,-1.953125,2.8076171875,1.220703125,2.625732421875,47.0599365234375,98.02001953125
1758878092.2411785,-0.72509765625,0.037109375,0.69189453125,-2.01416015625,3.0517578125,0.9765625,2.6202392578125,47.08740234375,98.031005859375
1758878092.2511332,-0.72509765625,0.037109375,0.69189453125,-2.01416015625,3.0517578125,0.9765625,2.61474609375,47.1148681640625,98.0419921875
1758878092.261429,-0.72216796875,0.0341796875,0.68115234375,-1.953125,3.23486328125,0.8544921875,2.603759765625,47.142333984375,98.0474853515625
1758878092.2712805,-0.72216796875,0.0341796875,0.68115234375,-1.953125,3.23486328125,0.8544921875,2.5982666015625,47.1697998046875,98.0584716796875
1758878092.2810743,-0.72216796875,0.0322265625,0.6953125,-1.77001953125,3.35693359375,0.67138671875,2.5927734375,47.197265625,98.06396484375
1758878092.2912245,-0.72216796875,0.0322265625,0.6953125,-1.77001953125,3.35693359375,0.67138671875,2.581787109375,47.2247314453125,98.074951171875
1758878092.301592,-0.71826171875,0.03125,0.69384765625,-0.6103515625,3.41796875,0.48828125,2.5872802734375,47.252197265625,98.074951171875
1758878092.3112152,-0.71826171875,0.03125,0.69384765625,-0.6103515625,3.41796875,0.48828125,2.5872802734375,47.28515625,98.0804443359375
1758878092.321177,-0.71826171875,0.03125,0.69384765625,-0.6103515625,3.23486328125,0.3662109375,2.5872802734375,47.30712890625,98.0859375
1758878092.3316803,-0.71923828125,0.03173828125,0.68603515625,-0.6103515625,3.23486328125,0.3662109375,2.5872802734375,47.3345947265625,98.0859375
1758878092.3412678,-0.7216796875,0.0361328125,0.68896484375,-0.9765625,3.2958984375,0.244140625,2.581787109375,47.362060546875,98.0859375
1758878092.3512976,-0.7216796875,0.0361328125,0.68896484375,-0.9765625,3.2958984375,0.244140625,2.581787109375,47.3895263671875,98.0859375
1758878092.3612,-0.72705078125,0.0361328125,0.68896484375,-1.28173828125,3.41796875,0.18310546875,2.57080078125,47.4169921875,98.0859375
1758878092.3716576,-0.72705078125,0.0361328125,0.68896484375,-1.28173828125,3.41796875,0.18310546875,2.5653076171875,47.4444580078125,98.0859375
1758878092.381373,-0.73046875,0.03369140625,0.68212890625,-1.8310546875,3.5400390625,0.06103515625,2.548828125,47.471923828125,98.0859375
1758878092.3913047,-0.73046875,0.03369140625,0.68212890625,-1.8310546875,3.5400390625,0.06103515625,2.537841796875,47.4993896484375,98.0804443359375
1758878092.4018764,-0.736328125,0.0341796875,0.673828125,-1.953125,3.662109375,0.0,2.5213623046875,47.5323486328125,98.0804443359375
1758878092.4113028,-0.736328125,0.0341796875,0.673828125,-1.953125,3.662109375,0.0,2.5048828125,47.5653076171875,98.074951171875
1758878092.4213014,-0.74072265625,0.03369140625,0.67138671875,-2.01416015625,3.96728515625,0.0,2.4884033203125,47.5982666015625,98.0694580078125
1758878092.4316623,-0.74072265625,0.03369140625,0.67138671875,-2.01416015625,3.96728515625,0.0,2.471923828125,47.6312255859375,98.0694580078125
1758878092.441406,-0.74169921875,0.0283203125,0.6728515625,-2.50244140625,4.21142578125,0.18310546875,2.449951171875,47.669677734375,98.06396484375
1758878092.4514048,-0.74169921875,0.0283203125,0.6728515625,-2.50244140625,4.21142578125,0.18310546875,2.4334716796875,47.7081298828125,98.06396484375
1758878092.4614089,-0.7470703125,0.0244140625,0.66748046875,-2.50244140625,4.5166015625,0.54931640625,2.4169921875,47.7520751953125,98.0694580078125
1758878092.4718754,-0.7470703125,0.0244140625,0.66748046875,-2.50244140625,4.5166015625,0.54931640625,2.4005126953125,47.79052734375,98.074951171875
1758878092.4813702,-0.75390625,0.0205078125,0.66015625,-2.13623046875,5.06591796875,0.9765625,2.39501953125,47.8399658203125,98.0859375
1758878092.4916537,-0.75390625,0.0205078125,0.66015625,-2.13623046875,5.06591796875,0.9765625,2.3895263671875,47.8839111328125,98.096923828125
1758878092.5021007,-0.74072265625,0.02001953125,0.66357421875,-1.953125,5.4931640625,1.5869140625,2.3895263671875,47.9388427734375,98.118896484375
1758878092.5115626,-0.74072265625,0.02001953125,0.66357421875,-1.953125,5.4931640625,1.5869140625,2.3895263671875,47.98828125,98.140869140625
1758878092.5215113,-0.73095703125,0.02197265625,0.685546875,-2.01416015625,5.55419921875,2.01416015625,2.39501953125,48.043212890625,98.173828125
1758878092.531943,-0.73095703125,0.02197265625,0.685546875,-2.01416015625,5.55419921875,2.01416015625,2.39501953125,48.0926513671875,98.2012939453125
1758878092.541484,-0.7236328125,0.02392578125,0.68603515625,-1.708984375,5.37109375,2.44140625,2.406005859375,48.14208984375,98.2342529296875
1758878092.5515933,-0.7236328125,0.02392578125,0.68603515625,-1.708984375,5.37109375,2.44140625,2.4224853515625,48.1915283203125,98.2672119140625
1758878092.5617006,-0.72900390625,0.02490234375,0.6728515625,-0.6103515625,4.8828125,2.74658203125,2.4444580078125,48.22998046875,98.3056640625
1758878092.571625,-0.72900390625,0.02490234375,0.6728515625,-0.6103515625,4.8828125,2.74658203125,2.471923828125,48.27392578125,98.3441162109375
1758878092.5816321,-0.7421875,0.0263671875,0.66796875,-0.48828125,4.5166015625,2.86865234375,2.4993896484375,48.3123779296875,98.3880615234375
1758878092.59159,-0.7421875,0.0263671875,0.66796875,-0.48828125,4.5166015625,2.86865234375,2.52685546875,48.350830078125,98.426513671875
1758878092.6018806,-0.73974609375,0.0341796875,0.6669921875,0.18310546875,4.150390625,2.86865234375,2.559814453125,48.3837890625,98.4649658203125
1758878092.6117349,-0.73974609375,0.0341796875,0.6669921875,0.18310546875,4.150390625,2.86865234375,2.5927734375,48.4222412109375,98.50341796875
1758878092.621772,-0.7392578125,0.0322265625,0.66455078125,0.30517578125,3.90625,2.74658203125,2.6312255859375,48.44970703125,98.5418701171875
1758878092.6320398,-0.7392578125,0.0322265625,0.66455078125,0.30517578125,3.90625,2.74658203125,2.6641845703125,48.482666015625,98.5858154296875
1758878092.6416614,-0.73828125,0.033203125,0.673828125,0.0,3.96728515625,2.74658203125,2.6971435546875,48.515625,98.624267578125
1758878092.6517675,-0.73828125,0.033203125,0.673828125,0.0,3.96728515625,2.74658203125,2.724609375,48.548583984375,98.6627197265625
1758878092.6620271,-0.73876953125,0.03466796875,0.67578125,0.0,4.150390625,2.8076171875,2.757568359375,48.5870361328125,98.701171875
1758878092.6717947,-0.73876953125,0.03466796875,0.67578125,0.0,4.150390625,2.8076171875,2.79052734375,48.6199951171875,98.7451171875
1758878092.6817915,-0.73974609375,0.0341796875,0.67333984375,-0.18310546875,4.45556640625,2.9296875,2.823486328125,48.6529541015625,98.7835693359375
1758878092.6916928,-0.73974609375,0.0341796875,0.67333984375,-0.18310546875,4.45556640625,2.9296875,2.8564453125,48.69140625,98.8275146484375
1758878092.70231,-0.74609375,0.03173828125,0.67431640625,0.54931640625,4.82177734375,2.86865234375,2.8948974609375,48.7298583984375,98.8714599609375
1758878092.7118294,-0.74609375,0.03173828125,0.67431640625,0.54931640625,4.82177734375,2.86865234375,2.933349609375,48.7738037109375,98.9154052734375
1758878092.7219381,-0.74755859375,0.03271484375,0.65966796875,0.8544921875,5.18798828125,2.86865234375,2.977294921875,48.8177490234375,98.9593505859375
1758878092.7320583,-0.74755859375,0.03271484375,0.65966796875,0.8544921875,5.18798828125,2.86865234375,3.021240234375,48.8616943359375,99.0032958984375
1758878092.742226,-0.74658203125,0.03857421875,0.66064453125,0.0,5.67626953125,2.99072265625,3.05419921875,48.9056396484375,99.0472412109375
1758878092.7518883,-0.74658203125,0.03857421875,0.66064453125,0.0,5.67626953125,2.99072265625,3.0926513671875,48.955078125,99.0966796875
1758878092.7622292,-0.75048828125,0.0439453125,0.66943359375,-1.0986328125,6.16455078125,3.11279296875,3.1201171875,49.010009765625,99.140625
1758878092.7719545,-0.75048828125,0.0439453125,0.66943359375,-1.0986328125,6.16455078125,3.11279296875,3.1475830078125,49.06494140625,99.1900634765625
1758878092.782039,-0.75390625,0.0400390625,0.65869140625,-1.77001953125,6.4697265625,3.23486328125,3.1695556640625,49.119873046875,99.239501953125
1758878092.7919526,-0.75390625,0.0400390625,0.65869140625,-1.77001953125,6.4697265625,3.23486328125,3.1915283203125,49.1748046875,99.29443359375
1758878092.802662,-0.75439453125,0.0380859375,0.64599609375,-3.23486328125,6.89697265625,3.2958984375,3.2025146484375,49.24072265625,99.3438720703125
1758878092.8119645,-0.75439453125,0.0380859375,0.64599609375,-3.23486328125,6.89697265625,3.2958984375,3.2135009765625,49.3011474609375,99.3988037109375
1758878092.822041,-0.75341796875,0.04443359375,0.65234375,-4.69970703125,7.14111328125,3.35693359375,3.2080078125,49.361572265625,99.4482421875
1758878092.8321192,-0.75341796875,0.04443359375,0.65234375,-4.69970703125,7.14111328125,3.35693359375,3.2025146484375,49.427490234375,99.503173828125
1758878092.8434792,-0.75341796875,0.04345703125,0.65869140625,-5.4931640625,7.4462890625,3.35693359375,3.197021484375,49.493408203125,99.55810546875
1758878092.8520236,-0.75341796875,0.04345703125,0.65869140625,-5.4931640625,7.4462890625,3.35693359375,3.18603515625,49.559326171875,99.613037109375
1758878092.8623402,-0.75244140625,0.03173828125,0.662109375,-3.2958984375,7.38525390625,3.23486328125,3.197021484375,49.625244140625,99.66796875
1758878092.8721485,-0.75244140625,0.03173828125,0.662109375,-3.2958984375,7.38525390625,3.23486328125,3.2080078125,49.691162109375,99.722900390625
1758878092.8821976,-0.75634765625,0.02490234375,0.658203125,0.0,7.26318359375,2.9296875,3.2464599609375,49.757080078125,99.7723388671875
1758878092.8920333,-0.75634765625,0.02490234375,0.658203125,0.0,7.26318359375,2.9296875,3.284912109375,49.8175048828125,99.82177734375
1758878092.9028718,-0.75634765625,0.03369140625,0.64892578125,2.74658203125,6.9580078125,2.62451171875,3.3453369140625,49.8779296875,99.86572265625
1758878092.912143,-0.75634765625,0.03369140625,0.64892578125,2.74658203125,6.9580078125,2.62451171875,3.40576171875,49.9383544921875,99.90966796875
1758878092.9221673,-0.75634765625,0.0439453125,0.65087890625,2.50244140625,6.77490234375,2.5634765625,3.4661865234375,49.998779296875,99.95361328125
1758878092.9323578,-0.75634765625,0.0439453125,0.65087890625,2.50244140625,6.77490234375,2.5634765625,3.5211181640625,50.0592041015625,99.99755859375
1758878092.9421916,-0.7587890625,0.05322265625,0.64501953125,0.79345703125,6.34765625,2.50244140625,3.5650634765625,50.1141357421875,100.04150390625
1758878092.952181,-0.7587890625,0.05322265625,0.64501953125,0.79345703125,6.34765625,2.50244140625,3.603515625,50.1690673828125,100.08544921875
1758878092.9626126,-0.76171875,0.04736328125,0.64013671875,0.0,6.103515625,2.50244140625,3.636474609375,50.218505859375,100.12939453125
1758878092.9723039,-0.76171875,0.04736328125,0.64013671875,0.0,6.103515625,2.50244140625,3.6749267578125,50.2734375,100.17333984375
1758878092.98222,-0.76708984375,0.03857421875,0.64111328125,-0.3662109375,6.04248046875,2.50244140625,3.702392578125,50.3228759765625,100.21728515625
1758878092.9924898,-0.76708984375,0.03857421875,0.64111328125,-0.3662109375,6.04248046875,2.50244140625,3.7353515625,50.3778076171875,100.26123046875
1758878093.0031319,-0.7705078125,0.041015625,0.63818359375,0.244140625,6.16455078125,2.50244140625,3.768310546875,50.42724609375,100.30517578125
1758878093.01228,-0.7705078125,0.041015625,0.63818359375,0.244140625,6.16455078125,2.50244140625,3.8067626953125,50.482177734375,100.34912109375
1758878093.0223486,-0.76806640625,0.04150390625,0.6328125,0.42724609375,6.40869140625,2.5634765625,3.84521484375,50.5426025390625,100.39306640625
1758878093.0324416,-0.76806640625,0.04150390625,0.6328125,0.42724609375,6.40869140625,2.5634765625,3.8836669921875,50.5975341796875,100.4425048828125
1758878093.0429335,-0.76611328125,0.04931640625,0.63818359375,0.79345703125,6.7138671875,2.62451171875,3.9276123046875,50.657958984375,100.4864501953125
1758878093.0523398,-0.76611328125,0.04931640625,0.63818359375,0.79345703125,6.7138671875,2.62451171875,3.9715576171875,50.7183837890625,100.535888671875
1758878093.062764,-0.76318359375,0.04443359375,0.650390625,1.708984375,6.89697265625,2.685546875,4.0264892578125,50.77880859375,100.5853271484375
1758878093.072447,-0.76123046875,0.041015625,0.654296875,2.44140625,6.77490234375,2.685546875,4.0869140625,50.833740234375,100.6292724609375
1758878093.0824485,-0.76123046875,0.041015625,0.654296875,2.44140625,6.77490234375,2.685546875,4.1473388671875,50.8941650390625,100.6787109375
1758878093.0927894,-0.75927734375,0.048828125,0.64697265625,2.74658203125,6.591796875,2.5634765625,4.207763671875,50.9490966796875,100.7281494140625
1758878093.103122,-0.75927734375,0.048828125,0.64697265625,2.74658203125,6.591796875,2.5634765625,4.2681884765625,51.009521484375,100.777587890625
1758878093.1124382,-0.755859375,0.06005859375,0.64453125,3.47900390625,6.34765625,2.38037109375,4.3341064453125,51.0589599609375,100.821533203125
1758878093.122577,-0.755859375,0.06005859375,0.64453125,3.47900390625,6.34765625,2.38037109375,4.4000244140625,51.1138916015625,100.865478515625
1758878093.1326995,-0.75634765625,0.064453125,0.650390625,0.9765625,6.34765625,2.5634765625,4.46044921875,51.163330078125,100.9149169921875
1758878093.1426022,-0.75634765625,0.064453125,0.650390625,0.9765625,6.34765625,2.5634765625,4.50439453125,51.21826171875,100.9588623046875
1758878093.1524982,-0.740234375,0.05712890625,0.65185546875,-5.2490234375,6.77490234375,2.9296875,4.5263671875,51.2677001953125,101.00830078125
1758878093.1625702,-0.740234375,0.05712890625,0.65185546875,-5.2490234375,6.77490234375,2.9296875,4.515380859375,51.3226318359375,101.063232421875
1758878093.172758,-0.7607421875,0.0625,0.6787109375,-12.02392578125,6.7138671875,3.96728515625,4.4769287109375,51.3720703125,101.1236572265625
1758878093.182638,-0.7607421875,0.0625,0.6787109375,-12.02392578125,6.7138671875,3.96728515625,4.41650390625,51.427001953125,101.195068359375
1758878093.192604,-0.74853515625,0.06689453125,0.681640625,-16.54052734375,6.7138671875,4.94384765625,4.339599609375,51.4764404296875,101.27197265625
1758878093.203181,-0.74853515625,0.06689453125,0.681640625,-16.54052734375,6.7138671875,4.94384765625,4.24072265625,51.5203857421875,101.3543701171875
1758878093.2125425,-0.74658203125,0.04638671875,0.66943359375,-18.98193359375,6.4697265625,5.615234375,4.141845703125,51.5643310546875,101.4422607421875
1758878093.2227237,-0.74658203125,0.04638671875,0.66943359375,-18.98193359375,6.4697265625,5.615234375,4.031982421875,51.6082763671875,101.53564453125
1758878093.2331042,-0.7451171875,0.03173828125,0.67626953125,-21.05712890625,6.28662109375,5.9814453125,3.9166259765625,51.6522216796875,101.6290283203125
1758878093.2426872,-0.7451171875,0.03173828125,0.67626953125,-21.05712890625,6.28662109375,5.9814453125,3.790283203125,51.690673828125,101.7279052734375
1758878093.2526054,-0.740234375,0.037109375,0.68896484375,-20.56884765625,5.859375,5.9814453125,3.6639404296875,51.7291259765625,101.8267822265625
1758878093.2630315,-0.740234375,0.037109375,0.68896484375,-20.56884765625,5.859375,5.9814453125,3.5430908203125,51.7620849609375,101.9256591796875
1758878093.2729511,-0.74560546875,0.0400390625,0.66943359375,-13.12255859375,5.37109375,5.55419921875,3.4552001953125,51.7950439453125,102.01904296875
1758878093.2827759,-0.74560546875,0.0400390625,0.66943359375,-13.12255859375,5.37109375,5.55419921875,3.4002685546875,51.822509765625,102.10693359375
1758878093.2927828,-0.7470703125,0.02099609375,0.67333984375,-1.8310546875,4.2724609375,4.5166015625,3.394775390625,51.844482421875,102.1893310546875
1758878093.303449,-0.7470703125,0.02099609375,0.67333984375,-1.8310546875,4.2724609375,4.5166015625,3.438720703125,51.8609619140625,102.2607421875
1758878093.3128092,-0.74853515625,0.01953125,0.67431640625,5.859375,3.5400390625,3.5400390625,3.515625,51.87744140625,102.32666015625
1758878093.3228633,-0.74853515625,0.01953125,0.67431640625,5.859375,3.5400390625,3.5400390625,3.6199951171875,51.888427734375,102.381591796875
1758878093.3330991,-0.759765625,0.03759765625,0.6396484375,11.8408203125,3.2958984375,2.86865234375,3.746337890625,51.8994140625,102.4310302734375
1758878093.3428946,-0.759765625,0.03759765625,0.6396484375,11.8408203125,3.2958984375,2.86865234375,3.900146484375,51.9049072265625,102.48046875
