timestamp,acc_x,acc_y,acc_z,gyro_x,gyro_y,gyro_z,angle_x,angle_y,angle_z
1758528312.9885926,0.59326171875,0.00537109375,0.8095703125,-0.91552734375,-0.18310546875,-0.06103515625,0.7635498046875,-36.27685546875,-35.4638671875
1758528312.9971976,0.59326171875,0.00537109375,0.8095703125,-0.91552734375,-0.18310546875,-0.06103515625,0.7525634765625,-36.27685546875,-35.4638671875
1758528313.0075843,0.595703125,0.00927734375,0.81005859375,-0.67138671875,-0.18310546875,-0.1220703125,0.7470703125,-36.2823486328125,-35.4693603515625
1758528313.0184202,0.595703125,0.00927734375,0.81005859375,-0.67138671875,-0.18310546875,-0.1220703125,0.7415771484375,-36.2823486328125,-35.4693603515625
1758528313.0298524,0.5947265625,0.01123046875,0.8115234375,-0.79345703125,-0.18310546875,-0.1220703125,0.736083984375,-36.2823486328125,-35.474853515625
1758528313.0391288,0.5947265625,0.01123046875,0.8115234375,-0.79345703125,-0.18310546875,-0.1220703125,0.7305908203125,-36.287841796875,-35.474853515625
1758528313.0468,0.5947265625,0.01123046875,0.8115234375,-1.03759765625,-0.06103515625,-0.06103515625,0.7196044921875,-36.287841796875,-35.474853515625
1758528313.0561607,0.59326171875,0.00927734375,0.806640625,-1.03759765625,-0.06103515625,-0.06103515625,0.7086181640625,-36.287841796875,-35.4803466796875
1758528313.0663185,0.591796875,0.009765625,0.806640625,-1.220703125,0.06103515625,-0.18310546875,0.6976318359375,-36.287841796875,-35.48583984375
1758528313.0763872,0.591796875,0.009765625,0.806640625,-1.220703125,0.06103515625,-0.18310546875,0.6866455078125,-36.287841796875,-35.48583984375
1758528313.0863853,0.59375,0.0078125,0.810546875,-1.0986328125,0.30517578125,-0.244140625,0.6756591796875,-36.2823486328125,-35.4913330078125
1758528313.0968149,0.59375,0.0078125,0.810546875,-1.0986328125,0.30517578125,-0.244140625,0.670166015625,-36.2823486328125,-35.496826171875
1758528313.108089,0.5927734375,0.0078125,0.8076171875,-0.79345703125,0.3662109375,-0.244140625,0.6591796875,-36.27685546875,-35.5023193359375
1758528313.1161098,0.5927734375,0.0078125,0.8076171875,-0.79345703125,0.3662109375,-0.244140625,0.6536865234375,-36.2713623046875,-35.5023193359375
1758528313.1262004,0.587890625,0.00830078125,0.80322265625,-0.79345703125,0.54931640625,-0.30517578125,0.648193359375,-36.265869140625,-35.5078125
1758528313.1363318,0.587890625,0.00830078125,0.80322265625,-0.79345703125,0.54931640625,-0.30517578125,0.6427001953125,-36.2603759765625,-35.5133056640625
1758528313.1459746,0.5908203125,0.00634765625,0.8017578125,-0.48828125,0.42724609375,-0.244140625,0.6427001953125,-36.2548828125,-35.518798828125
1758528313.156072,0.5908203125,0.00634765625,0.8017578125,-0.48828125,0.42724609375,-0.244140625,0.63720703125,-36.2548828125,-35.5242919921875
1758528313.1660216,0.591796875,0.00732421875,0.80712890625,-0.30517578125,0.3662109375,-0.18310546875,0.63720703125,-36.2493896484375,-35.5242919921875
1758528313.1760144,0.591796875,0.00732421875,0.80712890625,-0.30517578125,0.3662109375,-0.18310546875,0.6317138671875,-36.243896484375,-35.52978515625
1758528313.1860511,0.5927734375,0.00537109375,0.81005859375,-0.30517578125,0.3662109375,-0.18310546875,0.6317138671875,-36.243896484375,-35.52978515625
1758528313.1960373,0.5927734375,0.00537109375,0.81005859375,-0.30517578125,0.3662109375,-0.18310546875,0.626220703125,-36.2384033203125,-35.5352783203125
1758528313.2060533,0.59130859375,0.0087890625,0.80517578125,-0.06103515625,0.244140625,-0.244140625,0.6317138671875,-36.2384033203125,-35.540771484375
1758528313.216049,0.59130859375,0.0087890625,0.80517578125,-0.06103515625,0.244140625,-0.244140625,0.6317138671875,-36.23291015625,-35.540771484375
1758528313.2261312,0.58935546875,0.01025390625,0.80517578125,-0.3662109375,0.244140625,-0.30517578125,0.626220703125,-36.23291015625,-35.5462646484375
1758528313.2361574,0.58935546875,0.01025390625,0.80517578125,-0.3662109375,0.244140625,-0.30517578125,0.626220703125,-36.2274169921875,-35.5517578125
1758528313.2460933,0.591796875,0.0048828125,0.806640625,-0.3662109375,0.30517578125,-0.3662109375,0.626220703125,-36.2274169921875,-35.5572509765625
1758528313.2560956,0.591796875,0.0048828125,0.806640625,-0.3662109375,0.30517578125,-0.3662109375,0.626220703125,-36.221923828125,-35.562744140625
1758528313.2661145,0.591796875,0.0078125,0.8125,0.06103515625,0.30517578125,-0.30517578125,0.626220703125,-36.221923828125,-35.562744140625
1758528313.276111,0.591796875,0.0078125,0.8125,0.06103515625,0.30517578125,-0.30517578125,0.626220703125,-36.2164306640625,-35.5682373046875
1758528313.2861364,0.5927734375,0.00830078125,0.806640625,-0.1220703125,0.30517578125,-0.30517578125,0.6317138671875,-36.2164306640625,-35.57373046875
1758528313.2961454,0.5927734375,0.00830078125,0.806640625,-0.1220703125,0.30517578125,-0.30517578125,0.6317138671875,-36.2109375,-35.5792236328125
1758528313.306157,0.5927734375,0.00927734375,0.8076171875,0.0,0.30517578125,-0.3662109375,0.6317138671875,-36.2109375,-35.584716796875
1758528313.3161554,0.5927734375,0.00927734375,0.8076171875,0.0,0.30517578125,-0.3662109375,0.6317138671875,-36.2054443359375,-35.5902099609375
1758528313.326686,0.5908203125,0.00830078125,0.810546875,-0.30517578125,0.30517578125,-0.3662109375,0.6317138671875,-36.2054443359375,-35.595703125
1758528313.336207,0.5908203125,0.00830078125,0.810546875,-0.30517578125,0.30517578125,-0.3662109375,0.6317138671875,-36.199951171875,-35.595703125
1758528313.3461888,0.59228515625,0.0068359375,0.8037109375,-0.06103515625,0.18310546875,-0.42724609375,0.63720703125,-36.199951171875,-35.6011962890625
1758528313.3562164,0.59228515625,0.0068359375,0.8037109375,-0.06103515625,0.18310546875,-0.42724609375,0.63720703125,-36.1944580078125,-35.606689453125
1758528313.3662243,0.59326171875,0.0087890625,0.81103515625,-0.244140625,0.18310546875,-0.48828125,0.63720703125,-36.1944580078125,-35.61767578125
1758528313.376233,0.59130859375,0.0078125,0.80712890625,-0.06103515625,0.1220703125,-0.42724609375,0.63720703125,-36.1944580078125,-35.6231689453125
1758528313.3862402,0.59130859375,0.0078125,0.80712890625,-0.06103515625,0.1220703125,-0.42724609375,0.6427001953125,-36.1944580078125,-35.628662109375
1758528313.3962455,0.59228515625,0.00732421875,0.80615234375,-0.1220703125,0.0,-0.48828125,0.6427001953125,-36.1944580078125,-35.6341552734375
1758528313.4062579,0.59228515625,0.00732421875,0.80615234375,-0.1220703125,0.0,-0.48828125,0.6427001953125,-36.1944580078125,-35.6396484375
1758528313.4162676,0.5927734375,0.0078125,0.8095703125,-0.06103515625,-0.1220703125,-0.42724609375,0.648193359375,-36.1944580078125,-35.6451416015625
1758528313.4262836,0.5927734375,0.0078125,0.8095703125,-0.06103515625,-0.1220703125,-0.42724609375,0.648193359375,-36.1944580078125,-35.650634765625
1758528313.436285,0.59228515625,0.0068359375,0.8095703125,0.06103515625,-0.244140625,-0.42724609375,0.6536865234375,-36.1944580078125,-35.6561279296875
1758528313.4462996,0.59228515625,0.0068359375,0.8095703125,0.06103515625,-0.244140625,-0.42724609375,0.6536865234375,-36.199951171875,-35.66162109375
1758528313.4562967,0.59375,0.009765625,0.8076171875,0.0,-0.42724609375,-0.42724609375,0.6591796875,-36.2054443359375,-35.672607421875
1758528313.4663188,0.59375,0.009765625,0.8076171875,0.0,-0.42724609375,-0.42724609375,0.6591796875,-36.2054443359375,-35.6781005859375
1758528313.4763203,0.59130859375,0.00732421875,0.80908203125,-0.244140625,-0.3662109375,-0.42724609375,0.6591796875,-36.2109375,-35.68359375
1758528313.4863596,0.59130859375,0.00732421875,0.80908203125,-0.244140625,-0.3662109375,-0.42724609375,0.6591796875,-36.2164306640625,-35.6890869140625
1758528313.4963953,0.591796875,0.0078125,0.80810546875,-0.18310546875,-0.1220703125,-0.48828125,0.6591796875,-36.2164306640625,-35.694580078125
1758528313.506383,0.591796875,0.0078125,0.80810546875,-0.18310546875,-0.1220703125,-0.48828125,0.6646728515625,-36.221923828125,-35.7000732421875
1758528313.5164013,0.59326171875,0.009765625,0.81201171875,-0.30517578125,0.0,-0.54931640625,0.6646728515625,-36.221923828125,-35.70556640625
1758528313.5265367,0.59326171875,0.009765625,0.81201171875,-0.30517578125,0.0,-0.54931640625,0.6646728515625,-36.221923828125,-35.7110595703125
1758528313.537798,0.59130859375,0.00634765625,0.80859375,-0.30517578125,0.06103515625,-0.54931640625,0.6646728515625,-36.221923828125,-35.716552734375
1758528313.5464544,0.59130859375,0.00634765625,0.80859375,-0.30517578125,0.06103515625,-0.54931640625,0.6646728515625,-36.2164306640625,-35.7275390625
1758528313.5565603,0.5888671875,0.0078125,0.80224609375,-0.18310546875,0.06103515625,-0.48828125,0.6646728515625,-36.2164306640625,-35.7330322265625
1758528313.5664394,0.5888671875,0.0078125,0.80224609375,-0.18310546875,0.06103515625,-0.48828125,0.6646728515625,-36.2164306640625,-35.738525390625
1758528313.5764537,0.58642578125,0.0078125,0.802734375,0.0,0.1220703125,-0.42724609375,0.670166015625,-36.2164306640625,-35.7440185546875
1758528313.5873573,0.58642578125,0.0078125,0.802734375,0.0,0.1220703125,-0.42724609375,0.670166015625,-36.2164306640625,-35.74951171875
1758528313.5966988,0.59228515625,0.00927734375,0.8037109375,0.0,0.06103515625,-0.42724609375,0.6756591796875,-36.2164306640625,-35.7550048828125
1758528313.6066294,0.59228515625,0.00927734375,0.8037109375,0.0,0.06103515625,-0.42724609375,0.6756591796875,-36.2109375,-35.760498046875
1758528313.6167045,0.595703125,0.00732421875,0.81396484375,-0.3662109375,0.0,-0.42724609375,0.6756591796875,-36.2109375,-35.7659912109375
1758528313.6268065,0.595703125,0.00732421875,0.81396484375,-0.3662109375,0.0,-0.42724609375,0.6756591796875,-36.2109375,-35.7769775390625
1758528313.6369982,0.59375,0.00439453125,0.81396484375,-0.30517578125,-0.06103515625,-0.30517578125,0.6756591796875,-36.2109375,-35.7769775390625
1758528313.6468773,0.59375,0.00439453125,0.81396484375,-0.30517578125,-0.06103515625,-0.30517578125,0.670166015625,-36.2164306640625,-35.782470703125
1758528313.656663,0.59228515625,0.0078125,0.80419921875,-0.06103515625,0.0,-0.18310546875,0.670166015625,-36.2164306640625,-35.7879638671875
1758528313.6666703,0.59228515625,0.0078125,0.80419921875,-0.06103515625,0.0,-0.18310546875,0.670166015625,-36.2164306640625,-35.7879638671875
1758528313.6765962,0.59130859375,0.00732421875,0.80908203125,-0.06103515625,0.0,-0.18310546875,0.670166015625,-36.2164306640625,-35.79345703125
1758528313.6865776,0.59130859375,0.00732421875,0.80908203125,-0.06103515625,0.0,-0.18310546875,0.670166015625,-36.2164306640625,-35.79345703125
1758528313.6970484,0.59521484375,0.0087890625,0.81103515625,-0.244140625,0.0,-0.18310546875,0.670166015625,-36.2164306640625,-35.7989501953125
1758528313.7066305,0.59521484375,0.0087890625,0.81103515625,-0.244140625,0.0,-0.18310546875,0.670166015625,-36.2164306640625,-35.7989501953125
1758528313.7167091,0.59423828125,0.00927734375,0.8095703125,-0.30517578125,0.06103515625,-0.06103515625,0.6646728515625,-36.2164306640625,-35.7989501953125
1758528313.7269213,0.59423828125,0.00927734375,0.8095703125,-0.30517578125,0.06103515625,-0.06103515625,0.6646728515625,-36.2164306640625,-35.804443359375
1758528313.73666,0.5908203125,0.0068359375,0.80908203125,-0.48828125,0.1220703125,0.0,0.6591796875,-36.2109375,-35.804443359375
1758528313.7466059,0.5908203125,0.0068359375,0.80908203125,-0.48828125,0.1220703125,0.0,0.6536865234375,-36.2109375,-35.804443359375
1758528313.7566845,0.58837890625,0.0078125,0.80712890625,-0.30517578125,0.18310546875,0.0,0.648193359375,-36.2109375,-35.804443359375
1758528313.7671604,0.58837890625,0.0078125,0.80712890625,-0.30517578125,0.18310546875,0.0,0.6427001953125,-36.2109375,-35.7989501953125
1758528313.7767572,0.58935546875,0.00830078125,0.8037109375,-0.1220703125,0.244140625,-0.06103515625,0.6427001953125,-36.2054443359375,-35.7989501953125
1758528313.7867503,0.58935546875,0.00830078125,0.8037109375,-0.1220703125,0.244140625,-0.06103515625,0.6427001953125,-36.2054443359375,-35.7989501953125
1758528313.797044,0.59423828125,0.0078125,0.806640625,-0.244140625,0.18310546875,0.0,0.63720703125,-36.199951171875,-35.7989501953125
1758528313.8067172,0.59423828125,0.0078125,0.806640625,-0.244140625,0.18310546875,0.0,0.63720703125,-36.199951171875,-35.7989501953125
1758528313.8170164,0.5986328125,0.00634765625,0.8193359375,-0.18310546875,0.06103515625,0.06103515625,0.6317138671875,-36.199951171875,-35.7989501953125
1758528313.8269522,0.5986328125,0.00634765625,0.8193359375,-0.18310546875,0.06103515625,0.06103515625,0.6317138671875,-36.199951171875,-35.7989501953125
1758528313.8376472,0.6015625,0.01123046875,0.81640625,-0.30517578125,-0.18310546875,0.0,0.626220703125,-36.199951171875,-35.7989501953125
1758528313.8473973,0.6015625,0.01123046875,0.81640625,-0.30517578125,-0.18310546875,0.0,0.6207275390625,-36.199951171875,-35.7989501953125
1758528313.8570757,0.5986328125,0.0107421875,0.81689453125,-0.79345703125,-0.48828125,-0.06103515625,0.615234375,-36.2054443359375,-35.7989501953125
1758528313.867059,0.5986328125,0.0107421875,0.81689453125,-0.79345703125,-0.48828125,-0.06103515625,0.6097412109375,-36.2109375,-35.7989501953125
1758528313.8778312,0.60888671875,0.00390625,0.80712890625,-0.79345703125,-0.79345703125,-0.1220703125,0.604248046875,-36.2164306640625,-35.804443359375
1758528313.887122,0.60888671875,0.00390625,0.80712890625,-0.79345703125,-0.79345703125,-0.1220703125,0.59326171875,-36.2274169921875,-35.804443359375
1758528313.897135,0.6162109375,0.0078125,0.84130859375,-0.3662109375,-1.220703125,0.0,0.5877685546875,-36.2384033203125,-35.804443359375
1758528313.9077907,0.6162109375,0.0078125,0.84130859375,-0.3662109375,-1.220703125,0.0,0.5877685546875,-36.2493896484375,-35.804443359375
1758528313.9170063,0.6240234375,0.00390625,0.83837890625,-0.244140625,-1.708984375,0.244140625,0.582275390625,-36.265869140625,-35.804443359375
1758528313.9268703,0.6240234375,0.00390625,0.83837890625,-0.244140625,-1.708984375,0.244140625,0.5767822265625,-36.2823486328125,-35.804443359375
1758528313.9369087,0.646484375,0.00341796875,0.84130859375,0.244140625,-3.23486328125,0.6103515625,0.5712890625,-36.309814453125,-35.7989501953125
1758528313.947419,0.646484375,0.00341796875,0.84130859375,0.244140625,-3.23486328125,0.6103515625,0.5712890625,-36.3427734375,-35.7879638671875
1758528313.9572616,0.66748046875,0.0107421875,0.87890625,1.3427734375,-5.43212890625,1.3427734375,0.5712890625,-36.38671875,-35.7769775390625
1758528313.9670095,0.66748046875,0.0107421875,0.87890625,1.3427734375,-5.43212890625,1.3427734375,0.5767822265625,-36.441650390625,-35.760498046875
1758528313.9776354,0.65771484375,-0.0068359375,0.91015625,1.52587890625,-7.2021484375,1.64794921875,0.5767822265625,-36.507568359375,-35.7440185546875
1758528313.9869812,0.65771484375,-0.0068359375,0.91015625,1.52587890625,-7.2021484375,1.64794921875,0.582275390625,-36.5789794921875,-35.7220458984375
1758528313.9970407,0.65771484375,-0.0068359375,0.91015625,1.28173828125,-8.97216796875,1.89208984375,0.582275390625,-36.661376953125,-35.7000732421875
1758528314.007135,0.6474609375,-0.00048828125,0.84423828125,1.28173828125,-8.97216796875,1.89208984375,0.5767822265625,-36.749267578125,-35.6781005859375
1758528314.0171309,0.64697265625,0.00341796875,0.845703125,1.28173828125,-11.04736328125,2.13623046875,0.5767822265625,-36.8536376953125,-35.6561279296875
1758528314.0272825,0.64697265625,0.00341796875,0.845703125,1.28173828125,-11.04736328125,2.13623046875,0.5712890625,-36.9635009765625,-35.6341552734375
1758528314.037163,0.654296875,0.01025390625,0.86279296875,-2.9296875,-12.39013671875,2.44140625,0.5438232421875,-37.078857421875,-35.606689453125
1758528314.0470023,0.654296875,0.01025390625,0.86279296875,-2.9296875,-12.39013671875,2.44140625,0.494384765625,-37.19970703125,-35.5792236328125
1758528314.05735,0.61279296875,0.0234375,0.82373046875,-7.9345703125,-13.0615234375,2.38037109375,0.4229736328125,-37.3260498046875,-35.5517578125
1758528314.0673137,0.61279296875,0.0234375,0.82373046875,-7.9345703125,-13.0615234375,2.38037109375,0.32958984375,-37.452392578125,-35.5242919921875
1758528314.077205,0.58837890625,0.0185546875,0.7548828125,-10.1318359375,-12.63427734375,2.74658203125,0.2197265625,-37.5787353515625,-35.496826171875
1758528314.0871387,0.58837890625,0.0185546875,0.7548828125,-10.1318359375,-12.63427734375,2.74658203125,0.098876953125,-37.6995849609375,-35.4638671875
1758528314.097393,0.61181640625,0.00390625,0.79296875,-13.73291015625,-12.3291015625,2.44140625,-0.0274658203125,-37.8204345703125,-35.430908203125
1758528314.1071146,0.61181640625,0.00390625,0.79296875,-13.73291015625,-12.3291015625,2.44140625,-0.1812744140625,-37.935791015625,-35.4034423828125
1758528314.117156,0.6171875,-0.00146484375,0.77392578125,-13.73291015625,-11.65771484375,2.13623046875,-0.32958984375,-38.0511474609375,-35.3759765625
1758528314.1276286,0.6171875,-0.00146484375,0.77392578125,-13.73291015625,-11.65771484375,2.13623046875,-0.4779052734375,-38.16650390625,-35.3485107421875
1758528314.1382477,0.623046875,-0.01025390625,0.7958984375,-11.23046875,-11.29150390625,1.708984375,-0.615234375,-38.2763671875,-35.3265380859375
1758528314.147156,0.623046875,-0.01025390625,0.7958984375,-11.23046875,-11.29150390625,1.708984375,-0.736083984375,-38.3807373046875,-35.3045654296875
1758528314.157166,0.63818359375,-0.0166015625,0.8076171875,-8.85009765625,-10.92529296875,1.8310546875,-0.845947265625,-38.485107421875,-35.2825927734375
1758528314.1673355,0.63818359375,-0.0166015625,0.8076171875,-8.85009765625,-10.92529296875,1.8310546875,-0.94482421875,-38.5894775390625,-35.2606201171875
1758528314.1774967,0.67431640625,-0.02099609375,0.82958984375,-7.080078125,-11.1083984375,2.01416015625,-1.03271484375,-38.69384765625,-35.233154296875
1758528314.1871684,0.67431640625,-0.02099609375,0.82958984375,-7.080078125,-11.1083984375,2.01416015625,-1.1151123046875,-38.7982177734375,-35.211181640625
1758528314.1973107,0.671875,-0.033203125,0.82275390625,-6.40869140625,-11.8408203125,1.77001953125,-1.197509765625,-38.9080810546875,-35.1837158203125
1758528314.207559,0.671875,-0.033203125,0.82275390625,-6.40869140625,-11.8408203125,1.77001953125,-1.2689208984375,-39.0234375,-35.1617431640625
1758528314.2172623,0.72021484375,-0.03515625,0.83544921875,-3.23486328125,-13.18359375,1.3427734375,-1.329345703125,-39.1387939453125,-35.1397705078125
1758528314.2272792,0.72021484375,-0.03515625,0.83544921875,-3.23486328125,-13.18359375,1.3427734375,-1.373291015625,-39.2706298828125,-35.1177978515625
1758528314.2379308,0.7607421875,-0.03662109375,0.89892578125,2.86865234375,-15.380859375,1.220703125,-1.38427734375,-39.407958984375,-35.0958251953125
1758528314.2473066,0.7607421875,-0.03662109375,0.89892578125,2.86865234375,-15.380859375,1.220703125,-1.3677978515625,-39.5562744140625,-35.0738525390625
1758528314.2573254,0.79052734375,-0.044921875,0.8837890625,8.85009765625,-18.798828125,0.9765625,-1.3238525390625,-39.7265625,-35.0518798828125
1758528314.2673721,0.79052734375,-0.044921875,0.8837890625,8.85009765625,-18.798828125,0.9765625,-1.2469482421875,-39.9078369140625,-35.035400390625
1758528314.277402,0.765625,-0.05712890625,0.9423828125,13.48876953125,-23.01025390625,0.9765625,-1.1480712890625,-40.1165771484375,-35.013427734375
1758528314.287317,0.765625,-0.05712890625,0.9423828125,13.48876953125,-23.01025390625,0.9765625,-1.03271484375,-40.341796875,-34.9969482421875
1758528314.2977636,0.73779296875,-0.01904296875,0.80224609375,16.4794921875,-25.87890625,0.42724609375,-0.8953857421875,-40.5780029296875,-34.98046875
1758528314.3073134,0.73779296875,-0.01904296875,0.80224609375,16.4794921875,-25.87890625,0.42724609375,-0.7470703125,-40.8306884765625,-34.969482421875
1758528314.3173718,0.6904296875,-0.0078125,0.77783203125,14.70947265625,-28.076171875,-0.06103515625,-0.604248046875,-41.0943603515625,-34.95849609375
1758528314.3273423,0.6904296875,-0.0078125,0.77783203125,14.70947265625,-28.076171875,-0.06103515625,-0.4669189453125,-41.3690185546875,-34.95849609375
1758528314.3376675,0.640625,0.04052734375,0.76123046875,13.24462890625,-29.296875,-0.06103515625,-0.3350830078125,-41.649169921875,-34.9530029296875
1758528314.3475637,0.640625,0.04052734375,0.76123046875,13.24462890625,-29.296875,-0.06103515625,-0.208740234375,-41.9293212890625,-34.9530029296875
1758528314.3573606,0.59228515625,0.01953125,0.63671875,4.57763671875,-28.4423828125,0.0,-0.120849609375,-42.20947265625,-34.9530029296875
1758528314.3673604,0.59228515625,0.01953125,0.63671875,4.57763671875,-28.4423828125,0.0,-0.076904296875,-42.484130859375,-34.9530029296875
1758528314.3775072,0.70068359375,0.03466796875,0.73193359375,-3.84521484375,-27.77099609375,-0.1220703125,-0.076904296875,-42.7532958984375,-34.95849609375
1758528314.387466,0.70068359375,0.03466796875,0.73193359375,-3.84521484375,-27.77099609375,-0.1220703125,-0.1153564453125,-43.0169677734375,-34.9639892578125
1758528314.3977349,0.71533203125,-0.037109375,0.7353515625,-11.962890625,-28.13720703125,0.54931640625,-0.24169921875,-43.2861328125,-34.95849609375
1758528314.407534,0.71533203125,-0.037109375,0.7353515625,-11.962890625,-28.13720703125,0.54931640625,-0.3680419921875,-43.560791015625,-34.947509765625
1758528314.417447,0.70751953125,0.0166015625,0.72705078125,-6.591796875,-28.38134765625,0.8544921875,-0.4449462890625,-43.8299560546875,-34.9365234375
1758528314.4279413,0.70751953125,0.0166015625,0.72705078125,-6.591796875,-28.38134765625,0.8544921875,-0.516357421875,-44.1046142578125,-34.9200439453125
1758528314.4381657,0.66455078125,-0.015625,0.72265625,-2.5634765625,-28.076171875,0.732421875,-0.54931640625,-44.3682861328125,-34.9090576171875
1758528314.447452,0.66455078125,-0.015625,0.72265625,-2.5634765625,-28.076171875,0.732421875,-0.5877685546875,-44.637451171875,-34.8980712890625
1758528314.4575124,0.70556640625,-0.00341796875,0.66064453125,-5.7373046875,-27.03857421875,0.54931640625,-0.648193359375,-44.8956298828125,-34.892578125
1758528314.4677997,0.70556640625,-0.00341796875,0.66064453125,-5.7373046875,-27.03857421875,0.54931640625,-0.714111328125,-45.15380859375,-34.881591796875
1758528314.4775743,0.6884765625,0.0068359375,0.6865234375,-3.23486328125,-26.0009765625,0.42724609375,-0.7525634765625,-45.4010009765625,-34.8760986328125
1758528314.4875443,0.6884765625,0.0068359375,0.6865234375,-3.23486328125,-26.0009765625,0.42724609375,-0.7855224609375,-45.6427001953125,-34.8651123046875
1758528314.49816,0.71142578125,-0.07763671875,0.66259765625,2.38037109375,-24.5361328125,0.54931640625,-0.7745361328125,-45.87890625,-34.8541259765625
1758528314.5075612,0.71142578125,-0.07763671875,0.66259765625,2.38037109375,-24.5361328125,0.54931640625,-0.758056640625,-46.109619140625,-34.8431396484375
1758528314.5176008,0.7060546875,-0.02734375,0.66650390625,8.36181640625,-23.4375,0.244140625,-0.6866455078125,-46.3348388671875,-34.837646484375
1758528314.5276763,0.7060546875,-0.02734375,0.66650390625,8.36181640625,-23.4375,0.244140625,-0.615234375,-46.5545654296875,-34.8321533203125
1758528314.5377297,0.697265625,0.0185546875,0.6513671875,8.60595703125,-22.4609375,0.91552734375,-0.5438232421875,-46.768798828125,-34.815673828125
1758528314.5476193,0.697265625,0.0185546875,0.6513671875,8.60595703125,-22.4609375,0.91552734375,-0.472412109375,-46.9775390625,-34.7991943359375
1758528314.5577967,0.67138671875,0.00048828125,0.65185546875,4.45556640625,-20.69091796875,0.48828125,-0.439453125,-47.17529296875,-34.793701171875
1758528314.567727,0.67138671875,0.00048828125,0.65185546875,4.45556640625,-20.69091796875,0.48828125,-0.4010009765625,-47.3675537109375,-34.78271484375
1758528314.577678,0.6728515625,-0.0439453125,0.62939453125,11.474609375,-18.61572265625,-0.30517578125,-0.2911376953125,-47.537841796875,-34.7882080078125
1758528314.58765,0.6728515625,-0.0439453125,0.62939453125,11.474609375,-18.61572265625,-0.30517578125,-0.1812744140625,-47.713623046875,-34.793701171875
1758528314.5978327,0.6650390625,-0.0107421875,0.60107421875,12.63427734375,-16.6015625,-0.48828125,-0.054931640625,-47.867431640625,-34.7991943359375
1758528314.6076212,0.6650390625,-0.0107421875,0.60107421875,12.63427734375,-16.6015625,-0.48828125,0.0604248046875,-48.0157470703125,-34.8101806640625
1758528314.6176875,0.66015625,0.03076171875,0.59228515625,5.67626953125,-14.16015625,0.244140625,0.10986328125,-48.1475830078125,-34.8046875
1758528314.6278327,0.66015625,0.03076171875,0.59228515625,5.67626953125,-14.16015625,0.244140625,0.1593017578125,-48.27392578125,-34.8046875
1758528314.6376593,0.65625,0.01513671875,0.6064453125,3.96728515625,-11.29150390625,0.91552734375,0.186767578125,-48.3782958984375,-34.793701171875
1758528314.6476986,0.65625,0.01513671875,0.6064453125,3.96728515625,-11.29150390625,0.91552734375,0.2142333984375,-48.4771728515625,-34.78271484375
1758528314.6579013,0.6943359375,0.00048828125,0.60107421875,1.3427734375,-8.544921875,1.0986328125,0.2142333984375,-48.5540771484375,-34.7662353515625
1758528314.6677258,0.6943359375,0.00048828125,0.60107421875,1.3427734375,-8.544921875,1.0986328125,0.208740234375,-48.62548828125,-34.749755859375
1758528314.677775,0.72802734375,0.015625,0.650390625,-3.23486328125,-6.65283203125,1.0986328125,0.164794921875,-48.6859130859375,-34.73876953125
1758528314.6881258,0.72802734375,0.015625,0.650390625,-3.23486328125,-6.65283203125,1.0986328125,0.120849609375,-48.7408447265625,-34.7222900390625
1758528314.6978128,0.7568359375,0.033203125,0.63623046875,-7.568359375,-5.55419921875,1.40380859375,0.0274658203125,-48.790283203125,-34.7003173828125
1758528314.7080927,0.7568359375,0.033203125,0.63623046875,-7.568359375,-5.55419921875,1.40380859375,-0.054931640625,-48.834228515625,-34.6728515625
1758528314.717864,0.7841796875,-0.01025390625,0.6796875,-9.033203125,-5.18798828125,1.3427734375,-0.15380859375,-48.8836669921875,-34.65087890625
1758528314.7283194,0.7841796875,-0.01025390625,0.6796875,-9.033203125,-5.18798828125,1.3427734375,-0.2581787109375,-48.9276123046875,-34.62890625
1758528314.7381988,0.7939453125,-0.005859375,0.673828125,-9.58251953125,-4.638671875,1.220703125,-0.362548828125,-48.9715576171875,-34.60693359375
1758528314.7477462,0.7939453125,-0.005859375,0.673828125,-9.58251953125,-4.638671875,1.220703125,-0.4669189453125,-49.010009765625,-34.5849609375
1758528314.7581413,0.79541015625,-0.0146484375,0.666015625,-5.55419921875,-4.8828125,0.6103515625,-0.52734375,-49.053955078125,-34.5684814453125
1758528314.7683482,0.79541015625,-0.0146484375,0.666015625,-5.55419921875,-4.8828125,0.6103515625,-0.5877685546875,-49.1033935546875,-34.552001953125
1758528314.778076,0.79052734375,-0.00634765625,0.68359375,-6.89697265625,-5.06591796875,0.79345703125,-0.6646728515625,-49.1473388671875,-34.5355224609375
1758528314.7878606,0.79052734375,-0.00634765625,0.68359375,-6.89697265625,-5.06591796875,0.79345703125,-0.7415771484375,-49.19677734375,-34.51904296875
1758528314.7980802,0.75634765625,-0.00439453125,0.63134765625,-7.4462890625,-5.43212890625,1.03759765625,-0.823974609375,-49.251708984375,-34.4915771484375
1758528314.8078704,0.75634765625,-0.00439453125,0.63134765625,-7.4462890625,-5.43212890625,1.03759765625,-0.9063720703125,-49.3011474609375,-34.4696044921875
1758528314.817874,0.7109375,-0.052734375,0.57275390625,-3.90625,-5.4931640625,0.9765625,-0.955810546875,-49.3560791015625,-34.4476318359375
1758528314.8283021,0.7109375,-0.052734375,0.57275390625,-3.90625,-5.4931640625,0.9765625,-1.0052490234375,-49.4110107421875,-34.420166015625
1758528314.837917,0.69873046875,-0.0322265625,0.57470703125,0.06103515625,-4.08935546875,0.3662109375,-1.0107421875,-49.449462890625,-34.4036865234375
1758528314.8479233,0.69873046875,-0.0322265625,0.57470703125,0.06103515625,-4.08935546875,0.3662109375,-1.021728515625,-49.493408203125,-34.38720703125
1758528314.8581626,0.74755859375,-0.00244140625,0.6650390625,4.08935546875,-3.72314453125,0.6103515625,-0.98876953125,-49.5263671875,-34.365234375
1758528314.8679047,0.74755859375,-0.00244140625,0.6650390625,4.08935546875,-3.72314453125,0.6103515625,-0.955810546875,-49.5648193359375,-34.34326171875
1758528314.8779464,0.796875,0.0126953125,0.60107421875,-1.64794921875,-4.08935546875,1.28173828125,-0.98876953125,-49.603271484375,-34.3157958984375
1758528314.8882332,0.796875,0.0126953125,0.60107421875,-1.64794921875,-4.08935546875,1.28173828125,-1.021728515625,-49.647216796875,-34.2828369140625
1758528314.8979585,0.7744140625,-0.03955078125,0.6923828125,-0.42724609375,-4.39453125,1.0986328125,-1.0382080078125,-49.691162109375,-34.2498779296875
1758528314.9079883,0.7744140625,-0.03955078125,0.6923828125,-0.42724609375,-4.39453125,1.0986328125,-1.0546875,-49.735107421875,-34.222412109375
1758528314.9180965,0.78759765625,-0.02978515625,0.63232421875,4.45556640625,-4.39453125,0.30517578125,-1.021728515625,-49.779052734375,-34.2059326171875
1758528314.9284198,0.78759765625,-0.02978515625,0.63232421875,4.45556640625,-4.39453125,0.30517578125,-0.9832763671875,-49.822998046875,-34.189453125
1758528314.9380414,0.79248046875,0.013671875,0.65771484375,3.5400390625,-4.33349609375,0.1220703125,-0.9503173828125,-49.866943359375,-34.178466796875
1758528314.9480672,0.79248046875,0.013671875,0.65771484375,3.5400390625,-4.33349609375,0.1220703125,-0.9173583984375,-49.910888671875,-34.1619873046875
1758528314.9582198,0.8369140625,0.04541015625,0.6494140625,-5.37109375,-5.06591796875,1.3427734375,-0.98876953125,-49.9658203125,-34.134521484375
1758528314.968078,0.8369140625,0.04541015625,0.6494140625,-5.37109375,-5.06591796875,1.3427734375,-1.0546875,-50.020751953125,-34.1015625
1758528314.9780807,0.8369140625,-0.02978515625,0.72705078125,-7.99560546875,-5.55419921875,1.64794921875,-1.1480712890625,-50.07568359375,-34.0631103515625
1758528314.9883325,0.8369140625,-0.02978515625,0.72705078125,-7.99560546875,-5.55419921875,1.64794921875,-1.2469482421875,-50.130615234375,-34.0301513671875
1758528314.9980698,0.8369140625,-0.02978515625,0.72705078125,0.54931640625,-5.859375,1.03759765625,-1.25244140625,-50.1910400390625,-34.002685546875
1758528315.0080342,0.830078125,-0.07666015625,0.65087890625,0.54931640625,-5.859375,1.03759765625,-1.263427734375,-50.25146484375,-33.9752197265625
1758528315.0180418,0.86865234375,-0.02197265625,0.70654296875,7.14111328125,-6.65283203125,-0.30517578125,-1.1920166015625,-50.3173828125,-33.9642333984375
1758528315.0284111,0.86865234375,-0.02197265625,0.70654296875,7.14111328125,-6.65283203125,-0.30517578125,-1.12060546875,-50.38330078125,-33.958740234375
1758528315.0384583,0.826171875,0.0107421875,0.63671875,6.16455078125,-7.75146484375,0.18310546875,-1.065673828125,-50.4656982421875,-33.9422607421875
1758528315.0481093,0.826171875,0.0107421875,0.63671875,6.16455078125,-7.75146484375,0.18310546875,-1.0107421875,-50.5426025390625,-33.92578125
1758528315.0582364,0.80224609375,-0.0283203125,0.63916015625,3.662109375,-9.33837890625,0.42724609375,-0.9832763671875,-50.635986328125,-33.90380859375
1758528315.0683005,0.80224609375,-0.0283203125,0.63916015625,3.662109375,-9.33837890625,0.42724609375,-0.955810546875,-50.73486328125,-33.8818359375
1758528315.078133,0.76806640625,-0.05224609375,0.61279296875,7.50732421875,-10.25390625,0.0,-0.889892578125,-50.8392333984375,-33.8653564453125
1758528315.0881686,0.76806640625,-0.05224609375,0.61279296875,7.50732421875,-10.25390625,0.0,-0.823974609375,-50.943603515625,-33.848876953125
1758528315.098256,0.71875,-0.0205078125,0.5478515625,10.55908203125,-10.498046875,0.0,-0.72509765625,-51.0479736328125,-33.837890625
1758528315.108284,0.71875,-0.0205078125,0.5478515625,10.55908203125,-10.498046875,0.0,-0.6317138671875,-51.15234375,-33.8214111328125
1758528315.118281,0.73291015625,0.0341796875,0.59521484375,8.9111328125,-10.7421875,0.1220703125,-0.54931640625,-51.26220703125,-33.804931640625
1758528315.1285539,0.73291015625,0.0341796875,0.59521484375,8.9111328125,-10.7421875,0.1220703125,-0.4669189453125,-51.3665771484375,-33.7939453125
1758528315.138351,0.7412109375,0.0244140625,0.56640625,0.1220703125,-9.8876953125,1.8310546875,-0.494384765625,-51.4654541015625,-33.75
1758528315.1482878,0.7412109375,0.0244140625,0.56640625,0.1220703125,-9.8876953125,1.8310546875,-0.516357421875,-51.5643310546875,-33.7115478515625
1758528315.158314,0.7490234375,-0.02978515625,0.587890625,0.18310546875,-9.1552734375,2.62451171875,-0.54931640625,-51.65771484375,-33.6566162109375
1758528315.1684775,0.7490234375,-0.02978515625,0.587890625,0.18310546875,-9.1552734375,2.62451171875,-0.582275390625,-51.74560546875,-33.6016845703125
1758528315.1782858,0.748046875,-0.01708984375,0.5810546875,2.38037109375,-7.75146484375,2.8076171875,-0.5987548828125,-51.822509765625,-33.5467529296875
1758528315.1883175,0.748046875,-0.01708984375,0.5810546875,2.38037109375,-7.75146484375,2.8076171875,-0.615234375,-51.8994140625,-33.4918212890625
1758528315.1983922,0.748046875,0.0244140625,0.58251953125,1.46484375,-7.01904296875,2.44140625,-0.6317138671875,-51.96533203125,-33.4423828125
1758528315.2082806,0.748046875,0.0244140625,0.58251953125,1.46484375,-7.01904296875,2.44140625,-0.6536865234375,-52.0367431640625,-33.3984375
1758528315.2185102,0.80078125,0.0283203125,0.5703125,-4.45556640625,-5.859375,2.74658203125,-0.7305908203125,-52.0916748046875,-33.343505859375
1758528315.2287223,0.80078125,0.0283203125,0.5703125,-4.45556640625,-5.859375,2.74658203125,-0.802001953125,-52.152099609375,-33.28857421875
1758528315.2383497,0.8564453125,-0.0390625,0.6826171875,-4.21142578125,-5.2490234375,2.44140625,-0.8734130859375,-52.2015380859375,-33.24462890625
1758528315.2483585,0.8564453125,-0.0390625,0.6826171875,-4.21142578125,-5.2490234375,2.44140625,-0.94482421875,-52.2564697265625,-33.1951904296875
1758528315.2585409,0.8505859375,-0.01611328125,0.6513671875,-2.01416015625,-5.0048828125,2.74658203125,-0.999755859375,-52.3004150390625,-33.1402587890625
1758528315.2683487,0.8505859375,-0.01611328125,0.6513671875,-2.01416015625,-5.0048828125,2.74658203125,-1.0546875,-52.349853515625,-33.0908203125
1758528315.278353,0.8505859375,-0.01611328125,0.6513671875,-0.79345703125,-5.43212890625,2.50244140625,-1.0986328125,-52.40478515625,-33.035888671875
1758528315.2887442,0.84521484375,-0.0244140625,0.609375,-0.79345703125,-5.43212890625,2.50244140625,-1.1370849609375,-52.459716796875,-32.9864501953125
1758528315.298393,0.79296875,0.0,0.611328125,0.79345703125,-4.8828125,2.38037109375,-1.1590576171875,-52.5091552734375,-32.93701171875
1758528315.3084447,0.79296875,0.0,0.611328125,0.79345703125,-4.8828125,2.38037109375,-1.1810302734375,-52.55859375,-32.8875732421875
1758528315.3184693,0.7529296875,0.00146484375,0.56689453125,-3.173828125,-4.150390625,2.44140625,-1.2469482421875,-52.5970458984375,-32.8436279296875
1758528315.3286066,0.7529296875,0.00146484375,0.56689453125,-3.173828125,-4.150390625,2.44140625,-1.307373046875,-52.635498046875,-32.794189453125
1758528315.338639,0.7255859375,-0.0263671875,0.5322265625,-5.9814453125,-3.47900390625,2.50244140625,-1.395263671875,-52.6739501953125,-32.7447509765625
1758528315.3483984,0.7255859375,-0.0263671875,0.5322265625,-5.9814453125,-3.47900390625,2.50244140625,-1.4886474609375,-52.7069091796875,-32.6898193359375
1758528315.3584807,0.74462890625,-0.0341796875,0.560546875,-3.72314453125,-2.44140625,3.2958984375,-1.5655517578125,-52.7288818359375,-32.62939453125
1758528315.3685253,0.74462890625,-0.0341796875,0.560546875,-3.72314453125,-2.44140625,3.2958984375,-1.64794921875,-52.75634765625,-32.5634765625
1758528315.3784595,0.77783203125,0.00048828125,0.59814453125,-4.5166015625,-1.46484375,3.90625,-1.7413330078125,-52.767333984375,-32.4920654296875
1758528315.3890204,0.77783203125,0.00048828125,0.59814453125,-4.5166015625,-1.46484375,3.90625,-1.834716796875,-52.7838134765625,-32.420654296875
1758528315.398888,0.76611328125,-0.009765625,0.58447265625,-4.8828125,-0.244140625,4.150390625,-1.93359375,-52.7838134765625,-32.3492431640625
1758528315.408906,0.76611328125,-0.009765625,0.58447265625,-4.8828125,-0.244140625,4.150390625,-2.032470703125,-52.7838134765625,-32.2723388671875
1758528315.4184763,0.759765625,-0.03564453125,0.5517578125,-4.39453125,0.6103515625,3.96728515625,-2.1258544921875,-52.7783203125,-32.200927734375
1758528315.4285283,0.759765625,-0.03564453125,0.5517578125,-4.39453125,0.6103515625,3.96728515625,-2.2137451171875,-52.767333984375,-32.1295166015625
1758528315.438851,0.76171875,-0.0322265625,0.5732421875,-2.3193359375,1.64794921875,3.60107421875,-2.2796630859375,-52.7508544921875,-32.0635986328125
1758528315.448591,0.78955078125,-0.001953125,0.6005859375,-7.75146484375,2.50244140625,3.72314453125,-2.3785400390625,-52.734375,-31.9976806640625
1758528315.4586537,0.78955078125,-0.001953125,0.6005859375,-7.75146484375,2.50244140625,3.72314453125,-2.493896484375,-52.7069091796875,-31.9317626953125
1758528315.4690797,0.77880859375,-0.0126953125,0.6025390625,-11.53564453125,3.47900390625,3.90625,-2.6312255859375,-52.679443359375,-31.8658447265625
1758528315.4786243,0.77880859375,-0.0126953125,0.6025390625,-11.53564453125,3.47900390625,3.90625,-2.79052734375,-52.6409912109375,-31.7999267578125
1758528315.488565,0.76953125,-0.07080078125,0.55859375,-6.89697265625,4.150390625,3.5400390625,-2.92236328125,-52.6025390625,-31.7340087890625
1758528315.498779,0.76953125,-0.07080078125,0.55859375,-6.89697265625,4.150390625,3.5400390625,-3.0267333984375,-52.5640869140625,-31.673583984375
1758528315.5086105,0.78466796875,-0.0537109375,0.58056640625,-2.50244140625,4.638671875,2.86865234375,-3.109130859375,-52.5201416015625,-31.6131591796875
1758528315.5186913,0.78466796875,-0.0537109375,0.58056640625,-2.50244140625,4.638671875,2.86865234375,-3.1695556640625,-52.4761962890625,-31.563720703125
1758528315.5291998,0.802734375,-0.0029296875,0.6279296875,-7.2021484375,4.8828125,2.99072265625,-3.2464599609375,-52.4267578125,-31.5087890625
1758528315.5386982,0.802734375,-0.0029296875,0.6279296875,-7.2021484375,4.8828125,2.99072265625,-3.350830078125,-52.3828125,-31.453857421875
1758528315.5486145,0.81982421875,-0.0244140625,0.59375,-11.3525390625,4.7607421875,3.173828125,-3.4771728515625,-52.3333740234375,-31.39892578125
1758528315.5588377,0.81982421875,-0.0244140625,0.59375,-11.3525390625,4.7607421875,3.173828125,-3.6199951171875,-52.2894287109375,-31.343994140625
1758528315.5686638,0.8115234375,-0.05810546875,0.6259765625,-7.2021484375,4.57763671875,2.685546875,-3.7353515625,-52.2454833984375,-31.2890625
1758528315.5786662,0.8115234375,-0.05810546875,0.6259765625,-7.2021484375,4.57763671875,2.685546875,-3.834228515625,-52.2015380859375,-31.2451171875
1758528315.588714,0.81396484375,-0.05419921875,0.611328125,-2.62451171875,4.45556640625,2.0751953125,-3.9056396484375,-52.1630859375,-31.201171875
1758528315.59905,0.81396484375,-0.05419921875,0.611328125,-2.62451171875,4.45556640625,2.0751953125,-3.9495849609375,-52.119140625,-31.1627197265625
1758528315.6086876,0.81494140625,-0.02783203125,0.62744140625,-4.94384765625,3.84521484375,1.77001953125,-4.0045166015625,-52.0806884765625,-31.124267578125
1758528315.6186874,0.81494140625,-0.02783203125,0.62744140625,-4.94384765625,3.84521484375,1.77001953125,-4.0704345703125,-52.0477294921875,-31.09130859375
1758528315.629025,0.84619140625,-0.037109375,0.62646484375,-9.27734375,2.685546875,1.64794921875,-4.15283203125,-52.020263671875,-31.058349609375
1758528315.6387253,0.84619140625,-0.037109375,0.62646484375,-9.27734375,2.685546875,1.64794921875,-4.2572021484375,-51.998291015625,-31.025390625
1758528315.648737,0.84326171875,-0.06591796875,0.6376953125,-6.103515625,1.52587890625,1.0986328125,-4.3450927734375,-51.9818115234375,-30.992431640625
1758528315.6592078,0.84326171875,-0.06591796875,0.6376953125,-6.103515625,1.52587890625,1.0986328125,-4.4110107421875,-51.9708251953125,-30.9649658203125
1758528315.6687489,0.8369140625,-0.064453125,0.61474609375,0.9765625,0.244140625,0.3662109375,-4.4439697265625,-51.96533203125,-30.9429931640625
1758528315.678718,0.8369140625,-0.064453125,0.61474609375,0.9765625,0.244140625,0.3662109375,-4.4329833984375,-51.9708251953125,-30.926513671875
1758528315.6890144,0.853515625,-0.0498046875,0.62744140625,1.5869140625,-1.3427734375,0.0,-4.4219970703125,-51.9818115234375,-30.9100341796875
1758528315.699016,0.853515625,-0.0498046875,0.62744140625,1.5869140625,-1.3427734375,0.0,-4.405517578125,-52.0037841796875,-30.8990478515625
1758528315.708771,0.865234375,-0.0400390625,0.640625,-1.708984375,-3.2958984375,0.06103515625,-4.4110107421875,-52.03125,-30.882568359375
1758528315.7187514,0.865234375,-0.0400390625,0.640625,-1.708984375,-3.2958984375,0.06103515625,-4.427490234375,-52.0697021484375,-30.8660888671875
1758528315.728831,0.86328125,-0.0634765625,0.63232421875,-2.13623046875,-5.4931640625,-0.06103515625,-4.449462890625,-52.119140625,-30.8441162109375
1758528315.738763,0.86328125,-0.0634765625,0.63232421875,-2.13623046875,-5.4931640625,-0.06103515625,-4.4769287109375,-52.18505859375,-30.82763671875
1758528315.7488635,0.86572265625,-0.087890625,0.6259765625,10.43701171875,-7.50732421875,-1.15966796875,-4.4329833984375,-52.2564697265625,-30.816650390625
1758528315.758914,0.86572265625,-0.087890625,0.6259765625,10.43701171875,-7.50732421875,-1.15966796875,-4.3231201171875,-52.3388671875,-30.8111572265625
1758528315.768852,0.84716796875,-0.0390625,0.6416015625,11.29150390625,-9.3994140625,-1.28173828125,-4.2132568359375,-52.4267578125,-30.8001708984375
1758528315.7788444,0.84716796875,-0.0390625,0.6416015625,11.29150390625,-9.3994140625,-1.28173828125,-4.097900390625,-52.525634765625,-30.8001708984375
1758528315.7889132,0.84716796875,-0.0390625,0.6416015625,8.6669921875,-11.1083984375,-1.28173828125,-3.9935302734375,-52.635498046875,-30.794677734375
1758528315.799232,0.8291015625,-0.01806640625,0.57666015625,8.6669921875,-11.1083984375,-1.28173828125,-3.9056396484375,-52.7508544921875,-30.7891845703125
1758528315.808898,0.81298828125,-0.0419921875,0.60888671875,6.34765625,-12.5732421875,-0.9765625,-3.8232421875,-52.877197265625,-30.7781982421875
1758528315.8189118,0.81298828125,-0.0419921875,0.60888671875,6.34765625,-12.5732421875,-0.9765625,-3.7628173828125,-53.0035400390625,-30.7672119140625
1758528315.8293822,0.787109375,-0.05908203125,0.5771484375,9.94873046875,-13.0615234375,-1.28173828125,-3.680419921875,-53.1353759765625,-30.76171875
1758528315.8388593,0.787109375,-0.05908203125,0.5771484375,9.94873046875,-13.0615234375,-1.28173828125,-3.58154296875,-53.2672119140625,-30.7562255859375
1758528315.848949,0.76025390625,-0.04150390625,0.55859375,9.94873046875,-13.427734375,-1.15966796875,-3.482666015625,-53.404541015625,-30.750732421875
1758528315.8590715,0.76025390625,-0.04150390625,0.55859375,9.94873046875,-13.427734375,-1.15966796875,-3.3837890625,-53.536376953125,-30.7452392578125
1758528315.8689184,0.73974609375,-0.0068359375,0.52294921875,2.86865234375,-13.24462890625,-0.54931640625,-3.3233642578125,-53.6737060546875,-30.7342529296875
1758528315.878943,0.73974609375,-0.0068359375,0.52294921875,2.86865234375,-13.24462890625,-0.54931640625,-3.3013916015625,-53.8055419921875,-30.7232666015625
1758528315.8889272,0.77392578125,-0.03515625,0.56298828125,2.99072265625,-12.75634765625,-0.54931640625,-3.2794189453125,-53.931884765625,-30.7122802734375
1758528315.899252,0.77392578125,-0.03515625,0.56298828125,2.99072265625,-12.75634765625,-0.54931640625,-3.2574462890625,-54.0582275390625,-30.7012939453125
1758528315.9089677,0.81494140625,-0.04150390625,0.59521484375,-0.91552734375,-12.02392578125,0.1220703125,-3.2574462890625,-54.1790771484375,-30.684814453125
1758528315.9190438,0.81494140625,-0.04150390625,0.59521484375,-0.91552734375,-12.02392578125,0.1220703125,-3.2794189453125,-54.2999267578125,-30.662841796875
1758528315.9292624,0.81689453125,-0.00439453125,0.56005859375,-3.23486328125,-11.1083984375,0.244140625,-3.3123779296875,-54.4097900390625,-30.640869140625
1758528315.939423,0.81689453125,-0.00439453125,0.56005859375,-3.23486328125,-11.1083984375,0.244140625,-3.36181640625,-54.5196533203125,-30.618896484375
1758528315.9490557,0.81982421875,-0.0615234375,0.57421875,-2.99072265625,-9.94873046875,0.1220703125,-3.4002685546875,-54.6185302734375,-30.596923828125
1758528315.9593832,0.81982421875,-0.0615234375,0.57421875,-2.99072265625,-9.94873046875,0.1220703125,-3.4442138671875,-54.7174072265625,-30.5804443359375
1758528315.969131,0.8291015625,-0.03369140625,0.5859375,-5.4931640625,-8.9111328125,0.42724609375,-3.4991455078125,-54.810791015625,-30.5584716796875
1758528315.9790146,0.8291015625,-0.03369140625,0.5859375,-5.4931640625,-8.9111328125,0.42724609375,-3.570556640625,-54.8931884765625,-30.5364990234375
1758528315.9890668,0.828125,-0.0361328125,0.5771484375,-5.06591796875,-7.87353515625,0.1220703125,-3.6309814453125,-54.9755859375,-30.5145263671875
1758528315.9994562,0.828125,-0.0361328125,0.5771484375,-5.06591796875,-7.87353515625,0.1220703125,-3.69140625,-55.0469970703125,-30.498046875
1758528316.0097675,0.82763671875,-0.0576171875,0.5556640625,-0.8544921875,-7.26318359375,-0.3662109375,-3.7298583984375,-55.118408203125,-30.487060546875
1758528316.01903,0.82763671875,-0.0576171875,0.5556640625,-0.8544921875,-7.26318359375,-0.3662109375,-3.7408447265625,-55.1898193359375,-30.47607421875
1758528316.029453,0.8017578125,-0.03271484375,0.57177734375,-1.5869140625,-6.04248046875,-0.244140625,-3.75732421875,-55.2557373046875,-30.4705810546875
1758528316.0390527,0.8017578125,-0.03271484375,0.57177734375,-1.5869140625,-6.04248046875,-0.244140625,-3.7738037109375,-55.3106689453125,-30.4595947265625
1758528316.0491602,0.78173828125,-0.0234375,0.5234375,-3.11279296875,-5.43212890625,0.1220703125,-3.80126953125,-55.3656005859375,-30.4486083984375
1758528316.0594387,0.78173828125,-0.0234375,0.5234375,-3.11279296875,-5.43212890625,0.1220703125,-3.8397216796875,-55.4150390625,-30.4376220703125
1758528316.0692377,0.79150390625,-0.03466796875,0.54248046875,-5.31005859375,-4.57763671875,0.42724609375,-3.88916015625,-55.4644775390625,-30.4156494140625
1758528316.0791214,0.79150390625,-0.03466796875,0.54248046875,-5.31005859375,-4.57763671875,0.42724609375,-3.955078125,-55.5029296875,-30.399169921875
1758528316.089387,0.8251953125,-0.05517578125,0.54736328125,-3.84521484375,-3.90625,0.30517578125,-4.0045166015625,-55.546875,-30.3826904296875
1758528316.0995307,0.8251953125,-0.05517578125,0.54736328125,-3.84521484375,-3.90625,0.30517578125,-4.053955078125,-55.579833984375,-30.3607177734375
1758528316.1092129,0.82275390625,-0.05322265625,0.55859375,-0.6103515625,-3.2958984375,0.30517578125,-4.0814208984375,-55.61279296875,-30.34423828125
1758528316.1191778,0.82275390625,-0.05322265625,0.55859375,-0.6103515625,-3.2958984375,0.30517578125,-4.097900390625,-55.645751953125,-30.3277587890625
1758528316.1296194,0.81787109375,-0.03515625,0.5439453125,-1.64794921875,-2.8076171875,0.8544921875,-4.119873046875,-55.6732177734375,-30.30029296875
1758528316.1391454,0.81787109375,-0.03515625,0.5439453125,-1.64794921875,-2.8076171875,0.8544921875,-4.15283203125,-55.70068359375,-30.2728271484375
1758528316.1492128,0.8359375,-0.02490234375,0.5478515625,-7.6904296875,-2.44140625,1.708984375,-4.2242431640625,-55.72265625,-30.2398681640625
1758528316.1595325,0.8359375,-0.02490234375,0.5478515625,-7.6904296875,-2.44140625,1.708984375,-4.3231201171875,-55.7501220703125,-30.1959228515625
1758528316.1692302,0.837890625,-0.0693359375,0.57861328125,-4.21142578125,-2.25830078125,1.5869140625,-4.4110107421875,-55.7720947265625,-30.1519775390625
1758528316.1791878,0.837890625,-0.0693359375,0.57861328125,-4.21142578125,-2.25830078125,1.5869140625,-4.4769287109375,-55.78857421875,-30.113525390625
1758528316.1893833,0.81884765625,-0.10400390625,0.52685546875,4.33349609375,-2.5634765625,1.15966796875,-4.4989013671875,-55.810546875,-30.0750732421875
1758528316.1995213,0.81884765625,-0.10400390625,0.52685546875,4.33349609375,-2.5634765625,1.15966796875,-4.482421875,-55.8380126953125,-30.0421142578125
1758528316.2092295,0.82421875,-0.0458984375,0.52587890625,5.615234375,-2.685546875,0.6103515625,-4.4549560546875,-55.865478515625,-30.0091552734375
1758528316.2193093,0.82421875,-0.0458984375,0.52587890625,5.615234375,-2.685546875,0.6103515625,-4.41650390625,-55.8929443359375,-29.981689453125
1758528316.2297535,0.84716796875,-0.01708984375,0.5693359375,0.42724609375,-2.74658203125,0.91552734375,-4.405517578125,-55.92041015625,-29.94873046875
1758528316.2396386,0.84716796875,-0.01708984375,0.5693359375,0.42724609375,-2.74658203125,0.91552734375,-4.4219970703125,-55.9478759765625,-29.915771484375
1758528316.2493157,0.849609375,-0.041015625,0.5654296875,-1.708984375,-2.50244140625,1.03759765625,-4.449462890625,-55.975341796875,-29.8883056640625
1758528316.259325,0.849609375,-0.041015625,0.5654296875,-1.708984375,-2.50244140625,1.03759765625,-4.4879150390625,-55.997314453125,-29.8553466796875
1758528316.2697241,0.83544921875,-0.07177734375,0.54833984375,3.96728515625,-2.685546875,0.42724609375,-4.4879150390625,-56.0247802734375,-29.827880859375
1758528316.2792985,0.83544921875,-0.07177734375,0.54833984375,3.96728515625,-2.685546875,0.42724609375,-4.4659423828125,-56.05224609375,-29.805908203125
1758528316.2894795,0.82373046875,-0.0439453125,0.54443359375,5.92041015625,-2.50244140625,-0.30517578125,-4.4219970703125,-56.0797119140625,-29.7894287109375
1758528316.299465,0.82373046875,-0.0439453125,0.54443359375,5.92041015625,-2.50244140625,-0.30517578125,-4.3670654296875,-56.107177734375,-29.783935546875
1758528316.309433,0.82421875,-0.02490234375,0.5283203125,2.74658203125,-2.25830078125,-0.91552734375,-4.3231201171875,-56.129150390625,-29.7784423828125
1758528316.319416,0.82421875,-0.02490234375,0.5283203125,2.74658203125,-2.25830078125,-0.91552734375,-4.28466796875,-56.1566162109375,-29.7784423828125
1758528316.329857,0.82177734375,-0.04736328125,0.5537109375,2.74658203125,-1.8310546875,-1.220703125,-4.2462158203125,-56.1785888671875,-29.783935546875
1758528316.339369,0.82177734375,-0.04736328125,0.5537109375,2.74658203125,-1.8310546875,-1.220703125,-4.207763671875,-56.2005615234375,-29.794921875
1758528316.3494742,0.8154296875,-0.0693359375,0.517578125,3.90625,-1.3427734375,-1.220703125,-4.1583251953125,-56.217041015625,-29.8004150390625
1758528316.3594737,0.8154296875,-0.0693359375,0.517578125,3.90625,-1.3427734375,-1.220703125,-4.10888671875,-56.2335205078125,-29.8114013671875
1758528316.3696918,0.81298828125,-0.04296875,0.53759765625,5.31005859375,-0.9765625,-1.28173828125,-4.053955078125,-56.25,-29.81689453125
1758528316.379439,0.81298828125,-0.04296875,0.53759765625,5.31005859375,-0.9765625,-1.28173828125,-3.988037109375,-56.260986328125,-29.827880859375
1758528316.3895338,0.8271484375,-0.02392578125,0.54736328125,6.04248046875,-0.67138671875,-1.03759765625,-3.922119140625,-56.27197265625,-29.8333740234375
1758528316.3996737,0.8271484375,-0.02392578125,0.54736328125,6.04248046875,-0.67138671875,-1.03759765625,-3.8507080078125,-56.2774658203125,-29.8388671875
1758528316.4095345,0.828125,-0.0390625,0.52880859375,3.5400390625,-0.79345703125,-0.67138671875,-3.7957763671875,-56.2884521484375,-29.8388671875
1758528316.4194176,0.828125,-0.0390625,0.52880859375,3.5400390625,-0.79345703125,-0.67138671875,-3.75732421875,-56.2994384765625,-29.8388671875
1758528316.4297454,0.8251953125,-0.0244140625,0.5380859375,-0.42724609375,-0.9765625,0.0,-3.7408447265625,-56.3104248046875,-29.827880859375
1758528316.4394536,0.8251953125,-0.0244140625,0.5380859375,-0.42724609375,-0.9765625,0.0,-3.7518310546875,-56.3214111328125,-29.8114013671875
1758528316.4495578,0.82275390625,-0.02294921875,0.53515625,1.3427734375,-0.91552734375,0.42724609375,-3.7518310546875,-56.3323974609375,-29.794921875
1758528316.4595168,0.82275390625,-0.02294921875,0.53515625,1.3427734375,-0.91552734375,0.42724609375,-3.746337890625,-56.3433837890625,-29.7784423828125
1758528316.4695194,0.81591796875,-0.0654296875,0.5283203125,5.31005859375,-0.79345703125,0.54931640625,-3.724365234375,-56.3543701171875,-29.7564697265625
1758528316.4794962,0.81591796875,-0.0654296875,0.5283203125,5.31005859375,-0.79345703125,0.54931640625,-3.680419921875,-56.3653564453125,-29.72900390625
1758528316.489473,0.84375,-0.0283203125,0.5517578125,3.41796875,-0.6103515625,0.8544921875,-3.6529541015625,-56.3763427734375,-29.70703125
1758528316.4997554,0.84375,-0.0283203125,0.5517578125,3.41796875,-0.6103515625,0.8544921875,-3.636474609375,-56.3818359375,-29.674072265625
1758528316.5095813,0.86865234375,-0.0185546875,0.56005859375,0.54931640625,-0.244140625,1.03759765625,-3.6474609375,-56.3873291015625,-29.6466064453125
1758528316.519517,0.86865234375,-0.0185546875,0.56005859375,0.54931640625,-0.244140625,1.03759765625,-3.658447265625,-56.392822265625,-29.6136474609375
1758528316.5302768,0.8818359375,-0.04736328125,0.583984375,3.2958984375,-0.06103515625,0.67138671875,-3.636474609375,-56.3983154296875,-29.5916748046875
1758528316.5395133,0.8818359375,-0.04736328125,0.583984375,3.2958984375,-0.06103515625,0.67138671875,-3.6199951171875,-56.3983154296875,-29.5697021484375
1758528316.549526,0.85107421875,-0.04736328125,0.5732421875,5.06591796875,0.1220703125,0.244140625,-3.5760498046875,-56.3983154296875,-29.55322265625
1758528316.5596228,0.85107421875,-0.04736328125,0.5732421875,5.06591796875,0.1220703125,0.244140625,-3.5321044921875,-56.3983154296875,-29.542236328125
1758528316.5695875,0.8251953125,-0.0361328125,0.51416015625,7.14111328125,0.244140625,0.244140625,-3.4661865234375,-56.3983154296875,-29.5257568359375
1758528316.579617,0.8251953125,-0.0361328125,0.51416015625,7.14111328125,0.244140625,0.244140625,-3.4002685546875,-56.3983154296875,-29.50927734375
1758528316.5896003,0.8515625,-0.001953125,0.54931640625,1.708984375,0.48828125,0.8544921875,-3.4002685546875,-56.3983154296875,-29.4818115234375
1758528316.5998144,0.8515625,-0.001953125,0.54931640625,1.708984375,0.48828125,0.8544921875,-3.394775390625,-56.392822265625,-29.4598388671875
1758528316.6096723,0.8603515625,-0.00439453125,0.57275390625,-2.74658203125,0.732421875,1.3427734375,-3.438720703125,-56.3873291015625,-29.4268798828125
1758528316.6198301,0.8603515625,-0.00439453125,0.57275390625,-2.74658203125,0.732421875,1.3427734375,-3.482666015625,-56.3818359375,-29.3994140625
1758528316.6303253,0.83447265625,-0.0419921875,0.55859375,-2.86865234375,0.79345703125,1.3427734375,-3.526611328125,-56.3763427734375,-29.366455078125
1758528316.6396472,0.83447265625,-0.0419921875,0.55859375,-2.86865234375,0.79345703125,1.3427734375,-3.570556640625,-56.370849609375,-29.3389892578125
1758528316.6496987,0.80322265625,-0.04541015625,0.5,-2.25830078125,0.6103515625,1.28173828125,-3.6090087890625,-56.3653564453125,-29.3060302734375
1758528316.6596963,0.80322265625,-0.04541015625,0.5,-2.25830078125,0.6103515625,1.28173828125,-3.6529541015625,-56.35986328125,-29.2730712890625
1758528316.6696754,0.8212890625,-0.05078125,0.5078125,2.197265625,0.18310546875,1.15966796875,-3.6474609375,-56.3653564453125,-29.24560546875
1758528316.6796567,0.8212890625,-0.05078125,0.5078125,2.197265625,0.18310546875,1.15966796875,-3.6419677734375,-56.3653564453125,-29.212646484375
1758528316.6896737,0.84619140625,-0.033203125,0.57373046875,0.42724609375,0.18310546875,1.52587890625,-3.658447265625,-56.3653564453125,-29.168701171875
1758528316.6998234,0.84619140625,-0.033203125,0.57373046875,0.42724609375,0.18310546875,1.52587890625,-3.680419921875,-56.3653564453125,-29.1357421875
1758528316.7096653,0.84130859375,-0.02099609375,0.56201171875,-4.8828125,0.1220703125,2.25830078125,-3.7628173828125,-56.3653564453125,-29.080810546875
1758528316.719903,0.84130859375,-0.02099609375,0.56201171875,-4.8828125,0.1220703125,2.25830078125,-3.8397216796875,-56.3653564453125,-29.036865234375
1758528316.7303536,0.78857421875,-0.03125,0.5126953125,-6.103515625,0.1220703125,2.74658203125,-3.9385986328125,-56.3653564453125,-28.9764404296875
1758528316.7397528,0.78857421875,-0.03125,0.5126953125,-6.103515625,0.1220703125,2.74658203125,-4.0374755859375,-56.3653564453125,-28.9215087890625
1758528316.7497969,0.75830078125,-0.06787109375,0.458984375,-0.244140625,0.42724609375,2.74658203125,-4.0814208984375,-56.3653564453125,-28.8665771484375
1758528316.7597923,0.75830078125,-0.06787109375,0.458984375,-0.244140625,0.42724609375,2.74658203125,-4.1253662109375,-56.35986328125,-28.80615234375
1758528316.769755,0.7958984375,-0.0390625,0.5166015625,-1.3427734375,0.91552734375,2.86865234375,-4.1802978515625,-56.3543701171875,-28.740234375
1758528316.7797902,0.7958984375,-0.0390625,0.5166015625,-1.3427734375,0.91552734375,2.86865234375,-4.2352294921875,-56.348876953125,-28.6798095703125
1758528316.7897952,0.7958984375,-0.0390625,0.5166015625,-4.2724609375,1.3427734375,2.9296875,-4.317626953125,-56.337890625,-28.619384765625
1758528316.7998402,0.841796875,-0.0263671875,0.56884765625,-4.2724609375,1.3427734375,2.9296875,-4.4000244140625,-56.3214111328125,-28.5589599609375
1758528316.8098035,0.85009765625,-0.048828125,0.5615234375,-3.60107421875,1.52587890625,2.50244140625,-4.471435546875,-56.3104248046875,-28.509521484375
1758528316.819777,0.85009765625,-0.048828125,0.5615234375,-3.60107421875,1.52587890625,2.50244140625,-4.5428466796875,-56.2939453125,-28.4600830078125
1758528316.8313148,0.8291015625,-0.05078125,0.54296875,-0.79345703125,1.708984375,2.01416015625,-4.5758056640625,-56.2774658203125,-28.4161376953125
1758528316.8398762,0.8291015625,-0.05078125,0.54296875,-0.79345703125,1.708984375,2.01416015625,-4.6087646484375,-56.2664794921875,-28.377685546875
1758528316.849792,0.83251953125,-0.0419921875,0.51904296875,1.28173828125,1.77001953125,1.64794921875,-4.6142578125,-56.25,-28.3392333984375
1758528316.8604126,0.83251953125,-0.0419921875,0.51904296875,1.28173828125,1.77001953125,1.64794921875,-4.625244140625,-56.2335205078125,-28.30078125
1758528316.8698964,0.86865234375,-0.033203125,0.57568359375,-0.18310546875,1.953125,1.5869140625,-4.647216796875,-56.217041015625,-28.267822265625
1758528316.8798292,0.86865234375,-0.033203125,0.57568359375,-0.18310546875,1.953125,1.5869140625,-4.669189453125,-56.2005615234375,-28.23486328125
1758528316.890037,0.869140625,-0.03662109375,0.591796875,-3.90625,1.8310546875,1.3427734375,-4.7186279296875,-56.18408203125,-28.2073974609375
1758528316.9000025,0.869140625,-0.03662109375,0.591796875,-3.90625,1.8310546875,1.3427734375,-4.7735595703125,-56.1676025390625,-28.179931640625
1758528316.9099786,0.85009765625,-0.068359375,0.54052734375,-1.77001953125,1.3427734375,0.67138671875,-4.7955322265625,-56.1566162109375,-28.1634521484375
1758528316.919858,0.85009765625,-0.068359375,0.54052734375,-1.77001953125,1.3427734375,0.67138671875,-4.8175048828125,-56.1456298828125,-28.1414794921875
1758528316.9303408,0.80810546875,-0.0556640625,0.54248046875,0.0,0.8544921875,0.1220703125,-4.8175048828125,-56.14013671875,-28.135986328125
1758528316.939901,0.80810546875,-0.0556640625,0.54248046875,0.0,0.8544921875,0.1220703125,-4.822998046875,-56.1346435546875,-28.125
1758528316.9500835,0.80419921875,-0.0380859375,0.4931640625,0.9765625,0.54931640625,-0.244140625,-4.8065185546875,-56.1346435546875,-28.1195068359375
1758528316.9603455,0.80419921875,-0.0380859375,0.4931640625,0.9765625,0.54931640625,-0.244140625,-4.7900390625,-56.1346435546875,-28.1195068359375
1758528316.969885,0.82666015625,-0.02392578125,0.5341796875,-2.38037109375,0.1220703125,0.0,-4.8175048828125,-56.14013671875,-28.1085205078125
1758528316.980009,0.82666015625,-0.02392578125,0.5341796875,-2.38037109375,0.1220703125,0.0,-4.833984375,-56.14013671875,-28.0975341796875
1758528316.9899814,0.83740234375,-0.04248046875,0.572265625,-4.33349609375,0.0,0.0,-4.8779296875,-56.1456298828125,-28.092041015625
1758528317.0001495,0.83740234375,-0.04248046875,0.572265625,-4.33349609375,0.0,0.0,-4.9163818359375,-56.151123046875,-28.0810546875
1758528317.0099883,0.822265625,-0.07177734375,0.52978515625,-0.9765625,-0.30517578125,-0.42724609375,-4.9163818359375,-56.1566162109375,-28.0810546875
1758528317.0202458,0.822265625,-0.07177734375,0.52978515625,-0.9765625,-0.30517578125,-0.42724609375,-4.921875,-56.162109375,-28.0810546875
1758528317.0303876,0.83837890625,-0.0732421875,0.53173828125,4.0283203125,-0.79345703125,-0.9765625,-4.8724365234375,-56.1785888671875,-28.0865478515625
1758528317.0399823,0.83837890625,-0.0732421875,0.53173828125,4.0283203125,-0.79345703125,-0.9765625,-4.8175048828125,-56.1895751953125,-28.092041015625
1758528317.0501006,0.85498046875,-0.01708984375,0.5732421875,-0.06103515625,-0.79345703125,-0.79345703125,-4.81201171875,-56.2005615234375,-28.092041015625
1758528317.0604498,0.85498046875,-0.01708984375,0.5732421875,-0.06103515625,-0.79345703125,-0.79345703125,-4.801025390625,-56.2115478515625,-28.0975341796875
1758528317.0700874,0.86474609375,-0.01513671875,0.55908203125,-6.4697265625,-1.15966796875,-0.30517578125,-4.8614501953125,-56.22802734375,-28.092041015625
1758528317.0801277,0.86474609375,-0.01513671875,0.55908203125,-6.4697265625,-1.15966796875,-0.30517578125,-4.9163818359375,-56.2445068359375,-28.0865478515625
1758528317.0900767,0.85888671875,-0.083984375,0.552734375,-0.79345703125,-1.77001953125,-0.54931640625,-4.9163818359375,-56.2664794921875,-28.0865478515625
1758528317.1003149,0.85888671875,-0.083984375,0.552734375,-0.79345703125,-1.77001953125,-0.54931640625,-4.921875,-56.2884521484375,-28.0865478515625
1758528317.1101396,0.8505859375,-0.0849609375,0.55712890625,6.28662109375,-2.38037109375,-1.0986328125,-4.844970703125,-56.31591796875,-28.092041015625
1758528317.1204178,0.8505859375,-0.0849609375,0.55712890625,6.28662109375,-2.38037109375,-1.0986328125,-4.7735595703125,-56.3433837890625,-28.0975341796875
1758528317.1315644,0.86279296875,-0.0224609375,0.5439453125,2.3193359375,-2.99072265625,-1.0986328125,-4.7406005859375,-56.3763427734375,-28.10302734375
1758528317.140142,0.86279296875,-0.0224609375,0.5439453125,2.3193359375,-2.99072265625,-1.0986328125,-4.7076416015625,-56.4093017578125,-28.1085205078125
1758528317.150203,0.884765625,-0.02001953125,0.5673828125,-2.44140625,-3.47900390625,-0.67138671875,-4.7296142578125,-56.44775390625,-28.10302734375
1758528317.160594,0.884765625,-0.02001953125,0.5673828125,-2.44140625,-3.47900390625,-0.67138671875,-4.74609375,-56.4862060546875,-28.10302734375
1758528317.170539,0.92529296875,-0.05419921875,0.5947265625,0.0,-4.0283203125,-0.732421875,-4.7406005859375,-56.5301513671875,-28.0975341796875
1758528317.1801434,0.92529296875,-0.05419921875,0.5947265625,0.0,-4.0283203125,-0.732421875,-4.7296142578125,-56.5740966796875,-28.0975341796875
1758528317.190197,0.88623046875,-0.06298828125,0.6103515625,4.5166015625,-4.57763671875,-1.0986328125,-4.6746826171875,-56.62353515625,-28.10302734375
1758528317.2003384,0.88623046875,-0.06298828125,0.6103515625,4.5166015625,-4.57763671875,-1.0986328125,-4.6197509765625,-56.6729736328125,-28.1085205078125
1758528317.210163,0.84619140625,-0.0576171875,0.51611328125,4.33349609375,-4.94384765625,-1.220703125,-4.5703125,-56.722412109375,-28.114013671875
1758528317.2201424,0.84619140625,-0.0576171875,0.51611328125,4.33349609375,-4.94384765625,-1.220703125,-4.515380859375,-56.7718505859375,-28.1195068359375
1758528317.230526,0.8359375,-0.0439453125,0.5400390625,3.23486328125,-5.0048828125,-1.0986328125,-4.4769287109375,-56.8267822265625,-28.125
1758528317.2402787,0.8359375,-0.0439453125,0.5400390625,3.23486328125,-5.0048828125,-1.0986328125,-4.4384765625,-56.876220703125,-28.125
1758528317.250331,0.8388671875,-0.02978515625,0.5400390625,-0.06103515625,-4.45556640625,-0.79345703125,-4.4329833984375,-56.9256591796875,-28.125
1758528317.260608,0.8388671875,-0.02978515625,0.5400390625,-0.06103515625,-4.45556640625,-0.79345703125,-4.427490234375,-56.9696044921875,-28.125
1758528317.2703793,0.83154296875,-0.0322265625,0.54443359375,0.06103515625,-3.72314453125,-0.6103515625,-4.4219970703125,-57.008056640625,-28.125
1758528317.2803066,0.83154296875,-0.0322265625,0.54443359375,0.06103515625,-3.72314453125,-0.6103515625,-4.41650390625,-57.0465087890625,-28.125
1758528317.2903163,0.8154296875,-0.05517578125,0.5224609375,3.173828125,-2.99072265625,-0.3662109375,-4.3890380859375,-57.073974609375,-28.1195068359375
1758528317.300429,0.8154296875,-0.05517578125,0.5224609375,3.173828125,-2.99072265625,-0.3662109375,-4.3560791015625,-57.10693359375,-28.114013671875
1758528317.3103004,0.8251953125,-0.0283203125,0.5048828125,-1.46484375,-2.685546875,-0.06103515625,-4.37255859375,-57.1343994140625,-28.1085205078125
1758528317.3205397,0.8251953125,-0.0283203125,0.5048828125,-1.46484375,-2.685546875,-0.06103515625,-4.3890380859375,-57.161865234375,-28.0975341796875
1758528317.3307633,0.83349609375,-0.05419921875,0.53759765625,0.244140625,-2.50244140625,-0.3662109375,-4.3890380859375,-57.183837890625,-28.0975341796875
1758528317.3402848,0.83349609375,-0.05419921875,0.53759765625,0.244140625,-2.50244140625,-0.3662109375,-4.383544921875,-57.2113037109375,-28.092041015625
1758528317.3503916,0.84912109375,-0.03564453125,0.537109375,0.0,-2.44140625,-0.67138671875,-4.3780517578125,-57.23876953125,-28.092041015625
1758528317.3607845,0.84912109375,-0.03564453125,0.537109375,0.0,-2.44140625,-0.67138671875,-4.37255859375,-57.2607421875,-28.0975341796875
1758528317.3703806,0.8466796875,-0.03271484375,0.541015625,-0.1220703125,-2.5634765625,-1.03759765625,-4.361572265625,-57.2882080078125,-28.10302734375
1758528317.3804111,0.8466796875,-0.03271484375,0.541015625,-0.1220703125,-2.5634765625,-1.03759765625,-4.3505859375,-57.315673828125,-28.114013671875
1758528317.3903806,0.8310546875,-0.02978515625,0.51318359375,-1.0986328125,-2.50244140625,-1.220703125,-4.3450927734375,-57.3431396484375,-28.125
1758528317.4006052,0.8310546875,-0.02978515625,0.51318359375,-1.0986328125,-2.50244140625,-1.220703125,-4.3341064453125,-57.3651123046875,-28.1414794921875
1758528317.4103572,0.814453125,-0.06396484375,0.51171875,1.0986328125,-2.44140625,-1.64794921875,-4.3011474609375,-57.392578125,-28.157958984375
1758528317.420454,0.814453125,-0.06396484375,0.51171875,1.0986328125,-2.44140625,-1.64794921875,-4.273681640625,-57.4200439453125,-28.179931640625
1758528317.4307115,0.8173828125,-0.06982421875,0.5205078125,3.96728515625,-1.89208984375,-1.77001953125,-4.207763671875,-57.4420166015625,-28.1964111328125
1758528317.4404302,0.8173828125,-0.06982421875,0.5205078125,3.96728515625,-1.89208984375,-1.77001953125,-4.15283203125,-57.4639892578125,-28.2183837890625
1758528317.4504845,0.8330078125,-0.01953125,0.50927734375,0.244140625,-1.5869140625,-1.0986328125,-4.1363525390625,-57.48046875,-28.2293701171875
1758528317.460576,0.8330078125,-0.01953125,0.50927734375,0.244140625,-1.5869140625,-1.0986328125,-4.1253662109375,-57.4969482421875,-28.23486328125
1758528317.4704342,0.84130859375,-0.005859375,0.53564453125,-2.50244140625,-1.0986328125,0.0,-4.15283203125,-57.5079345703125,-28.223876953125
1758528317.4804237,0.84130859375,-0.005859375,0.53564453125,-2.50244140625,-1.0986328125,0.0,-4.1748046875,-57.5189208984375,-28.212890625
1758528317.4904556,0.85302734375,-0.0869140625,0.5341796875,2.9296875,-0.8544921875,0.48828125,-4.1583251953125,-57.5299072265625,-28.1964111328125
1758528317.500581,0.85302734375,-0.0869140625,0.5341796875,2.9296875,-0.8544921875,0.48828125,-4.141845703125,-57.5408935546875,-28.1744384765625
1758528317.5104525,0.87060546875,-0.07177734375,0.537109375,5.0048828125,-1.0986328125,0.79345703125,-4.10888671875,-57.5518798828125,-28.14697265625
1758528317.5204844,0.87060546875,-0.07177734375,0.537109375,5.0048828125,-1.0986328125,0.79345703125,-4.0814208984375,-57.5628662109375,-28.1195068359375
1758528317.5306792,0.8701171875,0.001953125,0.54150390625,0.48828125,-1.28173828125,1.52587890625,-4.10888671875,-57.5738525390625,-28.0810546875
1758528317.5405421,0.8701171875,0.001953125,0.54150390625,0.48828125,-1.28173828125,1.52587890625,-4.130859375,-57.59033203125,-28.0426025390625
1758528317.5505664,0.865234375,-0.0205078125,0.5400390625,-4.0283203125,-1.52587890625,2.197265625,-4.207763671875,-57.601318359375,-27.9931640625
1758528317.560666,0.865234375,-0.0205078125,0.5400390625,-4.0283203125,-1.52587890625,2.197265625,-4.28466796875,-57.6177978515625,-27.9437255859375
1758528317.5706842,0.8662109375,-0.072265625,0.53662109375,-3.90625,-1.77001953125,2.25830078125,-4.3560791015625,-57.63427734375,-27.8887939453125
1758528317.5806448,0.8681640625,-0.06201171875,0.5224609375,-0.54931640625,-2.13623046875,2.25830078125,-4.4219970703125,-57.65625,-27.83935546875
1758528317.5909228,0.8681640625,-0.06201171875,0.5224609375,-0.54931640625,-2.13623046875,2.25830078125,-4.4659423828125,-57.67822265625,-27.784423828125
1758528317.6010275,0.9013671875,-0.041015625,0.55517578125,0.244140625,-2.50244140625,2.8076171875,-4.5098876953125,-57.7001953125,-27.7239990234375
1758528317.61058,0.9013671875,-0.041015625,0.55517578125,0.244140625,-2.50244140625,2.8076171875,-4.559326171875,-57.7276611328125,-27.6580810546875
1758528317.6206443,0.89111328125,-0.00244140625,0.56005859375,-6.65283203125,-2.685546875,3.47900390625,-4.6417236328125,-57.7496337890625,-27.586669921875
1758528317.6308413,0.89111328125,-0.00244140625,0.56005859375,-6.65283203125,-2.685546875,3.47900390625,-4.76806640625,-57.777099609375,-27.509765625
1758528317.6406739,0.88818359375,-0.0439453125,0.5234375,-6.16455078125,-3.173828125,3.47900390625,-4.8834228515625,-57.8045654296875,-27.4383544921875
1758528317.6507356,0.88818359375,-0.0439453125,0.5234375,-6.16455078125,-3.173828125,3.47900390625,-4.998779296875,-57.8375244140625,-27.3614501953125
1758528317.6607754,0.8828125,-0.11083984375,0.56787109375,2.01416015625,-3.72314453125,2.685546875,-5.0701904296875,-57.8704833984375,-27.2900390625
1758528317.6706963,0.8828125,-0.11083984375,0.56787109375,2.01416015625,-3.72314453125,2.685546875,-5.0921630859375,-57.9034423828125,-27.22412109375
1758528317.6806798,0.8603515625,-0.05322265625,0.51513671875,3.84521484375,-3.96728515625,2.01416015625,-5.108642578125,-57.94189453125,-27.169189453125
1758528317.6909156,0.8603515625,-0.05322265625,0.51513671875,3.84521484375,-3.96728515625,2.01416015625,-5.1141357421875,-57.9803466796875,-27.1142578125
1758528317.7007928,0.83251953125,-0.01806640625,0.48291015625,-1.46484375,-4.57763671875,2.0751953125,-5.1416015625,-58.0242919921875,-27.059326171875
1758528317.710707,0.83251953125,-0.01806640625,0.48291015625,-1.46484375,-4.57763671875,2.0751953125,-5.196533203125,-58.0682373046875,-27.00439453125
1758528317.7207193,0.84912109375,-0.04248046875,0.5224609375,-2.13623046875,-4.82177734375,2.0751953125,-5.25146484375,-58.11767578125,-26.949462890625
1758528317.7315733,0.84912109375,-0.04248046875,0.5224609375,-2.13623046875,-4.82177734375,2.0751953125,-5.3118896484375,-58.1671142578125,-26.89453125
1758528317.7408104,0.8642578125,-0.05224609375,0.51611328125,-1.3427734375,-4.7607421875,1.953125,-5.3668212890625,-58.2110595703125,-26.839599609375
1758528317.7507293,0.8642578125,-0.05224609375,0.51611328125,-1.3427734375,-4.7607421875,1.953125,-5.416259765625,-58.260498046875,-26.7901611328125
1758528317.7607663,0.837890625,-0.060546875,0.52783203125,2.44140625,-5.0048828125,1.8310546875,-5.4437255859375,-58.3099365234375,-26.7352294921875
1758528317.7711158,0.837890625,-0.060546875,0.52783203125,2.44140625,-5.0048828125,1.8310546875,-5.4547119140625,-58.359375,-26.685791015625
1758528317.780728,0.84423828125,-0.04345703125,0.49560546875,1.77001953125,-4.82177734375,2.01416015625,-5.47119140625,-58.4033203125,-26.630859375
1758528317.790733,0.84423828125,-0.04345703125,0.49560546875,1.77001953125,-4.82177734375,2.01416015625,-5.4931640625,-58.4527587890625,-26.5814208984375
1758528317.800923,0.8310546875,-0.0322265625,0.5,-3.0517578125,-4.638671875,2.44140625,-5.5426025390625,-58.4967041015625,-26.52099609375
1758528317.8107545,0.8310546875,-0.0322265625,0.5,-3.0517578125,-4.638671875,2.44140625,-5.6195068359375,-58.5406494140625,-26.4605712890625
1758528317.8208764,0.845703125,-0.04931640625,0.5048828125,-4.08935546875,-4.45556640625,2.38037109375,-5.6964111328125,-58.5845947265625,-26.400146484375
1758528317.8317587,0.845703125,-0.04931640625,0.5048828125,-4.08935546875,-4.45556640625,2.38037109375,-5.77880859375,-58.6285400390625,-26.34521484375
1758528317.8408597,0.84912109375,-0.0537109375,0.51708984375,-4.5166015625,-4.33349609375,2.197265625,-5.8612060546875,-58.6669921875,-26.2847900390625
1758528317.8508441,0.84912109375,-0.0537109375,0.51708984375,-4.5166015625,-4.33349609375,2.197265625,-5.943603515625,-58.7109375,-26.2298583984375
1758528317.8609657,0.85693359375,-0.07568359375,0.51220703125,-0.244140625,-4.2724609375,1.708984375,-6.0040283203125,-58.7493896484375,-26.180419921875
1758528317.871063,0.85693359375,-0.07568359375,0.51220703125,-0.244140625,-4.2724609375,1.708984375,-6.04248046875,-58.7933349609375,-26.136474609375
1758528317.8808603,0.81396484375,-0.01904296875,0.501953125,-6.16455078125,-3.47900390625,2.197265625,-6.1083984375,-58.8262939453125,-26.0870361328125
1758528317.8912446,0.81396484375,-0.01904296875,0.501953125,-6.16455078125,-3.47900390625,2.197265625,-6.207275390625,-58.8592529296875,-26.0321044921875
1758528317.9014075,0.8017578125,-0.02734375,0.4345703125,-9.82666015625,-3.60107421875,2.74658203125,-6.328125,-58.88671875,-25.9771728515625
1758528317.9108713,0.8017578125,-0.02734375,0.4345703125,-9.82666015625,-3.60107421875,2.74658203125,-6.470947265625,-58.919677734375,-25.9112548828125
1758528317.9209027,0.86376953125,-0.1083984375,0.51611328125,-6.34765625,-3.60107421875,2.25830078125,-6.591796875,-58.9581298828125,-25.8563232421875
1758528317.931029,0.86376953125,-0.1083984375,0.51611328125,-6.34765625,-3.60107421875,2.25830078125,-6.690673828125,-58.9910888671875,-25.8013916015625
1758528317.9408696,0.88330078125,-0.0849609375,0.537109375,-3.0517578125,-3.173828125,1.64794921875,-6.7730712890625,-59.0240478515625,-25.751953125
1758528317.9512577,0.88330078125,-0.0849609375,0.537109375,-3.0517578125,-3.173828125,1.64794921875,-6.8389892578125,-59.051513671875,-25.7080078125
1758528317.9610856,0.87109375,-0.00732421875,0.50634765625,-8.85009765625,-2.5634765625,1.8310546875,-6.932373046875,-59.0789794921875,-25.6640625
1758528317.9713225,0.87109375,-0.00732421875,0.50634765625,-8.85009765625,-2.5634765625,1.8310546875,-7.0477294921875,-59.1009521484375,-25.6201171875
1758528317.9809127,0.86669921875,-0.02685546875,0.52587890625,-13.3056640625,-2.685546875,2.01416015625,-7.1905517578125,-59.1229248046875,-25.576171875
1758528317.9912279,0.86669921875,-0.02685546875,0.52587890625,-13.3056640625,-2.685546875,2.01416015625,-7.349853515625,-59.1448974609375,-25.5322265625
1758528318.001409,0.86669921875,-0.02685546875,0.52587890625,-12.14599609375,-2.74658203125,1.64794921875,-7.4981689453125,-59.17236328125,-25.4937744140625
1758528318.0112698,0.8623046875,-0.1005859375,0.47509765625,-12.14599609375,-2.74658203125,1.64794921875,-7.646484375,-59.1998291015625,-25.455322265625
1758528318.0210059,0.8857421875,-0.0849609375,0.51171875,-8.544921875,-2.74658203125,1.0986328125,-7.767333984375,-59.2218017578125,-25.4168701171875
1758528318.0322516,0.8857421875,-0.0849609375,0.51171875,-8.544921875,-2.74658203125,1.0986328125,-7.8717041015625,-59.249267578125,-25.3839111328125
1758528318.0419428,0.88623046875,-0.04248046875,0.541015625,-12.14599609375,-2.13623046875,0.9765625,-7.9925537109375,-59.271240234375,-25.3509521484375
1758528318.0510817,0.88623046875,-0.04248046875,0.541015625,-12.14599609375,-2.13623046875,0.9765625,-8.1243896484375,-59.293212890625,-25.3289794921875
1758528318.06138,0.88427734375,-0.07275390625,0.50537109375,-9.94873046875,-2.3193359375,0.6103515625,-8.2452392578125,-59.315185546875,-25.3070068359375
1758528318.071508,0.88427734375,-0.07275390625,0.50537109375,-9.94873046875,-2.3193359375,0.6103515625,-8.349609375,-59.337158203125,-25.2850341796875
1758528318.0810018,0.861328125,-0.10595703125,0.49560546875,-6.591796875,-2.3193359375,0.42724609375,-8.4375,-59.359130859375,-25.2630615234375
1758528318.0912538,0.861328125,-0.10595703125,0.49560546875,-6.591796875,-2.3193359375,0.42724609375,-8.5089111328125,-59.381103515625,-25.24658203125
1758528318.1011744,0.8408203125,-0.08447265625,0.46337890625,-0.42724609375,-2.38037109375,-0.244140625,-8.54736328125,-59.403076171875,-25.235595703125
1758528318.111376,0.8408203125,-0.08447265625,0.46337890625,-0.42724609375,-2.38037109375,-0.244140625,-8.5528564453125,-59.4305419921875,-25.224609375
1758528318.1210089,0.84912109375,-0.05810546875,0.4892578125,-5.79833984375,-2.685546875,-0.18310546875,-8.5858154296875,-59.4580078125,-25.213623046875
1758528318.1314213,0.84912109375,-0.05810546875,0.4892578125,-5.79833984375,-2.685546875,-0.18310546875,-8.6407470703125,-59.4854736328125,-25.20263671875
1758528318.1414106,0.84130859375,-0.08935546875,0.4697265625,-4.39453125,-2.685546875,-0.48828125,-8.690185546875,-59.512939453125,-25.1971435546875
1758528318.1513155,0.84130859375,-0.08935546875,0.4697265625,-4.39453125,-2.685546875,-0.48828125,-8.7286376953125,-59.5404052734375,-25.191650390625
1758528318.1610863,0.8408203125,-0.10791015625,0.4931640625,2.86865234375,-3.0517578125,-1.220703125,-8.7286376953125,-59.5733642578125,-25.191650390625
1758528318.1717024,0.8408203125,-0.10791015625,0.4931640625,2.86865234375,-3.0517578125,-1.220703125,-8.690185546875,-59.6063232421875,-25.1971435546875
1758528318.1811256,0.84765625,-0.0888671875,0.47412109375,9.33837890625,-3.0517578125,-2.0751953125,-8.61328125,-59.6392822265625,-25.2081298828125
1758528318.1913598,0.84765625,-0.0888671875,0.47412109375,9.33837890625,-3.0517578125,-2.0751953125,-8.4979248046875,-59.6722412109375,-25.2301025390625
1758528318.2014916,0.861328125,-0.0361328125,0.462890625,2.8076171875,-3.72314453125,-1.77001953125,-8.41552734375,-59.710693359375,-25.24658203125
1758528318.211354,0.861328125,-0.0361328125,0.462890625,2.8076171875,-3.72314453125,-1.77001953125,-8.37158203125,-59.7491455078125,-25.257568359375
1758528318.2211294,0.857421875,-0.06298828125,0.50341796875,-4.94384765625,-4.45556640625,-1.3427734375,-8.3660888671875,-59.798583984375,-25.2685546875
1758528318.2315204,0.857421875,-0.06298828125,0.50341796875,-4.94384765625,-4.45556640625,-1.3427734375,-8.404541015625,-59.842529296875,-25.2740478515625
1758528318.2411246,0.8466796875,-0.12548828125,0.45849609375,7.62939453125,-4.5166015625,-2.62451171875,-8.3660888671875,-59.8919677734375,-25.29052734375
1758528318.2513075,0.8466796875,-0.12548828125,0.45849609375,7.62939453125,-4.5166015625,-2.62451171875,-8.26171875,-59.94140625,-25.3125
1758528318.261593,0.85009765625,-0.09912109375,0.484375,16.66259765625,-4.82177734375,-3.41796875,-8.10791015625,-59.996337890625,-25.345458984375
1758528318.271404,0.85009765625,-0.09912109375,0.484375,16.66259765625,-4.82177734375,-3.41796875,-7.9046630859375,-60.0457763671875,-25.3839111328125
1758528318.2812228,0.90576171875,-0.02734375,0.47412109375,11.53564453125,-5.0048828125,-3.173828125,-7.734375,-60.1007080078125,-25.42236328125
1758528318.2913404,0.90576171875,-0.02734375,0.47412109375,11.53564453125,-5.0048828125,-3.173828125,-7.5860595703125,-60.1556396484375,-25.455322265625
1758528318.3012602,0.9130859375,-0.041015625,0.5498046875,3.60107421875,-5.43212890625,-2.3193359375,-7.481689453125,-60.216064453125,-25.4827880859375
1758528318.311343,0.9130859375,-0.041015625,0.5498046875,3.60107421875,-5.43212890625,-2.3193359375,-7.4212646484375,-60.27099609375,-25.5047607421875
1758528318.3212266,0.8916015625,-0.12158203125,0.4833984375,3.7841796875,-5.615234375,-2.0751953125,-7.36083984375,-60.325927734375,-25.5267333984375
1758528318.3315501,0.8916015625,-0.12158203125,0.4833984375,3.7841796875,-5.615234375,-2.0751953125,-7.305908203125,-60.3863525390625,-25.5377197265625
1758528318.341267,0.8857421875,-0.04296875,0.4912109375,9.8876953125,-5.2490234375,-2.50244140625,-7.218017578125,-60.4412841796875,-25.55419921875
1758528318.3514223,0.8857421875,-0.04296875,0.4912109375,9.8876953125,-5.2490234375,-2.50244140625,-7.09716796875,-60.4962158203125,-25.5816650390625
1758528318.3615522,0.880859375,-0.01904296875,0.47021484375,6.53076171875,-4.638671875,-2.0751953125,-6.9927978515625,-60.5511474609375,-25.6036376953125
1758528318.3713603,0.880859375,-0.01904296875,0.47021484375,6.53076171875,-4.638671875,-2.0751953125,-6.9049072265625,-60.6005859375,-25.6201171875
1758528318.381255,0.91064453125,-0.03759765625,0.50341796875,-3.60107421875,-5.55419921875,-1.8310546875,-6.866455078125,-60.6500244140625,-25.6365966796875
1758528318.3914008,0.91064453125,-0.03759765625,0.50341796875,-3.60107421875,-5.55419921875,-1.8310546875,-6.8829345703125,-60.71044921875,-25.653076171875
1758528318.4015417,0.87353515625,-0.0927734375,0.4736328125,-7.01904296875,-5.7373046875,-1.89208984375,-6.9158935546875,-60.7708740234375,-25.6640625
1758528318.4113646,0.87353515625,-0.0927734375,0.4736328125,-7.01904296875,-5.7373046875,-1.89208984375,-6.96533203125,-60.831298828125,-25.6805419921875
1758528318.4212787,0.875,-0.08154296875,0.490234375,2.3193359375,-4.7607421875,-2.25830078125,-6.96533203125,-60.8807373046875,-25.697021484375
1758528318.4315615,0.875,-0.08154296875,0.490234375,2.3193359375,-4.7607421875,-2.25830078125,-6.9158935546875,-60.93017578125,-25.7244873046875
1758528318.4413545,0.90478515625,-0.0078125,0.48388671875,5.859375,-4.57763671875,-2.62451171875,-6.844482421875,-60.9796142578125,-25.751953125
1758528318.4514213,0.90478515625,-0.0078125,0.48388671875,5.859375,-4.57763671875,-2.62451171875,-6.7510986328125,-61.029052734375,-25.784912109375
1758528318.461394,0.912109375,-0.029296875,0.45703125,-7.99560546875,-6.65283203125,-1.46484375,-6.734619140625,-61.0894775390625,-25.8013916015625
1758528318.4713693,0.912109375,-0.029296875,0.45703125,-7.99560546875,-6.65283203125,-1.46484375,-6.800537109375,-61.1553955078125,-25.806884765625
1758528318.4814298,0.814453125,-0.107421875,0.486328125,-5.31005859375,-5.67626953125,-2.685546875,-6.8389892578125,-61.2213134765625,-25.828857421875
1758528318.4915814,0.814453125,-0.107421875,0.486328125,-5.31005859375,-5.67626953125,-2.685546875,-6.85546875,-61.28173828125,-25.86181640625
1758528318.5016012,0.845703125,-0.09619140625,0.4931640625,4.150390625,-2.0751953125,-3.173828125,-6.822509765625,-61.3201904296875,-25.9002685546875
1758528318.5113807,0.845703125,-0.09619140625,0.4931640625,4.150390625,-2.0751953125,-3.173828125,-6.734619140625,-61.3421630859375,-25.9552001953125
1758528318.521443,0.9052734375,-0.0234375,0.423828125,5.06591796875,-2.50244140625,-2.3193359375,-6.646728515625,-61.3641357421875,-25.9991455078125
1758528318.531662,0.9052734375,-0.0234375,0.423828125,5.06591796875,-2.50244140625,-2.3193359375,-6.5643310546875,-61.3861083984375,-26.026611328125
1758528318.541403,0.88134765625,-0.02197265625,0.48779296875,-7.87353515625,-3.90625,-0.9765625,-6.558837890625,-61.424560546875,-26.0430908203125
1758528318.5514152,0.88134765625,-0.02197265625,0.48779296875,-7.87353515625,-3.90625,-0.9765625,-6.6302490234375,-61.4630126953125,-26.0430908203125
1758528318.5615506,0.78759765625,-0.07568359375,0.39990234375,-14.09912109375,-2.74658203125,-0.3662109375,-6.734619140625,-61.4959716796875,-26.0430908203125
1758528318.5714183,0.78759765625,-0.07568359375,0.39990234375,-14.09912109375,-2.74658203125,-0.3662109375,-6.8719482421875,-61.5234375,-26.0321044921875
1758528318.5815125,0.7939453125,-0.11376953125,0.517578125,2.3193359375,1.0986328125,-0.48828125,-6.9268798828125,-61.534423828125,-26.026611328125
1758528318.5917084,0.7939453125,-0.11376953125,0.517578125,2.3193359375,1.0986328125,-0.48828125,-6.8994140625,-61.5179443359375,-26.0321044921875
1758528318.6018279,0.8935546875,-0.01904296875,0.3408203125,-1.77001953125,-0.54931640625,0.18310546875,-6.8994140625,-61.512451171875,-26.026611328125
1758528318.6114974,0.8935546875,-0.01904296875,0.3408203125,-1.77001953125,-0.54931640625,0.18310546875,-6.9268798828125,-61.5179443359375,-26.0101318359375
1758528318.6215641,0.83154296875,-0.0751953125,0.54345703125,-3.90625,-0.732421875,0.732421875,-6.96533203125,-61.5289306640625,-25.982666015625
1758528318.632451,0.83154296875,-0.0751953125,0.54345703125,-3.90625,-0.732421875,0.732421875,-7.0257568359375,-61.534423828125,-25.9552001953125
1758528318.6420033,0.84130859375,-0.0634765625,0.37353515625,-3.96728515625,-0.8544921875,0.48828125,-7.0806884765625,-61.5399169921875,-25.9332275390625
1758528318.6515348,0.84130859375,-0.0634765625,0.37353515625,-3.96728515625,-0.8544921875,0.48828125,-7.1356201171875,-61.54541015625,-25.90576171875
1758528318.6615736,0.83349609375,-0.0595703125,0.4638671875,-3.35693359375,-0.244140625,0.3662109375,-7.1795654296875,-61.5509033203125,-25.8837890625
1758528318.6724029,0.83349609375,-0.0595703125,0.4638671875,-3.35693359375,-0.244140625,0.3662109375,-7.2235107421875,-61.5509033203125,-25.86181640625
1758528318.6815743,0.8779296875,-0.044921875,0.4404296875,-2.197265625,-0.54931640625,0.48828125,-7.2564697265625,-61.556396484375,-25.83984375
1758528318.6915715,0.8779296875,-0.044921875,0.4404296875,-2.197265625,-0.54931640625,0.48828125,-7.2894287109375,-61.5673828125,-25.81787109375
1758528318.7020648,0.8662109375,-0.07763671875,0.50244140625,0.91552734375,0.244140625,0.06103515625,-7.283935546875,-61.5618896484375,-25.806884765625
1758528318.711648,0.8662109375,-0.07763671875,0.50244140625,0.91552734375,0.244140625,0.06103515625,-7.27294921875,-61.5618896484375,-25.7958984375
1758528318.7217073,0.88037109375,-0.0400390625,0.46484375,2.5634765625,1.40380859375,-0.79345703125,-7.2344970703125,-61.54541015625,-25.806884765625
1758528318.7316675,0.88037109375,-0.0400390625,0.46484375,2.5634765625,1.40380859375,-0.79345703125,-7.1905517578125,-61.534423828125,-25.81787109375
1758528318.7416449,0.923828125,-0.06689453125,0.4609375,-0.79345703125,0.6103515625,-0.67138671875,-7.18505859375,-61.5289306640625,-25.8233642578125
1758528318.7516813,0.923828125,-0.06689453125,0.4609375,-0.79345703125,0.6103515625,-0.67138671875,-7.1795654296875,-61.5289306640625,-25.828857421875
1758528318.7617216,0.88720703125,-0.07373046875,0.4931640625,-0.18310546875,0.1220703125,-0.8544921875,-7.1685791015625,-61.5289306640625,-25.8343505859375
1758528318.7717566,0.88720703125,-0.07373046875,0.4931640625,-0.18310546875,0.1220703125,-0.8544921875,-7.152099609375,-61.5289306640625,-25.8453369140625
1758528318.781793,0.896484375,-0.04248046875,0.4404296875,1.89208984375,0.0,-1.46484375,-7.108154296875,-61.534423828125,-25.86181640625
1758528318.7923422,0.896484375,-0.04248046875,0.4404296875,1.89208984375,0.0,-1.46484375,-7.064208984375,-61.5399169921875,-25.8837890625
1758528318.8017259,0.92431640625,-0.0439453125,0.51025390625,1.708984375,0.0,-1.64794921875,-7.020263671875,-61.5399169921875,-25.90576171875
1758528318.8117566,0.92431640625,-0.0439453125,0.51025390625,1.708984375,0.0,-1.64794921875,-6.9708251953125,-61.54541015625,-25.927734375
1758528318.8218043,0.92626953125,-0.0791015625,0.5087890625,-0.67138671875,0.30517578125,-1.03759765625,-6.954345703125,-61.54541015625,-25.9442138671875
1758528318.8320186,0.92626953125,-0.0791015625,0.5087890625,-0.67138671875,0.30517578125,-1.03759765625,-6.943359375,-61.54541015625,-25.9552001953125
1758528318.8418636,0.90087890625,-0.07470703125,0.4482421875,-1.46484375,0.0,-0.732421875,-6.9488525390625,-61.54541015625,-25.9552001953125
1758528318.851816,0.90087890625,-0.07470703125,0.4482421875,-1.46484375,0.0,-0.732421875,-6.954345703125,-61.5509033203125,-25.960693359375
1758528318.861876,0.91845703125,-0.06494140625,0.4921875,2.74658203125,0.0,-0.54931640625,-6.9158935546875,-61.556396484375,-25.960693359375
1758528318.8717732,0.91845703125,-0.06494140625,0.4921875,2.74658203125,0.0,-0.54931640625,-6.8829345703125,-61.556396484375,-25.960693359375
1758528318.8818252,0.9345703125,-0.0361328125,0.4931640625,0.67138671875,-0.244140625,0.3662109375,-6.888427734375,-61.5618896484375,-25.938720703125
1758528318.8921804,0.9345703125,-0.0361328125,0.4931640625,0.67138671875,-0.244140625,0.3662109375,-6.888427734375,-61.5673828125,-25.9222412109375
1758528318.9021144,0.9384765625,-0.0634765625,0.4814453125,-5.2490234375,-1.28173828125,0.9765625,-6.9598388671875,-61.578369140625,-25.8837890625
1758528318.9117987,0.9384765625,-0.0634765625,0.4814453125,-5.2490234375,-1.28173828125,0.9765625,-7.0367431640625,-61.5948486328125,-25.850830078125
1758528318.9222314,0.9208984375,-0.10009765625,0.513671875,-2.62451171875,-1.220703125,1.0986328125,-7.086181640625,-61.6058349609375,-25.8123779296875
1758528318.9327815,0.9208984375,-0.10009765625,0.513671875,-2.62451171875,-1.220703125,1.0986328125,-7.14111328125,-61.6168212890625,-25.77392578125
1758528318.942192,0.9052734375,-0.05126953125,0.4560546875,0.0,-1.28173828125,1.46484375,-7.174072265625,-61.6278076171875,-25.72998046875
1758528318.9518275,0.9052734375,-0.05126953125,0.4560546875,0.0,-1.28173828125,1.46484375,-7.20703125,-61.644287109375,-25.68603515625
1758528318.9619293,0.8935546875,-0.0341796875,0.4814453125,-0.6103515625,-1.40380859375,1.5869140625,-7.2454833984375,-61.6552734375,-25.6365966796875
1758528318.9724343,0.8935546875,-0.0341796875,0.4814453125,-0.6103515625,-1.40380859375,1.5869140625,-7.2784423828125,-61.6717529296875,-25.5926513671875
1758528318.9819052,0.88427734375,-0.04931640625,0.47314453125,-5.0048828125,-1.52587890625,1.77001953125,-7.3663330078125,-61.688232421875,-25.543212890625
1758528318.9918659,0.88427734375,-0.04931640625,0.47314453125,-5.0048828125,-1.52587890625,1.77001953125,-7.4432373046875,-61.69921875,-25.499267578125
1758528319.0023303,0.88427734375,-0.04931640625,0.47314453125,-4.638671875,-1.77001953125,1.77001953125,-7.525634765625,-61.7156982421875,-25.4498291015625
1758528319.011891,0.86767578125,-0.08203125,0.4453125,-4.638671875,-1.77001953125,1.77001953125,-7.6080322265625,-61.732177734375,-25.400390625
1758528319.0219362,0.853515625,-0.080078125,0.45166015625,-3.0517578125,-1.220703125,2.0751953125,-7.679443359375,-61.7431640625,-25.3399658203125
1758528319.032259,0.853515625,-0.080078125,0.45166015625,-3.0517578125,-1.220703125,2.0751953125,-7.7508544921875,-61.754150390625,-25.2850341796875
1758528319.0421445,0.84912109375,-0.04443359375,0.44091796875,-3.23486328125,-1.0986328125,2.50244140625,-7.833251953125,-61.76513671875,-25.224609375
1758528319.0519655,0.84912109375,-0.04443359375,0.44091796875,-3.23486328125,-1.0986328125,2.50244140625,-7.91015625,-61.7706298828125,-25.15869140625
1758528319.0620208,0.88134765625,-0.0615234375,0.45361328125,-3.5400390625,-0.8544921875,2.5634765625,-7.9925537109375,-61.7816162109375,-25.0982666015625
1758528319.072254,0.88134765625,-0.0615234375,0.45361328125,-3.5400390625,-0.8544921875,2.5634765625,-8.074951171875,-61.787109375,-25.0323486328125
1758528319.081989,0.9208984375,-0.0908203125,0.478515625,-1.8310546875,-0.732421875,2.25830078125,-8.1353759765625,-61.7926025390625,-24.971923828125
1758528319.0922441,0.9208984375,-0.0908203125,0.478515625,-1.8310546875,-0.732421875,2.25830078125,-8.19580078125,-61.798095703125,-24.9169921875
1758528319.1026723,0.90478515625,-0.06689453125,0.48974609375,-1.28173828125,-0.732421875,2.13623046875,-8.250732421875,-61.8035888671875,-24.862060546875
1758528319.1119888,0.90478515625,-0.06689453125,0.48974609375,-1.28173828125,-0.732421875,2.13623046875,-8.3056640625,-61.80908203125,-24.80712890625
1758528319.1220305,0.90234375,-0.0576171875,0.4521484375,-3.11279296875,-0.79345703125,2.44140625,-8.3770751953125,-61.8145751953125,-24.7467041015625
1758528319.132459,0.90234375,-0.0576171875,0.4521484375,-3.11279296875,-0.79345703125,2.44140625,-8.4539794921875,-61.820068359375,-24.686279296875
1758528319.1424687,0.91455078125,-0.0771484375,0.484375,-0.244140625,-0.79345703125,2.685546875,-8.50341796875,-61.8310546875,-24.620361328125
1758528319.152048,0.91455078125,-0.0771484375,0.484375,-0.244140625,-0.79345703125,2.685546875,-8.558349609375,-61.8365478515625,-24.554443359375
1758528319.1620934,0.94775390625,-0.083984375,0.4833984375,1.03759765625,-0.91552734375,2.38037109375,-8.59130859375,-61.842041015625,-24.4940185546875
1758528319.172515,0.94775390625,-0.083984375,0.4833984375,1.03759765625,-0.91552734375,2.38037109375,-8.624267578125,-61.8475341796875,-24.4281005859375
1758528319.1821108,0.95361328125,-0.1083984375,0.4990234375,1.5869140625,-1.5869140625,2.685546875,-8.668212890625,-61.864013671875,-24.356689453125
1758528319.1921873,0.95361328125,-0.1083984375,0.4990234375,1.5869140625,-1.5869140625,2.685546875,-8.7066650390625,-61.875,-24.2852783203125
1758528319.2026002,0.93798828125,-0.08447265625,0.482421875,1.8310546875,-2.13623046875,3.173828125,-8.756103515625,-61.89697265625,-24.202880859375
1758528319.212168,0.93798828125,-0.08447265625,0.482421875,1.8310546875,-2.13623046875,3.173828125,-8.8055419921875,-61.9134521484375,-24.1204833984375
1758528319.2221284,0.91162109375,-0.0537109375,0.43896484375,-0.67138671875,-2.197265625,3.662109375,-8.887939453125,-61.929931640625,-24.0216064453125
1758528319.2325168,0.91162109375,-0.0537109375,0.43896484375,-0.67138671875,-2.197265625,3.662109375,-8.9703369140625,-61.951904296875,-23.92822265625
1758528319.2421494,0.892578125,-0.0791015625,0.49560546875,3.7841796875,-2.13623046875,3.60107421875,-9.0032958984375,-61.9683837890625,-23.8348388671875
1758528319.2521122,0.892578125,-0.0791015625,0.49560546875,3.7841796875,-2.13623046875,3.60107421875,-9.041748046875,-61.98486328125,-23.741455078125
1758528319.2627394,0.8837890625,-0.07763671875,0.4326171875,2.50244140625,-2.86865234375,3.173828125,-9.0802001953125,-62.0123291015625,-23.6590576171875
1758528319.2724483,0.8837890625,-0.07763671875,0.4326171875,2.50244140625,-2.86865234375,3.173828125,-9.1241455078125,-62.0343017578125,-23.5711669921875
1758528319.2821515,0.857421875,-0.06396484375,0.44384765625,1.46484375,-3.60107421875,2.44140625,-9.1680908203125,-62.07275390625,-23.499755859375
1758528319.2921603,0.857421875,-0.06396484375,0.44384765625,1.46484375,-3.60107421875,2.44140625,-9.20654296875,-62.105712890625,-23.4283447265625
1758528319.3027475,0.8466796875,-0.0625,0.42333984375,0.6103515625,-3.47900390625,2.13623046875,-9.25048828125,-62.138671875,-23.3624267578125
1758528319.3121738,0.8466796875,-0.0625,0.42333984375,0.6103515625,-3.47900390625,2.13623046875,-9.2889404296875,-62.171630859375,-23.2965087890625
1758528319.322176,0.84619140625,-0.08203125,0.4365234375,3.11279296875,-2.99072265625,1.77001953125,-9.2999267578125,-62.1990966796875,-23.2415771484375
1758528319.332614,0.84619140625,-0.08203125,0.4365234375,3.11279296875,-2.99072265625,1.77001953125,-9.3109130859375,-62.2265625,-23.1866455078125
1758528319.3425016,0.857421875,-0.08837890625,0.44921875,5.06591796875,-2.3193359375,1.5869140625,-9.29443359375,-62.24853515625,-23.1317138671875
1758528319.3522253,0.857421875,-0.08837890625,0.44921875,5.06591796875,-2.3193359375,1.5869140625,-9.283447265625,-62.2705078125,-23.082275390625
1758528319.362271,0.8427734375,-0.06640625,0.44091796875,1.89208984375,-2.3193359375,1.708984375,-9.305419921875,-62.29248046875,-23.0328369140625
1758528319.372752,0.8427734375,-0.06640625,0.44091796875,1.89208984375,-2.3193359375,1.708984375,-9.327392578125,-62.314453125,-22.9779052734375
1758528319.3822694,0.8388671875,-0.0732421875,0.41748046875,0.8544921875,-2.197265625,1.89208984375,-9.3603515625,-62.3309326171875,-22.9229736328125
1758528319.392488,0.8388671875,-0.0732421875,0.41748046875,0.8544921875,-2.197265625,1.89208984375,-9.393310546875,-62.3529052734375,-22.8680419921875
1758528319.4025848,0.88037109375,-0.095703125,0.4423828125,4.638671875,-1.708984375,1.708984375,-9.3878173828125,-62.3638916015625,-22.818603515625
1758528319.4122734,0.88037109375,-0.095703125,0.4423828125,4.638671875,-1.708984375,1.708984375,-9.38232421875,-62.38037109375,-22.763671875
1758528319.422311,0.90576171875,-0.076171875,0.49609375,6.77490234375,-0.8544921875,1.77001953125,-9.3548583984375,-62.3858642578125,-22.7142333984375
1758528319.432483,0.90576171875,-0.076171875,0.49609375,6.77490234375,-0.8544921875,1.77001953125,-9.327392578125,-62.391357421875,-22.6702880859375
1758528319.4423037,0.89208984375,-0.0419921875,0.4443359375,0.30517578125,-0.91552734375,2.3193359375,-9.371337890625,-62.3968505859375,-22.60986328125
1758528319.4522693,0.89208984375,-0.0419921875,0.4443359375,0.30517578125,-0.91552734375,2.3193359375,-9.4097900390625,-62.40234375,-22.554931640625
1758528319.4625118,0.888671875,-0.044921875,0.419921875,-5.55419921875,-1.5869140625,2.13623046875,-9.5086669921875,-62.4188232421875,-22.5
1758528319.4724276,0.888671875,-0.044921875,0.419921875,-5.55419921875,-1.5869140625,2.13623046875,-9.60205078125,-62.4298095703125,-22.445068359375
1758528319.4823098,0.89697265625,-0.12939453125,0.4794921875,2.685546875,-1.46484375,1.40380859375,-9.60205078125,-62.4462890625,-22.4066162109375
1758528319.4925478,0.89697265625,-0.12939453125,0.4794921875,2.685546875,-1.46484375,1.40380859375,-9.6075439453125,-62.457275390625,-22.3626708984375
1758528319.5026095,0.91552734375,-0.0869140625,0.4560546875,7.62939453125,-1.28173828125,1.15966796875,-9.55810546875,-62.46826171875,-22.32421875
1758528319.51229,0.91552734375,-0.0869140625,0.4560546875,7.62939453125,-1.28173828125,1.15966796875,-9.5086669921875,-62.479248046875,-22.291259765625
1758528319.5224059,0.9130859375,-0.0517578125,0.46484375,2.62451171875,-1.40380859375,1.77001953125,-9.525146484375,-62.4957275390625,-22.236328125
1758528319.5333314,0.9130859375,-0.0517578125,0.46484375,2.62451171875,-1.40380859375,1.77001953125,-9.5361328125,-62.5067138671875,-22.1868896484375
1758528319.5429025,0.90673828125,-0.06591796875,0.466796875,-3.7841796875,-1.708984375,2.197265625,-9.6185302734375,-62.5177001953125,-22.1319580078125
1758528319.5523763,0.90673828125,-0.06591796875,0.466796875,-3.7841796875,-1.708984375,2.197265625,-9.700927734375,-62.5341796875,-22.071533203125
1758528319.5626893,0.90478515625,-0.09912109375,0.44140625,0.67138671875,-1.953125,1.708984375,-9.7283935546875,-62.5506591796875,-22.0220947265625
1758528319.572632,0.90478515625,-0.09912109375,0.44140625,0.67138671875,-1.953125,1.708984375,-9.7613525390625,-62.567138671875,-21.97265625
1758528319.5824604,0.9052734375,-0.08642578125,0.45947265625,6.2255859375,-1.708984375,1.15966796875,-9.722900390625,-62.5836181640625,-21.9342041015625
1758528319.592815,0.9052734375,-0.08642578125,0.45947265625,6.2255859375,-1.708984375,1.15966796875,-9.68994140625,-62.60009765625,-21.895751953125
1758528319.6027,0.904296875,-0.0361328125,0.455078125,1.953125,-1.64794921875,1.0986328125,-9.6954345703125,-62.6165771484375,-21.8572998046875
1758528319.6124034,0.904296875,-0.0361328125,0.455078125,1.953125,-1.64794921875,1.0986328125,-9.700927734375,-62.633056640625,-21.8243408203125
1758528319.622434,0.90185546875,-0.0556640625,0.44189453125,-4.45556640625,-1.5869140625,1.40380859375,-9.7723388671875,-62.6495361328125,-21.785888671875
1758528319.6329396,0.90185546875,-0.0556640625,0.44189453125,-4.45556640625,-1.5869140625,1.40380859375,-9.8382568359375,-62.666015625,-21.7474365234375
1758528319.6424725,0.89892578125,-0.1005859375,0.47216796875,-5.92041015625,-1.5869140625,1.52587890625,-9.9261474609375,-62.677001953125,-21.708984375
1758528319.6524382,0.89892578125,-0.1005859375,0.47216796875,-5.92041015625,-1.5869140625,1.52587890625,-10.0140380859375,-62.6934814453125,-21.6650390625
1758528319.6625059,0.90087890625,-0.0732421875,0.4248046875,-4.7607421875,-1.64794921875,1.64794921875,-10.096435546875,-62.7044677734375,-21.6156005859375
1758528319.672446,0.90087890625,-0.0732421875,0.4248046875,-4.7607421875,-1.64794921875,1.64794921875,-10.17333984375,-62.720947265625,-21.5716552734375
1758528319.682504,0.91748046875,-0.0849609375,0.47607421875,-3.84521484375,-1.5869140625,1.64794921875,-10.2447509765625,-62.7374267578125,-21.522216796875
1758528319.6931126,0.91748046875,-0.0849609375,0.47607421875,-3.84521484375,-1.5869140625,1.64794921875,-10.316162109375,-62.7484130859375,-21.478271484375
1758528319.70252,0.89599609375,-0.07958984375,0.43310546875,-2.685546875,-1.15966796875,1.220703125,-10.3656005859375,-62.7593994140625,-21.4398193359375
1758528319.7125115,0.880859375,-0.09765625,0.44384765625,-3.23486328125,-1.40380859375,1.15966796875,-10.4205322265625,-62.77587890625,-21.4068603515625
1758528319.7225695,0.880859375,-0.09765625,0.44384765625,-3.23486328125,-1.40380859375,1.15966796875,-10.4754638671875,-62.786865234375,-21.368408203125
1758528319.7330258,0.86474609375,-0.07763671875,0.41552734375,-5.7373046875,-1.52587890625,1.220703125,-10.546875,-62.7978515625,-21.3299560546875
1758528319.7425926,0.86474609375,-0.07763671875,0.41552734375,-5.7373046875,-1.52587890625,1.220703125,-10.6292724609375,-62.8143310546875,-21.29150390625
1758528319.752593,0.88232421875,-0.09814453125,0.4404296875,-1.46484375,-1.46484375,1.40380859375,-10.6951904296875,-62.830810546875,-21.2530517578125
1758528319.7626827,0.88232421875,-0.09814453125,0.4404296875,-1.46484375,-1.46484375,1.40380859375,-10.7391357421875,-62.841796875,-21.2091064453125
1758528319.772564,0.88818359375,-0.08837890625,0.44970703125,1.52587890625,-0.91552734375,1.52587890625,-10.7720947265625,-62.852783203125,-21.1651611328125
1758528319.7826087,0.88818359375,-0.08837890625,0.44970703125,1.52587890625,-0.91552734375,1.52587890625,-10.78857421875,-62.8582763671875,-21.1212158203125
1758528319.793186,0.8955078125,-0.0869140625,0.4287109375,0.67138671875,-0.54931640625,1.708984375,-10.810546875,-62.86376953125,-21.0772705078125
1758528319.8029819,0.8955078125,-0.0869140625,0.4287109375,0.67138671875,-0.54931640625,1.708984375,-10.8380126953125,-62.8692626953125,-21.02783203125
1758528319.81262,0.8662109375,-0.08935546875,0.4580078125,-3.90625,-0.42724609375,2.01416015625,-10.8929443359375,-62.874755859375,-20.9783935546875
1758528319.8226533,0.8662109375,-0.08935546875,0.4580078125,-3.90625,-0.42724609375,2.01416015625,-10.9698486328125,-62.874755859375,-20.928955078125
1758528319.833495,0.869140625,-0.08203125,0.3994140625,-4.150390625,-0.6103515625,1.953125,-11.0467529296875,-62.874755859375,-20.8795166015625
1758528319.8430436,0.869140625,-0.08203125,0.3994140625,-4.150390625,-0.6103515625,1.953125,-11.129150390625,-62.8802490234375,-20.830078125
1758528319.852666,0.8662109375,-0.095703125,0.43798828125,-1.15966796875,-0.732421875,1.708984375,-11.195068359375,-62.8857421875,-20.7806396484375
1758528319.8629394,0.8662109375,-0.095703125,0.43798828125,-1.15966796875,-0.732421875,1.708984375,-11.239013671875,-62.8912353515625,-20.731201171875
1758528319.872945,0.8740234375,-0.1005859375,0.42724609375,-1.708984375,-0.54931640625,1.40380859375,-11.2884521484375,-62.896728515625,-20.687255859375
1758528319.8826778,0.8740234375,-0.1005859375,0.42724609375,-1.708984375,-0.54931640625,1.40380859375,-11.3323974609375,-62.9022216796875,-20.6488037109375
1758528319.8929515,0.8818359375,-0.09033203125,0.4541015625,-1.77001953125,0.0,1.77001953125,-11.3818359375,-62.9022216796875,-20.6048583984375
1758528319.9029386,0.8818359375,-0.09033203125,0.4541015625,-1.77001953125,0.0,1.77001953125,-11.436767578125,-62.896728515625,-20.5609130859375
1758528319.9127066,0.88671875,-0.06884765625,0.4375,-4.33349609375,0.0,1.89208984375,-11.502685546875,-62.896728515625,-20.5169677734375
1758528319.9227562,0.88671875,-0.06884765625,0.4375,-4.33349609375,0.0,1.89208984375,-11.57958984375,-62.8912353515625,-20.4730224609375
1758528319.9331732,0.89501953125,-0.09814453125,0.42041015625,-0.732421875,-0.1220703125,1.0986328125,-11.6290283203125,-62.8912353515625,-20.4345703125
1758528319.9427476,0.89501953125,-0.09814453125,0.42041015625,-0.732421875,-0.1220703125,1.0986328125,-11.656494140625,-62.896728515625,-20.401611328125
1758528319.9527175,0.908203125,-0.11767578125,0.4580078125,1.52587890625,-0.3662109375,0.8544921875,-11.6729736328125,-62.896728515625,-20.3741455078125
1758528319.962848,0.908203125,-0.11767578125,0.4580078125,1.52587890625,-0.3662109375,0.8544921875,-11.6729736328125,-62.9022216796875,-20.3466796875
1758528319.9727178,0.9775390625,-0.07470703125,0.44873046875,-1.46484375,-1.46484375,0.79345703125,-11.6949462890625,-62.90771484375,-20.3192138671875
1758528319.9827495,0.9775390625,-0.07470703125,0.44873046875,-1.46484375,-1.46484375,0.79345703125,-11.7333984375,-62.9241943359375,-20.2862548828125
1758528319.9937317,0.97021484375,-0.0625,0.498046875,-3.11279296875,-2.01416015625,-0.54931640625,-11.7608642578125,-62.9461669921875,-20.2642822265625
1758528320.0028155,0.97021484375,-0.0625,0.498046875,-3.11279296875,-2.01416015625,-0.54931640625,-11.7828369140625,-62.9681396484375,-20.2642822265625
1758528320.0127401,0.94482421875,-0.076171875,0.4755859375,-0.54931640625,-2.50244140625,-2.5634765625,-11.77734375,-62.99560546875,-20.28076171875
1758528320.0228753,0.94482421875,-0.076171875,0.4755859375,-0.54931640625,-2.50244140625,-2.5634765625,-11.7333984375,-63.028564453125,-20.32470703125
1758528320.0333269,0.92919921875,-0.10693359375,0.4462890625,3.47900390625,-2.86865234375,-4.57763671875,-11.656494140625,-63.0615234375,-20.3851318359375
1758528320.0428379,0.92919921875,-0.10693359375,0.4462890625,3.47900390625,-2.86865234375,-4.57763671875,-11.53564453125,-63.10546875,-20.467529296875
1758528320.052835,0.91064453125,-0.099609375,0.439453125,3.90625,-3.23486328125,-5.126953125,-11.414794921875,-63.1439208984375,-20.555419921875
1758528320.0630102,0.91064453125,-0.099609375,0.439453125,3.90625,-3.23486328125,-5.126953125,-11.2884521484375,-63.1878662109375,-20.643310546875
1758528320.0728402,0.8955078125,-0.06494140625,0.44775390625,-1.64794921875,-3.173828125,-3.72314453125,-11.2060546875,-63.226318359375,-20.72021484375
1758528320.082976,0.8955078125,-0.06494140625,0.44775390625,-1.64794921875,-3.173828125,-3.72314453125,-11.1566162109375,-63.270263671875,-20.7806396484375
1758528320.0932279,0.88330078125,-0.09228515625,0.41650390625,-2.44140625,-3.11279296875,-2.38037109375,-11.129150390625,-63.30322265625,-20.830078125
1758528320.1030002,0.88330078125,-0.09228515625,0.41650390625,-2.44140625,-3.11279296875,-2.38037109375,-11.1181640625,-63.3416748046875,-20.863037109375
1758528320.1129723,0.87158203125,-0.125,0.41796875,-0.91552734375,-2.9296875,-1.40380859375,-11.107177734375,-63.3746337890625,-20.885009765625
1758528320.1229033,0.87158203125,-0.125,0.41796875,-0.91552734375,-2.9296875,-1.40380859375,-11.107177734375,-63.4075927734375,-20.8905029296875
1758528320.133277,0.865234375,-0.107421875,0.42236328125,1.89208984375,-2.685546875,-0.67138671875,-11.09619140625,-63.4405517578125,-20.8905029296875
1758528320.1429899,0.865234375,-0.107421875,0.42236328125,1.89208984375,-2.685546875,-0.67138671875,-11.085205078125,-63.468017578125,-20.8795166015625
1758528320.152903,0.86669921875,-0.0810546875,0.42333984375,0.54931640625,-2.74658203125,0.0,-11.0797119140625,-63.4954833984375,-20.8685302734375
1758528320.163111,0.86669921875,-0.0810546875,0.42333984375,0.54931640625,-2.74658203125,0.0,-11.09619140625,-63.52294921875,-20.8465576171875
1758528320.172994,0.87841796875,-0.0859375,0.38818359375,-4.39453125,-3.35693359375,0.91552734375,-11.14013671875,-63.5504150390625,-20.8135986328125
1758528320.1829927,0.87841796875,-0.0859375,0.38818359375,-4.39453125,-3.35693359375,0.91552734375,-11.2225341796875,-63.5833740234375,-20.76416015625
1758528320.1933587,0.8818359375,-0.10302734375,0.44091796875,-1.5869140625,-3.2958984375,0.67138671875,-11.2884521484375,-63.6163330078125,-20.72021484375
1758528320.203138,0.8818359375,-0.10302734375,0.44091796875,-1.5869140625,-3.2958984375,0.67138671875,-11.3323974609375,-63.643798828125,-20.6817626953125
1758528320.2129788,0.88427734375,-0.0849609375,0.423828125,-0.6103515625,-2.86865234375,0.91552734375,-11.3763427734375,-63.6767578125,-20.6378173828125
1758528320.223023,0.88427734375,-0.0849609375,0.423828125,-0.6103515625,-2.86865234375,0.91552734375,-11.4202880859375,-63.7042236328125,-20.5938720703125
1758528320.2334766,0.8876953125,-0.08935546875,0.42431640625,0.732421875,-2.38037109375,0.6103515625,-11.44775390625,-63.7261962890625,-20.555419921875
1758528320.243002,0.8876953125,-0.08935546875,0.42431640625,0.732421875,-2.38037109375,0.6103515625,-11.4697265625,-63.7481689453125,-20.5224609375
1758528320.2530918,0.8955078125,-0.08984375,0.41552734375,-2.13623046875,-2.25830078125,0.6103515625,-11.502685546875,-63.7701416015625,-20.489501953125
1758528320.263372,0.8955078125,-0.08984375,0.41552734375,-2.13623046875,-2.25830078125,0.6103515625,-11.546630859375,-63.7921142578125,-20.45654296875
1758528320.2730129,0.89892578125,-0.08642578125,0.4404296875,-3.2958984375,-2.01416015625,0.91552734375,-11.6015625,-63.8140869140625,-20.423583984375
1758528320.2830386,0.89892578125,-0.08642578125,0.4404296875,-3.2958984375,-2.01416015625,0.91552734375,-11.6619873046875,-63.83056640625,-20.3851318359375
1758528320.2940364,0.8935546875,-0.080078125,0.4267578125,-5.859375,-1.5869140625,1.3427734375,-11.7388916015625,-63.8470458984375,-20.3466796875
1758528320.3030794,0.8935546875,-0.080078125,0.4267578125,-5.859375,-1.5869140625,1.3427734375,-11.832275390625,-63.8580322265625,-20.302734375
1758528320.3130302,0.90185546875,-0.1015625,0.41650390625,-5.18798828125,-1.03759765625,1.708984375,-11.920166015625,-63.8690185546875,-20.2532958984375
1758528320.323308,0.90185546875,-0.1015625,0.41650390625,-5.18798828125,-1.03759765625,1.708984375,-12.0135498046875,-63.87451171875,-20.203857421875
1758528320.3335323,0.91943359375,-0.12548828125,0.44189453125,-2.01416015625,-0.6103515625,1.52587890625,-12.0849609375,-63.8800048828125,-20.1544189453125
1758528320.343125,0.91943359375,-0.12548828125,0.44189453125,-2.01416015625,-0.6103515625,1.52587890625,-12.139892578125,-63.885498046875,-20.10498046875
1758528320.3531246,0.9296875,-0.080078125,0.412109375,-1.708984375,-0.54931640625,1.28173828125,-12.19482421875,-63.885498046875,-20.06103515625
1758528320.3632162,0.9296875,-0.080078125,0.412109375,-1.708984375,-0.54931640625,1.28173828125,-12.23876953125,-63.8909912109375,-20.01708984375
1758528320.3731375,0.91943359375,-0.0693359375,0.462890625,-4.638671875,-0.67138671875,1.28173828125,-12.2991943359375,-63.896484375,-19.9786376953125
1758528320.3831236,0.91943359375,-0.0693359375,0.462890625,-4.638671875,-0.67138671875,1.28173828125,-12.37060546875,-63.9019775390625,-19.9346923828125
1758528320.3933854,0.91650390625,-0.09619140625,0.43212890625,-4.5166015625,-0.67138671875,1.220703125,-12.4420166015625,-63.907470703125,-19.9017333984375
1758528320.4033384,0.91650390625,-0.09619140625,0.43212890625,-4.5166015625,-0.67138671875,1.220703125,-12.5079345703125,-63.9129638671875,-19.86328125
1758528320.4131634,0.93212890625,-0.11328125,0.4267578125,-3.0517578125,-1.03759765625,0.732421875,-12.568359375,-63.91845703125,-19.830322265625
1758528320.4235203,0.93212890625,-0.11328125,0.4267578125,-3.0517578125,-1.03759765625,0.732421875,-12.6123046875,-63.929443359375,-19.8028564453125
1758528320.4341786,0.94384765625,-0.08544921875,0.4560546875,-3.173828125,-1.03759765625,0.42724609375,-12.6617431640625,-63.9404296875,-19.775390625
1758528320.4435983,0.94384765625,-0.08544921875,0.4560546875,-3.173828125,-1.03759765625,0.42724609375,-12.7001953125,-63.951416015625,-19.7589111328125
1758528320.4531815,0.90869140625,-0.04541015625,0.4228515625,-7.080078125,-0.9765625,0.67138671875,-12.76611328125,-63.9569091796875,-19.7369384765625
1758528320.4636517,0.90869140625,-0.04541015625,0.4228515625,-7.080078125,-0.9765625,0.67138671875,-12.843017578125,-63.9678955078125,-19.70947265625
1758528320.4733627,0.89501953125,-0.13720703125,0.41943359375,-5.37109375,-0.91552734375,0.732421875,-12.9144287109375,-63.9788818359375,-19.6929931640625
1758528320.4835389,0.89501953125,-0.13720703125,0.41943359375,-5.37109375,-0.91552734375,0.732421875,-12.9803466796875,-63.984375,-19.66552734375
1758528320.4932451,0.9033203125,-0.150390625,0.40576171875,-1.0986328125,-1.3427734375,1.3427734375,-13.0352783203125,-63.995361328125,-19.632568359375
1758528320.5037029,0.9033203125,-0.150390625,0.40576171875,-1.0986328125,-1.3427734375,1.3427734375,-13.0792236328125,-64.00634765625,-19.588623046875
1758528320.5133507,0.90673828125,-0.099609375,0.41748046875,-0.1220703125,-2.3193359375,1.52587890625,-13.128662109375,-64.0228271484375,-19.53369140625
1758528320.5236216,0.90673828125,-0.099609375,0.41748046875,-0.1220703125,-2.3193359375,1.52587890625,-13.172607421875,-64.0447998046875,-19.478759765625
1758528320.533278,0.89990234375,-0.07666015625,0.42041015625,-2.13623046875,-2.5634765625,1.5869140625,-13.2330322265625,-64.0667724609375,-19.423828125
1758528320.5437243,0.89990234375,-0.07666015625,0.42041015625,-2.13623046875,-2.5634765625,1.5869140625,-13.29345703125,-64.0887451171875,-19.368896484375
1758528320.553299,0.88916015625,-0.099609375,0.41064453125,-4.08935546875,-2.62451171875,1.15966796875,-13.3648681640625,-64.1162109375,-19.31396484375
1758528320.563612,0.88916015625,-0.099609375,0.41064453125,-4.08935546875,-2.62451171875,1.15966796875,-13.4417724609375,-64.13818359375,-19.27001953125
1758528320.573632,0.8837890625,-0.11669921875,0.40087890625,-1.8310546875,-2.62451171875,0.91552734375,-13.502197265625,-64.1656494140625,-19.22607421875
1758528320.5836434,0.8837890625,-0.11669921875,0.40087890625,-1.8310546875,-2.62451171875,0.91552734375,-13.5516357421875,-64.1876220703125,-19.18212890625
1758528320.5935216,0.8837890625,-0.095703125,0.39501953125,-1.953125,-3.11279296875,0.8544921875,-13.60107421875,-64.215087890625,-19.13818359375
1758528320.6036398,0.8837890625,-0.095703125,0.39501953125,-1.953125,-3.11279296875,0.8544921875,-13.656005859375,-64.248046875,-19.09423828125
1758528320.6133628,0.87060546875,-0.1103515625,0.3974609375,-2.62451171875,-3.7841796875,0.67138671875,-13.7109375,-64.281005859375,-19.0447998046875
1758528320.6236439,0.87060546875,-0.1103515625,0.3974609375,-2.62451171875,-3.7841796875,0.67138671875,-13.7713623046875,-64.3194580078125,-19.0008544921875
1758528320.6333404,0.884765625,-0.1220703125,0.4130859375,1.89208984375,-3.84521484375,0.0,-13.8043212890625,-64.35791015625,-18.96240234375
1758528320.6437607,0.884765625,-0.1220703125,0.4130859375,1.89208984375,-3.84521484375,0.0,-13.8043212890625,-64.3963623046875,-18.929443359375
1758528320.6534023,0.89453125,-0.09326171875,0.41357421875,3.84521484375,-3.60107421875,0.06103515625,-13.798828125,-64.4293212890625,-18.896484375
1758528320.6636472,0.89453125,-0.09326171875,0.41357421875,3.84521484375,-3.60107421875,0.06103515625,-13.7823486328125,-64.4677734375,-18.863525390625
1758528320.6736772,0.88330078125,-0.08154296875,0.404296875,0.48828125,-3.60107421875,0.42724609375,-13.787841796875,-64.500732421875,-18.83056640625
1758528320.6839373,0.88330078125,-0.08154296875,0.404296875,0.48828125,-3.60107421875,0.42724609375,-13.809814453125,-64.53369140625,-18.7921142578125
1758528320.6934433,0.87744140625,-0.109375,0.3935546875,-1.77001953125,-3.60107421875,0.91552734375,-13.8482666015625,-64.566650390625,-18.7481689453125
1758528320.7034533,0.87744140625,-0.109375,0.3935546875,-1.77001953125,-3.60107421875,0.91552734375,-13.897705078125,-64.599609375,-18.69873046875
1758528320.7138388,0.8984375,-0.1259765625,0.4130859375,-1.8310546875,-3.2958984375,1.28173828125,-13.9581298828125,-64.632568359375,-18.6492919921875
1758528320.723454,0.8984375,-0.1259765625,0.4130859375,-1.8310546875,-3.2958984375,1.28173828125,-14.0240478515625,-64.6600341796875,-18.5943603515625
1758528320.7336366,0.9111328125,-0.07177734375,0.4150390625,-6.40869140625,-3.11279296875,2.197265625,-14.117431640625,-64.6875,-18.5284423828125
1758528320.7436917,0.9111328125,-0.07177734375,0.4150390625,-6.40869140625,-3.11279296875,2.197265625,-14.2437744140625,-64.7149658203125,-18.45703125
1758528320.7536643,0.9482421875,-0.107421875,0.4169921875,-9.33837890625,-2.9296875,3.173828125,-14.3865966796875,-64.7369384765625,-18.3746337890625
1758528320.7634256,0.9482421875,-0.107421875,0.4169921875,-9.33837890625,-2.9296875,3.173828125,-14.556884765625,-64.7589111328125,-18.2757568359375
1758528320.7734802,0.9521484375,-0.15966796875,0.43310546875,-9.521484375,-2.5634765625,3.72314453125,-14.732666015625,-64.775390625,-18.1768798828125
1758528320.783903,0.9521484375,-0.15966796875,0.43310546875,-9.521484375,-2.5634765625,3.72314453125,-14.91943359375,-64.7918701171875,-18.072509765625
1758528320.7936246,0.96337890625,-0.11376953125,0.443359375,-7.4462890625,-2.197265625,4.0283203125,-15.09521484375,-64.8028564453125,-17.962646484375
1758528320.8034763,0.96337890625,-0.11376953125,0.443359375,-7.4462890625,-2.197265625,4.0283203125,-15.2655029296875,-64.8138427734375,-17.8472900390625
1758528320.8138814,0.92578125,-0.08544921875,0.40966796875,-10.68115234375,-2.44140625,4.39453125,-15.46875,-64.8248291015625,-17.73193359375
1758528320.8236787,0.92578125,-0.08544921875,0.40966796875,-10.68115234375,-2.44140625,4.39453125,-15.6719970703125,-64.84130859375,-17.611083984375
1758528320.833553,0.92236328125,-0.10888671875,0.41943359375,-10.19287109375,-2.44140625,4.08935546875,-15.8642578125,-64.852294921875,-17.501220703125
1758528320.843908,0.92236328125,-0.10888671875,0.41943359375,-10.19287109375,-2.44140625,4.08935546875,-16.0565185546875,-64.86328125,-17.391357421875
1758528320.853579,0.9326171875,-0.13916015625,0.4150390625,-9.1552734375,-1.708984375,3.23486328125,-16.2158203125,-64.874267578125,-17.3089599609375
1758528320.8637042,0.9326171875,-0.13916015625,0.4150390625,-9.1552734375,-1.708984375,3.23486328125,-16.3751220703125,-64.8797607421875,-17.2210693359375
1758528320.873728,0.90771484375,-0.1279296875,0.41162109375,-6.8359375,-0.79345703125,2.50244140625,-16.4959716796875,-64.8797607421875,-17.1551513671875
1758528320.8836768,0.90771484375,-0.1279296875,0.41162109375,-6.8359375,-0.79345703125,2.50244140625,-16.611328125,-64.8797607421875,-17.0892333984375
1758528320.8936346,0.87353515625,-0.11962890625,0.380859375,-6.77490234375,-0.3662109375,2.50244140625,-16.7266845703125,-64.8797607421875,-17.02880859375
1758528320.9037156,0.87353515625,-0.11962890625,0.380859375,-6.77490234375,-0.3662109375,2.50244140625,-16.842041015625,-64.874267578125,-16.9683837890625
1758528320.9140046,0.85693359375,-0.134765625,0.3544921875,-4.5166015625,-0.54931640625,3.0517578125,-16.951904296875,-64.8687744140625,-16.8914794921875
1758528320.9235778,0.85693359375,-0.134765625,0.3544921875,-4.5166015625,-0.54931640625,3.0517578125,-17.0562744140625,-64.8687744140625,-16.8145751953125
1758528320.933607,0.87451171875,-0.1572265625,0.392578125,-1.77001953125,-0.732421875,2.99072265625,-17.138671875,-64.8687744140625,-16.732177734375
1758528320.9440825,0.87451171875,-0.1572265625,0.392578125,-1.77001953125,-0.732421875,2.99072265625,-17.2265625,-64.8687744140625,-16.6497802734375
1758528320.953613,0.89794921875,-0.13037109375,0.39990234375,0.79345703125,-0.54931640625,2.99072265625,-17.2869873046875,-64.86328125,-16.5673828125
1758528320.9636033,0.89794921875,-0.13037109375,0.39990234375,0.79345703125,-0.54931640625,2.99072265625,-17.3419189453125,-64.86328125,-16.490478515625
1758528320.9736867,0.89453125,-0.1103515625,0.3955078125,0.54931640625,-0.1220703125,2.38037109375,-17.391357421875,-64.8577880859375,-16.424560546875
