timestamp,acc_x,acc_y,acc_z,gyro_x,gyro_y,gyro_z,angle_x,angle_y,angle_z
1759066562.6238325,-0.62060546875,-0.00537109375,0.78564453125,-0.18310546875,0.244140625,0.0,-0.472412109375,38.265380859375,67.1044921875
1759066562.633763,-0.62060546875,-0.00537109375,0.78564453125,-0.18310546875,0.244140625,0.0,-0.472412109375,38.265380859375,67.1044921875
1759066562.6437986,-0.6201171875,-0.00537109375,0.78369140625,-0.18310546875,0.244140625,0.0,-0.4779052734375,38.2708740234375,67.1044921875
1759066562.6539767,-0.6201171875,-0.00537109375,0.78369140625,-0.18310546875,0.244140625,0.0,-0.4779052734375,38.2708740234375,67.1044921875
1759066562.6637647,-0.62060546875,-0.00634765625,0.7822265625,-0.30517578125,0.244140625,0.0,-0.4779052734375,38.2763671875,67.1044921875
1759066562.6737614,-0.62060546875,-0.00634765625,0.7822265625,-0.30517578125,0.244140625,0.0,-0.4833984375,38.2763671875,67.1044921875
1759066562.683289,-0.62158203125,-0.0068359375,0.783203125,-0.30517578125,0.244140625,0.0,-0.4833984375,38.2818603515625,67.1044921875
1759066562.693429,-0.62158203125,-0.0068359375,0.783203125,-0.30517578125,0.244140625,0.0,-0.4888916015625,38.2818603515625,67.1044921875
1759066562.7033901,-0.62109375,-0.00634765625,0.7841796875,-0.18310546875,0.244140625,0.0,-0.4888916015625,38.287353515625,67.1044921875
1759066562.7122416,-0.62109375,-0.00634765625,0.7841796875,-0.18310546875,0.244140625,0.0,-0.494384765625,38.287353515625,67.1044921875
1759066562.7222023,-0.62109375,-0.0048828125,0.78466796875,0.0,0.244140625,0.0,-0.494384765625,38.2928466796875,67.1044921875
1759066562.7321901,-0.62109375,-0.0048828125,0.78466796875,0.0,0.244140625,0.0,-0.494384765625,38.2928466796875,67.1044921875
1759066562.7428002,-0.62158203125,-0.00537109375,0.783203125,-0.1220703125,0.18310546875,0.0,-0.494384765625,38.29833984375,67.1099853515625
1759066562.7523015,-0.62158203125,-0.00537109375,0.783203125,-0.1220703125,0.18310546875,0.0,-0.494384765625,38.29833984375,67.1099853515625
1759066562.76233,-0.6240234375,-0.00830078125,0.78125,-0.18310546875,0.244140625,0.0,-0.494384765625,38.3038330078125,67.1099853515625
1759066562.7722635,-0.6240234375,-0.00830078125,0.78125,-0.18310546875,0.244140625,0.0,-0.494384765625,38.3038330078125,67.1099853515625
1759066562.7823217,-0.6220703125,-0.0078125,0.783203125,0.0,0.244140625,0.0,-0.4998779296875,38.309326171875,67.1099853515625
1759066562.7923267,-0.6220703125,-0.0078125,0.783203125,0.0,0.244140625,0.0,-0.4998779296875,38.309326171875,67.1099853515625
1759066562.802305,-0.62060546875,-0.00537109375,0.78662109375,0.244140625,0.3662109375,0.0,-0.494384765625,38.3148193359375,67.1099853515625
1759066562.8123236,-0.62060546875,-0.00537109375,0.78662109375,0.244140625,0.3662109375,0.0,-0.494384765625,38.3203125,67.1099853515625
1759066562.82233,-0.62158203125,-0.00537109375,0.78515625,0.18310546875,0.42724609375,-0.30517578125,-0.494384765625,38.3258056640625,67.1099853515625
1759066562.8323445,-0.62158203125,-0.00537109375,0.78515625,0.18310546875,0.42724609375,-0.30517578125,-0.494384765625,38.331298828125,67.1044921875
1759066562.8423443,-0.62353515625,-0.00732421875,0.78173828125,0.0,0.48828125,-0.30517578125,-0.494384765625,38.331298828125,67.0989990234375
1759066562.8523693,-0.62353515625,-0.00732421875,0.78173828125,0.0,0.48828125,-0.30517578125,-0.494384765625,38.3367919921875,67.093505859375
1759066562.8623807,-0.6240234375,-0.0087890625,0.78271484375,0.06103515625,0.54931640625,-0.244140625,-0.4998779296875,38.34228515625,67.093505859375
1759066562.8724082,-0.6240234375,-0.0087890625,0.78271484375,0.06103515625,0.54931640625,-0.244140625,-0.4998779296875,38.353271484375,67.0880126953125
1759066562.8823931,-0.6220703125,-0.0087890625,0.78271484375,0.06103515625,0.54931640625,-0.1220703125,-0.4998779296875,38.3587646484375,67.0880126953125
1759066562.8924184,-0.6220703125,-0.0087890625,0.78271484375,0.06103515625,0.54931640625,-0.1220703125,-0.4998779296875,38.3642578125,67.0880126953125
1759066562.902391,-0.62255859375,-0.0078125,0.78271484375,0.0,0.48828125,0.0,-0.4998779296875,38.3697509765625,67.08251953125
1759066562.912413,-0.62255859375,-0.0078125,0.78271484375,0.0,0.48828125,0.0,-0.4998779296875,38.375244140625,67.08251953125
1759066562.9225013,-0.62158203125,-0.00537109375,0.78369140625,-0.06103515625,0.42724609375,0.06103515625,-0.4998779296875,38.3807373046875,67.08251953125
1759066562.932562,-0.62158203125,-0.00537109375,0.78369140625,-0.06103515625,0.42724609375,0.06103515625,-0.4998779296875,38.38623046875,67.0880126953125
1759066562.9425104,-0.61962890625,-0.00634765625,0.78515625,-0.30517578125,0.3662109375,0.06103515625,-0.50537109375,38.38623046875,67.0880126953125
1759066562.9525137,-0.61962890625,-0.00634765625,0.78515625,-0.30517578125,0.3662109375,0.06103515625,-0.50537109375,38.3917236328125,67.0880126953125
1759066562.9625034,-0.6220703125,-0.0078125,0.78271484375,-0.54931640625,0.42724609375,0.18310546875,-0.5108642578125,38.397216796875,67.0880126953125
1759066562.9725282,-0.6220703125,-0.0078125,0.78271484375,-0.54931640625,0.42724609375,0.18310546875,-0.5108642578125,38.4027099609375,67.093505859375
1759066562.982538,-0.62255859375,-0.009765625,0.7822265625,-0.54931640625,0.3662109375,0.30517578125,-0.516357421875,38.4027099609375,67.093505859375
1759066562.9925394,-0.62255859375,-0.009765625,0.7822265625,-0.54931640625,0.3662109375,0.30517578125,-0.5218505859375,38.408203125,67.0989990234375
1759066563.002629,-0.62158203125,-0.009765625,0.7841796875,-0.42724609375,0.48828125,0.3662109375,-0.5218505859375,38.4136962890625,67.1044921875
1759066563.012625,-0.62158203125,-0.009765625,0.7841796875,-0.42724609375,0.48828125,0.3662109375,-0.5218505859375,38.419189453125,67.1099853515625
1759066563.0226347,-0.6220703125,-0.0068359375,0.783203125,-0.30517578125,0.42724609375,0.48828125,-0.52734375,38.4246826171875,67.115478515625
1759066563.0326312,-0.6220703125,-0.0068359375,0.783203125,-0.30517578125,0.42724609375,0.48828125,-0.5218505859375,38.4246826171875,67.1209716796875
1759066563.042636,-0.62451171875,-0.0068359375,0.7802734375,-0.54931640625,0.3662109375,0.54931640625,-0.52734375,38.43017578125,67.12646484375
1759066563.0526338,-0.62451171875,-0.0068359375,0.7802734375,-0.54931640625,0.3662109375,0.54931640625,-0.52734375,38.4356689453125,67.1319580078125
1759066563.0626342,-0.625,-0.00732421875,0.779296875,-0.67138671875,0.30517578125,0.6103515625,-0.52734375,38.441162109375,67.1429443359375
1759066563.0726469,-0.625,-0.00732421875,0.779296875,-0.67138671875,0.30517578125,0.6103515625,-0.52734375,38.441162109375,67.1484375
1759066563.0826468,-0.62353515625,-0.00927734375,0.78173828125,-0.732421875,0.30517578125,0.67138671875,-0.5328369140625,38.4466552734375,67.159423828125
1759066563.0926523,-0.62353515625,-0.00927734375,0.78173828125,-0.732421875,0.30517578125,0.67138671875,-0.5328369140625,38.4521484375,67.1649169921875
1759066563.1026611,-0.62451171875,-0.0078125,0.783203125,-0.732421875,0.30517578125,0.732421875,-0.538330078125,38.4521484375,67.1759033203125
1759066563.1126876,-0.62451171875,-0.0078125,0.783203125,-0.732421875,0.30517578125,0.732421875,-0.538330078125,38.4576416015625,67.1868896484375
1759066563.1227064,-0.6240234375,-0.0078125,0.78125,-0.6103515625,0.30517578125,0.79345703125,-0.538330078125,38.463134765625,67.1978759765625
1759066563.1327126,-0.6240234375,-0.0078125,0.78125,-0.6103515625,0.30517578125,0.79345703125,-0.538330078125,38.463134765625,67.2088623046875
1759066563.14281,-0.62158203125,-0.0068359375,0.78125,-0.67138671875,0.244140625,0.732421875,-0.538330078125,38.4686279296875,67.2198486328125
1759066563.1528032,-0.62158203125,-0.0068359375,0.78125,-0.67138671875,0.244140625,0.732421875,-0.538330078125,38.4686279296875,67.225341796875
1759066563.1628304,-0.623046875,-0.005859375,0.7822265625,-0.67138671875,0.1220703125,0.6103515625,-0.5438232421875,38.47412109375,67.236328125
1759066563.1728256,-0.623046875,-0.005859375,0.7822265625,-0.67138671875,0.1220703125,0.6103515625,-0.5438232421875,38.47412109375,67.2418212890625
1759066563.1828506,-0.623046875,-0.005859375,0.7822265625,-0.6103515625,0.06103515625,0.54931640625,-0.5438232421875,38.47412109375,67.2528076171875
1759066563.1928353,-0.6240234375,-0.00732421875,0.7802734375,-0.6103515625,0.06103515625,0.54931640625,-0.54931640625,38.4796142578125,67.25830078125
1759066563.2028632,-0.6240234375,-0.00732421875,0.78076171875,-0.48828125,0.0,0.42724609375,-0.54931640625,38.4796142578125,67.2637939453125
1759066563.2128613,-0.6240234375,-0.00732421875,0.78076171875,-0.48828125,0.0,0.42724609375,-0.54931640625,38.4796142578125,67.269287109375
1759066563.222977,-0.62548828125,-0.0068359375,0.78125,-0.48828125,0.0,0.3662109375,-0.54931640625,38.4796142578125,67.2747802734375
1759066563.2334435,-0.62548828125,-0.0068359375,0.78125,-0.48828125,0.0,0.3662109375,-0.5548095703125,38.4796142578125,67.2802734375
1759066563.2431514,-0.626953125,-0.0068359375,0.779296875,-0.3662109375,0.06103515625,0.30517578125,-0.5548095703125,38.4796142578125,67.2857666015625
1759066563.2529714,-0.626953125,-0.0068359375,0.779296875,-0.3662109375,0.06103515625,0.30517578125,-0.5548095703125,38.485107421875,67.291259765625
1759066563.2636027,-0.62451171875,-0.0078125,0.77978515625,-0.244140625,0.244140625,0.244140625,-0.5548095703125,38.485107421875,67.2967529296875
1759066563.2730038,-0.62451171875,-0.0078125,0.77978515625,-0.244140625,0.244140625,0.244140625,-0.5548095703125,38.4906005859375,67.2967529296875
1759066563.2830756,-0.625,-0.00830078125,0.78759765625,-0.18310546875,0.244140625,0.244140625,-0.5548095703125,38.4906005859375,67.30224609375
1759066563.293482,-0.625,-0.00830078125,0.78759765625,-0.18310546875,0.244140625,0.244140625,-0.5548095703125,38.49609375,67.30224609375
1759066563.3030396,-0.61962890625,-0.0078125,0.78369140625,-0.244140625,0.42724609375,0.3662109375,-0.5548095703125,38.5015869140625,67.3077392578125
1759066563.3130167,-0.61962890625,-0.0078125,0.78369140625,-0.244140625,0.42724609375,0.3662109375,-0.5548095703125,38.5015869140625,67.313232421875
1759066563.3235805,-0.62353515625,-0.0087890625,0.78271484375,-0.30517578125,0.3662109375,0.42724609375,-0.5548095703125,38.507080078125,67.3187255859375
1759066563.333,-0.62353515625,-0.0087890625,0.78271484375,-0.30517578125,0.3662109375,0.42724609375,-0.5548095703125,38.5125732421875,67.32421875
1759066563.3430362,-0.6240234375,-0.01025390625,0.78271484375,-0.6103515625,0.48828125,0.67138671875,-0.5548095703125,38.51806640625,67.3297119140625
1759066563.3534558,-0.6240234375,-0.01025390625,0.78271484375,-0.6103515625,0.48828125,0.67138671875,-0.5548095703125,38.5235595703125,67.3406982421875
1759066563.3631256,-0.6220703125,-0.01025390625,0.78173828125,-0.732421875,0.48828125,0.91552734375,-0.5548095703125,38.529052734375,67.3516845703125
1759066563.3730593,-0.6220703125,-0.01025390625,0.78173828125,-0.732421875,0.48828125,0.91552734375,-0.560302734375,38.529052734375,67.3626708984375
1759066563.3833835,-0.6259765625,-0.00830078125,0.78466796875,-0.732421875,0.48828125,1.03759765625,-0.560302734375,38.5345458984375,67.3736572265625
1759066563.3930979,-0.6259765625,-0.00830078125,0.78466796875,-0.732421875,0.48828125,1.03759765625,-0.5548095703125,38.5400390625,67.3846435546875
1759066563.4035697,-0.62451171875,-0.0087890625,0.78271484375,-0.79345703125,0.6103515625,1.220703125,-0.5548095703125,38.5455322265625,67.401123046875
1759066563.4136417,-0.62451171875,-0.0087890625,0.78271484375,-0.79345703125,0.6103515625,1.220703125,-0.5548095703125,38.5565185546875,67.4176025390625
1759066563.4231434,-0.62548828125,-0.00732421875,0.77783203125,-1.28173828125,0.6103515625,1.3427734375,-0.5548095703125,38.56201171875,67.43408203125
1759066563.4334085,-0.62548828125,-0.00732421875,0.77783203125,-1.28173828125,0.6103515625,1.3427734375,-0.560302734375,38.5675048828125,67.4505615234375
1759066563.4433174,-0.6240234375,-0.0068359375,0.7822265625,-1.28173828125,0.67138671875,1.28173828125,-0.560302734375,38.572998046875,67.467041015625
1759066563.4531338,-0.6240234375,-0.0068359375,0.7822265625,-1.28173828125,0.67138671875,1.28173828125,-0.5657958984375,38.5784912109375,67.4835205078125
1759066563.4634244,-0.62255859375,-0.0068359375,0.7841796875,-1.46484375,0.67138671875,1.28173828125,-0.5712890625,38.5894775390625,67.5
1759066563.4735436,-0.62255859375,-0.0068359375,0.7841796875,-1.46484375,0.67138671875,1.28173828125,-0.5767822265625,38.594970703125,67.5164794921875
1759066563.4832036,-0.62451171875,-0.0068359375,0.78076171875,-1.52587890625,0.67138671875,1.220703125,-0.582275390625,38.6004638671875,67.532958984375
1759066563.4932008,-0.62451171875,-0.0068359375,0.78076171875,-1.52587890625,0.67138671875,1.220703125,-0.5877685546875,38.60595703125,67.5494384765625
1759066563.503243,-0.62158203125,-0.00927734375,0.7822265625,-1.15966796875,0.6103515625,1.0986328125,-0.5877685546875,38.6114501953125,67.56591796875
1759066563.5137465,-0.62158203125,-0.00927734375,0.7822265625,-1.15966796875,0.6103515625,1.0986328125,-0.59326171875,38.6224365234375,67.576904296875
1759066563.5234141,-0.62060546875,-0.009765625,0.78271484375,-0.18310546875,0.42724609375,0.91552734375,-0.5877685546875,38.6224365234375,67.587890625
1759066563.533258,-0.62060546875,-0.009765625,0.78271484375,-0.18310546875,0.42724609375,0.91552734375,-0.582275390625,38.6279296875,67.598876953125
1759066563.543442,-0.62353515625,-0.01025390625,0.779296875,0.54931640625,0.1220703125,0.732421875,-0.5712890625,38.6279296875,67.60986328125
1759066563.553292,-0.62353515625,-0.01025390625,0.779296875,0.54931640625,0.1220703125,0.732421875,-0.560302734375,38.6279296875,67.620849609375
1759066563.5635145,-0.62744140625,-0.0087890625,0.7763671875,0.244140625,0.0,0.79345703125,-0.54931640625,38.6279296875,67.6318359375
1759066563.5750043,-0.62744140625,-0.0087890625,0.7763671875,0.244140625,0.0,0.79345703125,-0.5438232421875,38.6279296875,67.642822265625
1759066563.5834892,-0.625,-0.0078125,0.7783203125,0.0,-0.1220703125,0.732421875,-0.538330078125,38.6279296875,67.6483154296875
1759066563.5933022,-0.625,-0.0078125,0.7783203125,0.0,-0.1220703125,0.732421875,-0.5328369140625,38.6279296875,67.6593017578125
1759066563.6032972,-0.62158203125,-0.01025390625,0.78271484375,-0.54931640625,-0.244140625,0.54931640625,-0.5328369140625,38.6224365234375,67.6702880859375
1759066563.6138096,-0.62158203125,-0.01025390625,0.78271484375,-0.54931640625,-0.244140625,0.54931640625,-0.5328369140625,38.6224365234375,67.67578125
1759066563.623497,-0.62060546875,-0.009765625,0.7861328125,-0.54931640625,-0.30517578125,0.48828125,-0.538330078125,38.616943359375,67.6812744140625
1759066563.633368,-0.62060546875,-0.009765625,0.7861328125,-0.54931640625,-0.30517578125,0.48828125,-0.538330078125,38.616943359375,67.686767578125
1759066563.6434839,-0.62060546875,-0.0107421875,0.78271484375,-0.6103515625,-0.3662109375,0.3662109375,-0.5438232421875,38.6114501953125,67.6922607421875
1759066563.6534321,-0.62060546875,-0.0107421875,0.78271484375,-0.6103515625,-0.3662109375,0.3662109375,-0.54931640625,38.60595703125,67.69775390625
1759066563.6634474,-0.6220703125,-0.009765625,0.7841796875,-1.03759765625,-0.244140625,0.30517578125,-0.5548095703125,38.60595703125,67.7032470703125
1759066563.6737118,-0.6220703125,-0.009765625,0.7841796875,-1.03759765625,-0.244140625,0.30517578125,-0.5657958984375,38.6004638671875,67.708740234375
1759066563.6834543,-0.6220703125,-0.00927734375,0.78515625,-1.15966796875,0.0,0.18310546875,-0.5767822265625,38.6004638671875,67.7142333984375
1759066563.6934676,-0.6220703125,-0.00927734375,0.78515625,-1.15966796875,0.0,0.18310546875,-0.5877685546875,38.6004638671875,67.7142333984375
1759066563.7034297,-0.62353515625,-0.01025390625,0.78564453125,-0.8544921875,0.1220703125,0.06103515625,-0.59326171875,38.6004638671875,67.7197265625
1759066563.7140875,-0.62353515625,-0.01025390625,0.78564453125,-0.8544921875,0.1220703125,0.06103515625,-0.604248046875,38.6004638671875,67.7197265625
1759066563.7234228,-0.6240234375,-0.01171875,0.7841796875,-0.54931640625,0.3662109375,0.0,-0.6097412109375,38.60595703125,67.7197265625
1759066563.733851,-0.6240234375,-0.01171875,0.7841796875,-0.54931640625,0.3662109375,0.0,-0.615234375,38.60595703125,67.7197265625
1759066563.7438943,-0.623046875,-0.013671875,0.779296875,-0.18310546875,0.3662109375,-0.18310546875,-0.6207275390625,38.6114501953125,67.7197265625
1759066563.753698,-0.623046875,-0.013671875,0.779296875,-0.18310546875,0.3662109375,-0.18310546875,-0.626220703125,38.6114501953125,67.7197265625
1759066563.7639086,-0.6201171875,-0.0146484375,0.78173828125,0.0,0.18310546875,-0.42724609375,-0.626220703125,38.6114501953125,67.7142333984375
1759066563.7738228,-0.6201171875,-0.0146484375,0.78173828125,0.0,0.18310546875,-0.42724609375,-0.6317138671875,38.616943359375,67.7142333984375
1759066563.7840505,-0.6162109375,-0.01318359375,0.78857421875,-0.1220703125,0.06103515625,-0.48828125,-0.63720703125,38.616943359375,67.708740234375
1759066563.7938855,-0.6162109375,-0.01318359375,0.78857421875,-0.1220703125,0.06103515625,-0.48828125,-0.648193359375,38.6114501953125,67.7032470703125
1759066563.8035626,-0.61083984375,-0.0068359375,0.79150390625,-1.3427734375,-0.06103515625,-0.244140625,-0.6591796875,38.6114501953125,67.7032470703125
1759066563.8171449,-0.61083984375,-0.0068359375,0.79150390625,-1.3427734375,-0.06103515625,-0.244140625,-0.6756591796875,38.6114501953125,67.69775390625
1759066563.8236754,-0.61181640625,-0.00146484375,0.79150390625,-1.77001953125,-0.1220703125,-0.18310546875,-0.6976318359375,38.60595703125,67.69775390625
1759066563.8366683,-0.61181640625,-0.00146484375,0.79150390625,-1.77001953125,-0.1220703125,-0.18310546875,-0.714111328125,38.6004638671875,67.69775390625
1759066563.848328,-0.60888671875,0.01220703125,0.79052734375,1.03759765625,-0.1220703125,0.06103515625,-0.703125,38.594970703125,67.7032470703125
1759066563.8551676,-0.60888671875,0.01220703125,0.79052734375,1.03759765625,-0.1220703125,0.06103515625,-0.692138671875,38.594970703125,67.7032470703125
1759066563.8639069,-0.615234375,0.0009765625,0.80078125,1.40380859375,0.0,-0.1220703125,-0.6756591796875,38.5894775390625,67.708740234375
1759066563.8738198,-0.615234375,0.0009765625,0.80078125,1.40380859375,0.0,-0.1220703125,-0.6591796875,38.583984375,67.708740234375
1759066563.8837118,-0.609375,0.00146484375,0.78955078125,-1.708984375,0.06103515625,0.1220703125,-0.6756591796875,38.583984375,67.708740234375
1759066563.8937252,-0.609375,0.00146484375,0.78955078125,-1.708984375,0.06103515625,0.1220703125,-0.6866455078125,38.5784912109375,67.7142333984375
1759066563.9036782,-0.6123046875,-0.0087890625,0.79345703125,-1.220703125,0.0,0.0,-0.6976318359375,38.572998046875,67.7197265625
1759066563.9142292,-0.6123046875,-0.0087890625,0.79345703125,-1.220703125,0.0,0.0,-0.7086181640625,38.572998046875,67.7197265625
1759066563.923733,-0.61376953125,-0.01708984375,0.791015625,-0.732421875,0.0,-0.06103515625,-0.714111328125,38.5675048828125,67.7197265625
1759066563.9337645,-0.61376953125,-0.01708984375,0.791015625,-0.732421875,0.0,-0.06103515625,-0.7196044921875,38.56201171875,67.7197265625
1759066563.9440784,-0.6142578125,-0.01513671875,0.78564453125,0.06103515625,0.0,0.0,-0.7196044921875,38.5565185546875,67.7252197265625
1759066563.953812,-0.6142578125,-0.01513671875,0.78564453125,0.06103515625,0.0,0.0,-0.714111328125,38.5565185546875,67.7252197265625
1759066563.964051,-0.61669921875,-0.01171875,0.79052734375,0.54931640625,-0.06103515625,0.0,-0.7086181640625,38.551025390625,67.7252197265625
1759066563.9737654,-0.61669921875,-0.01171875,0.79052734375,0.54931640625,-0.06103515625,0.0,-0.703125,38.5455322265625,67.730712890625
1759066563.9840698,-0.6171875,-0.0078125,0.78466796875,0.1220703125,-0.1220703125,0.06103515625,-0.703125,38.5400390625,67.730712890625
1759066563.9938333,-0.6171875,-0.0078125,0.78466796875,0.1220703125,-0.1220703125,0.06103515625,-0.6976318359375,38.5345458984375,67.730712890625
1759066564.0037916,-0.6201171875,-0.00732421875,0.78369140625,-0.30517578125,-0.18310546875,0.1220703125,-0.703125,38.529052734375,67.7362060546875
1759066564.0142639,-0.6201171875,-0.00732421875,0.78369140625,-0.30517578125,-0.18310546875,0.1220703125,-0.703125,38.5235595703125,67.74169921875
1759066564.0238538,-0.62255859375,-0.0087890625,0.7841796875,-0.67138671875,-0.1220703125,0.18310546875,-0.7086181640625,38.5235595703125,67.74169921875
1759066564.0338342,-0.62255859375,-0.0087890625,0.7841796875,-0.67138671875,-0.1220703125,0.18310546875,-0.714111328125,38.51806640625,67.7471923828125
1759066564.0442517,-0.625,-0.01123046875,0.78515625,-0.79345703125,-0.06103515625,0.30517578125,-0.714111328125,38.5125732421875,67.752685546875
1759066564.0538797,-0.625,-0.01123046875,0.78515625,-0.79345703125,-0.06103515625,0.30517578125,-0.7196044921875,38.5125732421875,67.752685546875
1759066564.0639772,-0.625,-0.01318359375,0.78173828125,-0.67138671875,0.0,0.3662109375,-0.72509765625,38.5125732421875,67.7581787109375
1759066564.073848,-0.625,-0.01318359375,0.78173828125,-0.67138671875,0.0,0.3662109375,-0.7305908203125,38.507080078125,67.763671875
1759066564.0842886,-0.62841796875,-0.01318359375,0.7783203125,-0.3662109375,0.1220703125,0.48828125,-0.7305908203125,38.507080078125,67.774658203125
1759066564.093884,-0.62841796875,-0.01318359375,0.7783203125,-0.3662109375,0.1220703125,0.48828125,-0.7305908203125,38.507080078125,67.7801513671875
1759066564.1040354,-0.63037109375,-0.0126953125,0.77685546875,-0.06103515625,0.30517578125,0.6103515625,-0.72509765625,38.5125732421875,67.78564453125
1759066564.1144252,-0.63037109375,-0.0126953125,0.77685546875,-0.06103515625,0.30517578125,0.6103515625,-0.7196044921875,38.5125732421875,67.796630859375
1759066564.1242206,-0.63134765625,-0.01025390625,0.77685546875,-0.30517578125,0.48828125,0.732421875,-0.7196044921875,38.51806640625,67.8076171875
1759066564.1340344,-0.63134765625,-0.01025390625,0.77685546875,-0.30517578125,0.48828125,0.732421875,-0.714111328125,38.5235595703125,67.8131103515625
1759066564.1448228,-0.63427734375,-0.0087890625,0.77685546875,-0.732421875,0.48828125,0.91552734375,-0.714111328125,38.529052734375,67.82958984375
1759066564.15399,-0.63427734375,-0.0087890625,0.77685546875,-0.732421875,0.48828125,0.91552734375,-0.714111328125,38.5345458984375,67.840576171875
1759066564.1642416,-0.6376953125,-0.00927734375,0.771484375,-1.15966796875,0.54931640625,1.03759765625,-0.7196044921875,38.5455322265625,67.8515625
1759066564.1739464,-0.6376953125,-0.00927734375,0.771484375,-1.15966796875,0.54931640625,1.03759765625,-0.72509765625,38.551025390625,67.862548828125
1759066564.1845381,-0.6376953125,-0.00927734375,0.771484375,-1.52587890625,0.6103515625,1.220703125,-0.7305908203125,38.56201171875,67.8790283203125
1759066564.1940017,-0.638671875,-0.0107421875,0.767578125,-1.52587890625,0.6103515625,1.220703125,-0.736083984375,38.5675048828125,67.8955078125
1759066564.204188,-0.6396484375,-0.0107421875,0.76904296875,-1.8310546875,0.6103515625,1.40380859375,-0.7415771484375,38.5784912109375,67.9119873046875
1759066564.2144842,-0.6396484375,-0.0107421875,0.76904296875,-1.8310546875,0.6103515625,1.40380859375,-0.7470703125,38.5894775390625,67.928466796875
1759066564.2241738,-0.638671875,-0.01171875,0.771484375,-0.9765625,0.6103515625,1.3427734375,-0.7470703125,38.6004638671875,67.9449462890625
1759066564.2340772,-0.638671875,-0.01171875,0.771484375,-0.9765625,0.6103515625,1.3427734375,-0.7470703125,38.60595703125,67.96142578125
1759066564.244329,-0.638671875,-0.01171875,0.771484375,-0.30517578125,0.48828125,1.28173828125,-0.7415771484375,38.616943359375,67.9779052734375
1759066564.2541327,-0.63623046875,-0.01025390625,0.76904296875,-0.30517578125,0.48828125,1.28173828125,-0.736083984375,38.6279296875,67.994384765625
1759066564.2641068,-0.638671875,-0.00830078125,0.767578125,-0.42724609375,0.30517578125,1.15966796875,-0.7305908203125,38.6334228515625,68.00537109375
1759066564.2740948,-0.638671875,-0.00830078125,0.767578125,-0.42724609375,0.30517578125,1.15966796875,-0.72509765625,38.6444091796875,68.0218505859375
1759066564.284815,-0.63916015625,-0.00732421875,0.76953125,-0.732421875,0.244140625,1.15966796875,-0.72509765625,38.64990234375,68.0328369140625
1759066564.2941842,-0.63916015625,-0.00732421875,0.76953125,-0.732421875,0.244140625,1.15966796875,-0.7196044921875,38.6553955078125,68.04931640625
1759066564.3041024,-0.638671875,-0.00732421875,0.771484375,-0.79345703125,0.1220703125,1.03759765625,-0.7196044921875,38.660888671875,68.060302734375
1759066564.314675,-0.638671875,-0.00732421875,0.771484375,-0.79345703125,0.1220703125,1.03759765625,-0.7196044921875,38.671875,68.0767822265625
1759066564.3241606,-0.6376953125,-0.00927734375,0.7734375,-0.67138671875,0.1220703125,0.9765625,-0.7196044921875,38.6773681640625,68.0877685546875
1759066564.3341432,-0.6376953125,-0.00927734375,0.7734375,-0.67138671875,0.1220703125,0.9765625,-0.7196044921875,38.682861328125,68.0987548828125
1759066564.3443084,-0.63671875,-0.009765625,0.76904296875,-0.30517578125,0.1220703125,0.8544921875,-0.714111328125,38.6883544921875,68.104248046875
1759066564.3542233,-0.63671875,-0.009765625,0.76904296875,-0.30517578125,0.1220703125,0.8544921875,-0.7086181640625,38.69384765625,68.115234375
1759066564.3641942,-0.6357421875,-0.0078125,0.77197265625,-0.3662109375,0.1220703125,0.67138671875,-0.7086181640625,38.6993408203125,68.1207275390625
1759066564.3742168,-0.6357421875,-0.0078125,0.77197265625,-0.3662109375,0.1220703125,0.67138671875,-0.703125,38.704833984375,68.1317138671875
1759066564.384732,-0.63134765625,-0.005859375,0.77880859375,-0.48828125,0.1220703125,0.67138671875,-0.703125,38.7103271484375,68.13720703125
1759066564.3943195,-0.63134765625,-0.005859375,0.77880859375,-0.48828125,0.1220703125,0.67138671875,-0.703125,38.7158203125,68.1427001953125
1759066564.4042344,-0.6259765625,-0.00830078125,0.77880859375,-0.54931640625,0.06103515625,0.6103515625,-0.703125,38.7213134765625,68.1536865234375
1759066564.4147315,-0.6259765625,-0.00830078125,0.77880859375,-0.54931640625,0.06103515625,0.6103515625,-0.703125,38.726806640625,68.1591796875
1759066564.4242485,-0.62548828125,-0.01171875,0.77880859375,-0.91552734375,-0.06103515625,0.67138671875,-0.7086181640625,38.726806640625,68.1646728515625
1759066564.434392,-0.62548828125,-0.01171875,0.77880859375,-0.91552734375,-0.06103515625,0.67138671875,-0.7086181640625,38.7322998046875,68.1756591796875
1759066564.4446888,-0.62646484375,-0.01171875,0.7783203125,-0.9765625,-0.1220703125,0.732421875,-0.714111328125,38.7322998046875,68.18115234375
1759066564.4543061,-0.62744140625,-0.01220703125,0.779296875,-0.48828125,-0.06103515625,0.732421875,-0.714111328125,38.7322998046875,68.192138671875
1759066564.4643145,-0.62744140625,-0.01220703125,0.779296875,-0.48828125,-0.06103515625,0.732421875,-0.714111328125,38.73779296875,68.203125
1759066564.474362,-0.623046875,-0.0107421875,0.7822265625,-0.30517578125,-0.1220703125,0.79345703125,-0.714111328125,38.73779296875,68.2086181640625
1759066564.484887,-0.623046875,-0.0107421875,0.7822265625,-0.30517578125,-0.1220703125,0.79345703125,-0.7086181640625,38.73779296875,68.2196044921875
1759066564.4944232,-0.6220703125,-0.00927734375,0.78271484375,-0.67138671875,-0.18310546875,0.91552734375,-0.7086181640625,38.73779296875,68.2305908203125
1759066564.5043805,-0.6220703125,-0.00927734375,0.78271484375,-0.67138671875,-0.18310546875,0.91552734375,-0.7086181640625,38.73779296875,68.2415771484375
1759066564.5149047,-0.62353515625,-0.00927734375,0.78125,-0.8544921875,-0.18310546875,0.91552734375,-0.7086181640625,38.73779296875,68.258056640625
1759066564.5244265,-0.62353515625,-0.00927734375,0.78125,-0.8544921875,-0.18310546875,0.91552734375,-0.7086181640625,38.73779296875,68.26904296875
1759066564.534414,-0.62646484375,-0.01123046875,0.7822265625,-0.91552734375,-0.1220703125,1.03759765625,-0.7086181640625,38.73779296875,68.280029296875
1759066564.5444674,-0.62646484375,-0.01123046875,0.7822265625,-0.91552734375,-0.1220703125,1.03759765625,-0.7086181640625,38.7322998046875,68.2965087890625
1759066564.5544095,-0.62353515625,-0.01025390625,0.78125,-0.91552734375,-0.06103515625,1.03759765625,-0.714111328125,38.7322998046875,68.3074951171875
1759066564.5648196,-0.62353515625,-0.01025390625,0.78125,-0.91552734375,-0.06103515625,1.03759765625,-0.714111328125,38.7322998046875,68.323974609375
1759066564.5744207,-0.6220703125,-0.01025390625,0.78271484375,-0.8544921875,-0.06103515625,1.03759765625,-0.714111328125,38.7322998046875,68.3349609375
1759066564.5849364,-0.6220703125,-0.01025390625,0.78271484375,-0.8544921875,-0.06103515625,1.03759765625,-0.714111328125,38.7322998046875,68.3514404296875
1759066564.5945547,-0.62353515625,-0.01025390625,0.7841796875,-1.03759765625,-0.1220703125,1.0986328125,-0.714111328125,38.7322998046875,68.3624267578125
1759066564.6044617,-0.62353515625,-0.01025390625,0.7841796875,-1.03759765625,-0.1220703125,1.0986328125,-0.714111328125,38.7322998046875,68.37890625
1759066564.615409,-0.626953125,-0.00927734375,0.78076171875,-1.28173828125,-0.1220703125,1.0986328125,-0.7196044921875,38.726806640625,68.389892578125
1759066564.6245234,-0.626953125,-0.00927734375,0.78076171875,-1.28173828125,-0.1220703125,1.0986328125,-0.72509765625,38.726806640625,68.4063720703125
1759066564.6346786,-0.62890625,-0.0107421875,0.77880859375,-0.9765625,-0.06103515625,0.9765625,-0.72509765625,38.726806640625,68.4173583984375
1759066564.6450148,-0.62890625,-0.0107421875,0.77880859375,-0.9765625,-0.06103515625,0.9765625,-0.7305908203125,38.726806640625,68.433837890625
1759066564.65471,-0.6259765625,-0.00927734375,0.7763671875,-0.6103515625,-0.18310546875,0.79345703125,-0.7305908203125,38.726806640625,68.44482421875
1759066564.6645794,-0.6259765625,-0.00927734375,0.7763671875,-0.6103515625,-0.18310546875,0.79345703125,-0.7305908203125,38.7213134765625,68.455810546875
1759066564.6746888,-0.6240234375,-0.0087890625,0.77880859375,-0.54931640625,-0.42724609375,0.67138671875,-0.7305908203125,38.7213134765625,68.4613037109375
1759066564.6851356,-0.6240234375,-0.0087890625,0.77880859375,-0.54931640625,-0.42724609375,0.67138671875,-0.7305908203125,38.7158203125,68.4722900390625
1759066564.6947155,-0.625,-0.01416015625,0.783203125,-0.48828125,-0.6103515625,0.42724609375,-0.7305908203125,38.7103271484375,68.477783203125
1759066564.7045462,-0.625,-0.01416015625,0.783203125,-0.48828125,-0.6103515625,0.42724609375,-0.7305908203125,38.704833984375,68.48876953125
1759066564.715278,-0.625,-0.01123046875,0.77783203125,0.244140625,-0.8544921875,0.30517578125,-0.7305908203125,38.6993408203125,68.4942626953125
1759066564.724686,-0.625,-0.01123046875,0.77783203125,0.244140625,-0.8544921875,0.30517578125,-0.72509765625,38.6883544921875,68.4942626953125
1759066564.7348623,-0.625,-0.01123046875,0.77783203125,0.0,-0.79345703125,0.3662109375,-0.7196044921875,38.682861328125,68.499755859375
1759066564.7455776,-0.626953125,-0.00830078125,0.7802734375,0.0,-0.79345703125,0.3662109375,-0.7196044921875,38.6773681640625,68.5052490234375
1759066564.754707,-0.625,-0.00341796875,0.77978515625,-0.732421875,-0.79345703125,0.30517578125,-0.7196044921875,38.6663818359375,68.5107421875
1759066564.7646978,-0.625,-0.00341796875,0.77978515625,-0.732421875,-0.79345703125,0.30517578125,-0.72509765625,38.660888671875,68.5162353515625
1759066564.7747092,-0.62451171875,0.00146484375,0.78271484375,-1.40380859375,-0.79345703125,0.48828125,-0.7305908203125,38.6553955078125,68.5272216796875
1759066564.785251,-0.62451171875,0.00146484375,0.78271484375,-1.40380859375,-0.79345703125,0.48828125,-0.7415771484375,38.6444091796875,68.53271484375
1759066564.7947454,-0.62841796875,-0.0087890625,0.7861328125,-3.5400390625,-0.732421875,0.3662109375,-0.758056640625,38.638916015625,68.5382080078125
1759066564.804667,-0.62841796875,-0.0087890625,0.7861328125,-3.5400390625,-0.732421875,0.3662109375,-0.791015625,38.6334228515625,68.543701171875
1759066564.8152962,-0.62744140625,-0.02783203125,0.77587890625,-1.708984375,-0.54931640625,0.30517578125,-0.81298828125,38.6279296875,68.5491943359375
1759066564.8247821,-0.62744140625,-0.02783203125,0.77587890625,-1.708984375,-0.54931640625,0.30517578125,-0.8294677734375,38.6224365234375,68.5546875
1759066564.8349316,-0.6259765625,-0.0234375,0.779296875,0.1220703125,-0.54931640625,0.244140625,-0.8349609375,38.616943359375,68.5601806640625
1759066564.845297,-0.6259765625,-0.0234375,0.779296875,0.1220703125,-0.54931640625,0.244140625,-0.8294677734375,38.6114501953125,68.5601806640625
1759066564.8548257,-0.62646484375,-0.0126953125,0.77880859375,1.03759765625,-0.42724609375,0.18310546875,-0.823974609375,38.60595703125,68.565673828125
1759066564.8649516,-0.62646484375,-0.0126953125,0.77880859375,1.03759765625,-0.42724609375,0.18310546875,-0.81298828125,38.60595703125,68.565673828125
1759066564.874957,-0.62646484375,-0.00390625,0.7783203125,-0.06103515625,-0.42724609375,0.1220703125,-0.8074951171875,38.6004638671875,68.565673828125
1759066564.8860514,-0.62646484375,-0.00390625,0.7783203125,-0.06103515625,-0.42724609375,0.1220703125,-0.8074951171875,38.594970703125,68.565673828125
1759066564.8948386,-0.62451171875,-0.001953125,0.7822265625,-2.01416015625,-0.48828125,0.30517578125,-0.8184814453125,38.594970703125,68.5711669921875
1759066564.9048805,-0.62451171875,-0.001953125,0.7822265625,-2.01416015625,-0.48828125,0.30517578125,-0.8349609375,38.5894775390625,68.57666015625
1759066564.9157078,-0.6298828125,-0.0068359375,0.77978515625,-4.5166015625,-0.48828125,0.732421875,-0.8624267578125,38.583984375,68.5821533203125
1759066564.924948,-0.6298828125,-0.0068359375,0.77978515625,-4.5166015625,-0.48828125,0.732421875,-0.90087890625,38.583984375,68.5931396484375
1759066564.9350069,-0.63330078125,-0.0244140625,0.7734375,-3.96728515625,-0.54931640625,0.54931640625,-0.933837890625,38.5784912109375,68.5986328125
1759066564.945303,-0.63330078125,-0.0244140625,0.7734375,-3.96728515625,-0.54931640625,0.54931640625,-0.966796875,38.572998046875,68.6041259765625
1759066564.954952,-0.63720703125,-0.03369140625,0.7724609375,-0.244140625,-0.42724609375,0.67138671875,-0.9832763671875,38.572998046875,68.6151123046875
1759066564.9651484,-0.63720703125,-0.03369140625,0.7724609375,-0.244140625,-0.42724609375,0.67138671875,-0.9832763671875,38.5675048828125,68.62060546875
1759066564.977021,-0.63134765625,-0.0146484375,0.7744140625,1.3427734375,-0.42724609375,0.732421875,-0.9722900390625,38.5675048828125,68.631591796875
1759066564.9863405,-0.63134765625,-0.0146484375,0.7744140625,1.3427734375,-0.42724609375,0.732421875,-0.955810546875,38.5675048828125,68.642578125
1759066564.9949815,-0.625,-0.00537109375,0.78173828125,0.48828125,-0.48828125,0.67138671875,-0.9393310546875,38.5675048828125,68.6480712890625
1759066565.0049598,-0.625,-0.00537109375,0.78173828125,0.48828125,-0.48828125,0.67138671875,-0.933837890625,38.56201171875,68.6590576171875
1759066565.01574,-0.62158203125,0.0,0.78271484375,-1.5869140625,-0.48828125,0.9765625,-0.9283447265625,38.56201171875,68.6700439453125
1759066565.0254612,-0.62158203125,0.0,0.78271484375,-1.5869140625,-0.48828125,0.9765625,-0.9393310546875,38.5565185546875,68.6810302734375
1759066565.035269,-0.61572265625,-0.0087890625,0.78759765625,-2.74658203125,-0.54931640625,1.03759765625,-0.9503173828125,38.5565185546875,68.6920166015625
1759066565.0459828,-0.61572265625,-0.0087890625,0.78759765625,-2.74658203125,-0.54931640625,1.03759765625,-0.9722900390625,38.551025390625,68.70849609375
1759066565.0550241,-0.61669921875,-0.01904296875,0.7919921875,-2.25830078125,-0.3662109375,1.03759765625,-0.9832763671875,38.5455322265625,68.719482421875
1759066565.0649924,-0.61669921875,-0.01904296875,0.7919921875,-2.25830078125,-0.3662109375,1.03759765625,-0.999755859375,38.5455322265625,68.7359619140625
1759066565.0751133,-0.61279296875,-0.02734375,0.78466796875,-0.244140625,-0.30517578125,1.0986328125,-0.999755859375,38.5400390625,68.7469482421875
1759066565.0852385,-0.61279296875,-0.02734375,0.78466796875,-0.244140625,-0.30517578125,1.0986328125,-0.9942626953125,38.5345458984375,68.763427734375
1759066565.0951416,-0.6123046875,-0.01953125,0.78662109375,1.953125,-0.3662109375,0.6103515625,-0.9832763671875,38.5345458984375,68.7744140625
1759066565.1050754,-0.6123046875,-0.01953125,0.78662109375,1.953125,-0.3662109375,0.6103515625,-0.955810546875,38.529052734375,68.785400390625
1759066565.1154344,-0.61767578125,-0.0107421875,0.79052734375,2.38037109375,-0.3662109375,0.6103515625,-0.933837890625,38.5235595703125,68.7908935546875
1759066565.1250849,-0.61767578125,-0.0107421875,0.79052734375,2.38037109375,-0.3662109375,0.6103515625,-0.9063720703125,38.51806640625,68.8018798828125
1759066565.1351106,-0.6201171875,-0.0029296875,0.78857421875,0.9765625,-0.42724609375,0.48828125,-0.8843994140625,38.5125732421875,68.807373046875
1759066565.1455703,-0.6201171875,-0.0029296875,0.78857421875,0.9765625,-0.42724609375,0.48828125,-0.8734130859375,38.507080078125,68.818359375
1759066565.1551461,-0.6201171875,-0.00439453125,0.7841796875,-0.8544921875,-0.42724609375,0.6103515625,-0.867919921875,38.5015869140625,68.8238525390625
1759066565.1651156,-0.6201171875,-0.00439453125,0.7841796875,-0.8544921875,-0.42724609375,0.6103515625,-0.8734130859375,38.49609375,68.8348388671875
1759066565.1751673,-0.619140625,-0.00439453125,0.78369140625,-2.25830078125,-0.48828125,0.67138671875,-0.87890625,38.4906005859375,68.8458251953125
1759066565.1853244,-0.619140625,-0.00439453125,0.78369140625,-2.25830078125,-0.48828125,0.67138671875,-0.8953857421875,38.485107421875,68.851318359375
1759066565.1952271,-0.61865234375,-0.00927734375,0.787109375,-2.62451171875,-0.6103515625,0.6103515625,-0.9173583984375,38.4796142578125,68.8623046875
1759066565.2051725,-0.61865234375,-0.00927734375,0.787109375,-2.62451171875,-0.6103515625,0.6103515625,-0.933837890625,38.4686279296875,68.873291015625
1759066565.2183297,-0.61767578125,-0.00537109375,0.78466796875,-1.77001953125,-0.67138671875,0.732421875,-0.9503173828125,38.463134765625,68.8787841796875
1759066565.225266,-0.61767578125,-0.00537109375,0.78466796875,-1.77001953125,-0.67138671875,0.732421875,-0.9613037109375,38.4576416015625,68.8897705078125
1759066565.2352672,-0.619140625,-0.00537109375,0.78369140625,0.1220703125,-0.732421875,0.6103515625,-0.9613037109375,38.4466552734375,68.9007568359375
1759066565.2494078,-0.619140625,-0.00537109375,0.78369140625,0.1220703125,-0.732421875,0.6103515625,-0.955810546875,38.441162109375,68.90625
1759066565.255431,-0.61865234375,-0.00732421875,0.787109375,-0.8544921875,-0.732421875,0.67138671875,-0.9503173828125,38.43017578125,68.917236328125
1759066565.2652972,-0.61865234375,-0.00732421875,0.787109375,-0.8544921875,-0.732421875,0.67138671875,-0.9503173828125,38.4246826171875,68.92822265625
1759066565.2798932,-0.61669921875,-0.00439453125,0.78515625,-0.6103515625,-0.79345703125,0.67138671875,-0.9503173828125,38.4136962890625,68.9337158203125
1759066565.287794,-0.61669921875,-0.00439453125,0.78515625,-0.6103515625,-0.79345703125,0.67138671875,-0.9503173828125,38.4027099609375,68.9447021484375
1759066565.295752,-0.62939453125,0.025390625,0.7744140625,3.90625,-0.732421875,0.8544921875,-0.9228515625,38.397216796875,68.9556884765625
1759066565.3058484,-0.62939453125,0.025390625,0.7744140625,3.90625,-0.732421875,0.8544921875,-0.8734130859375,38.3917236328125,68.9666748046875
1759066565.3164084,-0.63427734375,0.02685546875,0.77734375,6.9580078125,-0.732421875,0.8544921875,-0.8074951171875,38.3807373046875,68.9776611328125
1759066565.3255482,-0.63427734375,0.02685546875,0.77734375,6.9580078125,-0.732421875,0.8544921875,-0.72509765625,38.375244140625,68.9886474609375
1759066565.3357534,-0.63427734375,0.01220703125,0.78515625,1.52587890625,-0.732421875,0.9765625,-0.670166015625,38.3697509765625,69.005126953125
1759066565.347311,-0.63427734375,0.01220703125,0.78515625,1.52587890625,-0.732421875,0.9765625,-0.6427001953125,38.3642578125,69.01611328125
1759066565.3558137,-0.6298828125,-0.00830078125,0.77978515625,-3.23486328125,-0.8544921875,1.15966796875,-0.63720703125,38.3587646484375,69.0325927734375
1759066565.3661196,-0.6298828125,-0.00830078125,0.77978515625,-3.23486328125,-0.8544921875,1.15966796875,-0.6536865234375,38.353271484375,69.049072265625
1759066565.3758764,-0.6259765625,-0.0390625,0.7822265625,-3.662109375,-0.91552734375,0.79345703125,-0.6756591796875,38.34228515625,69.06005859375
1759066565.3861496,-0.6259765625,-0.0390625,0.7822265625,-3.662109375,-0.91552734375,0.79345703125,-0.703125,38.3367919921875,69.071044921875
1759066565.3959115,-0.6240234375,-0.0517578125,0.77685546875,-1.708984375,-0.91552734375,0.54931640625,-0.7196044921875,38.331298828125,69.0765380859375
1759066565.4055798,-0.6240234375,-0.0517578125,0.77685546875,-1.708984375,-0.91552734375,0.54931640625,-0.736083984375,38.3258056640625,69.08203125
1759066565.4163356,-0.630859375,-0.03662109375,0.77294921875,1.8310546875,-0.9765625,0.0,-0.7305908203125,38.3148193359375,69.0875244140625
1759066565.4255502,-0.630859375,-0.03662109375,0.77294921875,1.8310546875,-0.9765625,0.0,-0.7196044921875,38.309326171875,69.0875244140625
1759066565.4361362,-0.634765625,-0.02734375,0.77197265625,2.8076171875,-0.9765625,-0.06103515625,-0.6976318359375,38.3038330078125,69.0875244140625
1759066565.447392,-0.634765625,-0.02734375,0.77197265625,2.8076171875,-0.9765625,-0.06103515625,-0.6756591796875,38.29833984375,69.0875244140625
1759066565.4559429,-0.63720703125,-0.01416015625,0.77001953125,1.64794921875,-1.0986328125,0.06103515625,-0.6591796875,38.287353515625,69.0875244140625
1759066565.4669485,-0.63720703125,-0.01416015625,0.77001953125,1.64794921875,-1.0986328125,0.06103515625,-0.6427001953125,38.2818603515625,69.0875244140625
1759066565.4759834,-0.63818359375,-0.0166015625,0.77490234375,-0.67138671875,-1.28173828125,0.244140625,-0.6427001953125,38.2763671875,69.0875244140625
1759066565.4862788,-0.63818359375,-0.0166015625,0.77490234375,-0.67138671875,-1.28173828125,0.244140625,-0.6536865234375,38.265380859375,69.093017578125
1759066565.495988,-0.63134765625,-0.02001953125,0.77294921875,-0.91552734375,-1.40380859375,0.244140625,-0.6646728515625,38.2598876953125,69.093017578125
1759066565.505711,-0.63134765625,-0.02001953125,0.77294921875,-0.91552734375,-1.40380859375,0.244140625,-0.6756591796875,38.2489013671875,69.0985107421875
1759066565.5165415,-0.63671875,-0.013671875,0.77294921875,0.06103515625,-1.46484375,0.30517578125,-0.6756591796875,38.2379150390625,69.10400390625
1759066565.5257454,-0.63671875,-0.013671875,0.77294921875,0.06103515625,-1.46484375,0.30517578125,-0.6756591796875,38.232421875,69.10400390625
1759066565.536046,-0.6396484375,-0.01416015625,0.76904296875,2.197265625,-1.28173828125,-0.1220703125,-0.6591796875,38.2269287109375,69.10400390625
1759066565.5472155,-0.6396484375,-0.01416015625,0.76904296875,2.197265625,-1.28173828125,-0.1220703125,-0.6427001953125,38.2159423828125,69.0985107421875
1759066565.5560749,-0.6396484375,-0.0224609375,0.7666015625,3.47900390625,-0.9765625,-0.30517578125,-0.6097412109375,38.2159423828125,69.0985107421875
1759066565.5658424,-0.6396484375,-0.0224609375,0.7666015625,3.47900390625,-0.9765625,-0.30517578125,-0.582275390625,38.21044921875,69.093017578125
1759066565.5761259,-0.6396484375,-0.0087890625,0.7724609375,3.84521484375,-0.6103515625,-0.42724609375,-0.5548095703125,38.21044921875,69.08203125
1759066565.586367,-0.6396484375,-0.0087890625,0.7724609375,3.84521484375,-0.6103515625,-0.42724609375,-0.5218505859375,38.2159423828125,69.0765380859375
1759066565.5961168,-0.6328125,0.00537109375,0.7734375,2.9296875,-0.244140625,-0.48828125,-0.4998779296875,38.221435546875,69.071044921875
1759066565.6063442,-0.6328125,0.00537109375,0.7734375,2.9296875,-0.244140625,-0.48828125,-0.4779052734375,38.221435546875,69.06005859375
1759066565.6166859,-0.62548828125,0.0029296875,0.78076171875,1.220703125,-0.1220703125,-0.42724609375,-0.472412109375,38.2269287109375,69.0545654296875
1759066565.6276975,-0.62548828125,0.0029296875,0.78076171875,1.220703125,-0.1220703125,-0.42724609375,-0.46142578125,38.232421875,69.049072265625
1759066565.6361506,-0.61962890625,-0.00927734375,0.7890625,-0.18310546875,-0.06103515625,-0.18310546875,-0.4669189453125,38.2379150390625,69.0435791015625
1759066565.6476245,-0.61962890625,-0.00927734375,0.7890625,-0.18310546875,-0.06103515625,-0.18310546875,-0.472412109375,38.243408203125,69.0435791015625
1759066565.6563745,-0.6162109375,-0.0166015625,0.78662109375,0.0,0.0,-0.06103515625,-0.472412109375,38.2489013671875,69.0435791015625
1759066565.6659825,-0.6162109375,-0.0166015625,0.78662109375,0.0,0.0,-0.06103515625,-0.4779052734375,38.25439453125,69.0380859375
1759066565.6763752,-0.6171875,-0.0068359375,0.787109375,0.1220703125,0.0,0.0,-0.4779052734375,38.25439453125,69.0380859375
1759066565.686355,-0.6171875,-0.0068359375,0.787109375,0.1220703125,0.0,0.0,-0.4779052734375,38.2598876953125,69.0380859375
1759066565.696204,-0.61572265625,0.00634765625,0.7900390625,-0.3662109375,0.06103515625,0.0,-0.4833984375,38.2598876953125,69.0380859375
1759066565.7060192,-0.61572265625,0.00634765625,0.7900390625,-0.3662109375,0.06103515625,0.0,-0.4888916015625,38.265380859375,69.0380859375
1759066565.7167177,-0.6162109375,0.00390625,0.7939453125,-1.15966796875,0.18310546875,0.0,-0.4998779296875,38.265380859375,69.0380859375
1759066565.7260027,-0.6162109375,0.00390625,0.7939453125,-1.15966796875,0.18310546875,0.0,-0.5108642578125,38.2708740234375,69.0380859375
1759066565.7363026,-0.61474609375,-0.009765625,0.7890625,-0.30517578125,0.244140625,-0.18310546875,-0.5108642578125,38.2763671875,69.0325927734375
1759066565.7474773,-0.61474609375,-0.009765625,0.7890625,-0.30517578125,0.244140625,-0.18310546875,-0.516357421875,38.2763671875,69.0325927734375
1759066565.7563355,-0.61767578125,-0.0244140625,0.78759765625,0.79345703125,0.3662109375,-0.30517578125,-0.5108642578125,38.2818603515625,69.027099609375
1759066565.7660518,-0.61767578125,-0.0244140625,0.78759765625,0.79345703125,0.3662109375,-0.30517578125,-0.50537109375,38.2818603515625,69.027099609375
1759066565.7765646,-0.61962890625,-0.0126953125,0.78369140625,1.52587890625,0.48828125,-0.30517578125,-0.494384765625,38.287353515625,69.0216064453125
1759066565.7871156,-0.61962890625,-0.0126953125,0.78369140625,1.52587890625,0.48828125,-0.30517578125,-0.4833984375,38.2928466796875,69.01611328125
1759066565.7963421,-0.62353515625,0.0,0.787109375,1.40380859375,0.6103515625,-0.54931640625,-0.472412109375,38.29833984375,69.0106201171875
1759066565.8064358,-0.62353515625,0.0,0.787109375,1.40380859375,0.6103515625,-0.54931640625,-0.4669189453125,38.3038330078125,69.005126953125
1759066565.816827,-0.6220703125,-0.00244140625,0.78564453125,-0.67138671875,0.79345703125,-0.54931640625,-0.4779052734375,38.3148193359375,68.994140625
1759066565.8262124,-0.6220703125,-0.00244140625,0.78564453125,-0.67138671875,0.79345703125,-0.54931640625,-0.4888916015625,38.3203125,68.9886474609375
1759066565.8368685,-0.61767578125,-0.00390625,0.7861328125,-2.13623046875,0.91552734375,-0.48828125,-0.516357421875,38.331298828125,68.983154296875
1759066565.847769,-0.61767578125,-0.00390625,0.7861328125,-2.13623046875,0.91552734375,-0.48828125,-0.538330078125,38.34228515625,68.9776611328125
1759066565.8565302,-0.60986328125,-0.00439453125,0.80224609375,-3.84521484375,1.0986328125,-0.3662109375,-0.582275390625,38.3477783203125,68.97216796875
1759066565.8662016,-0.60986328125,-0.00439453125,0.80224609375,-3.84521484375,1.0986328125,-0.3662109375,-0.6207275390625,38.3587646484375,68.9666748046875
1759066565.8767266,-0.60498046875,-0.0087890625,0.80419921875,-3.23486328125,1.40380859375,-0.67138671875,-0.6591796875,38.3697509765625,68.961181640625
1759066565.8871596,-0.60498046875,-0.0087890625,0.80419921875,-3.23486328125,1.40380859375,-0.67138671875,-0.692138671875,38.3807373046875,68.9501953125
1759066565.896453,-0.60791015625,-0.0126953125,0.7958984375,-1.46484375,1.52587890625,-0.91552734375,-0.714111328125,38.397216796875,68.939208984375
1759066565.9069035,-0.60791015625,-0.0126953125,0.7958984375,-1.46484375,1.52587890625,-0.91552734375,-0.736083984375,38.408203125,68.92822265625
1759066565.9170132,-0.61328125,-0.005859375,0.794921875,-0.9765625,1.46484375,-1.03759765625,-0.7525634765625,38.419189453125,68.917236328125
1759066565.931641,-0.61328125,-0.005859375,0.794921875,-0.9765625,1.46484375,-1.03759765625,-0.76904296875,38.43017578125,68.9007568359375
1759066565.9398744,-0.62158203125,-0.01123046875,0.7841796875,-0.06103515625,1.0986328125,-1.28173828125,-0.780029296875,38.4356689453125,68.8897705078125
1759066565.9481208,-0.62158203125,-0.01123046875,0.7841796875,-0.06103515625,1.0986328125,-1.28173828125,-0.7855224609375,38.441162109375,68.873291015625
1759066565.9566073,-0.62744140625,-0.0107421875,0.77734375,-0.1220703125,0.732421875,-1.15966796875,-0.7965087890625,38.4466552734375,68.8568115234375
1759066565.9663036,-0.62744140625,-0.0107421875,0.77734375,-0.1220703125,0.732421875,-1.15966796875,-0.8074951171875,38.4521484375,68.8458251953125
1759066565.9768019,-0.62841796875,-0.01318359375,0.77392578125,0.1220703125,0.42724609375,-1.28173828125,-0.81298828125,38.4521484375,68.829345703125
1759066565.9871671,-0.62841796875,-0.01318359375,0.77392578125,0.1220703125,0.42724609375,-1.28173828125,-0.823974609375,38.4576416015625,68.8128662109375
1759066565.9965568,-0.63037109375,-0.01025390625,0.77685546875,-0.3662109375,0.244140625,-1.220703125,-0.8349609375,38.4576416015625,68.79638671875
1759066566.0070488,-0.63037109375,-0.01025390625,0.77685546875,-0.3662109375,0.244140625,-1.220703125,-0.845947265625,38.4576416015625,68.785400390625
1759066566.0170817,-0.63037109375,-0.0126953125,0.7724609375,-0.54931640625,0.06103515625,-1.28173828125,-0.8624267578125,38.4576416015625,68.7689208984375
1759066566.0263646,-0.63037109375,-0.0126953125,0.7724609375,-0.54931640625,0.06103515625,-1.28173828125,-0.87890625,38.463134765625,68.75244140625
1759066566.036515,-0.62939453125,-0.01220703125,0.77685546875,-0.54931640625,0.06103515625,-1.28173828125,-0.889892578125,38.463134765625,68.7359619140625
1759066566.0479162,-0.62939453125,-0.01220703125,0.77685546875,-0.54931640625,0.06103515625,-1.28173828125,-0.9063720703125,38.463134765625,68.719482421875
1759066566.0565724,-0.6279296875,-0.01416015625,0.7783203125,0.48828125,0.18310546875,-1.46484375,-0.911865234375,38.463134765625,68.697509765625
1759066566.0664349,-0.6279296875,-0.01416015625,0.7783203125,0.48828125,0.18310546875,-1.46484375,-0.9173583984375,38.4686279296875,68.6810302734375
1759066566.0769525,-0.6259765625,-0.0185546875,0.7802734375,1.5869140625,0.18310546875,-1.52587890625,-0.9173583984375,38.47412109375,68.6590576171875
1759066566.0871425,-0.6259765625,-0.0185546875,0.7802734375,1.5869140625,0.18310546875,-1.52587890625,-0.911865234375,38.47412109375,68.6370849609375
1759066566.0965588,-0.6201171875,-0.02099609375,0.78515625,2.99072265625,0.30517578125,-1.46484375,-0.8953857421875,38.4796142578125,68.62060546875
1759066566.1071112,-0.6201171875,-0.02099609375,0.78515625,2.99072265625,0.30517578125,-1.46484375,-0.87890625,38.4796142578125,68.5986328125
1759066566.1171792,-0.61767578125,-0.01416015625,0.7880859375,3.72314453125,0.244140625,-1.46484375,-0.8514404296875,38.485107421875,68.5821533203125
1759066566.1265116,-0.61767578125,-0.01416015625,0.7880859375,3.72314453125,0.244140625,-1.46484375,-0.8294677734375,38.485107421875,68.5601806640625
1759066566.1366665,-0.61865234375,-0.0048828125,0.78857421875,3.0517578125,0.30517578125,-1.40380859375,-0.8074951171875,38.4906005859375,68.543701171875
1759066566.1482246,-0.61865234375,-0.0048828125,0.78857421875,3.0517578125,0.30517578125,-1.40380859375,-0.791015625,38.4906005859375,68.5272216796875
1759066566.1566505,-0.61962890625,-0.005859375,0.7900390625,2.01416015625,0.30517578125,-1.40380859375,-0.780029296875,38.49609375,68.5107421875
1759066566.1670437,-0.61962890625,-0.005859375,0.7900390625,2.01416015625,0.30517578125,-1.40380859375,-0.7745361328125,38.49609375,68.48876953125
1759066566.1768703,-0.619140625,-0.00927734375,0.78857421875,0.3662109375,0.3662109375,-1.28173828125,-0.780029296875,38.5015869140625,68.4722900390625
1759066566.1872263,-0.619140625,-0.00927734375,0.78857421875,0.3662109375,0.3662109375,-1.28173828125,-0.7855224609375,38.5015869140625,68.4613037109375
1759066566.1965728,-0.6220703125,-0.01611328125,0.7861328125,-0.54931640625,0.42724609375,-1.03759765625,-0.802001953125,38.507080078125,68.44482421875
1759066566.2073052,-0.6220703125,-0.01611328125,0.7861328125,-0.54931640625,0.42724609375,-1.03759765625,-0.81298828125,38.507080078125,68.433837890625
1759066566.2173126,-0.62158203125,-0.0185546875,0.78076171875,-0.30517578125,0.48828125,-0.9765625,-0.823974609375,38.5125732421875,68.4173583984375
1759066566.2270036,-0.62158203125,-0.0185546875,0.78076171875,-0.30517578125,0.48828125,-0.9765625,-0.8404541015625,38.51806640625,68.4063720703125
1759066566.2370288,-0.62548828125,-0.02099609375,0.783203125,1.28173828125,0.6103515625,-0.9765625,-0.8349609375,38.5235595703125,68.3953857421875
1759066566.2482448,-0.62548828125,-0.02099609375,0.783203125,1.28173828125,0.6103515625,-0.9765625,-0.8294677734375,38.529052734375,68.37890625
1759066566.256736,-0.62890625,-0.0205078125,0.7744140625,2.62451171875,0.6103515625,-0.91552734375,-0.81298828125,38.5345458984375,68.367919921875
1759066566.2671506,-0.62890625,-0.0205078125,0.7744140625,2.62451171875,0.6103515625,-0.91552734375,-0.7965087890625,38.5400390625,68.35693359375
1759066566.276996,-0.63330078125,-0.01220703125,0.77099609375,3.173828125,0.6103515625,-0.79345703125,-0.7745361328125,38.5455322265625,68.345947265625
1759066566.2876544,-0.63330078125,-0.01220703125,0.77099609375,3.173828125,0.6103515625,-0.79345703125,-0.7470703125,38.551025390625,68.3349609375
1759066566.2967534,-0.6337890625,-0.009765625,0.7685546875,3.47900390625,0.67138671875,-0.79345703125,-0.72509765625,38.5565185546875,68.323974609375
1759066566.3074176,-0.6337890625,-0.009765625,0.7685546875,3.47900390625,0.67138671875,-0.79345703125,-0.6976318359375,38.5675048828125,68.31298828125
1759066566.3175175,-0.63037109375,-0.0087890625,0.771484375,2.86865234375,0.732421875,-0.42724609375,-0.6756591796875,38.5784912109375,68.302001953125
1759066566.3271017,-0.63037109375,-0.0087890625,0.771484375,2.86865234375,0.732421875,-0.42724609375,-0.648193359375,38.583984375,68.2965087890625
1759066566.3371234,-0.6240234375,-0.00927734375,0.78515625,1.5869140625,0.79345703125,-0.1220703125,-0.63720703125,38.594970703125,68.2965087890625
1759066566.348319,-0.6240234375,-0.00927734375,0.78515625,1.5869140625,0.79345703125,-0.1220703125,-0.626220703125,38.60595703125,68.291015625
1759066566.3569672,-0.62158203125,-0.0107421875,0.7861328125,1.0986328125,0.9765625,0.06103515625,-0.615234375,38.616943359375,68.291015625
1759066566.3671942,-0.62158203125,-0.0107421875,0.7861328125,1.0986328125,0.9765625,0.06103515625,-0.604248046875,38.6279296875,68.291015625
1759066566.377099,-0.62353515625,-0.0146484375,0.78466796875,0.9765625,0.9765625,0.30517578125,-0.59326171875,38.638916015625,68.2965087890625
1759066566.38747,-0.62353515625,-0.0146484375,0.78466796875,0.9765625,0.9765625,0.30517578125,-0.582275390625,38.6444091796875,68.302001953125
1759066566.396851,-0.6259765625,-0.01220703125,0.78173828125,1.03759765625,1.0986328125,0.732421875,-0.5712890625,38.6553955078125,68.3074951171875
1759066566.4073308,-0.6259765625,-0.01220703125,0.78173828125,1.03759765625,1.0986328125,0.732421875,-0.5548095703125,38.6663818359375,68.3184814453125
1759066566.4176304,-0.6259765625,-0.005859375,0.77978515625,0.48828125,1.0986328125,1.0986328125,-0.5438232421875,38.6773681640625,68.3294677734375
1759066566.4272885,-0.6259765625,-0.005859375,0.77978515625,0.48828125,1.0986328125,1.0986328125,-0.5328369140625,38.69384765625,68.345947265625
1759066566.4368675,-0.62451171875,-0.00390625,0.78515625,-0.42724609375,1.220703125,1.3427734375,-0.52734375,38.704833984375,68.3624267578125
1759066566.448359,-0.62451171875,-0.00390625,0.78515625,-0.42724609375,1.220703125,1.3427734375,-0.5218505859375,38.7158203125,68.37890625
1759066566.4570405,-0.62451171875,-0.00830078125,0.78173828125,-0.91552734375,1.220703125,1.46484375,-0.5218505859375,38.726806640625,68.3953857421875
1759066566.4673202,-0.62451171875,-0.00830078125,0.78173828125,-0.91552734375,1.220703125,1.46484375,-0.5218505859375,38.73779296875,68.4173583984375
1759066566.47756,-0.62646484375,-0.01171875,0.779296875,-0.6103515625,1.220703125,1.708984375,-0.5108642578125,38.748779296875,68.4393310546875
1759066566.4875555,-0.62646484375,-0.01171875,0.779296875,-0.6103515625,1.220703125,1.708984375,-0.50537109375,38.7652587890625,68.455810546875
1759066566.4969594,-0.6259765625,-0.0078125,0.7802734375,-0.91552734375,1.220703125,1.708984375,-0.50537109375,38.7762451171875,68.477783203125
1759066566.5077977,-0.6259765625,-0.0078125,0.7802734375,-0.91552734375,1.220703125,1.708984375,-0.4998779296875,38.7872314453125,68.499755859375
1759066566.5178218,-0.625,-0.00390625,0.78369140625,-1.40380859375,1.15966796875,1.64794921875,-0.50537109375,38.7982177734375,68.521728515625
1759066566.5303302,-0.62158203125,-0.00341796875,0.78662109375,-1.28173828125,1.03759765625,1.64794921875,-0.50537109375,38.8092041015625,68.543701171875
1759066566.5411844,-0.62158203125,-0.00341796875,0.78662109375,-1.28173828125,1.03759765625,1.64794921875,-0.50537109375,38.814697265625,68.5601806640625
1759066566.54988,-0.62109375,-0.00439453125,0.7841796875,-1.5869140625,0.91552734375,1.46484375,-0.50537109375,38.82568359375,68.5821533203125
1759066566.5573924,-0.62109375,-0.00439453125,0.7841796875,-1.5869140625,0.91552734375,1.46484375,-0.5108642578125,38.8311767578125,68.5986328125
1759066566.5674841,-0.62158203125,-0.00439453125,0.78564453125,-1.03759765625,0.79345703125,1.0986328125,-0.5108642578125,38.8421630859375,68.6151123046875
1759066566.5773962,-0.62158203125,-0.00439453125,0.78564453125,-1.03759765625,0.79345703125,1.0986328125,-0.516357421875,38.84765625,68.631591796875
1759066566.5876627,-0.62646484375,-0.00732421875,0.78173828125,-0.244140625,0.6103515625,0.91552734375,-0.5108642578125,38.8531494140625,68.642578125
1759066566.5970924,-0.62646484375,-0.00732421875,0.78173828125,-0.244140625,0.6103515625,0.91552734375,-0.50537109375,38.858642578125,68.653564453125
1759066566.6078346,-0.62890625,-0.00390625,0.7744140625,0.244140625,0.3662109375,0.67138671875,-0.4998779296875,38.858642578125,68.66455078125
1759066566.617855,-0.62890625,-0.00390625,0.7744140625,0.244140625,0.3662109375,0.67138671875,-0.494384765625,38.8641357421875,68.675537109375
1759066566.6280804,-0.62890625,-0.0029296875,0.77880859375,0.244140625,0.1220703125,0.42724609375,-0.4888916015625,38.8641357421875,68.6865234375
1759066566.6376178,-0.62890625,-0.0029296875,0.77880859375,0.244140625,0.1220703125,0.42724609375,-0.4779052734375,38.8641357421875,68.6920166015625
1759066566.6486351,-0.62548828125,-0.0107421875,0.7724609375,1.28173828125,0.06103515625,0.18310546875,-0.472412109375,38.8641357421875,68.6920166015625
1759066566.6572669,-0.62548828125,-0.0107421875,0.7724609375,1.28173828125,0.06103515625,0.18310546875,-0.4559326171875,38.8641357421875,68.697509765625
1759066566.6675491,-0.634765625,-0.0126953125,0.76904296875,2.62451171875,-0.06103515625,0.0,-0.4339599609375,38.8641357421875,68.697509765625
1759066566.6775305,-0.634765625,-0.0126953125,0.76904296875,2.62451171875,-0.06103515625,0.0,-0.4119873046875,38.8641357421875,68.7030029296875
1759066566.6877515,-0.63134765625,-0.00146484375,0.77197265625,3.5400390625,-0.18310546875,-0.244140625,-0.3790283203125,38.858642578125,68.697509765625
1759066566.6971123,-0.63134765625,-0.00146484375,0.77197265625,3.5400390625,-0.18310546875,-0.244140625,-0.3460693359375,38.858642578125,68.697509765625
1759066566.7080388,-0.630859375,0.00048828125,0.77587890625,2.9296875,-0.3662109375,-0.3662109375,-0.318603515625,38.858642578125,68.6920166015625
1759066566.7180278,-0.630859375,0.00048828125,0.77587890625,2.9296875,-0.3662109375,-0.3662109375,-0.296630859375,38.8531494140625,68.6865234375
1759066566.7275825,-0.63037109375,0.005859375,0.77294921875,1.46484375,-0.6103515625,-0.30517578125,-0.274658203125,38.8531494140625,68.6865234375
1759066566.7378428,-0.63037109375,0.005859375,0.77294921875,1.46484375,-0.6103515625,-0.30517578125,-0.263671875,38.84765625,68.6810302734375
1759066566.7478497,-0.6279296875,0.00341796875,0.775390625,0.244140625,-0.732421875,-0.54931640625,-0.2581787109375,38.8421630859375,68.675537109375
1759066566.7571588,-0.6279296875,0.00341796875,0.775390625,0.244140625,-0.732421875,-0.54931640625,-0.2581787109375,38.8311767578125,68.6700439453125
1759066566.7672672,-0.62548828125,-0.00390625,0.78173828125,-0.48828125,-0.732421875,-0.54931640625,-0.263671875,38.82568359375,68.66455078125
1759066566.7776554,-0.62548828125,-0.00390625,0.78173828125,-0.48828125,-0.732421875,-0.54931640625,-0.274658203125,38.8201904296875,68.653564453125
1759066566.7875774,-0.62255859375,-0.005859375,0.783203125,-0.30517578125,-0.79345703125,-0.54931640625,-0.2801513671875,38.814697265625,68.6480712890625
1759066566.7971785,-0.62255859375,-0.005859375,0.783203125,-0.30517578125,-0.79345703125,-0.54931640625,-0.28564453125,38.8092041015625,68.642578125
1759066566.8079424,-0.62060546875,-0.00390625,0.78955078125,0.3662109375,-0.67138671875,-0.54931640625,-0.2911376953125,38.7982177734375,68.6370849609375
1759066566.8177614,-0.62060546875,-0.00390625,0.78955078125,0.3662109375,-0.67138671875,-0.54931640625,-0.2911376953125,38.792724609375,68.6260986328125
1759066566.830035,-0.62060546875,-0.00390625,0.78759765625,0.9765625,-0.42724609375,-0.67138671875,-0.2911376953125,38.7872314453125,68.62060546875
1759066566.8393843,-0.62060546875,-0.00390625,0.78759765625,0.9765625,-0.42724609375,-0.67138671875,-0.28564453125,38.78173828125,68.6151123046875
1759066566.8475647,-0.6201171875,-0.00732421875,0.78466796875,2.44140625,-0.244140625,-0.79345703125,-0.274658203125,38.7762451171875,68.6041259765625
1759066566.857432,-0.6201171875,-0.00732421875,0.78466796875,2.44140625,-0.244140625,-0.79345703125,-0.252685546875,38.7762451171875,68.5931396484375
1759066566.867341,-0.62060546875,-0.005859375,0.78515625,3.662109375,-0.1220703125,-0.67138671875,-0.230712890625,38.770751953125,68.587646484375
1759066566.8778472,-0.62060546875,-0.005859375,0.78515625,3.662109375,-0.1220703125,-0.67138671875,-0.19775390625,38.770751953125,68.57666015625
1759066566.8873634,-0.619140625,-0.00146484375,0.7861328125,4.21142578125,-0.06103515625,-0.732421875,-0.164794921875,38.7652587890625,68.565673828125
1759066566.8972228,-0.619140625,-0.00146484375,0.7861328125,4.21142578125,-0.06103515625,-0.732421875,-0.1318359375,38.7652587890625,68.5601806640625
1759066566.9077108,-0.61767578125,-0.00537109375,0.78564453125,3.90625,-0.06103515625,-0.67138671875,-0.098876953125,38.759765625,68.5491943359375
1759066566.9178958,-0.61767578125,-0.00537109375,0.78564453125,3.90625,-0.06103515625,-0.67138671875,-0.06591796875,38.759765625,68.543701171875
1759066566.9274752,-0.61962890625,-0.00439453125,0.78857421875,4.39453125,-0.06103515625,-0.54931640625,-0.032958984375,38.7542724609375,68.5382080078125
1759066566.9373264,-0.61962890625,-0.00439453125,0.78857421875,4.39453125,-0.06103515625,-0.54931640625,0.0,38.7542724609375,68.53271484375
1759066566.9478574,-0.6201171875,-0.00048828125,0.77685546875,4.94384765625,-0.06103515625,-0.42724609375,0.0439453125,38.748779296875,68.5272216796875
1759066566.9574244,-0.6201171875,-0.00048828125,0.77685546875,4.94384765625,-0.06103515625,-0.42724609375,0.087890625,38.748779296875,68.521728515625
1759066566.9675033,-0.6259765625,-0.00341796875,0.77783203125,5.615234375,-0.1220703125,-0.48828125,0.1318359375,38.7432861328125,68.5162353515625
1759066566.9778008,-0.6259765625,-0.00341796875,0.77783203125,5.615234375,-0.1220703125,-0.48828125,0.1812744140625,38.7432861328125,68.5107421875
1759066566.9879596,-0.62548828125,0.0,0.77392578125,6.103515625,-0.18310546875,-0.3662109375,0.2362060546875,38.73779296875,68.5052490234375
1759066566.997369,-0.62548828125,0.0,0.77392578125,6.103515625,-0.18310546875,-0.3662109375,0.2911376953125,38.73779296875,68.499755859375
1759066567.0075426,-0.62646484375,0.00634765625,0.77978515625,5.79833984375,-0.18310546875,-0.3662109375,0.3460693359375,38.7322998046875,68.4942626953125
1759066567.0178509,-0.62646484375,0.00634765625,0.77978515625,5.79833984375,-0.18310546875,-0.3662109375,0.3955078125,38.7322998046875,68.48876953125
1759066567.0275981,-0.6220703125,0.01171875,0.77880859375,5.37109375,-0.3662109375,-0.3662109375,0.4449462890625,38.726806640625,68.4832763671875
1759066567.0374627,-0.6220703125,0.01171875,0.77880859375,5.37109375,-0.3662109375,-0.3662109375,0.494384765625,38.7213134765625,68.4832763671875
1759066567.048467,-0.62158203125,0.005859375,0.783203125,5.55419921875,-0.42724609375,-0.42724609375,0.5438232421875,38.7213134765625,68.477783203125
1759066567.057608,-0.62158203125,0.005859375,0.783203125,5.55419921875,-0.42724609375,-0.42724609375,0.59326171875,38.7158203125,68.4722900390625
1759066567.067663,-0.62451171875,0.00341796875,0.7802734375,5.4931640625,-0.30517578125,-0.30517578125,0.6427001953125,38.7103271484375,68.466796875
1759066567.0780172,-0.62451171875,0.00341796875,0.7802734375,5.4931640625,-0.30517578125,-0.30517578125,0.692138671875,38.704833984375,68.466796875
1759066567.088345,-0.62890625,0.01904296875,0.77294921875,4.5166015625,-0.18310546875,-0.42724609375,0.736083984375,38.704833984375,68.4613037109375
1759066567.097488,-0.62890625,0.01904296875,0.77294921875,4.5166015625,-0.18310546875,-0.42724609375,0.7745361328125,38.6993408203125,68.455810546875
1759066567.1076834,-0.6240234375,0.0126953125,0.78125,3.47900390625,-0.30517578125,-0.6103515625,0.8074951171875,38.6993408203125,68.4503173828125
1759066567.1180909,-0.6240234375,0.0126953125,0.78125,3.47900390625,-0.30517578125,-0.6103515625,0.8349609375,38.69384765625,68.4393310546875
1759066567.1277268,-0.6240234375,0.00927734375,0.78173828125,2.9296875,-0.244140625,-0.6103515625,0.85693359375,38.69384765625,68.433837890625
1759066567.1376479,-0.6240234375,0.00927734375,0.78173828125,2.9296875,-0.244140625,-0.6103515625,0.8843994140625,38.6883544921875,68.4283447265625
1759066567.1483126,-0.62255859375,0.01171875,0.7783203125,3.0517578125,-0.30517578125,-0.732421875,0.9063720703125,38.6883544921875,68.4173583984375
1759066567.1578476,-0.62255859375,0.01171875,0.7783203125,3.0517578125,-0.30517578125,-0.732421875,0.9283447265625,38.682861328125,68.411865234375
1759066567.1677825,-0.61669921875,0.0107421875,0.7890625,3.662109375,-0.244140625,-0.8544921875,0.9503173828125,38.682861328125,68.40087890625
1759066567.1776896,-0.61669921875,0.0107421875,0.7890625,3.662109375,-0.244140625,-0.8544921875,0.977783203125,38.6773681640625,68.389892578125
1759066567.1881466,-0.61669921875,0.0107421875,0.7890625,4.82177734375,-0.1220703125,-1.03759765625,1.0107421875,38.6773681640625,68.37890625
1759066567.1976492,-0.6171875,0.00927734375,0.7841796875,4.82177734375,-0.1220703125,-1.03759765625,1.0491943359375,38.671875,68.3624267578125
1759066567.2077873,-0.619140625,0.01806640625,0.77880859375,4.94384765625,-0.244140625,-0.9765625,1.087646484375,38.671875,68.3514404296875
1759066567.2181664,-0.619140625,0.01806640625,0.77880859375,4.94384765625,-0.244140625,-0.9765625,1.1260986328125,38.6663818359375,68.3404541015625
1759066567.22778,-0.62353515625,0.02197265625,0.7841796875,4.2724609375,-0.3662109375,-0.9765625,1.16455078125,38.660888671875,68.3294677734375
1759066567.2379532,-0.62353515625,0.02197265625,0.7841796875,4.2724609375,-0.3662109375,-0.9765625,1.197509765625,38.660888671875,68.31298828125
1759066567.2485332,-0.6298828125,0.02490234375,0.77197265625,3.41796875,-0.42724609375,-0.79345703125,1.2249755859375,38.6553955078125,68.302001953125
1759066567.2577918,-0.6298828125,0.02490234375,0.77197265625,3.41796875,-0.42724609375,-0.79345703125,1.25244140625,38.64990234375,68.2965087890625
1759066567.267905,-0.630859375,0.0205078125,0.7705078125,3.11279296875,-0.6103515625,-0.91552734375,1.2744140625,38.6444091796875,68.2855224609375
1759066567.278409,-0.630859375,0.0205078125,0.7705078125,3.11279296875,-0.6103515625,-0.91552734375,1.3018798828125,38.638916015625,68.2745361328125
1759066567.288058,-0.63232421875,0.0146484375,0.7763671875,2.99072265625,-0.54931640625,-0.79345703125,1.3238525390625,38.6334228515625,68.258056640625
1759066567.2977946,-0.63232421875,0.0146484375,0.7763671875,2.99072265625,-0.54931640625,-0.79345703125,1.3458251953125,38.6279296875,68.2525634765625
1759066567.3080769,-0.63330078125,0.01611328125,0.76904296875,2.5634765625,-0.48828125,-0.732421875,1.3623046875,38.6279296875,68.2415771484375
1759066567.3183374,-0.63330078125,0.01611328125,0.76904296875,2.5634765625,-0.48828125,-0.732421875,1.38427734375,38.6224365234375,68.2305908203125
1759066567.3279114,-0.64013671875,0.021484375,0.7666015625,1.0986328125,-0.6103515625,-0.54931640625,1.395263671875,38.616943359375,68.2196044921875
1759066567.337912,-0.64013671875,0.021484375,0.7666015625,1.0986328125,-0.6103515625,-0.54931640625,1.4007568359375,38.616943359375,68.214111328125
1759066567.3481886,-0.638671875,0.02294921875,0.771484375,0.30517578125,-0.6103515625,-0.48828125,1.4007568359375,38.6114501953125,68.203125
1759066567.3578615,-0.638671875,0.02294921875,0.771484375,0.30517578125,-0.6103515625,-0.48828125,1.4007568359375,38.6114501953125,68.1976318359375
1759066567.3681016,-0.642578125,0.01708984375,0.765625,-0.18310546875,-0.54931640625,-0.30517578125,1.395263671875,38.60595703125,68.192138671875
1759066567.3782303,-0.642578125,0.01708984375,0.765625,-0.18310546875,-0.54931640625,-0.30517578125,1.3897705078125,38.60595703125,68.1866455078125
1759066567.3881185,-0.6435546875,0.0146484375,0.765625,-0.244140625,-0.54931640625,-0.244140625,1.3897705078125,38.60595703125,68.18115234375
1759066567.397931,-0.6435546875,0.0146484375,0.765625,-0.244140625,-0.54931640625,-0.244140625,1.38427734375,38.60595703125,68.1756591796875
1759066567.408279,-0.64013671875,0.0185546875,0.75927734375,-0.48828125,-0.54931640625,-0.1220703125,1.3787841796875,38.60595703125,68.170166015625
1759066567.4184692,-0.64013671875,0.0185546875,0.75927734375,-0.48828125,-0.54931640625,-0.1220703125,1.3677978515625,38.60595703125,68.170166015625
1759066567.430442,-0.64013671875,0.01708984375,0.76806640625,-0.3662109375,-0.6103515625,-0.06103515625,1.3623046875,38.60595703125,68.1646728515625
1759066567.4394794,-0.64013671875,0.01708984375,0.76806640625,-0.3662109375,-0.6103515625,-0.06103515625,1.3623046875,38.60595703125,68.1646728515625
1759066567.4485087,-0.6396484375,0.01708984375,0.775390625,-0.6103515625,-0.54931640625,0.18310546875,1.3568115234375,38.60595703125,68.1646728515625
1759066567.458193,-0.6396484375,0.01708984375,0.775390625,-0.6103515625,-0.54931640625,0.18310546875,1.351318359375,38.60595703125,68.1646728515625
1759066567.468169,-0.63818359375,0.0205078125,0.77392578125,-0.9765625,-0.3662109375,0.244140625,1.3458251953125,38.60595703125,68.1646728515625
1759066567.4783902,-0.63818359375,0.0205078125,0.77392578125,-0.9765625,-0.3662109375,0.244140625,1.3348388671875,38.6114501953125,68.1646728515625
1759066567.4881744,-0.63427734375,0.0166015625,0.77587890625,-0.54931640625,-0.18310546875,0.18310546875,1.329345703125,38.6114501953125,68.1646728515625
1759066567.4980853,-0.63427734375,0.0166015625,0.77587890625,-0.54931640625,-0.18310546875,0.18310546875,1.3238525390625,38.616943359375,68.170166015625
1759066567.5081577,-0.62744140625,0.01806640625,0.7763671875,0.0,-0.06103515625,0.1220703125,1.3238525390625,38.6224365234375,68.170166015625
1759066567.5186956,-0.62744140625,0.01806640625,0.7763671875,0.0,-0.06103515625,0.1220703125,1.3238525390625,38.6279296875,68.170166015625
1759066567.5281541,-0.626953125,0.021484375,0.7802734375,0.48828125,0.0,0.06103515625,1.329345703125,38.6279296875,68.170166015625
1759066567.5381553,-0.626953125,0.021484375,0.7802734375,0.48828125,0.0,0.06103515625,1.3348388671875,38.6334228515625,68.170166015625
1759066567.5488236,-0.6220703125,0.02099609375,0.78076171875,0.79345703125,0.0,0.0,1.34033203125,38.638916015625,68.170166015625
1759066567.5580885,-0.6220703125,0.02099609375,0.78076171875,0.79345703125,0.0,0.0,1.351318359375,38.638916015625,68.170166015625
1759066567.5682929,-0.6240234375,0.017578125,0.77978515625,0.67138671875,0.1220703125,0.18310546875,1.3568115234375,38.6444091796875,68.170166015625
1759066567.578404,-0.6240234375,0.017578125,0.77978515625,0.67138671875,0.1220703125,0.18310546875,1.3677978515625,38.64990234375,68.170166015625
1759066567.5882719,-0.61962890625,0.01416015625,0.783203125,2.0751953125,0.1220703125,-0.1220703125,1.38427734375,38.6553955078125,68.1646728515625
1759066567.5982223,-0.61962890625,0.01416015625,0.783203125,2.0751953125,0.1220703125,-0.1220703125,1.40625,38.6553955078125,68.1646728515625
1759066567.6084995,-0.6123046875,0.01025390625,0.78466796875,4.0283203125,0.244140625,-0.30517578125,1.4447021484375,38.660888671875,68.1591796875
1759066567.6185367,-0.6123046875,0.01025390625,0.78466796875,4.0283203125,0.244140625,-0.30517578125,1.4776611328125,38.660888671875,68.1536865234375
1759066567.6295831,-0.61181640625,0.01220703125,0.78857421875,6.103515625,0.48828125,-0.54931640625,1.5325927734375,38.6663818359375,68.148193359375
1759066567.6382926,-0.61181640625,0.01220703125,0.78857421875,6.103515625,0.48828125,-0.54931640625,1.5875244140625,38.671875,68.1427001953125
1759066567.6487927,-0.61669921875,0.0224609375,0.79150390625,7.080078125,0.6103515625,-0.79345703125,1.64794921875,38.6773681640625,68.1317138671875
1759066567.6583111,-0.61669921875,0.0224609375,0.79150390625,7.080078125,0.6103515625,-0.79345703125,1.7083740234375,38.682861328125,68.1207275390625
1759066567.6684482,-0.62109375,0.02783203125,0.78271484375,7.080078125,0.67138671875,-0.91552734375,1.7742919921875,38.6883544921875,68.1097412109375
1759066567.678416,-0.62109375,0.02783203125,0.78271484375,7.080078125,0.67138671875,-0.91552734375,1.834716796875,38.69384765625,68.0987548828125
1759066567.688427,-0.6220703125,0.02685546875,0.7783203125,6.53076171875,0.48828125,-0.9765625,1.8896484375,38.6993408203125,68.0877685546875
1759066567.6982937,-0.6220703125,0.02685546875,0.7783203125,6.53076171875,0.48828125,-0.9765625,1.944580078125,38.704833984375,68.0767822265625
1759066567.7088745,-0.62841796875,0.029296875,0.77880859375,6.2255859375,0.3662109375,-0.91552734375,1.9940185546875,38.704833984375,68.0657958984375
1759066567.7191334,-0.62841796875,0.029296875,0.77880859375,6.2255859375,0.3662109375,-0.91552734375,2.0489501953125,38.7103271484375,68.0548095703125
1759066567.7306352,-0.62841796875,0.02880859375,0.7724609375,6.28662109375,0.1220703125,-1.03759765625,2.098388671875,38.7103271484375,68.038330078125
1759066567.7394052,-0.62841796875,0.02880859375,0.7724609375,6.28662109375,0.1220703125,-1.03759765625,2.1533203125,38.7103271484375,68.02734375
1759066567.7487357,-0.63134765625,0.02978515625,0.77685546875,5.79833984375,0.0,-1.03759765625,2.197265625,38.7103271484375,68.016357421875
1759066567.7584765,-0.63134765625,0.02978515625,0.77685546875,5.79833984375,0.0,-1.03759765625,2.2467041015625,38.7103271484375,67.9998779296875
1759066567.7684782,-0.63525390625,0.03662109375,0.76904296875,4.82177734375,0.0,-0.9765625,2.28515625,38.7103271484375,67.9888916015625
1759066567.7785985,-0.63525390625,0.03662109375,0.76904296875,4.82177734375,0.0,-0.9765625,2.3236083984375,38.7158203125,67.9779052734375
1759066567.7884812,-0.63720703125,0.03466796875,0.77099609375,4.0283203125,-0.18310546875,-1.15966796875,2.35107421875,38.7158203125,67.96142578125
1759066567.7984626,-0.63720703125,0.03466796875,0.77099609375,4.0283203125,-0.18310546875,-1.15966796875,2.3785400390625,38.7158203125,67.9449462890625
1759066567.8085318,-0.6376953125,0.0302734375,0.77099609375,3.7841796875,-0.30517578125,-0.9765625,2.406005859375,38.7103271484375,67.9339599609375
1759066567.8191304,-0.6376953125,0.0302734375,0.77099609375,3.7841796875,-0.30517578125,-0.9765625,2.4334716796875,38.7103271484375,67.9229736328125
1759066567.828548,-0.6357421875,0.0341796875,0.7666015625,4.150390625,-0.42724609375,-1.03759765625,2.4664306640625,38.7103271484375,67.906494140625
1759066567.8385053,-0.6357421875,0.0341796875,0.7666015625,4.150390625,-0.42724609375,-1.03759765625,2.4993896484375,38.7103271484375,67.8955078125
1759066567.849067,-0.63134765625,0.0361328125,0.77734375,4.150390625,-0.3662109375,-1.0986328125,2.52685546875,38.7103271484375,67.8790283203125
1759066567.858541,-0.63134765625,0.0361328125,0.77734375,4.150390625,-0.3662109375,-1.0986328125,2.559814453125,38.7103271484375,67.862548828125
1759066567.8685384,-0.626953125,0.037109375,0.78076171875,4.0283203125,-0.244140625,-1.03759765625,2.5872802734375,38.7103271484375,67.8515625
1759066567.8787737,-0.626953125,0.037109375,0.78076171875,4.0283203125,-0.244140625,-1.03759765625,2.6202392578125,38.7103271484375,67.840576171875
1759066567.888543,-0.6259765625,0.03564453125,0.77734375,3.7841796875,-0.18310546875,-0.9765625,2.647705078125,38.7103271484375,67.8240966796875
1759066567.8985195,-0.6259765625,0.03564453125,0.77734375,3.7841796875,-0.18310546875,-0.9765625,2.6751708984375,38.7103271484375,67.8131103515625
1759066567.908558,-0.6318359375,0.0380859375,0.783203125,3.35693359375,0.0,-0.9765625,2.70263671875,38.7158203125,67.796630859375
1759066567.919307,-0.6318359375,0.0380859375,0.783203125,3.35693359375,0.0,-0.9765625,2.724609375,38.7158203125,67.78564453125
1759066567.9285812,-0.6298828125,0.041015625,0.7744140625,2.8076171875,0.0,-0.9765625,2.74658203125,38.7213134765625,67.774658203125
1759066567.9392056,-0.6298828125,0.041015625,0.7744140625,2.8076171875,0.0,-0.9765625,2.7630615234375,38.7213134765625,67.7581787109375
1759066567.9494612,-0.63037109375,0.0400390625,0.7744140625,2.197265625,0.06103515625,-0.8544921875,2.779541015625,38.726806640625,67.7471923828125
1759066567.9586058,-0.63037109375,0.0400390625,0.7744140625,2.197265625,0.06103515625,-0.8544921875,2.79052734375,38.726806640625,67.7362060546875
1759066567.9687836,-0.6298828125,0.041015625,0.77734375,1.52587890625,0.0,-0.732421875,2.801513671875,38.7322998046875,67.7252197265625
1759066567.9790099,-0.6298828125,0.041015625,0.77734375,1.52587890625,0.0,-0.732421875,2.8070068359375,38.7322998046875,67.7142333984375
1759066567.9886663,-0.6259765625,0.0419921875,0.77880859375,1.15966796875,0.0,-0.6103515625,2.8179931640625,38.7322998046875,67.708740234375
1759066567.9986835,-0.6259765625,0.0419921875,0.77880859375,1.15966796875,0.0,-0.6103515625,2.823486328125,38.73779296875,67.69775390625
1759066568.0087907,-0.625,0.03955078125,0.77880859375,1.15966796875,-0.06103515625,-0.48828125,2.8289794921875,38.73779296875,67.6922607421875
1759066568.0195765,-0.625,0.03955078125,0.77880859375,1.15966796875,-0.06103515625,-0.48828125,2.83447265625,38.73779296875,67.6812744140625
1759066568.0288017,-0.62109375,0.04150390625,0.77978515625,2.01416015625,-0.1220703125,-0.42724609375,2.8509521484375,38.73779296875,67.67578125
1759066568.0390892,-0.62109375,0.04150390625,0.77978515625,2.01416015625,-0.1220703125,-0.42724609375,2.867431640625,38.73779296875,67.6702880859375
1759066568.0496063,-0.6171875,0.04248046875,0.7822265625,3.173828125,-0.06103515625,-0.30517578125,2.900390625,38.73779296875,67.664794921875
1759066568.0590365,-0.6171875,0.04248046875,0.7822265625,3.173828125,-0.06103515625,-0.30517578125,2.9278564453125,38.73779296875,67.6593017578125
1759066568.0689936,-0.61669921875,0.04443359375,0.78173828125,4.21142578125,0.0,-0.42724609375,2.96630859375,38.73779296875,67.65380859375
1759066568.079187,-0.61669921875,0.04443359375,0.78173828125,4.21142578125,0.0,-0.42724609375,3.0047607421875,38.73779296875,67.6483154296875
1759066568.0889058,-0.61572265625,0.04296875,0.78662109375,4.5166015625,0.0,-0.54931640625,3.043212890625,38.73779296875,67.642822265625
1759066568.0989017,-0.61572265625,0.04296875,0.78662109375,4.5166015625,0.0,-0.54931640625,3.087158203125,38.7322998046875,67.6373291015625
1759066568.1089096,-0.615234375,0.04296875,0.78857421875,4.33349609375,0.1220703125,-0.6103515625,3.1256103515625,38.7322998046875,67.6263427734375
1759066568.119702,-0.615234375,0.04296875,0.78857421875,4.33349609375,0.1220703125,-0.6103515625,3.1640625,38.7322998046875,67.620849609375
1759066568.128781,-0.61572265625,0.04638671875,0.787109375,3.84521484375,0.244140625,-0.732421875,3.1915283203125,38.7322998046875,67.60986328125
1759066568.138765,-0.61572265625,0.04638671875,0.787109375,3.84521484375,0.244140625,-0.732421875,3.2244873046875,38.73779296875,67.6043701171875
1759066568.150473,-0.61572265625,0.041015625,0.7841796875,4.0283203125,0.30517578125,-0.8544921875,3.2574462890625,38.73779296875,67.5933837890625
1759066568.159197,-0.61572265625,0.041015625,0.7841796875,4.0283203125,0.30517578125,-0.8544921875,3.2904052734375,38.73779296875,67.5823974609375
1759066568.1690073,-0.6162109375,0.041015625,0.78271484375,4.82177734375,0.30517578125,-0.91552734375,3.328857421875,38.73779296875,67.5714111328125
1759066568.1792705,-0.6162109375,0.041015625,0.78271484375,4.82177734375,0.30517578125,-0.91552734375,3.3673095703125,38.73779296875,67.5604248046875
1759066568.1889968,-0.6162109375,0.041015625,0.78271484375,5.615234375,0.3662109375,-1.03759765625,3.416748046875,38.73779296875,67.5494384765625
1759066568.1992865,-0.62353515625,0.044921875,0.77587890625,5.615234375,0.3662109375,-1.03759765625,3.460693359375,38.7432861328125,67.5384521484375
1759066568.2089694,-0.63330078125,0.0537109375,0.77490234375,5.18798828125,0.48828125,-1.15966796875,3.4991455078125,38.7432861328125,67.5274658203125
1759066568.21979,-0.63330078125,0.0537109375,0.77490234375,5.18798828125,0.48828125,-1.15966796875,3.5430908203125,38.748779296875,67.510986328125
1759066568.228899,-0.634765625,0.0556640625,0.7744140625,3.96728515625,0.6103515625,-1.15966796875,3.570556640625,38.7542724609375,67.5
1759066568.2394922,-0.634765625,0.0556640625,0.7744140625,3.96728515625,0.6103515625,-1.15966796875,3.603515625,38.759765625,67.4835205078125
1759066568.249553,-0.63330078125,0.05126953125,0.77294921875,3.173828125,0.48828125,-1.0986328125,3.62548828125,38.7652587890625,67.4725341796875
1759066568.2592092,-0.63330078125,0.05126953125,0.77294921875,3.173828125,0.48828125,-1.0986328125,3.6474609375,38.770751953125,67.4560546875
1759066568.2692447,-0.63330078125,0.046875,0.77197265625,3.173828125,0.30517578125,-0.8544921875,3.66943359375,38.7762451171875,67.445068359375
1759066568.2793686,-0.63330078125,0.046875,0.77197265625,3.173828125,0.30517578125,-0.8544921875,3.69140625,38.78173828125,67.4395751953125
1759066568.2890959,-0.63525390625,0.048828125,0.76806640625,2.44140625,0.06103515625,-0.6103515625,3.71337890625,38.78173828125,67.4285888671875
1759066568.299323,-0.63525390625,0.048828125,0.76806640625,2.44140625,0.06103515625,-0.6103515625,3.7298583984375,38.78173828125,67.423095703125
1759066568.3090239,-0.634765625,0.0517578125,0.76953125,1.708984375,-0.1220703125,-0.3662109375,3.7408447265625,38.7872314453125,67.4176025390625
1759066568.3200426,-0.634765625,0.0517578125,0.76953125,1.708984375,-0.1220703125,-0.3662109375,3.75732421875,38.7872314453125,67.412109375
1759066568.3301368,-0.634765625,0.048828125,0.771484375,1.64794921875,-0.244140625,-0.30517578125,3.768310546875,38.7872314453125,67.4066162109375
1759066568.3392348,-0.634765625,0.048828125,0.771484375,1.64794921875,-0.244140625,-0.30517578125,3.779296875,38.7872314453125,67.401123046875
1759066568.3540184,-0.63232421875,0.05029296875,0.77490234375,1.28173828125,-0.3662109375,-0.244140625,3.790283203125,38.78173828125,67.401123046875
1759066568.360826,-0.63232421875,0.05029296875,0.77490234375,1.28173828125,-0.3662109375,-0.244140625,3.80126953125,38.78173828125,67.3956298828125
1759066568.3691611,-0.63037109375,0.05029296875,0.7763671875,0.91552734375,-0.3662109375,-0.30517578125,3.8067626953125,38.78173828125,67.39013671875
1759066568.3795414,-0.63037109375,0.05029296875,0.7763671875,0.91552734375,-0.3662109375,-0.30517578125,3.812255859375,38.78173828125,67.3846435546875
1759066568.3892436,-0.62841796875,0.046875,0.775390625,1.3427734375,-0.244140625,-0.3662109375,3.8177490234375,38.78173828125,67.379150390625
1759066568.3995855,-0.62841796875,0.046875,0.775390625,1.3427734375,-0.244140625,-0.3662109375,3.8287353515625,38.7762451171875,67.379150390625
1759066568.4090948,-0.63232421875,0.048828125,0.7734375,2.13623046875,0.0,-0.6103515625,3.84521484375,38.78173828125,67.3681640625
1759066568.420184,-0.63232421875,0.048828125,0.7734375,2.13623046875,0.0,-0.6103515625,3.8616943359375,38.78173828125,67.3626708984375
1759066568.4291906,-0.63720703125,0.05078125,0.7763671875,2.44140625,0.244140625,-0.91552734375,3.8726806640625,38.7872314453125,67.3516845703125
1759066568.4397545,-0.63720703125,0.05078125,0.7763671875,2.44140625,0.244140625,-0.91552734375,3.88916015625,38.792724609375,67.335205078125
1759066568.4498208,-0.63525390625,0.05615234375,0.7763671875,2.13623046875,0.48828125,-1.03759765625,3.900146484375,38.8037109375,67.32421875
1759066568.459379,-0.63525390625,0.05615234375,0.7763671875,2.13623046875,0.48828125,-1.03759765625,3.9166259765625,38.8092041015625,67.313232421875
1759066568.4692843,-0.63525390625,0.05859375,0.771484375,1.64794921875,0.54931640625,-1.15966796875,3.922119140625,38.8201904296875,67.2967529296875
1759066568.4794483,-0.63525390625,0.05859375,0.771484375,1.64794921875,0.54931640625,-1.15966796875,3.9276123046875,38.82568359375,67.2802734375
1759066568.489763,-0.6416015625,0.0556640625,0.7666015625,1.03759765625,0.48828125,-1.03759765625,3.9276123046875,38.836669921875,67.269287109375
1759066568.4994326,-0.6416015625,0.0556640625,0.7666015625,1.03759765625,0.48828125,-1.03759765625,3.93310546875,38.8421630859375,67.2528076171875
1759066568.5092201,-0.64697265625,0.05224609375,0.76220703125,1.52587890625,0.30517578125,-0.9765625,3.9385986328125,38.84765625,67.2418212890625
1759066568.5203211,-0.64697265625,0.05224609375,0.76220703125,1.52587890625,0.30517578125,-0.9765625,3.944091796875,38.858642578125,67.225341796875
1759066568.5292728,-0.6455078125,0.05517578125,0.76806640625,2.8076171875,0.244140625,-0.91552734375,3.966064453125,38.8641357421875,67.21435546875
1759066568.5394974,-0.6455078125,0.05517578125,0.76806640625,2.8076171875,0.244140625,-0.91552734375,3.988037109375,38.86962890625,67.203369140625
1759066568.5498128,-0.6416015625,0.0654296875,0.7685546875,3.5400390625,0.30517578125,-0.9765625,4.0155029296875,38.880615234375,67.1868896484375
1759066568.5595176,-0.6416015625,0.0654296875,0.7685546875,3.5400390625,0.30517578125,-0.9765625,4.04296875,38.8861083984375,67.1759033203125
1759066568.5693264,-0.64111328125,0.0693359375,0.7646484375,2.9296875,0.244140625,-0.91552734375,4.06494140625,38.8970947265625,67.1649169921875
1759066568.5795305,-0.64111328125,0.0693359375,0.7646484375,2.9296875,0.244140625,-0.91552734375,4.0869140625,38.902587890625,67.1484375
1759066568.589881,-0.6416015625,0.06787109375,0.77001953125,1.77001953125,0.06103515625,-0.79345703125,4.1033935546875,38.9080810546875,67.137451171875
1759066568.5995762,-0.640625,0.0625,0.77001953125,0.67138671875,-0.06103515625,-0.67138671875,4.10888671875,38.91357421875,67.12646484375
1759066568.609455,-0.640625,0.0625,0.77001953125,0.67138671875,-0.06103515625,-0.67138671875,4.1143798828125,38.9190673828125,67.115478515625
1759066568.6209126,-0.64013671875,0.05859375,0.77099609375,-0.79345703125,-0.244140625,-0.54931640625,4.10888671875,38.9190673828125,67.1099853515625
1759066568.6308882,-0.64013671875,0.05859375,0.77099609375,-0.79345703125,-0.244140625,-0.54931640625,4.097900390625,38.924560546875,67.0989990234375
1759066568.6399522,-0.6396484375,0.05712890625,0.7734375,-1.953125,-0.30517578125,-0.6103515625,4.0814208984375,38.924560546875,67.0880126953125
1759066568.6527646,-0.6396484375,0.05712890625,0.7734375,-1.953125,-0.30517578125,-0.6103515625,4.0594482421875,38.9300537109375,67.08251953125
1759066568.6596658,-0.6357421875,0.05517578125,0.7724609375,-2.38037109375,-0.3662109375,-0.67138671875,4.0374755859375,38.9300537109375,67.071533203125
1759066568.6701577,-0.6357421875,0.05517578125,0.7724609375,-2.38037109375,-0.3662109375,-0.67138671875,4.010009765625,38.9300537109375,67.060546875
1759066568.679682,-0.63427734375,0.05322265625,0.77001953125,-1.953125,-0.42724609375,-0.79345703125,3.9825439453125,38.9300537109375,67.049560546875
1759066568.6901731,-0.63427734375,0.05322265625,0.77001953125,-1.953125,-0.42724609375,-0.79345703125,3.9605712890625,38.9300537109375,67.03857421875
1759066568.6996915,-0.63525390625,0.05224609375,0.77001953125,-1.3427734375,-0.3662109375,-0.91552734375,3.9385986328125,38.9300537109375,67.027587890625
1759066568.7094955,-0.63525390625,0.05224609375,0.77001953125,-1.3427734375,-0.3662109375,-0.91552734375,3.9166259765625,38.9300537109375,67.0111083984375
1759066568.7208579,-0.6357421875,0.05126953125,0.7705078125,-0.42724609375,-0.3662109375,-1.0986328125,3.900146484375,38.9300537109375,67.0001220703125
1759066568.7296379,-0.6357421875,0.05126953125,0.7705078125,-0.42724609375,-0.3662109375,-1.0986328125,3.88916015625,38.9300537109375,66.983642578125
1759066568.7397146,-0.6328125,0.0478515625,0.7705078125,0.91552734375,-0.30517578125,-1.28173828125,3.8836669921875,38.935546875,66.9671630859375
1759066568.7501516,-0.6328125,0.0478515625,0.7705078125,0.91552734375,-0.30517578125,-1.28173828125,3.8836669921875,38.935546875,66.95068359375
1759066568.759703,-0.630859375,0.04638671875,0.77001953125,2.62451171875,-0.18310546875,-1.3427734375,3.88916015625,38.935546875,66.9287109375
1759066568.7697237,-0.630859375,0.04638671875,0.77001953125,2.62451171875,-0.18310546875,-1.3427734375,3.9056396484375,38.9410400390625,66.9122314453125
1759066568.7798226,-0.63623046875,0.05078125,0.77099609375,4.0283203125,-0.06103515625,-1.40380859375,3.9276123046875,38.9410400390625,66.8902587890625
1759066568.789907,-0.63623046875,0.05078125,0.77099609375,4.0283203125,-0.06103515625,-1.40380859375,3.955078125,38.946533203125,66.873779296875
1759066568.7998226,-0.6376953125,0.0546875,0.77099609375,4.7607421875,0.0,-1.46484375,3.988037109375,38.946533203125,66.851806640625
1759066568.8096287,-0.6376953125,0.0546875,0.77099609375,4.7607421875,0.0,-1.46484375,4.0264892578125,38.9520263671875,66.8353271484375
1759066568.8203106,-0.63818359375,0.05322265625,0.76806640625,5.31005859375,0.0,-1.3427734375,4.06494140625,38.95751953125,66.8133544921875
1759066568.8296685,-0.63818359375,0.05322265625,0.76806640625,5.31005859375,0.0,-1.3427734375,4.1033935546875,38.9630126953125,66.796875
1759066568.839772,-0.63427734375,0.05322265625,0.7685546875,5.4931640625,-0.06103515625,-1.15966796875,4.1473388671875,38.9630126953125,66.77490234375
1759066568.8504343,-0.63427734375,0.05322265625,0.7685546875,5.4931640625,-0.06103515625,-1.15966796875,4.1912841796875,38.968505859375,66.7584228515625
1759066568.8598115,-0.6337890625,0.0537109375,0.7705078125,5.79833984375,0.0,-0.91552734375,4.2352294921875,38.9739990234375,66.7474365234375
1759066568.869919,-0.6337890625,0.0537109375,0.7705078125,5.79833984375,0.0,-0.91552734375,4.28466796875,38.9739990234375,66.73095703125
1759066568.8799078,-0.630859375,0.05517578125,0.77294921875,6.4697265625,0.06103515625,-0.732421875,4.339599609375,38.9794921875,66.719970703125
1759066568.890273,-0.630859375,0.05517578125,0.77294921875,6.4697265625,0.06103515625,-0.732421875,4.39453125,38.9849853515625,66.708984375
1759066568.8998723,-0.6298828125,0.0556640625,0.77783203125,7.2021484375,0.18310546875,-0.54931640625,4.4549560546875,38.9849853515625,66.7034912109375
1759066568.9101696,-0.6298828125,0.0556640625,0.77783203125,7.2021484375,0.18310546875,-0.54931640625,4.5208740234375,38.990478515625,66.6925048828125
1759066568.9202757,-0.634765625,0.05908203125,0.77392578125,7.50732421875,0.30517578125,-0.42724609375,4.5867919921875,38.9959716796875,66.68701171875
1759066568.9304776,-0.634765625,0.05908203125,0.77392578125,7.50732421875,0.30517578125,-0.42724609375,4.6527099609375,39.00146484375,66.6815185546875
1759066568.9401026,-0.63720703125,0.068359375,0.77685546875,6.103515625,0.30517578125,-0.18310546875,4.713134765625,39.0069580078125,66.676025390625
1759066568.951603,-0.63720703125,0.068359375,0.77685546875,6.103515625,0.30517578125,-0.18310546875,4.7735595703125,39.012451171875,66.676025390625
1759066568.9603198,-0.6337890625,0.0732421875,0.779296875,3.662109375,0.3662109375,-0.1220703125,4.8175048828125,39.0179443359375,66.6705322265625
1759066568.9705653,-0.6337890625,0.0732421875,0.779296875,3.662109375,0.3662109375,-0.1220703125,4.8504638671875,39.0234375,66.6705322265625
1759066568.9799833,-0.634765625,0.07275390625,0.77099609375,1.64794921875,0.30517578125,0.0,4.8724365234375,39.0289306640625,66.6705322265625
1759066568.9904852,-0.634765625,0.07275390625,0.77099609375,1.64794921875,0.30517578125,0.0,4.888916015625,39.0289306640625,66.6705322265625
1759066568.999997,-0.63671875,0.07470703125,0.76953125,-0.06103515625,0.18310546875,0.244140625,4.8944091796875,39.034423828125,66.6705322265625
1759066569.0101697,-0.63671875,0.07470703125,0.76953125,-0.06103515625,0.18310546875,0.244140625,4.8944091796875,39.0399169921875,66.6705322265625
1759066569.0203216,-0.63818359375,0.072265625,0.7705078125,-1.28173828125,0.06103515625,0.30517578125,4.888916015625,39.0399169921875,66.676025390625
1759066569.0300696,-0.63818359375,0.072265625,0.7705078125,-1.28173828125,0.06103515625,0.30517578125,4.8834228515625,39.04541015625,66.676025390625
1759066569.040068,-0.638671875,0.06396484375,0.765625,-2.0751953125,0.0,0.6103515625,4.866943359375,39.04541015625,66.6815185546875
1759066569.0507798,-0.638671875,0.06396484375,0.765625,-2.0751953125,0.0,0.6103515625,4.8504638671875,39.04541015625,66.68701171875
1759066569.0601046,-0.6376953125,0.0615234375,0.7646484375,-1.40380859375,-0.06103515625,0.732421875,4.8394775390625,39.04541015625,66.6925048828125
1759066569.0700145,-0.6376953125,0.0615234375,0.7646484375,-1.40380859375,-0.06103515625,0.732421875,4.833984375,39.0509033203125,66.7034912109375
1759066569.0801544,-0.62939453125,0.064453125,0.7763671875,-1.52587890625,-0.244140625,0.79345703125,4.822998046875,39.0509033203125,66.708984375
1759066569.09033,-0.62939453125,0.064453125,0.7763671875,-1.52587890625,-0.244140625,0.79345703125,4.8175048828125,39.04541015625,66.719970703125
1759066569.1001837,-0.63525390625,0.06884765625,0.77685546875,-1.77001953125,-0.244140625,0.8544921875,4.8065185546875,39.04541015625,66.73095703125
1759066569.1101458,-0.63525390625,0.06884765625,0.77685546875,-1.77001953125,-0.244140625,0.8544921875,4.7955322265625,39.04541015625,66.7364501953125
1759066569.120762,-0.63623046875,0.0693359375,0.76806640625,-2.01416015625,-0.3662109375,0.8544921875,4.7845458984375,39.04541015625,66.7474365234375
1759066569.1301935,-0.63623046875,0.0693359375,0.76806640625,-2.01416015625,-0.3662109375,0.8544921875,4.76806640625,39.0399169921875,66.7584228515625
1759066569.1403735,-0.6337890625,0.07080078125,0.771484375,-2.9296875,-0.42724609375,0.91552734375,4.7515869140625,39.0399169921875,66.7694091796875
1759066569.1506917,-0.6337890625,0.07080078125,0.771484375,-2.9296875,-0.42724609375,0.91552734375,4.7296142578125,39.034423828125,66.7803955078125
1759066569.1601734,-0.62744140625,0.072265625,0.77490234375,-4.33349609375,-0.54931640625,0.8544921875,4.7021484375,39.0289306640625,66.785888671875
1759066569.1702347,-0.62744140625,0.072265625,0.77490234375,-4.33349609375,-0.54931640625,0.8544921875,4.669189453125,39.0289306640625,66.796875
1759066569.180282,-0.62255859375,0.0673828125,0.78271484375,-5.615234375,-0.6103515625,0.8544921875,4.6307373046875,39.0234375,66.807861328125
1759066569.1903973,-0.62255859375,0.0673828125,0.78271484375,-5.615234375,-0.6103515625,0.8544921875,4.581298828125,39.0179443359375,66.81884765625
1759066569.2002702,-0.62158203125,0.064453125,0.7841796875,-6.591796875,-0.6103515625,0.8544921875,4.5318603515625,39.0069580078125,66.829833984375
1759066569.2102792,-0.62158203125,0.064453125,0.7841796875,-6.591796875,-0.6103515625,0.8544921875,4.471435546875,39.00146484375,66.8353271484375
1759066569.220761,-0.62060546875,0.06640625,0.77880859375,-7.080078125,-0.67138671875,0.732421875,4.41650390625,38.9959716796875,66.8463134765625
1759066569.2324772,-0.62060546875,0.06640625,0.77880859375,-7.080078125,-0.67138671875,0.732421875,4.3505859375,38.9849853515625,66.8572998046875
1759066569.2412424,-0.6181640625,0.0576171875,0.78173828125,-6.8359375,-0.732421875,0.54931640625,4.2901611328125,38.9794921875,66.86279296875
1759066569.2509356,-0.6181640625,0.0576171875,0.78173828125,-6.8359375,-0.732421875,0.54931640625,4.229736328125,38.968505859375,66.8682861328125
1759066569.2606654,-0.619140625,0.052734375,0.77880859375,-6.28662109375,-0.732421875,0.42724609375,4.1693115234375,38.9630126953125,66.873779296875
1759066569.270337,-0.619140625,0.052734375,0.77880859375,-6.28662109375,-0.732421875,0.42724609375,4.1143798828125,38.9520263671875,66.8792724609375
1759066569.2804656,-0.6201171875,0.05322265625,0.77880859375,-5.67626953125,-0.6103515625,0.244140625,4.0594482421875,38.946533203125,66.884765625
1759066569.2905638,-0.6201171875,0.05322265625,0.77880859375,-5.67626953125,-0.6103515625,0.244140625,4.010009765625,38.935546875,66.884765625
1759066569.3003852,-0.62109375,0.0556640625,0.7861328125,-5.79833984375,-0.6103515625,0.18310546875,3.955078125,38.9300537109375,66.8902587890625
1759066569.311136,-0.62109375,0.0556640625,0.7861328125,-5.79833984375,-0.6103515625,0.18310546875,3.900146484375,38.9190673828125,66.8902587890625
1759066569.321037,-0.62109375,0.05419921875,0.78173828125,-6.34765625,-0.54931640625,0.1220703125,3.84521484375,38.91357421875,66.895751953125
1759066569.3305523,-0.62109375,0.05419921875,0.78173828125,-6.34765625,-0.54931640625,0.1220703125,3.7847900390625,38.902587890625,66.895751953125
1759066569.3408132,-0.6220703125,0.04443359375,0.78076171875,-6.16455078125,-0.48828125,0.06103515625,3.7298583984375,38.8970947265625,66.895751953125
1759066569.351083,-0.6220703125,0.04443359375,0.78076171875,-6.16455078125,-0.48828125,0.06103515625,3.66943359375,38.8916015625,66.9012451171875
1759066569.3607395,-0.6240234375,0.044921875,0.779296875,-5.43212890625,-0.3662109375,0.0,3.614501953125,38.880615234375,66.9012451171875
1759066569.3707576,-0.6240234375,0.044921875,0.779296875,-5.43212890625,-0.3662109375,0.0,3.5650634765625,38.8751220703125,66.9012451171875
1759066569.3805757,-0.626953125,0.05126953125,0.77587890625,-5.4931640625,-0.244140625,0.1220703125,3.5101318359375,38.8751220703125,66.9012451171875
1759066569.3907104,-0.626953125,0.05126953125,0.77587890625,-5.4931640625,-0.244140625,0.1220703125,3.460693359375,38.86962890625,66.9012451171875
1759066569.400583,-0.626953125,0.05126953125,0.7802734375,-5.859375,-0.244140625,0.06103515625,3.40576171875,38.8641357421875,66.90673828125
1759066569.4106793,-0.626953125,0.05126953125,0.7802734375,-5.859375,-0.244140625,0.06103515625,3.350830078125,38.858642578125,66.90673828125
1759066569.4211702,-0.62841796875,0.04150390625,0.779296875,-5.79833984375,-0.06103515625,0.1220703125,3.2958984375,38.858642578125,66.90673828125
1759066569.430469,-0.62841796875,0.04150390625,0.779296875,-5.79833984375,-0.06103515625,0.1220703125,3.2464599609375,38.8531494140625,66.90673828125
1759066569.4414284,-0.62744140625,0.0400390625,0.7734375,-5.06591796875,0.06103515625,0.18310546875,3.197021484375,38.8531494140625,66.90673828125
1759066569.450779,-0.62744140625,0.0400390625,0.7734375,-5.06591796875,0.06103515625,0.18310546875,3.1475830078125,38.8531494140625,66.9122314453125
1759066569.4613898,-0.626953125,0.03857421875,0.78271484375,-4.39453125,0.1220703125,0.30517578125,3.1036376953125,38.8531494140625,66.9122314453125
1759066569.4707103,-0.626953125,0.03857421875,0.78271484375,-4.39453125,0.1220703125,0.30517578125,3.065185546875,38.8531494140625,66.917724609375
1759066569.4811137,-0.626953125,0.03857421875,0.78271484375,-4.21142578125,0.30517578125,0.42724609375,3.0267333984375,38.8531494140625,66.9232177734375
1759066569.4919922,-0.63037109375,0.041015625,0.779296875,-4.21142578125,0.30517578125,0.42724609375,2.9937744140625,38.858642578125,66.9287109375
1759066569.5008261,-0.6357421875,0.04150390625,0.7734375,-4.8828125,0.30517578125,0.6103515625,2.955322265625,38.858642578125,66.9342041015625
1759066569.5105555,-0.6357421875,0.04150390625,0.7734375,-4.8828125,0.30517578125,0.6103515625,2.911376953125,38.8641357421875,66.939697265625
1759066569.5214407,-0.6376953125,0.0400390625,0.77001953125,-5.67626953125,0.30517578125,0.732421875,2.867431640625,38.8641357421875,66.95068359375
1759066569.532673,-0.6376953125,0.0400390625,0.77001953125,-5.67626953125,0.30517578125,0.732421875,2.8179931640625,38.86962890625,66.9561767578125
1759066569.5417194,-0.62890625,0.0390625,0.77392578125,-6.34765625,0.1220703125,0.8544921875,2.7685546875,38.86962890625,66.9671630859375
1759066569.5512934,-0.62890625,0.0390625,0.77392578125,-6.34765625,0.1220703125,0.8544921875,2.713623046875,38.8751220703125,66.9781494140625
1759066569.560787,-0.62744140625,0.03271484375,0.7763671875,-6.4697265625,0.06103515625,0.91552734375,2.6641845703125,38.8751220703125,66.9891357421875
1759066569.5708175,-0.62744140625,0.03271484375,0.7763671875,-6.4697265625,0.06103515625,0.91552734375,2.6092529296875,38.8751220703125,67.0001220703125
1759066569.581681,-0.6240234375,0.0244140625,0.77587890625,-5.06591796875,-0.1220703125,0.9765625,2.559814453125,38.8751220703125,67.0111083984375
1759066569.5908523,-0.6240234375,0.0244140625,0.77587890625,-5.06591796875,-0.1220703125,0.9765625,2.5213623046875,38.8751220703125,67.0220947265625
1759066569.6010675,-0.625,0.0263671875,0.77685546875,-3.5400390625,-0.18310546875,1.0986328125,2.4884033203125,38.8751220703125,67.0330810546875
1759066569.6106336,-0.625,0.0263671875,0.77685546875,-3.5400390625,-0.18310546875,1.0986328125,2.4609375,38.86962890625,67.0440673828125
1759066569.6219738,-0.623046875,0.03466796875,0.779296875,-3.0517578125,-0.244140625,1.03759765625,2.43896484375,38.86962890625,67.060546875
1759066569.630699,-0.623046875,0.03466796875,0.779296875,-3.0517578125,-0.244140625,1.03759765625,2.4169921875,38.8641357421875,67.071533203125
1759066569.6409993,-0.623046875,0.03466796875,0.7802734375,-2.86865234375,-0.30517578125,0.91552734375,2.4005126953125,38.8641357421875,67.08251953125
1759066569.6514432,-0.623046875,0.03466796875,0.7802734375,-2.86865234375,-0.30517578125,0.91552734375,2.3785400390625,38.858642578125,67.093505859375
1759066569.6607804,-0.6171875,0.02783203125,0.78173828125,-1.708984375,-0.30517578125,0.6103515625,2.3675537109375,38.8531494140625,67.0989990234375
1759066569.6711528,-0.6171875,0.02783203125,0.78173828125,-1.708984375,-0.30517578125,0.6103515625,2.3565673828125,38.8531494140625,67.1099853515625
1759066569.6810799,-0.61572265625,0.02490234375,0.7861328125,0.244140625,-0.3662109375,0.3662109375,2.362060546875,38.84765625,67.1099853515625
1759066569.690989,-0.61572265625,0.02490234375,0.7861328125,0.244140625,-0.3662109375,0.3662109375,2.3675537109375,38.8421630859375,67.115478515625
1759066569.7007818,-0.6171875,0.0283203125,0.7861328125,2.3193359375,-0.244140625,0.18310546875,2.39501953125,38.836669921875,67.115478515625
1759066569.7107966,-0.6171875,0.0283203125,0.7861328125,2.3193359375,-0.244140625,0.18310546875,2.4169921875,38.8311767578125,67.1209716796875
1759066569.7215025,-0.61865234375,0.0322265625,0.787109375,3.47900390625,-0.18310546875,-0.06103515625,2.449951171875,38.82568359375,67.1209716796875
1759066569.7307806,-0.61865234375,0.0322265625,0.787109375,3.47900390625,-0.18310546875,-0.06103515625,2.48291015625,38.82568359375,67.1209716796875
1759066569.7408907,-0.62109375,0.03515625,0.78369140625,4.08935546875,0.0,-0.244140625,2.5213623046875,38.8201904296875,67.115478515625
1759066569.752229,-0.62109375,0.03515625,0.78369140625,4.08935546875,0.0,-0.244140625,2.559814453125,38.8201904296875,67.1099853515625
1759066569.7608395,-0.61865234375,0.0390625,0.78369140625,4.21142578125,0.18310546875,-0.48828125,2.5982666015625,38.8201904296875,67.1044921875
1759066569.772438,-0.61865234375,0.0390625,0.78369140625,4.21142578125,0.18310546875,-0.48828125,2.63671875,38.8201904296875,67.0989990234375
1759066569.7811627,-0.62255859375,0.04345703125,0.78662109375,3.7841796875,0.3662109375,-0.54931640625,2.669677734375,38.8201904296875,67.093505859375
1759066569.7912536,-0.62255859375,0.04345703125,0.78662109375,3.7841796875,0.3662109375,-0.54931640625,2.70263671875,38.8201904296875,67.0880126953125
1759066569.800865,-0.62548828125,0.04248046875,0.7822265625,3.47900390625,0.54931640625,-0.67138671875,2.7301025390625,38.82568359375,67.08251953125
1759066569.8111544,-0.62548828125,0.04248046875,0.7822265625,3.47900390625,0.54931640625,-0.67138671875,2.757568359375,38.82568359375,67.0770263671875
1759066569.8215055,-0.6298828125,0.0380859375,0.775390625,2.86865234375,0.54931640625,-0.67138671875,2.779541015625,38.8311767578125,67.0660400390625
1759066569.8311605,-0.6298828125,0.0380859375,0.775390625,2.86865234375,0.54931640625,-0.67138671875,2.8070068359375,38.836669921875,67.060546875
1759066569.8408513,-0.63232421875,0.03759765625,0.77099609375,2.38037109375,0.6103515625,-0.6103515625,2.823486328125,38.8421630859375,67.0550537109375
1759066569.851877,-0.63232421875,0.03759765625,0.77099609375,2.38037109375,0.6103515625,-0.6103515625,2.8399658203125,38.84765625,67.0440673828125
1759066569.8608837,-0.634765625,0.03564453125,0.7763671875,1.8310546875,0.54931640625,-0.42724609375,2.8564453125,38.8531494140625,67.03857421875
1759066569.8714492,-0.634765625,0.03564453125,0.7763671875,1.8310546875,0.54931640625,-0.42724609375,2.8729248046875,38.858642578125,67.0330810546875
1759066569.881259,-0.63671875,0.03857421875,0.77392578125,0.54931640625,0.42724609375,-0.18310546875,2.8729248046875,38.858642578125,67.0330810546875
1759066569.89154,-0.63671875,0.03857421875,0.77392578125,0.54931640625,0.42724609375,-0.18310546875,2.87841796875,38.8641357421875,67.0330810546875
1759066569.9009671,-0.63671875,0.0390625,0.775390625,-0.3662109375,0.244140625,0.0,2.8729248046875,38.86962890625,67.027587890625
1759066569.9111927,-0.63671875,0.0390625,0.775390625,-0.3662109375,0.244140625,0.0,2.867431640625,38.86962890625,67.027587890625
1759066569.921573,-0.634765625,0.03662109375,0.7705078125,-1.28173828125,0.1220703125,0.30517578125,2.8564453125,38.8751220703125,67.0330810546875
1759066569.9313014,-0.634765625,0.03662109375,0.7705078125,-1.28173828125,0.1220703125,0.30517578125,2.845458984375,38.8751220703125,67.03857421875
1759066569.941505,-0.6337890625,0.0361328125,0.77197265625,-1.953125,0.0,0.54931640625,2.8289794921875,38.8751220703125,67.0440673828125
1759066569.9516482,-0.6337890625,0.0361328125,0.77197265625,-1.953125,0.0,0.54931640625,2.8179931640625,38.8751220703125,67.049560546875
1759066569.9612083,-0.6328125,0.0341796875,0.77294921875,-1.953125,0.06103515625,0.67138671875,2.801513671875,38.880615234375,67.060546875
1759066569.971356,-0.6328125,0.0341796875,0.77294921875,-1.953125,0.06103515625,0.67138671875,2.7850341796875,38.880615234375,67.0660400390625
1759066569.9815218,-0.6328125,0.03662109375,0.77392578125,-2.01416015625,0.1220703125,0.8544921875,2.7740478515625,38.880615234375,67.0770263671875
1759066569.991835,-0.6328125,0.03662109375,0.77392578125,-2.01416015625,0.1220703125,0.8544921875,2.757568359375,38.8861083984375,67.0880126953125
1759066570.0011249,-0.6328125,0.0400390625,0.77197265625,-2.0751953125,0.18310546875,0.79345703125,2.74658203125,38.8861083984375,67.0989990234375
1759066570.0117214,-0.6328125,0.0400390625,0.77197265625,-2.0751953125,0.18310546875,0.79345703125,2.7301025390625,38.8916015625,67.1099853515625
1759066570.0217063,-0.63134765625,0.03369140625,0.7783203125,-1.8310546875,0.30517578125,0.8544921875,2.7191162109375,38.8970947265625,67.115478515625
1759066570.031264,-0.63134765625,0.03369140625,0.7783203125,-1.8310546875,0.30517578125,0.8544921875,2.7081298828125,38.902587890625,67.12646484375
1759066570.0411096,-0.62939453125,0.03369140625,0.775390625,-1.708984375,0.48828125,1.03759765625,2.6971435546875,38.9080810546875,67.1429443359375
1759066570.056117,-0.62939453125,0.03369140625,0.775390625,-1.708984375,0.48828125,1.03759765625,2.691650390625,38.91357421875,67.1539306640625
1759066570.0637534,-0.62890625,0.03759765625,0.77197265625,-2.3193359375,0.54931640625,1.03759765625,2.6751708984375,38.9190673828125,67.1649169921875
1759066570.0712755,-0.62890625,0.03759765625,0.77197265625,-2.3193359375,0.54931640625,1.03759765625,2.65869140625,38.924560546875,67.1759033203125
1759066570.08146,-0.62646484375,0.03173828125,0.78076171875,-2.5634765625,0.42724609375,1.03759765625,2.6422119140625,38.9300537109375,67.1923828125
1759066570.0923793,-0.62646484375,0.03173828125,0.78076171875,-2.5634765625,0.42724609375,1.03759765625,2.625732421875,38.935546875,67.203369140625
1759066570.1013172,-0.630859375,0.0322265625,0.7802734375,-2.62451171875,0.30517578125,1.28173828125,2.6092529296875,38.935546875,67.2198486328125
1759066570.1120124,-0.630859375,0.0322265625,0.7802734375,-2.62451171875,0.30517578125,1.28173828125,2.5927734375,38.9410400390625,67.236328125
1759066570.1223302,-0.6328125,0.03564453125,0.77001953125,-2.3193359375,0.244140625,1.220703125,2.581787109375,38.9410400390625,67.247314453125
1759066570.1401446,-0.6328125,0.03564453125,0.77001953125,-2.3193359375,0.244140625,1.220703125,2.57080078125,38.946533203125,67.2637939453125
1759066570.150142,-0.63427734375,0.0322265625,0.7734375,-2.0751953125,0.30517578125,1.0986328125,2.5543212890625,38.9520263671875,67.2747802734375
1759066570.1562047,-0.63427734375,0.0322265625,0.7734375,-2.0751953125,0.30517578125,1.0986328125,2.5433349609375,38.9520263671875,67.291259765625
1759066570.1728294,-0.6298828125,0.03369140625,0.7724609375,-1.89208984375,0.42724609375,1.0986328125,2.537841796875,38.95751953125,67.30224609375
1759066570.1793506,-0.6298828125,0.03369140625,0.7724609375,-1.89208984375,0.42724609375,1.0986328125,2.52685546875,38.9630126953125,67.3187255859375
1759066570.1857982,-0.62841796875,0.033203125,0.77587890625,-1.46484375,0.3662109375,0.8544921875,2.515869140625,38.968505859375,67.32421875
1759066570.1992776,-0.62841796875,0.033203125,0.77587890625,-1.46484375,0.3662109375,0.8544921875,2.5103759765625,38.9739990234375,67.335205078125
1759066570.2057211,-0.62744140625,0.03076171875,0.7763671875,-1.0986328125,0.42724609375,0.79345703125,2.5048828125,38.9739990234375,67.34619140625
1759066570.2122526,-0.62744140625,0.03076171875,0.7763671875,-1.0986328125,0.42724609375,0.79345703125,2.4993896484375,38.9794921875,67.357177734375
1759066570.2219527,-0.63134765625,0.03466796875,0.77490234375,-1.0986328125,0.3662109375,0.732421875,2.493896484375,38.9849853515625,67.3681640625
1759066570.231708,-0.63134765625,0.03466796875,0.77490234375,-1.0986328125,0.3662109375,0.732421875,2.493896484375,38.990478515625,67.379150390625
1759066570.2414281,-0.62890625,0.03369140625,0.77783203125,-1.28173828125,0.3662109375,0.54931640625,2.48291015625,38.990478515625,67.3846435546875
1759066570.25239,-0.62890625,0.03369140625,0.77783203125,-1.28173828125,0.3662109375,0.54931640625,2.4774169921875,38.9959716796875,67.39013671875
1759066570.2616138,-0.62548828125,0.02734375,0.77978515625,-0.54931640625,0.30517578125,0.42724609375,2.471923828125,39.00146484375,67.3956298828125
1759066570.2716432,-0.62548828125,0.02734375,0.77978515625,-0.54931640625,0.30517578125,0.42724609375,2.471923828125,39.00146484375,67.401123046875
1759066570.2817595,-0.63232421875,0.02783203125,0.76806640625,0.732421875,0.42724609375,0.42724609375,2.48291015625,39.0069580078125,67.412109375
1759066570.2917557,-0.63232421875,0.02783203125,0.76806640625,0.732421875,0.42724609375,0.42724609375,2.4884033203125,39.012451171875,67.4176025390625
1759066570.301434,-0.63720703125,0.033203125,0.7705078125,1.64794921875,0.42724609375,0.244140625,2.5103759765625,39.0179443359375,67.4176025390625
1759066570.3116384,-0.63720703125,0.033203125,0.7705078125,1.64794921875,0.42724609375,0.244140625,2.52685546875,39.0234375,67.423095703125
1759066570.3220315,-0.63818359375,0.0361328125,0.7744140625,1.5869140625,0.732421875,0.18310546875,2.5433349609375,39.0289306640625,67.423095703125
1759066570.3316488,-0.63818359375,0.0361328125,0.7744140625,1.5869140625,0.732421875,0.18310546875,2.559814453125,39.0399169921875,67.423095703125
1759066570.3416278,-0.6337890625,0.03515625,0.77197265625,1.3427734375,1.0986328125,0.0,2.57080078125,39.0509033203125,67.423095703125
1759066570.3520696,-0.6337890625,0.03515625,0.77197265625,1.3427734375,1.0986328125,0.0,2.5872802734375,39.0618896484375,67.423095703125
1759066570.361976,-0.63037109375,0.03564453125,0.77490234375,1.15966796875,1.220703125,0.0,2.5982666015625,39.0728759765625,67.423095703125
1759066570.371666,-0.63037109375,0.03564453125,0.77490234375,1.15966796875,1.220703125,0.0,2.6092529296875,39.08935546875,67.423095703125
1759066570.3821561,-0.634765625,0.0390625,0.7744140625,0.54931640625,1.220703125,0.0,2.61474609375,39.100341796875,67.423095703125
1759066570.3918118,-0.634765625,0.0390625,0.7744140625,0.54931640625,1.220703125,0.0,2.6202392578125,39.111328125,67.423095703125
1759066570.4015608,-0.634765625,0.04150390625,0.76953125,-0.79345703125,1.03759765625,0.0,2.6092529296875,39.122314453125,67.4285888671875
1759066570.4123437,-0.634765625,0.04150390625,0.76953125,-0.79345703125,1.03759765625,0.0,2.603759765625,39.13330078125,67.4285888671875
1759066570.4222932,-0.63232421875,0.03857421875,0.7705078125,-2.50244140625,0.79345703125,0.1220703125,2.581787109375,39.144287109375,67.4285888671875
1759066570.433771,-0.63232421875,0.03857421875,0.7705078125,-2.50244140625,0.79345703125,0.1220703125,2.559814453125,39.1552734375,67.4285888671875
1759066570.4423091,-0.6279296875,0.0322265625,0.77392578125,-3.35693359375,0.6103515625,0.30517578125,2.52685546875,39.1607666015625,67.43408203125
1759066570.4520252,-0.6279296875,0.0322265625,0.77392578125,-3.35693359375,0.6103515625,0.30517578125,2.4993896484375,39.166259765625,67.4395751953125
1759066570.4620287,-0.63427734375,0.03125,0.77197265625,-3.72314453125,0.42724609375,0.54931640625,2.4664306640625,39.1717529296875,67.445068359375
1759066570.4718492,-0.63427734375,0.03125,0.77197265625,-3.72314453125,0.42724609375,0.54931640625,2.4334716796875,39.17724609375,67.4505615234375
1759066570.4821417,-0.63427734375,0.03125,0.77197265625,-3.47900390625,0.30517578125,0.48828125,2.406005859375,39.17724609375,67.4615478515625
1759066570.491819,-0.63427734375,0.03173828125,0.7646484375,-3.47900390625,0.30517578125,0.48828125,2.373046875,39.1827392578125,67.467041015625
1759066570.5017073,-0.62939453125,0.02685546875,0.7763671875,-3.2958984375,0.18310546875,0.48828125,2.3455810546875,39.1827392578125,67.4725341796875
1759066570.5122142,-0.62939453125,0.02685546875,0.7763671875,-3.2958984375,0.18310546875,0.48828125,2.318115234375,39.188232421875,67.47802734375
1759066570.5220706,-0.63037109375,0.02783203125,0.779296875,-2.8076171875,0.3662109375,0.48828125,2.296142578125,39.1937255859375,67.4835205078125
1759066570.5319076,-0.63037109375,0.02783203125,0.779296875,-2.8076171875,0.3662109375,0.48828125,2.274169921875,39.1937255859375,67.489013671875
1759066570.542112,-0.630859375,0.03173828125,0.77001953125,-2.74658203125,0.42724609375,0.3662109375,2.2467041015625,39.19921875,67.4945068359375
1759066570.5523458,-0.630859375,0.03173828125,0.77001953125,-2.74658203125,0.42724609375,0.3662109375,2.2247314453125,39.2047119140625,67.5
1759066570.5618508,-0.6328125,0.02978515625,0.7763671875,-3.41796875,0.48828125,0.244140625,2.1917724609375,39.210205078125,67.5054931640625
1759066570.5720165,-0.6328125,0.02978515625,0.7763671875,-3.41796875,0.48828125,0.244140625,2.164306640625,39.2156982421875,67.510986328125
1759066570.5822248,-0.6318359375,0.03271484375,0.76953125,-3.90625,0.67138671875,0.244140625,2.1258544921875,39.22119140625,67.510986328125
1759066570.5921972,-0.6318359375,0.03271484375,0.76953125,-3.90625,0.67138671875,0.244140625,2.0928955078125,39.2266845703125,67.5164794921875
1759066570.601845,-0.6318359375,0.02685546875,0.77392578125,-4.39453125,0.67138671875,0.18310546875,2.0489501953125,39.232177734375,67.5164794921875
1759066570.6120534,-0.6318359375,0.02685546875,0.77392578125,-4.39453125,0.67138671875,0.18310546875,2.010498046875,39.2376708984375,67.52197265625
1759066570.6224065,-0.6318359375,0.021484375,0.7744140625,-3.90625,0.79345703125,0.18310546875,1.9720458984375,39.2486572265625,67.52197265625
1759066570.6320233,-0.6318359375,0.021484375,0.7744140625,-3.90625,0.79345703125,0.18310546875,1.9390869140625,39.254150390625,67.52197265625
1759066570.6421936,-0.634765625,0.0224609375,0.7666015625,-3.11279296875,0.91552734375,0.18310546875,1.91162109375,39.26513671875,67.5274658203125
1759066570.6524098,-0.6396484375,0.02294921875,0.76708984375,-2.3193359375,0.9765625,0.06103515625,1.8841552734375,39.276123046875,67.5274658203125
1759066570.6619906,-0.6396484375,0.02294921875,0.76708984375,-2.3193359375,0.9765625,0.06103515625,1.8621826171875,39.287109375,67.5274658203125
1759066570.6723192,-0.64111328125,0.0205078125,0.767578125,-1.77001953125,1.15966796875,0.06103515625,1.845703125,39.298095703125,67.5274658203125
1759066570.6826103,-0.64111328125,0.0205078125,0.767578125,-1.77001953125,1.15966796875,0.06103515625,1.8292236328125,39.30908203125,67.5274658203125
1759066570.6926742,-0.64208984375,0.02490234375,0.7587890625,-1.0986328125,1.220703125,0.06103515625,1.8182373046875,39.320068359375,67.532958984375
1759066570.7019668,-0.64208984375,0.02490234375,0.7587890625,-1.0986328125,1.220703125,0.06103515625,1.8072509765625,39.3365478515625,67.532958984375
1759066570.7123697,-0.6435546875,0.021484375,0.76318359375,-1.03759765625,1.220703125,0.06103515625,1.7962646484375,39.3475341796875,67.532958984375
1759066570.7224617,-0.6435546875,0.021484375,0.76318359375,-1.03759765625,1.220703125,0.06103515625,1.790771484375,39.364013671875,67.532958984375
1759066570.7321625,-0.64013671875,0.025390625,0.76416015625,-1.708984375,1.28173828125,0.18310546875,1.7742919921875,39.375,67.532958984375
1759066570.7423685,-0.64013671875,0.025390625,0.76416015625,-1.708984375,1.28173828125,0.18310546875,1.7633056640625,39.3914794921875,67.532958984375
1759066570.7524002,-0.64208984375,0.0263671875,0.76611328125,-3.90625,1.220703125,0.30517578125,1.73583984375,39.407958984375,67.5384521484375
1759066570.7620728,-0.64208984375,0.0263671875,0.76611328125,-3.90625,1.220703125,0.30517578125,1.702880859375,39.4189453125,67.5384521484375
1759066570.7722256,-0.64794921875,0.02685546875,0.7578125,-5.615234375,1.28173828125,0.54931640625,1.658935546875,39.4354248046875,67.5439453125
