timestamp,acc_x,acc_y,acc_z,gyro_x,gyro_y,gyro_z,angle_x,angle_y,angle_z
1758786284.227766,-0.576171875,-0.1240234375,0.81298828125,-0.9765625,0.9765625,-1.708984375,-9.5855712890625,34.2608642578125,-118.8720703125
1758786284.2377024,-0.56494140625,-0.13330078125,0.81396484375,-1.220703125,1.28173828125,-2.25830078125,-9.6075439453125,34.266357421875,-118.8885498046875
1758786284.2474148,-0.56494140625,-0.13330078125,0.81396484375,-1.220703125,1.28173828125,-2.25830078125,-9.635009765625,34.27734375,-118.9105224609375
1758786284.2603366,-0.560546875,-0.13671875,0.81982421875,-1.0986328125,1.40380859375,-2.38037109375,-9.6624755859375,34.288330078125,-118.9324951171875
1758786284.2710981,-0.560546875,-0.13671875,0.81982421875,-1.0986328125,1.40380859375,-2.38037109375,-9.6844482421875,34.2938232421875,-118.9544677734375
1758786284.281171,-0.56103515625,-0.142578125,0.818359375,-1.03759765625,1.52587890625,-2.13623046875,-9.7119140625,34.3048095703125,-118.9764404296875
1758786284.2935908,-0.56103515625,-0.142578125,0.818359375,-1.03759765625,1.52587890625,-2.13623046875,-9.73388671875,34.3157958984375,-118.9984130859375
1758786284.3041162,-0.56591796875,-0.140625,0.81396484375,-1.52587890625,1.52587890625,-1.8310546875,-9.7613525390625,34.3267822265625,-119.0203857421875
1758786284.3130789,-0.56591796875,-0.140625,0.81396484375,-1.52587890625,1.52587890625,-1.8310546875,-9.7833251953125,34.3377685546875,-119.036865234375
1758786284.3198142,-0.55712890625,-0.14013671875,0.81591796875,-1.40380859375,1.64794921875,-1.64794921875,-9.810791015625,34.354248046875,-119.0533447265625
1758786284.3260121,-0.55712890625,-0.14013671875,0.81591796875,-1.40380859375,1.64794921875,-1.64794921875,-9.8382568359375,34.365234375,-119.06982421875
1758786284.336072,-0.56005859375,-0.14111328125,0.81787109375,-1.03759765625,1.708984375,-1.64794921875,-9.8602294921875,34.376220703125,-119.0863037109375
1758786284.3460443,-0.56005859375,-0.14111328125,0.81787109375,-1.03759765625,1.708984375,-1.64794921875,-9.8822021484375,34.38720703125,-119.102783203125
1758786284.3561146,-0.564453125,-0.13818359375,0.81884765625,-1.220703125,1.89208984375,-1.64794921875,-9.9041748046875,34.4036865234375,-119.1192626953125
1758786284.3661442,-0.564453125,-0.13818359375,0.81884765625,-1.220703125,1.89208984375,-1.64794921875,-9.9261474609375,34.4146728515625,-119.1357421875
1758786284.3761458,-0.5478515625,-0.13623046875,0.8115234375,-1.03759765625,2.01416015625,-1.708984375,-9.9481201171875,34.43115234375,-119.1522216796875
1758786284.386117,-0.5478515625,-0.13623046875,0.8115234375,-1.03759765625,2.01416015625,-1.708984375,-9.9700927734375,34.4476318359375,-119.168701171875
1758786284.3962045,-0.53173828125,-0.14453125,0.83203125,-0.18310546875,2.3193359375,-1.52587890625,-9.986572265625,34.464111328125,-119.1851806640625
1758786284.4095335,-0.53173828125,-0.14453125,0.83203125,-0.18310546875,2.3193359375,-1.52587890625,-9.99755859375,34.4805908203125,-119.20166015625
1758786284.4175313,-0.5390625,-0.14697265625,0.8544921875,-2.197265625,2.25830078125,-0.54931640625,-10.01953125,34.4970703125,-119.212646484375
1758786284.4262762,-0.5390625,-0.14697265625,0.8544921875,-2.197265625,2.25830078125,-0.54931640625,-10.04150390625,34.508056640625,-119.2181396484375
1758786284.436158,-0.5498046875,-0.140625,0.81982421875,-4.94384765625,1.89208984375,0.48828125,-10.0799560546875,34.5245361328125,-119.2181396484375
1758786284.4461384,-0.5498046875,-0.140625,0.81982421875,-4.94384765625,1.89208984375,0.48828125,-10.1239013671875,34.5355224609375,-119.212646484375
1758786284.4561572,-0.548828125,-0.15234375,0.81103515625,-4.69970703125,1.5869140625,1.15966796875,-10.162353515625,34.5465087890625,-119.1961669921875
1758786284.4661489,-0.548828125,-0.15234375,0.81103515625,-4.69970703125,1.5869140625,1.15966796875,-10.2008056640625,34.5574951171875,-119.1796875
1758786284.4761746,-0.5546875,-0.16162109375,0.82666015625,-0.42724609375,1.15966796875,1.03759765625,-10.1953125,34.56298828125,-119.168701171875
1758786284.4861681,-0.5546875,-0.16162109375,0.82666015625,-0.42724609375,1.15966796875,1.03759765625,-10.1953125,34.5684814453125,-119.15771484375
1758786284.4961803,-0.544921875,-0.14990234375,0.8125,2.86865234375,0.6103515625,1.0986328125,-10.1568603515625,34.573974609375,-119.1412353515625
1758786284.5061808,-0.544921875,-0.14990234375,0.8125,2.86865234375,0.6103515625,1.0986328125,-10.1239013671875,34.573974609375,-119.1302490234375
1758786284.5162394,-0.53515625,-0.14453125,0.82568359375,3.662109375,-0.18310546875,1.03759765625,-10.0799560546875,34.5684814453125,-119.11376953125
1758786284.5261955,-0.53515625,-0.14453125,0.82568359375,3.662109375,-0.18310546875,1.03759765625,-10.0360107421875,34.5574951171875,-119.0972900390625
1758786284.5362084,-0.521484375,-0.12646484375,0.8486328125,2.25830078125,-1.40380859375,1.28173828125,-10.0030517578125,34.5355224609375,-119.0753173828125
1758786284.546219,-0.521484375,-0.12646484375,0.8486328125,2.25830078125,-1.40380859375,1.28173828125,-9.9700927734375,34.51904296875,-119.058837890625
1758786284.5562313,-0.51953125,-0.13232421875,0.8603515625,-3.173828125,-2.9296875,1.8310546875,-9.9810791015625,34.4805908203125,-119.02587890625
1758786284.5662458,-0.51953125,-0.13232421875,0.8603515625,-3.173828125,-2.9296875,1.8310546875,-9.99755859375,34.442138671875,-118.992919921875
1758786284.5762434,-0.5244140625,-0.11669921875,0.86474609375,-7.38525390625,-4.08935546875,1.3427734375,-10.052490234375,34.3927001953125,-118.9654541015625
1758786284.586257,-0.5244140625,-0.11669921875,0.86474609375,-7.38525390625,-4.08935546875,1.3427734375,-10.107421875,34.34326171875,-118.93798828125
1758786284.59626,-0.49267578125,-0.11962890625,0.84326171875,-7.2021484375,-4.7607421875,0.1220703125,-10.1678466796875,34.2828369140625,-118.9215087890625
1758786284.6062791,-0.49267578125,-0.11962890625,0.84326171875,-7.2021484375,-4.7607421875,0.1220703125,-10.2227783203125,34.222412109375,-118.905029296875
1758786284.616294,-0.50732421875,-0.1103515625,0.85693359375,-3.35693359375,-5.06591796875,-1.64794921875,-10.2557373046875,34.156494140625,-118.905029296875
1758786284.6262984,-0.50732421875,-0.1103515625,0.85693359375,-3.35693359375,-5.06591796875,-1.64794921875,-10.283203125,34.0850830078125,-118.905029296875
1758786284.6362972,-0.482421875,-0.14013671875,0.87158203125,-5.18798828125,-4.08935546875,-2.13623046875,-10.3326416015625,34.024658203125,-118.9105224609375
1758786284.6463099,-0.482421875,-0.14013671875,0.87158203125,-5.18798828125,-4.08935546875,-2.13623046875,-10.3875732421875,33.9642333984375,-118.9215087890625
1758786284.6563182,-0.46533203125,-0.1396484375,0.9033203125,-14.95361328125,-3.5400390625,-1.953125,-10.535888671875,33.9093017578125,-118.927001953125
1758786284.6663396,-0.46533203125,-0.1396484375,0.9033203125,-14.95361328125,-3.5400390625,-1.953125,-10.6787109375,33.848876953125,-118.9324951171875
1758786284.676325,-0.455078125,-0.12890625,0.89306640625,-15.80810546875,-3.60107421875,-1.77001953125,-10.83251953125,33.7884521484375,-118.93798828125
1758786284.6863403,-0.455078125,-0.12890625,0.89306640625,-15.80810546875,-3.60107421875,-1.77001953125,-10.9808349609375,33.7225341796875,-118.9434814453125
1758786284.6963482,-0.45751953125,-0.15869140625,0.87744140625,-14.83154296875,-2.99072265625,-1.220703125,-11.1181640625,33.6676025390625,-118.9434814453125
1758786284.7063634,-0.45751953125,-0.15869140625,0.87744140625,-14.83154296875,-2.99072265625,-1.220703125,-11.260986328125,33.607177734375,-118.93798828125
1758786284.7163687,-0.4931640625,-0.15869140625,0.8984375,-9.3994140625,-2.38037109375,-0.8544921875,-11.3433837890625,33.5577392578125,-118.93798828125
1758786284.726407,-0.4931640625,-0.15869140625,0.8984375,-9.3994140625,-2.38037109375,-0.8544921875,-11.42578125,33.5028076171875,-118.9324951171875
1758786284.7364197,-0.53515625,-0.1787109375,0.8544921875,-8.60595703125,-2.685546875,-0.9765625,-11.4971923828125,33.453369140625,-118.9324951171875
1758786284.746433,-0.53515625,-0.1787109375,0.8544921875,-8.60595703125,-2.685546875,-0.9765625,-11.5740966796875,33.3984375,-118.927001953125
1758786284.756402,-0.544921875,-0.1572265625,0.83740234375,-11.962890625,-2.3193359375,-0.732421875,-11.6839599609375,33.3544921875,-118.9215087890625
1758786284.766495,-0.544921875,-0.1572265625,0.83740234375,-11.962890625,-2.3193359375,-0.732421875,-11.7938232421875,33.310546875,-118.916015625
1758786284.7764754,-0.5771484375,-0.158203125,0.818359375,-11.71875,-1.52587890625,-1.03759765625,-11.9036865234375,33.277587890625,-118.916015625
1758786284.7871358,-0.5771484375,-0.158203125,0.818359375,-11.71875,-1.52587890625,-1.03759765625,-12.0135498046875,33.24462890625,-118.9105224609375
1758786284.7964787,-0.62744140625,-0.14794921875,0.81640625,-27.9541015625,-0.30517578125,-0.3662109375,-12.28271484375,33.2281494140625,-118.8995361328125
1758786284.8065162,-0.62744140625,-0.14794921875,0.81640625,-27.9541015625,-0.30517578125,-0.3662109375,-12.54638671875,33.2171630859375,-118.8885498046875
1758786284.816478,-0.5205078125,-0.21337890625,0.76611328125,-31.92138671875,1.03759765625,1.52587890625,-12.843017578125,33.22265625,-118.8555908203125
1758786284.826671,-0.5205078125,-0.21337890625,0.76611328125,-31.92138671875,1.03759765625,1.52587890625,-13.1396484375,33.233642578125,-118.828125
1758786284.836825,-0.5205078125,-0.21337890625,0.76611328125,-28.01513671875,-0.8544921875,0.8544921875,-13.4033203125,33.22265625,-118.795166015625
1758786284.8466024,-0.6435546875,-0.16796875,0.84619140625,-28.01513671875,-0.8544921875,0.8544921875,-13.656005859375,33.2171630859375,-118.7677001953125
1758786284.8565688,-0.67333984375,-0.1953125,0.85986328125,-25.08544921875,-1.28173828125,2.197265625,-13.875732421875,33.211669921875,-118.71826171875
1758786284.866711,-0.67333984375,-0.1953125,0.85986328125,-25.08544921875,-1.28173828125,2.197265625,-14.095458984375,33.211669921875,-118.663330078125
1758786284.880504,-0.60498046875,-0.2451171875,0.79052734375,-22.216796875,-2.62451171875,2.685546875,-14.2822265625,33.1951904296875,-118.6083984375
1758786284.8873017,-0.60498046875,-0.2451171875,0.79052734375,-22.216796875,-2.62451171875,2.685546875,-14.4744873046875,33.1842041015625,-118.5479736328125
1758786284.8965995,-0.564453125,-0.24951171875,0.78662109375,-10.986328125,-1.708984375,3.173828125,-14.5513916015625,33.1842041015625,-118.4930419921875
1758786284.9067233,-0.564453125,-0.24951171875,0.78662109375,-10.986328125,-1.708984375,3.173828125,-14.6282958984375,33.1842041015625,-118.4326171875
1758786284.9170249,-0.55419921875,-0.25341796875,0.78564453125,7.9345703125,-2.38037109375,2.8076171875,-14.52392578125,33.1732177734375,-118.3831787109375
1758786284.926756,-0.55419921875,-0.25341796875,0.78564453125,7.9345703125,-2.38037109375,2.8076171875,-14.4195556640625,33.167724609375,-118.333740234375
1758786284.9366457,-0.49072265625,-0.26416015625,0.8017578125,12.75634765625,-1.0986328125,3.41796875,-14.271240234375,33.167724609375,-118.2843017578125
1758786284.9467523,-0.49072265625,-0.26416015625,0.8017578125,12.75634765625,-1.0986328125,3.41796875,-14.1229248046875,33.167724609375,-118.2403564453125
1758786284.9572208,-0.4716796875,-0.2255859375,0.8876953125,6.53076171875,-1.15966796875,4.45556640625,-14.029541015625,33.167724609375,-118.1854248046875
1758786284.966768,-0.4716796875,-0.2255859375,0.8876953125,6.53076171875,-1.15966796875,4.45556640625,-13.941650390625,33.167724609375,-118.1304931640625
1758786284.9766157,-0.4521484375,-0.224609375,0.94970703125,13.0615234375,-1.46484375,5.18798828125,-13.7823486328125,33.15673828125,-118.070068359375
1758786284.9873242,-0.4521484375,-0.224609375,0.94970703125,13.0615234375,-1.46484375,5.18798828125,-13.623046875,33.1402587890625,-118.0096435546875
1758786284.9969609,-0.40771484375,-0.24169921875,0.94091796875,19.53125,-2.50244140625,5.2490234375,-13.392333984375,33.11279296875,-117.94921875
1758786285.0068288,-0.40771484375,-0.24169921875,0.94091796875,19.53125,-2.50244140625,5.2490234375,-13.172607421875,33.079833984375,-117.8887939453125
1758786285.0168471,-0.40869140625,-0.2138671875,0.943359375,24.0478515625,-3.0517578125,5.37109375,-12.9034423828125,33.035888671875,-117.8338623046875
1758786285.0269544,-0.40869140625,-0.2138671875,0.943359375,24.0478515625,-3.0517578125,5.37109375,-12.63427734375,32.991943359375,-117.7789306640625
1758786285.0372937,-0.4267578125,-0.193359375,0.87646484375,29.541015625,-2.74658203125,5.67626953125,-12.3046875,32.947998046875,-117.718505859375
1758786285.0466957,-0.4267578125,-0.193359375,0.87646484375,29.541015625,-2.74658203125,5.67626953125,-11.986083984375,32.8985595703125,-117.6690673828125
1758786285.0566967,-0.34716796875,-0.22412109375,0.83935546875,39.24560546875,-3.72314453125,5.92041015625,-11.5631103515625,32.8436279296875,-117.6141357421875
1758786285.0669851,-0.34716796875,-0.22412109375,0.83935546875,39.24560546875,-3.72314453125,5.92041015625,-11.151123046875,32.783203125,-117.564697265625
1758786285.077341,-0.3916015625,-0.21142578125,0.85546875,39.4287109375,-2.5634765625,7.32421875,-10.7281494140625,32.7337646484375,-117.5042724609375
1758786285.087287,-0.3916015625,-0.21142578125,0.85546875,39.4287109375,-2.5634765625,7.32421875,-10.30517578125,32.684326171875,-117.4493408203125
1758786285.096763,-0.4765625,-0.16357421875,0.95166015625,32.3486328125,-4.0283203125,7.87353515625,-9.95361328125,32.618408203125,-117.3834228515625
1758786285.107146,-0.4765625,-0.16357421875,0.95166015625,32.3486328125,-4.0283203125,7.87353515625,-9.60205078125,32.5579833984375,-117.322998046875
1758786285.1175835,-0.50439453125,-0.142578125,1.07275390625,30.82275390625,-6.34765625,7.568359375,-9.261474609375,32.4700927734375,-117.257080078125
1758786285.1267812,-0.50439453125,-0.142578125,1.07275390625,30.82275390625,-6.34765625,7.568359375,-8.9208984375,32.3822021484375,-117.191162109375
1758786285.1368122,-0.47265625,-0.08837890625,0.9658203125,10.3759765625,-7.8125,9.58251953125,-8.76708984375,32.2833251953125,-117.09228515625
1758786285.1472566,-0.47265625,-0.08837890625,0.9658203125,10.3759765625,-7.8125,9.58251953125,-8.61328125,32.178955078125,-116.993408203125
1758786285.1572316,-0.421875,-0.01708984375,0.8037109375,-13.916015625,-7.4462890625,11.1083984375,-8.6846923828125,32.091064453125,-116.87255859375
1758786285.1668377,-0.421875,-0.01708984375,0.8037109375,-13.916015625,-7.4462890625,11.1083984375,-8.756103515625,31.9976806640625,-116.7462158203125
1758786285.1768315,-0.36181640625,-0.03466796875,0.63427734375,-21.484375,-6.16455078125,12.6953125,-8.887939453125,31.9207763671875,-116.6033935546875
1758786285.1869507,-0.36181640625,-0.03466796875,0.63427734375,-21.484375,-6.16455078125,12.6953125,-9.0142822265625,31.849365234375,-116.455078125
1758786285.1973288,-0.41845703125,-0.15234375,0.73486328125,-0.3662109375,-3.84521484375,12.8173828125,-8.931884765625,31.805419921875,-116.3067626953125
1758786285.206863,-0.41845703125,-0.15234375,0.73486328125,-0.3662109375,-3.84521484375,12.8173828125,-8.85498046875,31.7559814453125,-116.1639404296875
1758786285.2169394,-0.5283203125,-0.35888671875,0.921875,32.40966796875,-2.86865234375,11.3525390625,-8.470458984375,31.7230224609375,-116.0540771484375
1758786285.2276304,-0.5283203125,-0.35888671875,0.921875,32.40966796875,-2.86865234375,11.3525390625,-8.0914306640625,31.6845703125,-115.94970703125
1758786285.2369273,-0.5244140625,-0.34228515625,0.921875,44.61669921875,-1.3427734375,9.33837890625,-7.6190185546875,31.66259765625,-115.8837890625
1758786285.2470326,-0.5244140625,-0.34228515625,0.921875,44.61669921875,-1.3427734375,9.33837890625,-7.152099609375,31.6351318359375,-115.8233642578125
1758786285.2569067,-0.58154296875,-0.07861328125,0.83154296875,26.7333984375,-2.25830078125,8.544921875,-6.866455078125,31.607666015625,-115.7684326171875
1758786285.267407,-0.58154296875,-0.07861328125,0.83154296875,26.7333984375,-2.25830078125,8.544921875,-6.580810546875,31.5802001953125,-115.7135009765625
1758786285.2769341,-0.59228515625,0.06982421875,1.0048828125,23.62060546875,-3.662109375,9.033203125,-6.3116455078125,31.541748046875,-115.6365966796875
1758786285.2871854,-0.59228515625,0.06982421875,1.0048828125,23.62060546875,-3.662109375,9.033203125,-6.0369873046875,31.5032958984375,-115.5487060546875
1758786285.2972364,-0.54345703125,0.02880859375,0.75390625,9.70458984375,-2.50244140625,9.8876953125,-5.888671875,31.475830078125,-115.4498291015625
1758786285.307256,-0.54345703125,0.02880859375,0.75390625,9.70458984375,-2.50244140625,9.8876953125,-5.7403564453125,31.4593505859375,-115.3399658203125
1758786285.3169572,-0.5830078125,0.0732421875,0.69580078125,-27.89306640625,-2.62451171875,11.77978515625,-5.943603515625,31.44287109375,-115.20263671875
1758786285.3272846,-0.5830078125,0.0732421875,0.69580078125,-27.89306640625,-2.62451171875,11.77978515625,-6.1468505859375,31.431884765625,-115.059814453125
1758786285.337066,-0.6376953125,0.0419921875,0.771484375,-50.23193359375,-1.8310546875,11.474609375,-6.5643310546875,31.4373779296875,-114.906005859375
1758786285.3471715,-0.6376953125,0.0419921875,0.771484375,-50.23193359375,-1.8310546875,11.474609375,-6.976318359375,31.44287109375,-114.752197265625
1758786285.3573284,-0.6640625,-0.05859375,0.92041015625,-65.36865234375,-4.39453125,11.71875,-7.53662109375,31.431884765625,-114.58740234375
1758786285.3672574,-0.6640625,-0.05859375,0.92041015625,-65.36865234375,-4.39453125,11.71875,-8.0859375,31.4208984375,-114.4171142578125
1758786285.377037,-0.59521484375,-0.162109375,0.99267578125,-59.38720703125,-6.2255859375,11.8408203125,-8.580322265625,31.387939453125,-114.246826171875
1758786285.3872375,-0.59521484375,-0.162109375,0.99267578125,-59.38720703125,-6.2255859375,11.8408203125,-9.0692138671875,31.3604736328125,-114.0765380859375
1758786285.3976495,-0.4931640625,-0.23291015625,0.8232421875,-1.28173828125,-6.103515625,10.1318359375,-8.997802734375,31.3275146484375,-113.92822265625
1758786285.4072173,-0.4931640625,-0.23291015625,0.8232421875,-1.28173828125,-6.103515625,10.1318359375,-8.9263916015625,31.2945556640625,-113.7908935546875
1758786285.4171147,-0.3984375,-0.24267578125,0.57958984375,36.376953125,-3.23486328125,8.85009765625,-8.50341796875,31.2835693359375,-113.6810302734375
1758786285.4272113,-0.3984375,-0.24267578125,0.57958984375,36.376953125,-3.23486328125,8.85009765625,-8.0859375,31.2725830078125,-113.5821533203125
1758786285.4378612,-0.41845703125,-0.119140625,0.62939453125,32.53173828125,-0.79345703125,9.3994140625,-7.71240234375,31.2890625,-113.4832763671875
1758786285.4471745,-0.41845703125,-0.119140625,0.62939453125,32.53173828125,-0.79345703125,9.3994140625,-7.3388671875,31.3055419921875,-113.3843994140625
1758786285.4571438,-0.74755859375,0.08056640625,1.1337890625,9.09423828125,-3.11279296875,9.3994140625,-7.196044921875,31.2945556640625,-113.2745361328125
1758786285.4675405,-0.74755859375,0.08056640625,1.1337890625,9.09423828125,-3.11279296875,9.3994140625,-7.0367431640625,31.2890625,-113.1536865234375
1758786285.477261,-0.927734375,0.154296875,1.57421875,-32.2265625,-10.43701171875,8.36181640625,-7.2894287109375,31.2066650390625,-113.0218505859375
1758786285.4872282,-0.927734375,0.154296875,1.57421875,-32.2265625,-10.43701171875,8.36181640625,-7.525634765625,31.124267578125,-112.8790283203125
1758786285.497255,-0.65380859375,0.0224609375,0.8916015625,-67.81005859375,-13.12255859375,11.474609375,-8.0914306640625,31.0198974609375,-112.686767578125
1758786285.5077124,-0.65380859375,0.0224609375,0.8916015625,-67.81005859375,-13.12255859375,11.474609375,-8.6517333984375,30.9210205078125,-112.4945068359375
1758786285.5171041,-0.2890625,-0.052734375,0.4658203125,-75.1953125,-15.625,13.7939453125,-9.2669677734375,30.8056640625,-112.2637939453125
1758786285.527264,-0.2890625,-0.052734375,0.4658203125,-75.1953125,-15.625,13.7939453125,-9.876708984375,30.6903076171875,-112.027587890625
1758786285.537602,-0.2177734375,-0.1591796875,0.3681640625,-38.39111328125,-7.01904296875,12.5732421875,-10.140380859375,30.6573486328125,-111.8353271484375
1758786285.547331,-0.30517578125,-0.2451171875,0.50732421875,-11.90185546875,-2.0751953125,11.16943359375,-10.283203125,30.65185546875,-111.654052734375
1758786285.5571606,-0.30517578125,-0.2451171875,0.50732421875,-11.90185546875,-2.0751953125,11.16943359375,-10.30517578125,30.662841796875,-111.500244140625
1758786285.5673492,-0.9541015625,-0.2119140625,1.234375,-27.099609375,-5.615234375,8.544921875,-10.4205322265625,30.65185546875,-111.3629150390625
1758786285.5774286,-0.9541015625,-0.2119140625,1.234375,-27.099609375,-5.615234375,8.544921875,-10.6182861328125,30.6298828125,-111.236572265625
1758786285.5876071,-0.9091796875,-0.28271484375,1.90380859375,-13.0615234375,-14.404296875,10.009765625,-10.733642578125,30.5694580078125,-111.09375
1758786285.5972471,-0.9091796875,-0.28271484375,1.90380859375,-13.0615234375,-14.404296875,10.009765625,-10.7720947265625,30.4541015625,-110.9344482421875
1758786285.6074326,-0.37353515625,-0.212890625,0.52392578125,25.20751953125,-12.451171875,7.6904296875,-10.6292724609375,30.34423828125,-110.7916259765625
1758786285.617905,-0.37353515625,-0.212890625,0.52392578125,25.20751953125,-12.451171875,7.6904296875,-10.3106689453125,30.2398681640625,-110.6707763671875
1758786285.6275635,-0.21826171875,-0.1220703125,0.1845703125,22.88818359375,-12.63427734375,7.32421875,-10.0140380859375,30.1409912109375,-110.5609130859375
1758786285.6372545,-0.21826171875,-0.1220703125,0.1845703125,22.88818359375,-12.63427734375,7.32421875,-9.73388671875,30.03662109375,-110.45654296875
1758786285.6473913,-0.369140625,-0.111328125,0.60107421875,7.2021484375,-3.72314453125,5.7373046875,-9.5416259765625,29.981689453125,-110.36865234375
1758786285.6578708,-0.369140625,-0.111328125,0.60107421875,7.2021484375,-3.72314453125,5.7373046875,-9.4427490234375,29.970703125,-110.302734375
1758786285.6674297,-0.4755859375,-0.05224609375,1.01123046875,-40.6494140625,-3.96728515625,6.591796875,-9.5745849609375,29.9542236328125,-110.2313232421875
1758786285.6772645,-0.4755859375,-0.05224609375,1.01123046875,-40.6494140625,-3.96728515625,6.591796875,-9.9371337890625,29.9322509765625,-110.14892578125
1758786285.6877992,-0.44580078125,-0.0283203125,1.03955078125,-38.63525390625,-3.11279296875,8.23974609375,-10.2777099609375,29.915771484375,-110.0555419921875
1758786285.6977148,-0.44580078125,-0.0283203125,1.03955078125,-38.63525390625,-3.11279296875,8.23974609375,-10.5963134765625,29.8992919921875,-109.940185546875
1758786285.707497,-0.46826171875,-0.09912109375,0.91259765625,7.01904296875,-3.662109375,9.1552734375,-10.6842041015625,29.8773193359375,-109.8193359375
1758786285.717314,-0.46826171875,-0.09912109375,0.91259765625,7.01904296875,-3.662109375,9.1552734375,-10.535888671875,29.849853515625,-109.6929931640625
1758786285.727495,-0.45361328125,-0.220703125,0.83251953125,22.3388671875,-4.39453125,8.36181640625,-10.316162109375,29.8223876953125,-109.5721435546875
1758786285.7373955,-0.45361328125,-0.220703125,0.83251953125,22.3388671875,-4.39453125,8.36181640625,-10.030517578125,29.783935546875,-109.456787109375
1758786285.7474687,-0.46630859375,-0.2451171875,0.86181640625,3.84521484375,-2.9296875,8.056640625,-9.8382568359375,29.7564697265625,-109.35791015625
1758786285.757377,-0.46630859375,-0.2451171875,0.86181640625,3.84521484375,-2.9296875,8.056640625,-9.7503662109375,29.7344970703125,-109.2645263671875
1758786285.7677646,-0.4638671875,-0.15771484375,0.7060546875,-3.2958984375,-2.3193359375,7.87353515625,-9.700927734375,29.7125244140625,-109.1766357421875
1758786285.7774363,-0.4638671875,-0.15771484375,0.7060546875,-3.2958984375,-2.3193359375,7.87353515625,-9.68994140625,29.7015380859375,-109.09423828125
1758786285.7875469,-0.486328125,-0.19287109375,0.66796875,1.28173828125,-0.8544921875,7.9345703125,-9.6624755859375,29.696044921875,-109.0118408203125
1758786285.79741,-0.486328125,-0.19287109375,0.66796875,1.28173828125,-0.8544921875,7.9345703125,-9.6075439453125,29.7015380859375,-108.9349365234375
1758786285.8076007,-0.486328125,-0.19287109375,0.66796875,12.14599609375,1.3427734375,7.75146484375,-9.5086669921875,29.718017578125,-108.863525390625
1758786285.8174589,-0.6513671875,-0.21142578125,0.6904296875,12.14599609375,1.3427734375,7.75146484375,-9.3603515625,29.7564697265625,-108.7921142578125
1758786285.8275535,-0.75390625,-0.26806640625,0.9638671875,22.3388671875,-1.52587890625,5.859375,-9.1680908203125,29.783935546875,-108.7371826171875
1758786285.837721,-0.75390625,-0.26806640625,0.9638671875,22.3388671875,-1.52587890625,5.859375,-8.9263916015625,29.8004150390625,-108.687744140625
1758786285.8479345,-0.83056640625,-0.298828125,1.1591796875,38.87939453125,-4.69970703125,4.638671875,-8.61328125,29.8004150390625,-108.6492919921875
1758786285.8574488,-0.83056640625,-0.298828125,1.1591796875,38.87939453125,-4.69970703125,4.638671875,-8.2232666015625,29.783935546875,-108.6163330078125
1758786285.8676233,-0.6865234375,-0.2060546875,1.00537109375,66.2841796875,-7.87353515625,3.72314453125,-7.701416015625,29.7509765625,-108.5888671875
1758786285.8778348,-0.6865234375,-0.2060546875,1.00537109375,66.2841796875,-7.87353515625,3.72314453125,-7.042236328125,29.70703125,-108.56689453125
1758786285.8876438,-0.5478515625,-0.15869140625,0.71728515625,77.69775390625,-8.7890625,2.99072265625,-6.3336181640625,29.652099609375,-108.5504150390625
1758786285.8975387,-0.5478515625,-0.15869140625,0.71728515625,77.69775390625,-8.7890625,2.99072265625,-5.5755615234375,29.59716796875,-108.5394287109375
1758786285.9076583,-0.45068359375,-0.10498046875,0.63232421875,67.07763671875,-5.615234375,3.35693359375,-4.8724365234375,29.5587158203125,-108.533935546875
1758786285.9180555,-0.45068359375,-0.10498046875,0.63232421875,67.07763671875,-5.615234375,3.35693359375,-4.229736328125,29.5367431640625,-108.5284423828125
1758786285.9276407,-0.3896484375,0.0068359375,0.5869140625,53.8330078125,-0.6103515625,3.173828125,-3.6474609375,29.542236328125,-108.5284423828125
1758786285.937551,-0.3896484375,0.0068359375,0.5869140625,53.8330078125,-0.6103515625,3.173828125,-3.1365966796875,29.5697021484375,-108.5284423828125
1758786285.9480627,-0.3759765625,0.0439453125,0.6494140625,39.9169921875,5.37109375,4.39453125,-2.691650390625,29.6246337890625,-108.52294921875
1758786285.9575078,-0.3759765625,0.0439453125,0.6494140625,39.9169921875,5.37109375,4.39453125,-2.30712890625,29.70703125,-108.5064697265625
1758786285.9678078,-0.5146484375,0.0810546875,0.95947265625,30.21240234375,7.6904296875,3.662109375,-1.966552734375,29.8004150390625,-108.4954833984375
1758786285.9775672,-0.5146484375,0.0810546875,0.95947265625,30.21240234375,7.6904296875,3.662109375,-1.6754150390625,29.893798828125,-108.47900390625
1758786285.988597,-0.615234375,0.15234375,1.1259765625,6.4697265625,5.615234375,5.37109375,-1.483154296875,29.981689453125,-108.446044921875
1758786285.9978364,-0.615234375,0.15234375,1.1259765625,6.4697265625,5.615234375,5.37109375,-1.4007568359375,30.0531005859375,-108.3966064453125
1758786286.0077672,-0.5048828125,0.15380859375,1.0439453125,-23.49853515625,3.96728515625,6.77490234375,-1.4556884765625,30.1080322265625,-108.336181640625
1758786286.017815,-0.5048828125,0.15380859375,1.0439453125,-23.49853515625,3.96728515625,6.77490234375,-1.6424560546875,30.157470703125,-108.2537841796875
1758786286.027763,-0.43505859375,0.0556640625,0.791015625,-38.14697265625,3.23486328125,8.4228515625,-1.8951416015625,30.1959228515625,-108.160400390625
1758786286.0376525,-0.43505859375,0.0556640625,0.791015625,-38.14697265625,3.23486328125,8.4228515625,-2.2137451171875,30.234375,-108.0560302734375
1758786286.0478513,-0.455078125,-0.04248046875,0.669921875,-41.3818359375,5.37109375,10.009765625,-2.5433349609375,30.2783203125,-107.940673828125
1758786286.058231,-0.455078125,-0.04248046875,0.669921875,-41.3818359375,5.37109375,10.009765625,-2.87841796875,30.34423828125,-107.81982421875
1758786286.0678017,-0.4580078125,-0.0078125,0.6787109375,-35.7666015625,8.4228515625,11.77978515625,-3.18603515625,30.421142578125,-107.68798828125
1758786286.0776844,-0.4580078125,-0.0078125,0.6787109375,-35.7666015625,8.4228515625,11.77978515625,-3.4552001953125,30.5145263671875,-107.5506591796875
1758786286.0880632,-0.578125,0.04296875,0.8056640625,-32.89794921875,11.41357421875,11.474609375,-3.71337890625,30.6298828125,-107.413330078125
1758786286.0983322,-0.578125,0.04296875,0.8056640625,-32.89794921875,11.41357421875,11.474609375,-3.9495849609375,30.7562255859375,-107.2760009765625
1758786286.1077907,-0.6767578125,-0.0361328125,1.1064453125,-60.791015625,8.4228515625,11.3525390625,-4.32861328125,30.87158203125,-107.1331787109375
1758786286.11783,-0.6767578125,-0.0361328125,1.1064453125,-60.791015625,8.4228515625,11.3525390625,-4.844970703125,30.9759521484375,-106.9903564453125
1758786286.1280842,-0.68701171875,-0.0693359375,1.0439453125,-80.38330078125,6.103515625,14.34326171875,-5.4437255859375,31.0638427734375,-106.8310546875
1758786286.138454,-0.68701171875,-0.0693359375,1.0439453125,-80.38330078125,6.103515625,14.34326171875,-6.1358642578125,31.146240234375,-106.6552734375
1758786286.1479065,-0.60888671875,-0.06494140625,0.8662109375,-63.5986328125,2.197265625,16.7236328125,-6.7291259765625,31.212158203125,-106.4630126953125
1758786286.1577582,-0.60888671875,-0.06494140625,0.8662109375,-63.5986328125,2.197265625,16.7236328125,-7.2344970703125,31.26708984375,-106.2542724609375
1758786286.1681073,-0.5126953125,-0.0810546875,0.77099609375,-53.52783203125,2.25830078125,19.04296875,-7.6739501953125,31.322021484375,-106.029052734375
1758786286.1780643,-0.5126953125,-0.0810546875,0.77099609375,-53.52783203125,2.25830078125,19.04296875,-8.06396484375,31.376953125,-105.7928466796875
1758786286.187896,-0.58203125,-0.06201171875,0.77734375,-65.00244140625,1.708984375,19.8974609375,-8.50341796875,31.4373779296875,-105.5511474609375
1758786286.1978111,-0.58203125,-0.06201171875,0.77734375,-65.00244140625,1.708984375,19.8974609375,-8.997802734375,31.497802734375,-105.2984619140625
1758786286.2082207,-0.544921875,-0.05419921875,0.7958984375,-74.951171875,1.3427734375,20.08056640625,-9.5361328125,31.5582275390625,-105.0457763671875
1758786286.2179585,-0.544921875,-0.05419921875,0.7958984375,-74.951171875,1.3427734375,20.08056640625,-10.1239013671875,31.61865234375,-104.78759765625
1758786286.2279623,-0.416015625,-0.0732421875,0.75732421875,-78.55224609375,1.89208984375,21.484375,-10.72265625,31.6845703125,-104.52392578125
1758786286.2378523,-0.416015625,-0.0732421875,0.75732421875,-78.55224609375,1.89208984375,21.484375,-11.3323974609375,31.7559814453125,-104.249267578125
1758786286.2479491,-0.3115234375,-0.1533203125,0.833984375,-74.40185546875,3.47900390625,22.64404296875,-11.920166015625,31.8328857421875,-103.9691162109375
1758786286.2582428,-0.3115234375,-0.1533203125,0.833984375,-74.40185546875,3.47900390625,22.64404296875,-12.48046875,31.915283203125,-103.6834716796875
1758786286.2679868,-0.29541015625,-0.171875,0.8525390625,-64.453125,3.41796875,22.94921875,-12.9913330078125,31.9921875,-103.3978271484375
1758786286.277931,-0.29541015625,-0.171875,0.8525390625,-64.453125,3.41796875,22.94921875,-13.4527587890625,32.0635986328125,-103.11767578125
1758786286.2881625,-0.28173828125,-0.158203125,0.78466796875,-43.9453125,4.39453125,22.52197265625,-13.8153076171875,32.135009765625,-102.843017578125
1758786286.2981102,-0.28173828125,-0.158203125,0.78466796875,-43.9453125,4.39453125,22.52197265625,-14.073486328125,32.2064208984375,-102.568359375
1758786286.3080137,-0.3486328125,-0.2099609375,0.72119140625,-29.96826171875,5.7373046875,22.3388671875,-14.271240234375,32.2833251953125,-102.3046875
1758786286.3181155,-0.3486328125,-0.2099609375,0.72119140625,-29.96826171875,5.7373046875,22.3388671875,-14.403076171875,32.3602294921875,-102.0465087890625
1758786286.3286142,-0.48291015625,-0.29736328125,0.88720703125,-20.99609375,5.615234375,20.69091796875,-14.4964599609375,32.4371337890625,-101.79931640625
1758786286.338239,-0.48291015625,-0.29736328125,0.88720703125,-20.99609375,5.615234375,20.69091796875,-14.556884765625,32.508544921875,-101.5740966796875
1758786286.348056,-0.67041015625,-0.30615234375,1.0966796875,-10.19287109375,3.5400390625,20.32470703125,-14.5733642578125,32.574462890625,-101.348876953125
1758786286.3580751,-0.67041015625,-0.30615234375,1.0966796875,-10.19287109375,3.5400390625,20.32470703125,-14.534912109375,32.62939453125,-101.129150390625
1758786286.368577,-0.61865234375,-0.30908203125,1.0078125,20.3857421875,0.3662109375,20.81298828125,-14.3426513671875,32.6678466796875,-100.9039306640625
1758786286.378089,-0.61865234375,-0.30908203125,1.0078125,20.3857421875,0.3662109375,20.81298828125,-14.0020751953125,32.6953125,-100.6787109375
1758786286.3880756,-0.67431640625,-0.2490234375,0.81103515625,48.03466796875,-2.99072265625,21.91162109375,-13.5186767578125,32.7117919921875,-100.447998046875
1758786286.398078,-0.67431640625,-0.2490234375,0.81103515625,48.03466796875,-2.99072265625,21.91162109375,-12.9034423828125,32.7117919921875,-100.206298828125
1758786286.4085448,-0.7646484375,-0.265625,0.71533203125,78.0029296875,-4.21142578125,17.9443359375,-12.15087890625,32.706298828125,-99.9920654296875
1758786286.4181914,-0.7646484375,-0.265625,0.71533203125,78.0029296875,-4.21142578125,17.9443359375,-11.27197265625,32.7008056640625,-99.8052978515625
1758786286.428159,-0.6337890625,-0.31005859375,0.67822265625,98.5107421875,-2.9296875,14.0380859375,-10.30517578125,32.7008056640625,-99.64599609375
1758786286.4386358,-0.6337890625,-0.31005859375,0.67822265625,98.5107421875,-2.9296875,14.0380859375,-9.2669677734375,32.706298828125,-99.525146484375
1758786286.4485147,-0.55517578125,-0.244140625,0.5869140625,95.947265625,0.8544921875,11.90185546875,-8.2562255859375,32.728271484375,-99.42626953125
1758786286.4581819,-0.55517578125,-0.244140625,0.5869140625,95.947265625,0.8544921875,11.90185546875,-7.27294921875,32.772216796875,-99.349365234375
1758786286.4684427,-0.62451171875,-0.09765625,0.67724609375,87.40234375,4.7607421875,9.09423828125,-6.3555908203125,32.838134765625,-99.29443359375
1758786286.4783175,-0.62451171875,-0.09765625,0.67724609375,87.40234375,4.7607421875,9.09423828125,-5.482177734375,32.9205322265625,-99.261474609375
1758786286.488226,-0.7060546875,-0.0390625,0.7744140625,83.92333984375,6.2255859375,7.87353515625,-4.63623046875,33.0084228515625,-99.228515625
1758786286.4981172,-0.7060546875,-0.0390625,0.7744140625,83.92333984375,6.2255859375,7.87353515625,-3.80126953125,33.1072998046875,-99.20654296875
1758786286.5086849,-0.7119140625,0.0576171875,0.82666015625,75.68359375,6.40869140625,8.6669921875,-3.0047607421875,33.211669921875,-99.1680908203125
1758786286.518331,-0.7119140625,0.0576171875,0.82666015625,75.68359375,6.40869140625,8.6669921875,-2.2412109375,33.310546875,-99.11865234375
1758786286.5282962,-0.82275390625,0.0673828125,0.80029296875,57.06787109375,6.2255859375,8.6669921875,-1.5655517578125,33.4149169921875,-99.063720703125
1758786286.5381293,-0.82275390625,0.0673828125,0.80029296875,57.06787109375,6.2255859375,8.6669921875,-0.977783203125,33.519287109375,-99.0032958984375
1758786286.5482645,-0.8046875,0.025390625,0.7412109375,24.84130859375,5.18798828125,11.04736328125,-0.538330078125,33.6181640625,-98.9263916015625
1758786286.558141,-0.8046875,0.025390625,0.7412109375,24.84130859375,5.18798828125,11.04736328125,-0.2471923828125,33.717041015625,-98.8330078125
1758786286.5681648,-0.7060546875,0.04833984375,0.6220703125,7.32421875,1.0986328125,9.3994140625,-0.0439453125,33.7994384765625,-98.7396240234375
1758786286.5785313,-0.7060546875,0.04833984375,0.6220703125,7.32421875,1.0986328125,9.3994140625,0.0604248046875,33.8653564453125,-98.6627197265625
1758786286.5888286,-0.6435546875,0.1806640625,0.59619140625,13.18359375,-1.40380859375,4.21142578125,0.1922607421875,33.9202880859375,-98.6077880859375
1758786286.598329,-0.6435546875,0.1806640625,0.59619140625,13.18359375,-1.40380859375,4.21142578125,0.340576171875,33.9642333984375,-98.5748291015625
1758786286.60822,-0.63525390625,0.0595703125,0.70703125,0.91552734375,0.06103515625,6.34765625,0.4449462890625,34.013671875,-98.525390625
1758786286.6185615,-0.63525390625,0.0595703125,0.70703125,0.91552734375,0.06103515625,6.34765625,0.494384765625,34.068603515625,-98.4649658203125
1758786286.6287494,-0.59326171875,0.0,0.712890625,-13.61083984375,0.48828125,3.41796875,0.46142578125,34.1290283203125,-98.41552734375
1758786286.6382198,-0.59326171875,0.0,0.712890625,-13.61083984375,0.48828125,3.41796875,0.3515625,34.1839599609375,-98.3880615234375
1758786286.6482425,-0.5380859375,0.00439453125,0.85107421875,-20.6298828125,3.11279296875,2.5634765625,0.164794921875,34.2608642578125,-98.37158203125
1758786286.6587687,-0.5380859375,0.00439453125,0.85107421875,-20.6298828125,3.11279296875,2.5634765625,-0.0164794921875,34.332275390625,-98.3551025390625
1758786286.6690857,-0.52734375,0.015625,0.962890625,-29.72412109375,-0.18310546875,2.3193359375,-0.296630859375,34.365234375,-98.338623046875
1758786286.678244,-0.52734375,0.015625,0.962890625,-29.72412109375,-0.18310546875,2.3193359375,-0.5712890625,34.3927001953125,-98.32763671875
1758786286.6882842,-0.55029296875,0.02197265625,1.02294921875,-26.4892578125,0.42724609375,0.79345703125,-0.823974609375,34.4146728515625,-98.3331298828125
1758786286.6989365,-0.55029296875,0.02197265625,1.02294921875,-26.4892578125,0.42724609375,0.79345703125,-1.0711669921875,34.43115234375,-98.3331298828125
1758786286.7083716,-0.4345703125,-0.0517578125,0.91259765625,-19.287109375,-1.46484375,0.91552734375,-1.2469482421875,34.420166015625,-98.338623046875
1758786286.7184148,-0.4345703125,-0.0517578125,0.91259765625,-19.287109375,-1.46484375,0.91552734375,-1.42822265625,34.4091796875,-98.3441162109375
1758786286.7282789,-0.27783203125,-0.037109375,0.912109375,-27.40478515625,-0.54931640625,1.64794921875,-1.680908203125,34.398193359375,-98.338623046875
1758786286.7386396,-0.27783203125,-0.037109375,0.912109375,-27.40478515625,-0.54931640625,1.64794921875,-1.9390869140625,34.376220703125,-98.338623046875
1758786286.7482913,-0.1640625,0.0400390625,1.05322265625,-49.560546875,-1.953125,1.3427734375,-2.4114990234375,34.3267822265625,-98.338623046875
1758786286.7583115,-0.1640625,0.0400390625,1.05322265625,-49.560546875,-1.953125,1.3427734375,-2.8839111328125,34.266357421875,-98.338623046875
1758786286.7683425,-0.13916015625,0.0859375,1.12451171875,-70.6787109375,-1.8310546875,3.173828125,-3.5430908203125,34.1949462890625,-98.3056640625
1758786286.778771,-0.13916015625,0.0859375,1.12451171875,-70.6787109375,-1.8310546875,3.173828125,-4.19677734375,34.112548828125,-98.2672119140625
1758786286.7883675,-0.3095703125,0.01025390625,0.9130859375,-67.32177734375,-3.90625,3.2958984375,-4.81201171875,34.0081787109375,-98.2232666015625
1758786286.7983773,-0.3095703125,0.01025390625,0.9130859375,-67.32177734375,-3.90625,3.2958984375,-5.4217529296875,33.90380859375,-98.1683349609375
1758786286.808634,-0.45751953125,-0.04443359375,0.7646484375,-48.2177734375,-6.7138671875,4.69970703125,-5.82275390625,33.7774658203125,-98.096923828125
1758786286.8189127,-0.45751953125,-0.04443359375,0.7646484375,-48.2177734375,-6.7138671875,4.69970703125,-6.229248046875,33.651123046875,-98.02001953125
1758786286.8284202,-0.6201171875,-0.1328125,0.84765625,-34.60693359375,-8.60595703125,3.41796875,-6.5093994140625,33.519287109375,-97.9541015625
1758786286.838446,-0.6201171875,-0.1328125,0.84765625,-34.60693359375,-8.60595703125,3.41796875,-6.78955078125,33.3929443359375,-97.8936767578125
1758786286.8489697,-0.7060546875,-0.197265625,0.8974609375,-37.841796875,-10.07080078125,3.35693359375,-7.108154296875,33.255615234375,-97.8387451171875
1758786286.858528,-0.7060546875,-0.197265625,0.8974609375,-37.841796875,-10.07080078125,3.35693359375,-7.4322509765625,33.134765625,-97.7838134765625
1758786286.8684235,-0.59375,-0.1279296875,0.77294921875,-25.5126953125,-8.72802734375,3.35693359375,-7.635498046875,33.02490234375,-97.734375
1758786286.878433,-0.59375,-0.1279296875,0.77294921875,-25.5126953125,-8.72802734375,3.35693359375,-7.8387451171875,32.926025390625,-97.6849365234375
1758786286.889354,-0.568359375,-0.1435546875,0.6572265625,-7.99560546875,-6.89697265625,2.25830078125,-7.8826904296875,32.84912109375,-97.6519775390625
1758786286.8995306,-0.568359375,-0.1435546875,0.6572265625,-7.99560546875,-6.89697265625,2.25830078125,-7.9266357421875,32.7777099609375,-97.62451171875
1758786286.9085824,-0.70068359375,-0.16552734375,0.6806640625,3.41796875,-3.35693359375,2.74658203125,-7.8607177734375,32.7447509765625,-97.5970458984375
1758786286.918869,-0.70068359375,-0.16552734375,0.6806640625,3.41796875,-3.35693359375,2.74658203125,-7.80029296875,32.7227783203125,-97.5750732421875
1758786286.928698,-0.658203125,-0.1669921875,0.70166015625,15.56396484375,-0.79345703125,2.197265625,-7.62451171875,32.7337646484375,-97.5640869140625
1758786286.9385316,-0.658203125,-0.1669921875,0.70166015625,15.56396484375,-0.79345703125,2.197265625,-7.459716796875,32.7447509765625,-97.5531005859375
1758786286.94861,-0.58935546875,-0.14794921875,0.80224609375,25.93994140625,0.06103515625,2.0751953125,-7.1905517578125,32.7667236328125,-97.5531005859375
1758786286.9590242,-0.58935546875,-0.14794921875,0.80224609375,25.93994140625,0.06103515625,2.0751953125,-6.9268798828125,32.7886962890625,-97.547607421875
1758786286.9685428,-0.60107421875,-0.06298828125,0.81884765625,38.0859375,0.8544921875,3.0517578125,-6.5313720703125,32.8216552734375,-97.53662109375
1758786286.9785864,-0.60107421875,-0.06298828125,0.81884765625,38.0859375,0.8544921875,3.0517578125,-6.141357421875,32.84912109375,-97.5201416015625
1758786286.9890885,-0.552734375,-0.02392578125,0.84765625,34.0576171875,0.0,3.2958984375,-5.789794921875,32.87109375,-97.4981689453125
1758786286.9986217,-0.552734375,-0.02392578125,0.84765625,34.0576171875,0.0,3.2958984375,-5.4327392578125,32.8875732421875,-97.4761962890625
1758786287.009181,-0.54736328125,0.05224609375,0.8916015625,3.662109375,-0.6103515625,5.9814453125,-5.361328125,32.904052734375,-97.415771484375
1758786287.0186305,-0.54736328125,0.05224609375,0.8916015625,3.662109375,-0.6103515625,5.9814453125,-5.2789306640625,32.9150390625,-97.3553466796875
1758786287.0286512,-0.482421875,0.08349609375,0.84521484375,-29.78515625,-0.54931640625,6.7138671875,-5.526123046875,32.9205322265625,-97.27294921875
1758786287.0385983,-0.482421875,0.08349609375,0.84521484375,-29.78515625,-0.54931640625,6.7138671875,-5.7623291015625,32.9315185546875,-97.1905517578125
1758786287.048558,-0.49755859375,0.0419921875,0.79931640625,-49.8046875,-0.18310546875,8.7890625,-6.1798095703125,32.9425048828125,-97.0751953125
1758786287.0586452,-0.49755859375,0.0419921875,0.79931640625,-49.8046875,-0.18310546875,8.7890625,-6.591796875,32.9534912109375,-96.954345703125
1758786287.0690565,-0.50537109375,-0.05810546875,0.869140625,-61.09619140625,-0.732421875,9.58251953125,-7.108154296875,32.958984375,-96.8280029296875
1758786287.0786774,-0.50537109375,-0.05810546875,0.869140625,-61.09619140625,-0.732421875,9.58251953125,-7.62451171875,32.9644775390625,-96.6961669921875
1758786287.0886514,-0.517578125,-0.1337890625,0.92041015625,-64.63623046875,-1.46484375,10.009765625,-8.173828125,32.9644775390625,-96.5643310546875
1758786287.0989544,-0.517578125,-0.1337890625,0.92041015625,-64.63623046875,-1.46484375,10.009765625,-8.72314453125,32.958984375,-96.4324951171875
1758786287.1086683,-0.47705078125,-0.12890625,0.83837890625,-59.26513671875,-1.953125,10.68115234375,-9.2120361328125,32.9534912109375,-96.2896728515625
1758786287.1187465,-0.47705078125,-0.12890625,0.83837890625,-59.26513671875,-1.953125,10.68115234375,-9.700927734375,32.9425048828125,-96.15234375
1758786287.1293309,-0.49560546875,-0.1416015625,0.830078125,-43.212890625,-1.8310546875,11.3525390625,-10.0250244140625,32.93701171875,-96.0040283203125
1758786287.1388927,-0.49560546875,-0.1416015625,0.830078125,-43.212890625,-1.8310546875,11.3525390625,-10.3546142578125,32.9315185546875,-95.8612060546875
1758786287.1486695,-0.5576171875,-0.228515625,0.890625,-25.45166015625,-2.86865234375,11.29150390625,-10.5029296875,32.9150390625,-95.712890625
1758786287.1587632,-0.5576171875,-0.228515625,0.890625,-25.45166015625,-2.86865234375,11.29150390625,-10.6622314453125,32.8985595703125,-95.5755615234375
1758786287.1694703,-0.45556640625,-0.25048828125,0.89013671875,-17.9443359375,-3.41796875,11.41357421875,-10.74462890625,32.8765869140625,-95.438232421875
1758786287.1787117,-0.45556640625,-0.25048828125,0.89013671875,-17.9443359375,-3.41796875,11.41357421875,-10.8380126953125,32.84912109375,-95.306396484375
1758786287.188712,-0.478515625,-0.1533203125,0.78662109375,-15.68603515625,-3.41796875,12.02392578125,-10.8984375,32.8271484375,-95.1690673828125
1758786287.199276,-0.478515625,-0.1533203125,0.78662109375,-15.68603515625,-3.41796875,12.02392578125,-10.96435546875,32.7996826171875,-95.0372314453125
1758786287.208714,-0.52392578125,-0.1630859375,0.7451171875,-10.498046875,-2.197265625,11.1083984375,-10.986328125,32.7886962890625,-94.910888671875
1758786287.2187433,-0.52392578125,-0.1630859375,0.7451171875,-10.498046875,-2.197265625,11.1083984375,-11.0137939453125,32.7777099609375,-94.7900390625
1758786287.2287288,-0.52978515625,-0.14794921875,0.7451171875,-8.7890625,-2.25830078125,12.3291015625,-11.0137939453125,32.772216796875,-94.6527099609375
1758786287.2392666,-0.52978515625,-0.14794921875,0.7451171875,-8.7890625,-2.25830078125,12.3291015625,-11.0137939453125,32.7667236328125,-94.5208740234375
1758786287.2488136,-0.505859375,-0.166015625,0.7998046875,-0.6103515625,-0.91552734375,11.77978515625,-10.9368896484375,32.7777099609375,-94.39453125
1758786287.2588198,-0.505859375,-0.166015625,0.7998046875,-0.6103515625,-0.91552734375,11.77978515625,-10.865478515625,32.783203125,-94.273681640625
1758786287.2687876,-0.54638671875,-0.16748046875,0.85400390625,5.37109375,-1.220703125,12.51220703125,-10.7281494140625,32.7886962890625,-94.141845703125
1758786287.2798352,-0.54638671875,-0.16748046875,0.85400390625,5.37109375,-1.220703125,12.51220703125,-10.5963134765625,32.794189453125,-94.010009765625
1758786287.288846,-0.60791015625,-0.0556640625,0.77197265625,20.751953125,-1.46484375,13.3056640625,-10.2996826171875,32.80517578125,-93.8671875
1758786287.2988584,-0.60791015625,-0.0556640625,0.77197265625,20.751953125,-1.46484375,13.3056640625,-10.0030517578125,32.8106689453125,-93.724365234375
1758786287.3090382,-0.7705078125,-0.0234375,0.84326171875,26.3671875,-2.0751953125,13.85498046875,-9.6405029296875,32.8216552734375,-93.5650634765625
1758786287.319432,-0.7705078125,-0.0234375,0.84326171875,26.3671875,-2.0751953125,13.85498046875,-9.2779541015625,32.838134765625,-93.40576171875
1758786287.3288436,-0.79931640625,-0.10986328125,0.95703125,-9.521484375,-3.60107421875,13.97705078125,-9.2724609375,32.838134765625,-93.2354736328125
1758786287.3391578,-0.79931640625,-0.10986328125,0.95703125,-9.521484375,-3.60107421875,13.97705078125,-9.2669677734375,32.8436279296875,-93.0706787109375
1758786287.3488612,-0.52392578125,-0.13818359375,0.97509765625,-39.61181640625,-3.47900390625,15.68603515625,-9.547119140625,32.8546142578125,-92.8839111328125
1758786287.3589396,-0.52392578125,-0.13818359375,0.97509765625,-39.61181640625,-3.47900390625,15.68603515625,-9.8272705078125,32.8546142578125,-92.6971435546875
1758786287.368928,-0.55810546875,-0.2265625,0.8134765625,-28.25927734375,-2.62451171875,16.11328125,-9.9920654296875,32.8656005859375,-92.515869140625
1758786287.3797185,-0.55810546875,-0.2265625,0.8134765625,-28.25927734375,-2.62451171875,16.11328125,-10.162353515625,32.882080078125,-92.3345947265625
1758786287.388881,-0.564453125,-0.20263671875,0.80224609375,-0.3662109375,-0.9765625,14.95361328125,-10.0689697265625,32.904052734375,-92.17529296875
1758786287.3992343,-0.564453125,-0.20263671875,0.80224609375,-0.3662109375,-0.9765625,14.95361328125,-9.9755859375,32.9315185546875,-92.0159912109375
1758786287.40913,-0.40625,-0.142578125,0.82568359375,4.33349609375,-1.15966796875,17.08984375,-9.82177734375,32.9534912109375,-91.834716796875
1758786287.419853,-0.40625,-0.142578125,0.82568359375,4.33349609375,-1.15966796875,17.08984375,-9.66796875,32.969970703125,-91.6534423828125
1758786287.4289854,-0.3115234375,-0.08740234375,0.82861328125,-23.37646484375,-2.25830078125,18.85986328125,-9.77783203125,32.9754638671875,-91.4501953125
1758786287.439021,-0.3115234375,-0.08740234375,0.82861328125,-23.37646484375,-2.25830078125,18.85986328125,-9.8876953125,32.9754638671875,-91.241455078125
1758786287.4490085,-0.330078125,-0.01318359375,0.77490234375,-42.41943359375,-2.9296875,20.93505859375,-10.162353515625,32.969970703125,-91.0052490234375
1758786287.459645,-0.330078125,-0.01318359375,0.77490234375,-42.41943359375,-2.9296875,20.93505859375,-10.43701171875,32.958984375,-90.7635498046875
1758786287.4689748,-0.47412109375,0.046875,0.71728515625,-38.0859375,-5.0048828125,22.27783203125,-10.6512451171875,32.9315185546875,-90.4888916015625
1758786287.4790444,-0.47412109375,0.046875,0.71728515625,-38.0859375,-5.0048828125,22.27783203125,-10.8544921875,32.9095458984375,-90.208740234375
1758786287.4901507,-0.68701171875,-0.1201171875,0.83544921875,-34.1796875,-8.1787109375,21.05712890625,-11.0247802734375,32.8546142578125,-89.9395751953125
1758786287.499875,-0.68701171875,-0.1201171875,0.83544921875,-34.1796875,-8.1787109375,21.05712890625,-11.1895751953125,32.8106689453125,-89.6649169921875
1758786287.5089946,-0.697265625,-0.3359375,0.91796875,-49.98779296875,-12.5732421875,18.61572265625,-11.53564453125,32.7227783203125,-89.4232177734375
1758786287.5190609,-0.697265625,-0.3359375,0.91796875,-49.98779296875,-12.5732421875,18.61572265625,-11.8817138671875,32.640380859375,-89.1815185546875
1758786287.5294468,-0.54345703125,-0.224609375,0.7978515625,-63.04931640625,-14.5263671875,17.333984375,-12.37060546875,32.5360107421875,-88.9617919921875
1758786287.5391104,-0.54345703125,-0.224609375,0.7978515625,-63.04931640625,-14.5263671875,17.333984375,-12.8594970703125,32.4371337890625,-88.736572265625
1758786287.5491443,-0.5751953125,-0.142578125,0.63330078125,-46.142578125,-12.20703125,14.7705078125,-13.194580078125,32.3602294921875,-88.5498046875
1758786287.5595849,-0.5751953125,-0.142578125,0.63330078125,-46.142578125,-12.20703125,14.7705078125,-13.53515625,32.288818359375,-88.3575439453125
1758786287.5691671,-0.6650390625,-0.103515625,0.6884765625,-33.447265625,-5.31005859375,13.00048828125,-13.7603759765625,32.2833251953125,-88.2037353515625
1758786287.579683,-0.6650390625,-0.103515625,0.6884765625,-33.447265625,-5.31005859375,13.00048828125,-13.985595703125,32.2833251953125,-88.0499267578125
1758786287.589201,-0.703125,-0.0751953125,0.7353515625,-26.91650390625,-4.5166015625,12.87841796875,-14.1448974609375,32.2998046875,-87.890625
1758786287.5996742,-0.703125,-0.0751953125,0.7353515625,-26.91650390625,-4.5166015625,12.87841796875,-14.30419921875,32.3162841796875,-87.7313232421875
1758786287.6091423,-0.65869140625,-0.126953125,0.72705078125,-37.7197265625,-3.11279296875,15.625,-14.5513916015625,32.3602294921875,-87.5390625
1758786287.6191714,-0.65869140625,-0.126953125,0.72705078125,-37.7197265625,-3.11279296875,15.625,-14.798583984375,32.4041748046875,-87.352294921875
1758786287.6296387,-0.7783203125,-0.154296875,0.78369140625,-42.8466796875,-2.5634765625,14.83154296875,-15.1007080078125,32.4591064453125,-87.1710205078125
1758786287.639179,-0.7783203125,-0.154296875,0.78369140625,-42.8466796875,-2.5634765625,14.83154296875,-15.4083251953125,32.5140380859375,-86.98974609375
1758786287.649164,-0.85400390625,-0.271484375,0.8662109375,-46.44775390625,-3.72314453125,12.75634765625,-15.75439453125,32.5579833984375,-86.8304443359375
1758786287.659662,-0.85400390625,-0.271484375,0.8662109375,-46.44775390625,-3.72314453125,12.75634765625,-16.1114501953125,32.6019287109375,-86.671142578125
1758786287.669255,-0.7431640625,-0.326171875,0.8466796875,-53.64990234375,-3.35693359375,10.43701171875,-16.5509033203125,32.6458740234375,-86.55029296875
1758786287.6793325,-0.7431640625,-0.326171875,0.8466796875,-53.64990234375,-3.35693359375,10.43701171875,-16.995849609375,32.6898193359375,-86.429443359375
1758786287.689399,-0.6220703125,-0.3154296875,0.796875,-51.94091796875,-4.21142578125,9.765625,-17.4298095703125,32.7227783203125,-86.3140869140625
1758786287.6997123,-0.6220703125,-0.3154296875,0.796875,-51.94091796875,-4.21142578125,9.765625,-17.86376953125,32.7557373046875,-86.2042236328125
1758786287.709287,-0.51318359375,-0.2919921875,0.7099609375,-31.73828125,-2.74658203125,9.33837890625,-18.0999755859375,32.794189453125,-86.099853515625
1758786287.7194014,-0.41796875,-0.30078125,0.7001953125,-16.17431640625,-2.13623046875,10.6201171875,-18.2647705078125,32.838134765625,-85.9954833984375
1758786287.7299085,-0.41796875,-0.30078125,0.7001953125,-16.17431640625,-2.13623046875,10.6201171875,-18.34716796875,32.8765869140625,-85.89111328125
1758786287.7394452,-0.4033203125,-0.337890625,0.77490234375,-13.916015625,-2.13623046875,13.24462890625,-18.4130859375,32.9205322265625,-85.770263671875
1758786287.7493603,-0.4033203125,-0.337890625,0.77490234375,-13.916015625,-2.13623046875,13.24462890625,-18.4625244140625,32.958984375,-85.638427734375
1758786287.7598295,-0.44873046875,-0.26513671875,0.89501953125,-8.4228515625,-3.47900390625,13.0615234375,-18.4844970703125,32.9864501953125,-85.5010986328125
1758786287.7693648,-0.44873046875,-0.26513671875,0.89501953125,-8.4228515625,-3.47900390625,13.0615234375,-18.47900390625,33.0029296875,-85.36376953125
1758786287.7795353,-0.451171875,-0.2216796875,0.921875,-4.5166015625,-5.31005859375,12.5732421875,-18.4515380859375,33.0029296875,-85.2264404296875
1758786287.7908683,-0.451171875,-0.2216796875,0.921875,-4.5166015625,-5.31005859375,12.5732421875,-18.4075927734375,32.9864501953125,-85.0836181640625
1758786287.799493,-0.41650390625,-0.19775390625,0.76171875,-18.06640625,-6.16455078125,13.7939453125,-18.4185791015625,32.969970703125,-84.92431640625
1758786287.8094146,-0.41650390625,-0.19775390625,0.76171875,-18.06640625,-6.16455078125,13.7939453125,-18.489990234375,32.9425048828125,-84.759521484375
1758786287.819499,-0.404296875,-0.2080078125,0.86083984375,-1.89208984375,-9.09423828125,12.0849609375,-18.4844970703125,32.904052734375,-84.5947265625
1758786287.8300562,-0.404296875,-0.2080078125,0.86083984375,-1.89208984375,-9.09423828125,12.0849609375,-18.3966064453125,32.838134765625,-84.4354248046875
1758786287.8396802,-0.3828125,-0.298828125,0.73974609375,11.23046875,-6.77490234375,14.46533203125,-18.2427978515625,32.7886962890625,-84.26513671875
1758786287.8495429,-0.3828125,-0.298828125,0.73974609375,11.23046875,-6.77490234375,14.46533203125,-18.017578125,32.750244140625,-84.08935546875
1758786287.8596702,-0.4287109375,-0.279296875,0.7783203125,4.150390625,-7.2021484375,13.36669921875,-17.841796875,32.706298828125,-83.924560546875
1758786287.8695185,-0.4287109375,-0.279296875,0.7783203125,4.150390625,-7.2021484375,13.36669921875,-17.7044677734375,32.6568603515625,-83.7652587890625
1758786287.8795319,-0.5244140625,-0.30810546875,0.8212890625,10.43701171875,-6.103515625,12.02392578125,-17.5396728515625,32.607421875,-83.6224365234375
1758786287.8900971,-0.5244140625,-0.30810546875,0.8212890625,10.43701171875,-6.103515625,12.02392578125,-17.3529052734375,32.5634765625,-83.4906005859375
1758786287.8997593,-0.49560546875,-0.259765625,0.814453125,16.7236328125,-4.69970703125,11.71875,-17.1441650390625,32.530517578125,-83.3642578125
1758786287.9094288,-0.49560546875,-0.259765625,0.814453125,16.7236328125,-4.69970703125,11.71875,-16.9024658203125,32.5030517578125,-83.243408203125
1758786287.9195478,-0.5751953125,-0.21240234375,0.76708984375,24.96337890625,-5.0048828125,9.33837890625,-16.63330078125,32.4700927734375,-83.1390380859375
1758786287.9298174,-0.5751953125,-0.21240234375,0.76708984375,24.96337890625,-5.0048828125,9.33837890625,-16.32568359375,32.431640625,-83.045654296875
1758786287.9396148,-0.5830078125,-0.15625,0.9716796875,31.31103515625,-5.18798828125,10.80322265625,-15.9796142578125,32.4041748046875,-82.9412841796875
1758786287.9495223,-0.5830078125,-0.15625,0.9716796875,31.31103515625,-5.18798828125,10.80322265625,-15.6005859375,32.3712158203125,-82.825927734375
1758786287.959849,-0.5283203125,-0.0712890625,0.92529296875,28.50341796875,-6.40869140625,11.5966796875,-15.2215576171875,32.3382568359375,-82.6995849609375
1758786287.9697826,-0.5283203125,-0.0712890625,0.92529296875,28.50341796875,-6.40869140625,11.5966796875,-14.853515625,32.2943115234375,-82.562255859375
1758786287.9796188,-0.41845703125,-0.14697265625,0.880859375,10.25390625,-7.32421875,11.04736328125,-14.5733642578125,32.244873046875,-82.41943359375
1758786287.9895341,-0.41845703125,-0.14697265625,0.880859375,10.25390625,-7.32421875,11.04736328125,-14.381103515625,32.18994140625,-82.2821044921875
1758786287.9997005,-0.38037109375,-0.25634765625,0.77294921875,-3.47900390625,-5.67626953125,12.14599609375,-14.26025390625,32.1405029296875,-82.1392822265625
1758786288.0100644,-0.38037109375,-0.25634765625,0.77294921875,-3.47900390625,-5.67626953125,12.14599609375,-14.205322265625,32.0965576171875,-81.9964599609375
1758786288.0196898,-0.3994140625,-0.34130859375,0.7451171875,-4.8828125,-5.7373046875,11.962890625,-14.1668701171875,32.047119140625,-81.8646240234375
1758786288.0295975,-0.3994140625,-0.34130859375,0.7451171875,-4.8828125,-5.7373046875,11.962890625,-14.139404296875,32.003173828125,-81.73828125
1758786288.0401857,-0.38916015625,-0.361328125,0.8671875,-12.26806640625,-4.638671875,11.41357421875,-14.161376953125,31.959228515625,-81.62841796875
1758786288.049559,-0.38916015625,-0.361328125,0.8671875,-12.26806640625,-4.638671875,11.41357421875,-14.2218017578125,31.915283203125,-81.5240478515625
1758786288.0596652,-0.4443359375,-0.41455078125,0.96044921875,2.86865234375,-3.90625,11.53564453125,-14.21630859375,31.8768310546875,-81.4306640625
1758786288.0695987,-0.4443359375,-0.41455078125,0.96044921875,2.86865234375,-3.90625,11.53564453125,-14.139404296875,31.83837890625,-81.3427734375
1758786288.0800679,-0.45068359375,-0.4150390625,0.99462890625,48.15673828125,-4.69970703125,10.31494140625,-13.8427734375,31.79443359375,-81.2713623046875
1758786288.0897284,-0.45068359375,-0.4150390625,0.99462890625,48.15673828125,-4.69970703125,10.31494140625,-13.3319091796875,31.739501953125,-81.2054443359375
1758786288.099706,-0.4404296875,-0.3017578125,0.9912109375,80.078125,-3.96728515625,9.3994140625,-12.667236328125,31.6845703125,-81.156005859375
1758786288.1096628,-0.4404296875,-0.3017578125,0.9912109375,80.078125,-3.96728515625,9.3994140625,-11.854248046875,31.6351318359375,-81.112060546875
1758786288.1202574,-0.375,-0.22021484375,0.78369140625,77.0263671875,-2.197265625,7.87353515625,-11.063232421875,31.585693359375,-81.0845947265625
1758786288.1296775,-0.375,-0.22021484375,0.78369140625,77.0263671875,-2.197265625,7.87353515625,-10.294189453125,31.541748046875,-81.068115234375
1758786288.1399841,-0.37255859375,-0.1083984375,0.5986328125,55.96923828125,2.62451171875,8.1787109375,-9.6405029296875,31.5252685546875,-81.05712890625
1758786288.1501553,-0.37255859375,-0.1083984375,0.5986328125,55.96923828125,2.62451171875,8.1787109375,-9.0911865234375,31.5362548828125,-81.046142578125
1758786288.159806,-0.4453125,-0.05810546875,0.6533203125,39.9169921875,5.859375,7.38525390625,-8.624267578125,31.563720703125,-81.046142578125
1758786288.1696937,-0.4453125,-0.05810546875,0.6533203125,39.9169921875,5.859375,7.38525390625,-8.2342529296875,31.607666015625,-81.046142578125
1758786288.179841,-0.703125,-0.048828125,1.05322265625,21.54541015625,7.62939453125,7.01904296875,-7.9376220703125,31.66259765625,-81.0406494140625
1758786288.1906753,-0.703125,-0.048828125,1.05322265625,21.54541015625,7.62939453125,7.01904296875,-7.723388671875,31.7340087890625,-81.03515625
1758786288.199824,-0.8447265625,-0.015625,1.392578125,-11.474609375,2.13623046875,5.79833984375,-7.6629638671875,31.7724609375,-81.0186767578125
1758786288.2097526,-0.8447265625,-0.015625,1.392578125,-11.474609375,2.13623046875,5.79833984375,-7.7618408203125,31.7889404296875,-80.9967041015625
1758786288.2203214,-0.7880859375,0.01953125,1.25048828125,-28.38134765625,-1.40380859375,7.14111328125,-7.93212890625,31.7889404296875,-80.9527587890625
1758786288.229734,-0.7880859375,0.01953125,1.25048828125,-28.38134765625,-1.40380859375,7.14111328125,-8.1683349609375,31.7779541015625,-80.892333984375
1758786288.2399461,-0.65869140625,0.021484375,0.796875,-26.4892578125,-3.662109375,9.27734375,-8.382568359375,31.7559814453125,-80.804443359375
1758786288.2500951,-0.65869140625,0.021484375,0.796875,-26.4892578125,-3.662109375,9.27734375,-8.5748291015625,31.728515625,-80.70556640625
1758786288.2600064,-0.57861328125,-0.0439453125,0.46142578125,-8.85009765625,-0.42724609375,9.58251953125,-8.6737060546875,31.728515625,-80.6011962890625
1758786288.269825,-0.57861328125,-0.0439453125,0.46142578125,-8.85009765625,-0.42724609375,9.58251953125,-8.6846923828125,31.75048828125,-80.496826171875
1758786288.279974,-0.48095703125,-0.13720703125,0.373046875,-7.4462890625,4.82177734375,10.80322265625,-8.690185546875,31.7999267578125,-80.39794921875
1758786288.2905617,-0.48095703125,-0.13720703125,0.373046875,-7.4462890625,4.82177734375,10.80322265625,-8.6846923828125,31.8878173828125,-80.2935791015625
1758786288.3000362,-0.45263671875,-0.17333984375,0.50439453125,-17.15087890625,11.04736328125,9.521484375,-8.7451171875,32.0086669921875,-80.211181640625
1758786288.309881,-0.45263671875,-0.17333984375,0.50439453125,-17.15087890625,11.04736328125,9.521484375,-8.8604736328125,32.1624755859375,-80.1507568359375
1758786288.3202121,-0.4814453125,-0.181640625,0.59912109375,-30.029296875,14.404296875,7.4462890625,-9.0582275390625,32.3272705078125,-80.101318359375
1758786288.3298626,-0.4814453125,-0.181640625,0.59912109375,-30.029296875,14.404296875,7.4462890625,-9.3218994140625,32.508544921875,-80.079345703125
1758786288.3401248,-0.578125,-0.17138671875,0.8515625,-28.62548828125,13.73291015625,4.7607421875,-9.5965576171875,32.684326171875,-80.068359375
1758786288.3498833,-0.578125,-0.17138671875,0.8515625,-28.62548828125,13.73291015625,4.7607421875,-9.86572265625,32.84912109375,-80.0738525390625
1758786288.3605983,-0.6943359375,-0.21435546875,1.04345703125,-20.69091796875,10.25390625,4.0283203125,-10.096435546875,32.9974365234375,-80.0848388671875
1758786288.3698645,-0.6943359375,-0.21435546875,1.04345703125,-20.69091796875,10.25390625,4.0283203125,-10.294189453125,33.123779296875,-80.09033203125
1758786288.3800054,-0.6396484375,-0.19921875,1.154296875,-1.8310546875,4.45556640625,2.685546875,-10.39306640625,33.211669921875,-80.101318359375
1758786288.3904624,-0.6396484375,-0.19921875,1.154296875,-1.8310546875,4.45556640625,2.685546875,-10.3985595703125,33.2666015625,-80.1123046875
1758786288.400144,-0.64599609375,-0.22216796875,0.81884765625,21.97265625,3.41796875,2.74658203125,-10.2886962890625,33.3160400390625,-80.1177978515625
1758786288.4099426,-0.64599609375,-0.22216796875,0.81884765625,21.97265625,3.41796875,2.74658203125,-10.0579833984375,33.3599853515625,-80.1287841796875
1758786288.4203775,-0.6435546875,-0.19384765625,0.65966796875,30.6396484375,0.9765625,1.220703125,-9.7943115234375,33.3984375,-80.145263671875
1758786288.4299521,-0.6435546875,-0.19384765625,0.65966796875,30.6396484375,0.9765625,1.220703125,-9.4921875,33.42041015625,-80.1727294921875
1758786288.4401305,-0.69482421875,-0.11962890625,0.74365234375,17.15087890625,1.40380859375,1.5869140625,-9.261474609375,33.453369140625,-80.2001953125
1758786288.4504619,-0.69482421875,-0.11962890625,0.74365234375,17.15087890625,1.40380859375,1.5869140625,-9.0911865234375,33.4918212890625,-80.2276611328125
1758786288.4600823,-0.7001953125,0.00048828125,0.86279296875,-19.6533203125,-2.01416015625,2.01416015625,-9.1021728515625,33.5137939453125,-80.244140625
1758786288.4700234,-0.7001953125,0.00048828125,0.86279296875,-19.6533203125,-2.01416015625,2.01416015625,-9.2889404296875,33.519287109375,-80.244140625
1758786288.480099,-0.60546875,0.0537109375,0.91748046875,-50.72021484375,-3.90625,3.662109375,-9.613037109375,33.519287109375,-80.2276611328125
1758786288.490444,-0.60546875,0.0537109375,0.91748046875,-50.72021484375,-3.90625,3.662109375,-10.0799560546875,33.50830078125,-80.189208984375
1758786288.5001307,-0.48193359375,-0.01611328125,0.58740234375,-55.84716796875,-4.21142578125,5.859375,-10.5523681640625,33.5028076171875,-80.1287841796875
1758786288.5100229,-0.48193359375,-0.01611328125,0.58740234375,-55.84716796875,-4.21142578125,5.859375,-11.041259765625,33.4918212890625,-80.0518798828125
1758786288.5201519,-0.43994140625,-0.12255859375,0.48193359375,-56.5185546875,-1.953125,7.26318359375,-11.524658203125,33.497314453125,-79.969482421875
1758786288.530647,-0.43994140625,-0.12255859375,0.48193359375,-56.5185546875,-1.953125,7.26318359375,-12.0135498046875,33.519287109375,-79.8760986328125
1758786288.5402143,-0.50537109375,-0.20849609375,0.59619140625,-63.65966796875,0.67138671875,6.65283203125,-12.535400390625,33.55224609375,-79.7991943359375
1758786288.5501068,-0.50537109375,-0.20849609375,0.59619140625,-63.65966796875,0.67138671875,6.65283203125,-13.106689453125,33.6016845703125,-79.727783203125
1758786288.5602622,-0.52294921875,-0.25244140625,0.787109375,-59.5703125,1.953125,6.103515625,-13.656005859375,33.6566162109375,-79.661865234375
1758786288.5701387,-0.52294921875,-0.25244140625,0.787109375,-59.5703125,1.953125,6.103515625,-14.1943359375,33.7115478515625,-79.6124267578125
1758786288.580248,-0.57080078125,-0.2626953125,0.8681640625,-25.45166015625,2.3193359375,4.150390625,-14.56787109375,33.7664794921875,-79.5684814453125
1758786288.5901766,-0.57080078125,-0.2626953125,0.8681640625,-25.45166015625,2.3193359375,4.150390625,-14.7821044921875,33.8104248046875,-79.541015625
1758786288.600662,-0.58203125,-0.3056640625,0.99658203125,6.4697265625,0.6103515625,3.72314453125,-14.8370361328125,33.848876953125,-79.51904296875
1758786288.610147,-0.58203125,-0.3056640625,0.99658203125,6.4697265625,0.6103515625,3.72314453125,-14.7381591796875,33.870849609375,-79.4970703125
1758786288.6202831,-0.56103515625,-0.283203125,0.96923828125,14.34326171875,-0.67138671875,3.2958984375,-14.6063232421875,33.8818359375,-79.47509765625
1758786288.6306386,-0.56103515625,-0.283203125,0.96923828125,14.34326171875,-0.67138671875,3.2958984375,-14.43603515625,33.8818359375,-79.453125
1758786288.6403604,-0.49072265625,-0.21044921875,0.80712890625,3.0517578125,-1.28173828125,3.41796875,-14.3206787109375,33.8763427734375,-79.4366455078125
1758786288.6502497,-0.49072265625,-0.21044921875,0.80712890625,3.0517578125,-1.28173828125,3.41796875,-14.2657470703125,33.870849609375,-79.4146728515625
1758786288.6604087,-0.47802734375,-0.162109375,0.6865234375,-9.27734375,-0.9765625,4.0283203125,-14.271240234375,33.85986328125,-79.3927001953125
1758786288.6709032,-0.47802734375,-0.162109375,0.6865234375,-9.27734375,-0.9765625,4.0283203125,-14.3316650390625,33.8543701171875,-79.365234375
1758786288.680356,-0.50732421875,-0.1611328125,0.59521484375,-10.498046875,1.03759765625,4.21142578125,-14.403076171875,33.8653564453125,-79.3377685546875
1758786288.690818,-0.50732421875,-0.1611328125,0.59521484375,-10.498046875,1.03759765625,4.21142578125,-14.47998046875,33.8818359375,-79.310302734375
1758786288.7007387,-0.544921875,-0.248046875,0.74853515625,-7.4462890625,0.9765625,3.7841796875,-14.5458984375,33.90380859375,-79.288330078125
1758786288.710378,-0.544921875,-0.248046875,0.74853515625,-7.4462890625,0.9765625,3.7841796875,-14.5953369140625,33.92578125,-79.2718505859375
1758786288.7203596,-0.62353515625,-0.2490234375,0.8955078125,1.15966796875,0.42724609375,4.2724609375,-14.6063232421875,33.9422607421875,-79.2498779296875
1758786288.7307074,-0.62353515625,-0.2490234375,0.8955078125,1.15966796875,0.42724609375,4.2724609375,-14.56787109375,33.958740234375,-79.2279052734375
1758786288.7407193,-0.6328125,-0.228515625,0.89453125,3.90625,0.54931640625,4.8828125,-14.5184326171875,33.9752197265625,-79.2059326171875
1758786288.7503493,-0.6328125,-0.228515625,0.89453125,3.90625,0.54931640625,4.8828125,-14.447021484375,33.99169921875,-79.1729736328125
1758786288.7604158,-0.58056640625,-0.22509765625,0.7705078125,0.9765625,-0.732421875,4.33349609375,-14.3975830078125,34.0081787109375,-79.1455078125
1758786288.771094,-0.58056640625,-0.22509765625,0.7705078125,0.9765625,-0.732421875,4.33349609375,-14.3646240234375,34.013671875,-79.1180419921875
1758786288.780435,-0.58642578125,-0.21484375,0.76416015625,-4.2724609375,-0.67138671875,5.126953125,-14.3536376953125,34.0191650390625,-79.090576171875
1758786288.7904778,-0.58642578125,-0.21484375,0.76416015625,-4.2724609375,-0.67138671875,5.126953125,-14.3646240234375,34.0301513671875,-79.0576171875
1758786288.8004963,-0.53369140625,-0.18310546875,0.85693359375,-21.728515625,-1.220703125,5.37109375,-14.5458984375,34.03564453125,-79.013671875
1758786288.8119543,-0.53369140625,-0.18310546875,0.85693359375,-21.728515625,-1.220703125,5.37109375,-14.7271728515625,34.0411376953125,-78.9697265625
1758786288.8204684,-0.4794921875,-0.1708984375,0.7919921875,-26.55029296875,-1.220703125,5.79833984375,-14.952392578125,34.0411376953125,-78.9202880859375
1758786288.8309197,-0.4794921875,-0.1708984375,0.7919921875,-26.55029296875,-1.220703125,5.79833984375,-15.172119140625,34.0411376953125,-78.8653564453125
1758786288.8405774,-0.4560546875,-0.19873046875,0.68212890625,-14.83154296875,-1.40380859375,6.53076171875,-15.2655029296875,34.0411376953125,-78.804931640625
1758786288.850682,-0.4560546875,-0.19873046875,0.68212890625,-14.83154296875,-1.40380859375,6.53076171875,-15.3643798828125,34.0411376953125,-78.7445068359375
1758786288.8608859,-0.4794921875,-0.23388671875,0.67138671875,-1.52587890625,-0.18310546875,6.40869140625,-15.3369140625,34.0521240234375,-78.6895751953125
1758786288.8704443,-0.4794921875,-0.23388671875,0.67138671875,-1.52587890625,-0.18310546875,6.40869140625,-15.3094482421875,34.0631103515625,-78.6346435546875
1758786288.8805532,-0.4951171875,-0.2060546875,0.71875,7.62939453125,0.67138671875,6.8359375,-15.1885986328125,34.0850830078125,-78.585205078125
1758786288.8911479,-0.4951171875,-0.2060546875,0.71875,7.62939453125,0.67138671875,6.8359375,-15.0732421875,34.1070556640625,-78.5302734375
1758786288.9008782,-0.580078125,-0.17333984375,0.81005859375,0.8544921875,-0.06103515625,6.591796875,-15.0238037109375,34.1180419921875,-78.475341796875
1758786288.9105911,-0.580078125,-0.17333984375,0.81005859375,0.8544921875,-0.06103515625,6.591796875,-14.9688720703125,34.134521484375,-78.4149169921875
1758786288.9205577,-0.58349609375,-0.18603515625,0.99658203125,-21.240234375,-2.13623046875,7.080078125,-15.128173828125,34.1290283203125,-78.343505859375
1758786288.9310555,-0.58349609375,-0.18603515625,0.99658203125,-21.240234375,-2.13623046875,7.080078125,-15.281982421875,34.1180419921875,-78.2666015625
1758786288.9405162,-0.66455078125,-0.14892578125,1.08447265625,-42.78564453125,-7.080078125,8.36181640625,-15.6280517578125,34.0631103515625,-78.15673828125
1758786288.9506056,-0.66455078125,-0.14892578125,1.08447265625,-42.78564453125,-7.080078125,8.36181640625,-15.9686279296875,34.013671875,-78.035888671875
1758786288.9609735,-0.6533203125,-0.0810546875,0.9677734375,-55.35888671875,-11.53564453125,9.1552734375,-16.41357421875,33.9202880859375,-77.8875732421875
1758786288.9705856,-0.6533203125,-0.0810546875,0.9677734375,-55.35888671875,-11.53564453125,9.1552734375,-16.85302734375,33.826904296875,-77.728271484375
1758786288.9805803,-0.57861328125,-0.19189453125,0.7841796875,-39.1845703125,-12.75634765625,9.8876953125,-17.1221923828125,33.7335205078125,-77.5579833984375
1758786288.990647,-0.57861328125,-0.19189453125,0.7841796875,-39.1845703125,-12.75634765625,9.8876953125,-17.3858642578125,33.64013671875,-77.3822021484375
1758786289.001147,-0.5859375,-0.28564453125,0.70361328125,-17.39501953125,-13.97705078125,9.765625,-17.4407958984375,33.5357666015625,-77.2119140625
1758786289.0106146,-0.5859375,-0.28564453125,0.70361328125,-17.39501953125,-13.97705078125,9.765625,-17.4957275390625,33.4368896484375,-77.0526123046875
1758786289.020651,-0.611328125,-0.35302734375,0.69140625,-9.8876953125,-12.02392578125,9.8876953125,-17.490234375,33.3599853515625,-76.8988037109375
1758786289.0310824,-0.611328125,-0.35302734375,0.69140625,-9.8876953125,-12.02392578125,9.8876953125,-17.490234375,33.2830810546875,-76.7559814453125
1758786289.040735,-0.7412109375,-0.39990234375,0.88525390625,-3.35693359375,-12.939453125,6.40869140625,-17.4517822265625,33.189697265625,-76.6571044921875
1758786289.0507357,-0.7412109375,-0.39990234375,0.88525390625,-3.35693359375,-12.939453125,6.40869140625,-17.413330078125,33.101806640625,-76.563720703125
1758786289.0606697,-0.6669921875,-0.380859375,0.88818359375,4.7607421875,-14.46533203125,7.080078125,-17.2979736328125,32.9974365234375,-76.4593505859375
1758786289.0713637,-0.6669921875,-0.380859375,0.88818359375,4.7607421875,-14.46533203125,7.080078125,-17.1826171875,32.8985595703125,-76.3604736328125
1758786289.0807757,-0.56591796875,-0.3125,0.91796875,8.85009765625,-15.869140625,7.26318359375,-17.02880859375,32.7777099609375,-76.256103515625
1758786289.090767,-0.56591796875,-0.3125,0.91796875,8.85009765625,-15.869140625,7.26318359375,-16.875,32.662353515625,-76.1517333984375
1758786289.1007946,-0.541015625,-0.29248046875,0.6328125,13.18359375,-14.16015625,7.26318359375,-16.688232421875,32.5579833984375,-76.058349609375
1758786289.1112149,-0.541015625,-0.29248046875,0.6328125,13.18359375,-14.16015625,7.26318359375,-16.50146484375,32.4591064453125,-75.970458984375
1758786289.120775,-0.4833984375,-0.255859375,0.681640625,25.2685546875,-11.41357421875,7.14111328125,-16.1993408203125,32.3876953125,-75.8990478515625
1758786289.1308005,-0.4833984375,-0.255859375,0.681640625,25.2685546875,-11.41357421875,7.14111328125,-15.908203125,32.310791015625,-75.8221435546875
1758786289.1412163,-0.3896484375,-0.2275390625,0.716796875,32.958984375,-6.65283203125,7.62939453125,-15.5401611328125,32.2833251953125,-75.76171875
1758786289.1509047,-0.3896484375,-0.2275390625,0.716796875,32.958984375,-6.65283203125,7.62939453125,-15.1776123046875,32.2503662109375,-75.7012939453125
1758786289.1607661,-0.39892578125,-0.263671875,0.7705078125,23.4375,-4.39453125,7.87353515625,-14.9139404296875,32.23388671875,-75.6463623046875
1758786289.1708527,-0.39892578125,-0.263671875,0.7705078125,23.4375,-4.39453125,7.87353515625,-14.6502685546875,32.2119140625,-75.596923828125
1758786289.1811073,-0.45654296875,-0.19921875,0.8681640625,16.29638671875,-3.35693359375,8.4228515625,-14.4580078125,32.200927734375,-75.5364990234375
1758786289.190832,-0.45654296875,-0.19921875,0.8681640625,16.29638671875,-3.35693359375,8.4228515625,-14.26025390625,32.1844482421875,-75.47607421875
1758786289.2008674,-0.45458984375,-0.18115234375,0.8271484375,29.296875,-1.64794921875,8.4228515625,-13.9361572265625,32.1844482421875,-75.4156494140625
1758786289.2118955,-0.45458984375,-0.18115234375,0.8271484375,29.296875,-1.64794921875,8.4228515625,-13.612060546875,32.1844482421875,-75.355224609375
1758786289.221408,-0.4697265625,-0.23193359375,0.8154296875,33.87451171875,-0.8544921875,8.85009765625,-13.238525390625,32.1844482421875,-75.2947998046875
1758786289.2308908,-0.4697265625,-0.23193359375,0.8154296875,33.87451171875,-0.8544921875,8.85009765625,-12.864990234375,32.18994140625,-75.234375
1758786289.2416015,-0.51318359375,-0.15576171875,0.802734375,14.892578125,1.3427734375,9.94873046875,-12.6837158203125,32.2174072265625,-75.16845703125
1758786289.2509856,-0.51318359375,-0.15576171875,0.802734375,14.892578125,1.3427734375,9.94873046875,-12.491455078125,32.244873046875,-75.0970458984375
1758786289.2609298,-0.5859375,-0.05322265625,0.775390625,1.3427734375,2.74658203125,10.80322265625,-12.4310302734375,32.288818359375,-75.0146484375
1758786289.2713664,-0.5859375,-0.05322265625,0.775390625,1.3427734375,2.74658203125,10.80322265625,-12.3651123046875,32.332763671875,-74.9267578125
1758786289.2811487,-0.64501953125,-0.01318359375,0.7890625,-3.173828125,4.0283203125,10.986328125,-12.337646484375,32.398681640625,-74.8388671875
1758786289.291099,-0.64501953125,-0.01318359375,0.7890625,-3.173828125,4.0283203125,10.986328125,-12.2991943359375,32.464599609375,-74.739990234375
1758786289.3014467,-0.61767578125,-0.10009765625,0.86669921875,4.82177734375,5.67626953125,10.92529296875,-12.183837890625,32.552490234375,-74.64111328125
1758786289.3117013,-0.61767578125,-0.10009765625,0.86669921875,4.82177734375,5.67626953125,10.92529296875,-12.0684814453125,32.640380859375,-74.542236328125
1758786289.3211627,-0.62939453125,-0.28759765625,0.88671875,5.43212890625,5.859375,9.6435546875,-11.953125,32.7227783203125,-74.46533203125
1758786289.331091,-0.62939453125,-0.28759765625,0.88671875,5.43212890625,5.859375,9.6435546875,-11.8487548828125,32.80517578125,-74.3939208984375
1758786289.3416376,-0.6201171875,-0.3681640625,0.90087890625,13.7939453125,5.9814453125,7.75146484375,-11.6729736328125,32.8875732421875,-74.3499755859375
1758786289.351134,-0.6201171875,-0.3681640625,0.90087890625,13.7939453125,5.9814453125,7.75146484375,-11.5081787109375,32.9644775390625,-74.3115234375
1758786289.3609743,-0.57763671875,-0.24560546875,0.8515625,18.310546875,6.04248046875,7.14111328125,-11.304931640625,33.046875,-74.2840576171875
1758786289.3712027,-0.57763671875,-0.24560546875,0.8515625,18.310546875,6.04248046875,7.14111328125,-11.1016845703125,33.123779296875,-74.2620849609375
1758786289.3814936,-0.5341796875,-0.11767578125,0.80029296875,23.49853515625,5.7373046875,6.34765625,-10.8544921875,33.1951904296875,-74.24560546875
1758786289.3910162,-0.5341796875,-0.11767578125,0.80029296875,23.49853515625,5.7373046875,6.34765625,-10.601806640625,33.2666015625,-74.2236328125
1758786289.4011157,-0.513671875,-0.10400390625,0.74560546875,26.67236328125,5.859375,7.2021484375,-10.3106689453125,33.3380126953125,-74.190673828125
1758786289.411882,-0.513671875,-0.10400390625,0.74560546875,26.67236328125,5.859375,7.2021484375,-10.01953125,33.409423828125,-74.15771484375
1758786289.4216502,-0.54150390625,-0.10205078125,0.8232421875,21.3623046875,4.2724609375,6.9580078125,-9.77783203125,33.4698486328125,-74.124755859375
1758786289.4310808,-0.54150390625,-0.10205078125,0.8232421875,21.3623046875,4.2724609375,6.9580078125,-9.5361328125,33.5247802734375,-74.0863037109375
1758786289.4416776,-0.57568359375,-0.0732421875,0.89697265625,3.662109375,3.0517578125,7.01904296875,-9.4647216796875,33.563232421875,-74.036865234375
1758786289.4513876,-0.57568359375,-0.0732421875,0.89697265625,3.662109375,3.0517578125,7.01904296875,-9.393310546875,33.607177734375,-73.9874267578125
1758786289.4610674,-0.5517578125,-0.04638671875,0.83154296875,-16.29638671875,2.3193359375,7.62939453125,-9.5086669921875,33.64013671875,-73.927001953125
1758786289.471564,-0.5517578125,-0.04638671875,0.83154296875,-16.29638671875,2.3193359375,7.62939453125,-9.6185302734375,33.673095703125,-73.861083984375
1758786289.4811764,-0.5595703125,-0.10009765625,0.7490234375,-20.1416015625,1.77001953125,7.38525390625,-9.766845703125,33.7060546875,-73.795166015625
1758786289.4911494,-0.5595703125,-0.10009765625,0.7490234375,-20.1416015625,1.77001953125,7.38525390625,-9.9151611328125,33.739013671875,-73.729248046875
1758786289.501208,-0.59814453125,-0.18310546875,0.78564453125,-19.71435546875,1.708984375,7.080078125,-10.0634765625,33.7664794921875,-73.6688232421875
1758786289.521977,-0.59814453125,-0.18310546875,0.78564453125,-19.71435546875,1.708984375,7.080078125,-10.2117919921875,33.7994384765625,-73.6138916015625
1758786289.5288837,-0.65087890625,-0.26220703125,0.86474609375,-22.39990234375,0.48828125,5.06591796875,-10.3985595703125,33.8214111328125,-73.5809326171875
1758786289.5351439,-0.65087890625,-0.26220703125,0.86474609375,-22.39990234375,0.48828125,5.06591796875,-10.5908203125,33.837890625,-73.553466796875
1758786289.5496378,-0.60107421875,-0.146484375,0.8388671875,-7.87353515625,-0.54931640625,6.40869140625,-10.6292724609375,33.8543701171875,-73.5040283203125
1758786289.556583,-0.60107421875,-0.146484375,0.8388671875,-7.87353515625,-0.54931640625,6.40869140625,-10.667724609375,33.8653564453125,-73.4600830078125
1758786289.562724,-0.59423828125,-0.1171875,0.7822265625,14.0380859375,0.0,5.18798828125,-10.491943359375,33.8818359375,-73.4271240234375
1758786289.5720053,-0.59423828125,-0.1171875,0.7822265625,14.0380859375,0.0,5.18798828125,-10.316162109375,33.8983154296875,-73.3941650390625
1758786289.5816221,-0.59423828125,-0.1171875,0.7822265625,12.3291015625,-1.15966796875,4.33349609375,-10.162353515625,33.90380859375,-73.36669921875
1758786289.5923486,-0.6240234375,-0.1513671875,0.68603515625,12.3291015625,-1.15966796875,4.33349609375,-10.0140380859375,33.914794921875,-73.3447265625
1758786289.6019094,-0.625,-0.216796875,0.78662109375,4.150390625,-0.48828125,4.0283203125,-9.9481201171875,33.9312744140625,-73.3282470703125
1758786289.611603,-0.625,-0.216796875,0.78662109375,4.150390625,-0.48828125,4.0283203125,-9.8876953125,33.9532470703125,-73.3172607421875
1758786289.6214738,-0.64306640625,-0.1708984375,0.794921875,-1.52587890625,-1.89208984375,3.72314453125,-9.8876953125,33.958740234375,-73.3062744140625
1758786289.631544,-0.64306640625,-0.1708984375,0.794921875,-1.52587890625,-1.89208984375,3.72314453125,-9.8822021484375,33.9642333984375,-73.2952880859375
1758786289.6417797,-0.646484375,-0.1416015625,0.802734375,1.46484375,-2.197265625,3.41796875,-9.854736328125,33.9642333984375,-73.289794921875
1758786289.652036,-0.646484375,-0.1416015625,0.802734375,1.46484375,-2.197265625,3.41796875,-9.82177734375,33.9697265625,-73.27880859375
1758786289.6613746,-0.64892578125,-0.09765625,0.69140625,6.4697265625,-2.5634765625,3.72314453125,-9.73388671875,33.9752197265625,-73.267822265625
1758786289.6719806,-0.64892578125,-0.09765625,0.69140625,6.4697265625,-2.5634765625,3.72314453125,-9.6514892578125,33.980712890625,-73.2513427734375
1758786289.6815896,-0.62841796875,-0.14111328125,0.78955078125,9.58251953125,-2.685546875,4.08935546875,-9.5306396484375,33.9862060546875,-73.2293701171875
1758786289.6916695,-0.62841796875,-0.14111328125,0.78955078125,9.58251953125,-2.685546875,4.08935546875,-9.4097900390625,33.99169921875,-73.2073974609375
1758786289.7018485,-0.62060546875,-0.1865234375,0.7294921875,8.544921875,-2.25830078125,3.96728515625,-9.2999267578125,34.002685546875,-73.1964111328125
1758786289.7124312,-0.62060546875,-0.1865234375,0.7294921875,8.544921875,-2.25830078125,3.96728515625,-9.195556640625,34.013671875,-73.179931640625
1758786289.7213314,-0.60791015625,-0.17529296875,0.7607421875,8.544921875,-1.77001953125,3.84521484375,-9.0966796875,34.0301513671875,-73.1689453125
1758786289.731571,-0.60791015625,-0.17529296875,0.7607421875,8.544921875,-1.77001953125,3.84521484375,-8.997802734375,34.0411376953125,-73.1634521484375
1758786289.741383,-0.599609375,-0.1201171875,0.78369140625,6.28662109375,-1.708984375,3.11279296875,-8.9263916015625,34.0576171875,-73.1634521484375
1758786289.752973,-0.599609375,-0.1201171875,0.78369140625,6.28662109375,-1.708984375,3.11279296875,-8.8494873046875,34.068603515625,-73.1634521484375
1758786289.761356,-0.56201171875,-0.103515625,0.8603515625,5.55419921875,-1.89208984375,2.13623046875,-8.7890625,34.0740966796875,-73.1689453125
1758786289.7721145,-0.56201171875,-0.103515625,0.8603515625,5.55419921875,-1.89208984375,2.13623046875,-8.72314453125,34.07958984375,-73.1744384765625
1758786289.7817354,-0.54931640625,-0.091796875,0.853515625,-1.3427734375,-2.197265625,2.685546875,-8.72314453125,34.07958984375,-73.1689453125
1758786289.7920344,-0.54931640625,-0.091796875,0.853515625,-1.3427734375,-2.197265625,2.685546875,-8.72314453125,34.0740966796875,-73.1634521484375
1758786289.8014195,-0.56591796875,-0.05517578125,0.875,-8.1787109375,-3.0517578125,3.0517578125,-8.778076171875,34.0631103515625,-73.14697265625
1758786289.8114972,-0.56591796875,-0.05517578125,0.875,-8.1787109375,-3.0517578125,3.0517578125,-8.8385009765625,34.046630859375,-73.1304931640625
1758786289.8217869,-0.54736328125,-0.0634765625,0.900390625,-11.41357421875,-4.2724609375,3.41796875,-8.9154052734375,34.0191650390625,-73.0975341796875
1758786289.8314748,-0.54736328125,-0.0634765625,0.900390625,-11.41357421875,-4.2724609375,3.41796875,-8.9923095703125,33.9862060546875,-73.0645751953125
1758786289.8414958,-0.5029296875,-0.0810546875,0.83642578125,-9.46044921875,-4.08935546875,3.35693359375,-9.052734375,33.9532470703125,-73.0316162109375
1758786289.8516827,-0.5029296875,-0.0810546875,0.83642578125,-9.46044921875,-4.08935546875,3.35693359375,-9.107666015625,33.9202880859375,-72.9931640625
1758786289.8618984,-0.4658203125,-0.0947265625,0.87353515625,-10.7421875,-4.150390625,3.173828125,-9.1790771484375,33.8818359375,-72.960205078125
1758786289.871587,-0.4609375,-0.099609375,0.88818359375,-7.32421875,-3.5400390625,3.173828125,-9.228515625,33.848876953125,-72.9217529296875
1758786289.881513,-0.4609375,-0.099609375,0.88818359375,-7.32421875,-3.5400390625,3.173828125,-9.261474609375,33.8104248046875,-72.88330078125
1758786289.8919547,-0.447265625,-0.099609375,0.90185546875,-0.244140625,-3.173828125,3.5400390625,-9.261474609375,33.77197265625,-72.8448486328125
1758786289.9015555,-0.447265625,-0.099609375,0.90185546875,-0.244140625,-3.173828125,3.5400390625,-9.2230224609375,33.72802734375,-72.8009033203125
1758786289.9116027,-0.40380859375,-0.0654296875,0.904296875,3.72314453125,-2.50244140625,4.638671875,-9.1571044921875,33.6895751953125,-72.7459716796875
1758786289.9217446,-0.40380859375,-0.0654296875,0.904296875,3.72314453125,-2.50244140625,4.638671875,-9.0692138671875,33.6566162109375,-72.685546875
1758786289.9316876,-0.35791015625,-0.0888671875,0.8642578125,13.7939453125,-1.708984375,5.2490234375,-8.931884765625,33.6181640625,-72.6251220703125
1758786289.9415307,-0.35791015625,-0.0888671875,0.8642578125,13.7939453125,-1.708984375,5.2490234375,-8.7396240234375,33.5797119140625,-72.5537109375
1758786289.9520953,-0.35205078125,-0.181640625,0.82275390625,15.44189453125,-0.18310546875,5.06591796875,-8.54736328125,33.5467529296875,-72.48779296875
1758786289.9615583,-0.35205078125,-0.181640625,0.82275390625,15.44189453125,-0.18310546875,5.06591796875,-8.349609375,33.519287109375,-72.432861328125
1758786289.971691,-0.37158203125,-0.1884765625,0.85986328125,2.0751953125,0.0,4.57763671875,-8.2232666015625,33.486328125,-72.3779296875
1758786289.9820604,-0.37158203125,-0.1884765625,0.85986328125,2.0751953125,0.0,4.57763671875,-8.173828125,33.453369140625,-72.3394775390625
1758786289.991751,-0.44287109375,-0.14208984375,0.873046875,-17.27294921875,-0.06103515625,3.47900390625,-8.2232666015625,33.42041015625,-72.301025390625
1758786290.0017018,-0.44287109375,-0.14208984375,0.873046875,-17.27294921875,-0.06103515625,3.47900390625,-8.3770751953125,33.3819580078125,-72.2735595703125
1758786290.01194,-0.4501953125,-0.0146484375,0.90576171875,-30.3955078125,-0.79345703125,4.82177734375,-8.5858154296875,33.343505859375,-72.2406005859375
1758786290.021852,-0.4501953125,-0.0146484375,0.90576171875,-30.3955078125,-0.79345703125,4.82177734375,-8.8494873046875,33.3050537109375,-72.1856689453125
1758786290.0317035,-0.4365234375,-0.03564453125,0.876953125,-30.76171875,-0.67138671875,4.69970703125,-9.1131591796875,33.2666015625,-72.1307373046875
1758786290.0417285,-0.4365234375,-0.03564453125,0.876953125,-30.76171875,-0.67138671875,4.69970703125,-9.371337890625,33.2281494140625,-72.0703125
1758786290.051714,-0.4453125,-0.1484375,0.8193359375,-41.19873046875,-0.8544921875,4.7607421875,-9.678955078125,33.1842041015625,-72.00439453125
1758786290.0616844,-0.4453125,-0.1484375,0.8193359375,-41.19873046875,-0.8544921875,4.7607421875,-10.0360107421875,33.145751953125,-71.9384765625
1758786290.0720947,-0.466796875,-0.166015625,0.81396484375,-48.2177734375,0.0,5.859375,-10.426025390625,33.1182861328125,-71.8670654296875
1758786290.082198,-0.466796875,-0.166015625,0.81396484375,-48.2177734375,0.0,5.859375,-10.8489990234375,33.0908203125,-71.795654296875
1758786290.0916905,-0.46044921875,-0.15869140625,0.71435546875,-21.05712890625,0.9765625,4.5166015625,-11.1456298828125,33.0743408203125,-71.7352294921875
1758786290.1021502,-0.46044921875,-0.15869140625,0.71435546875,-21.05712890625,0.9765625,4.5166015625,-11.3104248046875,33.057861328125,-71.685791015625
1758786290.1121356,-0.5029296875,-0.16943359375,0.71533203125,17.2119140625,2.685546875,4.45556640625,-11.282958984375,33.057861328125,-71.6363525390625
1758786290.122082,-0.5029296875,-0.16943359375,0.71533203125,17.2119140625,2.685546875,4.45556640625,-11.07421875,33.06884765625,-71.597900390625
1758786290.1317787,-0.54443359375,-0.10498046875,0.7822265625,38.51318359375,4.150390625,3.2958984375,-10.7666015625,33.0853271484375,-71.5704345703125
1758786290.1426153,-0.54443359375,-0.10498046875,0.7822265625,38.51318359375,4.150390625,3.2958984375,-10.3546142578125,33.11279296875,-71.5484619140625
1758786290.1518116,-0.69775390625,-0.1103515625,1.0400390625,20.56884765625,2.74658203125,2.99072265625,-10.0360107421875,33.1402587890625,-71.5264892578125
1758786290.1620016,-0.69775390625,-0.1103515625,1.0400390625,20.56884765625,2.74658203125,2.99072265625,-9.810791015625,33.15673828125,-71.5045166015625
1758786290.1717582,-0.7275390625,-0.10595703125,1.2421875,-38.02490234375,-1.28173828125,3.11279296875,-9.86572265625,33.15673828125,-71.4715576171875
1758786290.184563,-0.7275390625,-0.10595703125,1.2421875,-38.02490234375,-1.28173828125,3.11279296875,-10.2117919921875,33.134765625,-71.43310546875
1758786290.1944904,-0.6357421875,-0.0771484375,1.09033203125,-67.138671875,-5.55419921875,2.9296875,-10.6951904296875,33.0963134765625,-71.38916015625
1758786290.2023926,-0.6357421875,-0.0771484375,1.09033203125,-67.138671875,-5.55419921875,2.9296875,-11.31591796875,33.0303955078125,-71.334228515625
1758786290.2119458,-0.48193359375,-0.06689453125,0.61962890625,-36.9873046875,-4.638671875,5.0048828125,-11.7718505859375,32.9754638671875,-71.2628173828125
1758786290.2223501,-0.48193359375,-0.06689453125,0.61962890625,-36.9873046875,-4.638671875,5.0048828125,-12.073974609375,32.9315185546875,-71.1859130859375
1758786290.2317922,-0.4404296875,-0.10009765625,0.4365234375,20.32470703125,0.0,4.39453125,-12.0904541015625,32.9150390625,-71.114501953125
1758786290.242964,-0.4404296875,-0.10009765625,0.4365234375,20.32470703125,0.0,4.39453125,-11.832275390625,32.9205322265625,-71.0540771484375
1758786290.2518768,-0.4404296875,-0.2919921875,0.47412109375,29.052734375,6.591796875,4.2724609375,-11.53564453125,32.9644775390625,-71.004638671875
1758786290.2617888,-0.4404296875,-0.2919921875,0.47412109375,29.052734375,6.591796875,4.2724609375,-11.217041015625,33.046875,-70.982666015625
1758786290.2719,-0.52294921875,-0.31982421875,0.646484375,-8.056640625,9.3994140625,3.7841796875,-11.09619140625,33.1402587890625,-70.9716796875
1758786290.2824273,-0.52294921875,-0.31982421875,0.646484375,-8.056640625,9.3994140625,3.7841796875,-11.1676025390625,33.24462890625,-70.9771728515625
1758786290.291877,-0.56494140625,-0.1845703125,0.86181640625,-51.8798828125,9.521484375,3.11279296875,-11.4697265625,33.3544921875,-70.99365234375
1758786290.3018892,-0.56494140625,-0.1845703125,0.86181640625,-51.8798828125,9.521484375,3.11279296875,-11.986083984375,33.4588623046875,-71.015625
1758786290.3122444,-0.62890625,-0.0673828125,0.85791015625,-43.27392578125,8.97216796875,2.86865234375,-12.45849609375,33.563232421875,-71.0321044921875
1758786290.3218427,-0.62890625,-0.0673828125,0.85791015625,-43.27392578125,8.97216796875,2.86865234375,-12.8814697265625,33.662109375,-71.0430908203125
1758786290.3318624,-0.65673828125,-0.09912109375,0.849609375,-4.33349609375,9.765625,3.11279296875,-13.1011962890625,33.7664794921875,-71.048583984375
1758786290.3419025,-0.65673828125,-0.09912109375,0.849609375,-4.33349609375,9.765625,3.11279296875,-13.128662109375,33.8763427734375,-71.0430908203125
1758786290.3523624,-0.66748046875,-0.1787109375,0.76416015625,27.4658203125,10.68115234375,2.50244140625,-12.9913330078125,33.99169921875,-71.048583984375
1758786290.3618946,-0.66748046875,-0.1787109375,0.76416015625,27.4658203125,10.68115234375,2.50244140625,-12.7056884765625,34.112548828125,-71.0595703125
1758786290.3720012,-0.64697265625,-0.267578125,0.92236328125,2.86865234375,10.6201171875,2.86865234375,-12.5408935546875,34.2333984375,-71.0650634765625
1758786290.382158,-0.64697265625,-0.267578125,0.92236328125,2.86865234375,10.6201171875,2.86865234375,-12.50244140625,34.354248046875,-71.0760498046875
1758786290.3920822,-0.59619140625,-0.25048828125,0.86962890625,-40.52734375,9.521484375,1.77001953125,-12.689208984375,34.464111328125,-71.092529296875
1758786290.40203,-0.59619140625,-0.25048828125,0.86962890625,-40.52734375,9.521484375,1.77001953125,-13.095703125,34.56298828125,-71.114501953125
1758786290.4119966,-0.51025390625,-0.1513671875,0.84375,-50.59814453125,7.99560546875,4.21142578125,-13.5406494140625,34.661865234375,-71.1199951171875
1758786290.4219904,-0.51025390625,-0.1513671875,0.84375,-50.59814453125,7.99560546875,4.21142578125,-14.0240478515625,34.749755859375,-71.1090087890625
1758786290.432046,-0.49267578125,-0.1044921875,0.69775390625,-32.958984375,8.85009765625,5.18798828125,-14.4085693359375,34.8431396484375,-71.0870361328125
1758786290.442335,-0.49267578125,-0.1044921875,0.69775390625,-32.958984375,8.85009765625,5.18798828125,-14.7052001953125,34.9365234375,-71.0595703125
1758786290.452214,-0.470703125,-0.158203125,0.58349609375,-10.19287109375,9.1552734375,6.7138671875,-14.87548828125,35.035400390625,-71.0211181640625
1758786290.4619884,-0.470703125,-0.158203125,0.58349609375,-10.19287109375,9.1552734375,6.7138671875,-14.9359130859375,35.1397705078125,-70.9716796875
1758786290.472046,-0.54736328125,-0.16552734375,0.64501953125,1.3427734375,9.58251953125,7.2021484375,-14.930419921875,35.2496337890625,-70.9222412109375
1758786290.482103,-0.54736328125,-0.16552734375,0.64501953125,1.3427734375,9.58251953125,7.2021484375,-14.8699951171875,35.364990234375,-70.872802734375
1758786290.4934726,-0.6123046875,-0.09716796875,0.7197265625,20.01953125,9.82666015625,7.75146484375,-14.7161865234375,35.4803466796875,-70.81787109375
1758786290.5020306,-0.6123046875,-0.09716796875,0.7197265625,20.01953125,9.82666015625,7.75146484375,-14.4635009765625,35.595703125,-70.7574462890625
1758786290.512352,-0.822265625,-0.24072265625,0.98291015625,-3.96728515625,4.82177734375,3.96728515625,-14.3426513671875,35.6890869140625,-70.7135009765625
1758786290.5226188,-0.822265625,-0.24072265625,0.98291015625,-3.96728515625,4.82177734375,3.96728515625,-14.34814453125,35.7550048828125,-70.6805419921875
1758786290.53239,-0.78759765625,-0.2958984375,1.13818359375,-67.7490234375,0.30517578125,4.94384765625,-14.666748046875,35.7989501953125,-70.64208984375
1758786290.542195,-0.78759765625,-0.2958984375,1.13818359375,-67.7490234375,0.30517578125,4.94384765625,-15.2984619140625,35.8209228515625,-70.587158203125
1758786290.5531805,-0.77587890625,-0.19677734375,0.8662109375,-65.185546875,-3.96728515625,5.06591796875,-15.9027099609375,35.8209228515625,-70.521240234375
1758786290.5622885,-0.77587890625,-0.19677734375,0.8662109375,-65.185546875,-3.96728515625,5.06591796875,-16.490478515625,35.804443359375,-70.4498291015625
1758786290.5724556,-0.65185546875,-0.2705078125,0.6708984375,-22.88818359375,-2.25830078125,5.0048828125,-16.8695068359375,35.7989501953125,-70.37841796875
1758786290.5823283,-0.65185546875,-0.2705078125,0.6708984375,-22.88818359375,-2.25830078125,5.0048828125,-17.039794921875,35.804443359375,-70.3179931640625
1758786290.5931523,-0.5859375,-0.27734375,0.51513671875,0.91552734375,1.708984375,5.55419921875,-17.0947265625,35.8319091796875,-70.2630615234375
1758786290.6021771,-0.5859375,-0.27734375,0.51513671875,0.91552734375,1.708984375,5.55419921875,-17.039794921875,35.88134765625,-70.2191162109375
1758786290.6126273,-0.5693359375,-0.29296875,0.48681640625,5.31005859375,6.9580078125,3.96728515625,-16.98486328125,35.958251953125,-70.1971435546875
1758786290.6223664,-0.5693359375,-0.29296875,0.48681640625,5.31005859375,6.9580078125,3.96728515625,-16.9189453125,36.0626220703125,-70.20263671875
1758786290.6328037,-0.5849609375,-0.30615234375,0.654296875,-12.87841796875,8.6669921875,3.41796875,-16.951904296875,36.1724853515625,-70.2191162109375
1758786290.642186,-0.5849609375,-0.30615234375,0.654296875,-12.87841796875,8.6669921875,3.41796875,-17.0892333984375,36.287841796875,-70.2410888671875
1758786290.6537201,-0.64208984375,-0.2998046875,0.826171875,-33.5693359375,7.75146484375,2.25830078125,-17.3309326171875,36.397705078125,-70.2740478515625
1758786290.6626604,-0.64208984375,-0.2998046875,0.826171875,-33.5693359375,7.75146484375,2.25830078125,-17.677001953125,36.49658203125,-70.3125
1758786290.6722915,-0.6318359375,-0.33837890625,0.86474609375,-25.20751953125,5.55419921875,1.89208984375,-17.9791259765625,36.58447265625,-70.345458984375
1758786290.6822755,-0.6318359375,-0.33837890625,0.86474609375,-25.20751953125,5.55419921875,1.89208984375,-18.2427978515625,36.650390625,-70.3729248046875
1758786290.6923454,-0.6142578125,-0.31591796875,0.8876953125,-0.8544921875,2.0751953125,1.3427734375,-18.3746337890625,36.705322265625,-70.400390625
1758786290.7022908,-0.6142578125,-0.31591796875,0.8876953125,-0.8544921875,2.0751953125,1.3427734375,-18.39111328125,36.7327880859375,-70.42236328125
1758786290.7124956,-0.61962890625,-0.26171875,0.89794921875,12.8173828125,-0.6103515625,1.3427734375,-18.3306884765625,36.7437744140625,-70.433349609375
1758786290.7227488,-0.61962890625,-0.26171875,0.89794921875,12.8173828125,-0.6103515625,1.3427734375,-18.1988525390625,36.7437744140625,-70.4388427734375
1758786290.732329,-0.5732421875,-0.28955078125,0.74072265625,11.8408203125,-1.708984375,1.77001953125,-18.0670166015625,36.73828125,-70.4388427734375
1758786290.7423189,-0.5732421875,-0.28955078125,0.74072265625,11.8408203125,-1.708984375,1.77001953125,-17.940673828125,36.727294921875,-70.433349609375
1758786290.752353,-0.56298828125,-0.26806640625,0.66650390625,13.427734375,-2.01416015625,2.0751953125,-17.808837890625,36.7108154296875,-70.4278564453125
1758786290.7633755,-0.56298828125,-0.26806640625,0.66650390625,13.427734375,-2.01416015625,2.0751953125,-17.666015625,36.6998291015625,-70.42236328125
1758786290.7723677,-0.58935546875,-0.21240234375,0.63330078125,17.88330078125,-0.6103515625,2.01416015625,-17.5067138671875,36.6943359375,-70.42236328125
1758786290.7824051,-0.58935546875,-0.21240234375,0.63330078125,17.88330078125,-0.6103515625,2.01416015625,-17.325439453125,36.6943359375,-70.42236328125
1758786290.7926965,-0.609375,-0.150390625,0.7109375,15.380859375,0.6103515625,2.74658203125,-17.1551513671875,36.7108154296875,-70.42236328125
1758786290.802503,-0.609375,-0.150390625,0.7109375,15.380859375,0.6103515625,2.74658203125,-16.995849609375,36.727294921875,-70.4168701171875
1758786290.81255,-0.609375,-0.150390625,0.7109375,4.2724609375,1.89208984375,2.9296875,-16.885986328125,36.7547607421875,-70.4058837890625
1758786290.8226645,-0.62646484375,-0.15478515625,0.72998046875,4.2724609375,1.89208984375,2.9296875,-16.8310546875,36.793212890625,-70.400390625
1758786290.8326185,-0.619140625,-0.228515625,0.78173828125,-10.3759765625,2.197265625,3.23486328125,-16.8475341796875,36.8316650390625,-70.3839111328125
1758786290.8424516,-0.619140625,-0.228515625,0.78173828125,-10.3759765625,2.197265625,3.23486328125,-16.929931640625,36.8701171875,-70.367431640625
1758786290.8525083,-0.60009765625,-0.26171875,0.765625,-20.6298828125,3.11279296875,3.35693359375,-17.0672607421875,36.9085693359375,-70.3509521484375
1758786290.8625686,-0.60009765625,-0.26171875,0.765625,-20.6298828125,3.11279296875,3.35693359375,-17.259521484375,36.9580078125,-70.3399658203125
1758786290.872447,-0.57763671875,-0.2509765625,0.65234375,-18.798828125,4.150390625,2.50244140625,-17.4407958984375,37.0074462890625,-70.33447265625
1758786290.8827357,-0.57763671875,-0.2509765625,0.65234375,-18.798828125,4.150390625,2.50244140625,-17.6220703125,37.056884765625,-70.33447265625
1758786290.8924716,-0.58984375,-0.25927734375,0.677734375,-13.61083984375,5.2490234375,2.13623046875,-17.7813720703125,37.1173095703125,-70.345458984375
1758786290.9024565,-0.58984375,-0.25927734375,0.677734375,-13.61083984375,5.2490234375,2.13623046875,-17.918701171875,37.177734375,-70.3619384765625
1758786290.9133766,-0.6171875,-0.25146484375,0.74609375,-4.638671875,5.4931640625,0.9765625,-18.0120849609375,37.24365234375,-70.3839111328125
1758786290.9226086,-0.6171875,-0.25146484375,0.74609375,-4.638671875,5.4931640625,0.9765625,-18.0670166015625,37.3040771484375,-70.411376953125
1758786290.9325473,-0.654296875,-0.26953125,0.826171875,-6.04248046875,4.150390625,0.67138671875,-18.12744140625,37.3590087890625,-70.4388427734375
1758786290.9431918,-0.654296875,-0.26953125,0.826171875,-6.04248046875,4.150390625,0.67138671875,-18.193359375,37.4029541015625,-70.4608154296875
1758786290.9528046,-0.6875,-0.2294921875,0.830078125,-17.578125,2.8076171875,0.67138671875,-18.3746337890625,37.4359130859375,-70.477294921875
1758786290.9632757,-0.6875,-0.2294921875,0.830078125,-17.578125,2.8076171875,0.67138671875,-18.544921875,37.4688720703125,-70.4937744140625
1758786290.9725997,-0.6943359375,-0.208984375,0.8671875,-20.81298828125,-0.06103515625,0.0,-18.7481689453125,37.474365234375,-70.499267578125
1758786290.9840393,-0.6943359375,-0.208984375,0.8671875,-20.81298828125,-0.06103515625,0.0,-18.9459228515625,37.474365234375,-70.5047607421875
1758786290.9927015,-0.6640625,-0.2138671875,0.80712890625,-20.81298828125,-1.8310546875,0.48828125,-19.1326904296875,37.46337890625,-70.4937744140625
1758786291.0029552,-0.6640625,-0.2138671875,0.80712890625,-20.81298828125,-1.8310546875,0.48828125,-19.31396484375,37.452392578125,-70.477294921875
1758786291.0137396,-0.60888671875,-0.24755859375,0.68896484375,-17.39501953125,-3.23486328125,0.30517578125,-19.4622802734375,37.430419921875,-70.455322265625
1758786291.0232565,-0.60888671875,-0.24755859375,0.68896484375,-17.39501953125,-3.23486328125,0.30517578125,-19.610595703125,37.408447265625,-70.4388427734375
1758786291.0326715,-0.5810546875,-0.263671875,0.64990234375,-22.3388671875,-2.9296875,0.06103515625,-19.8138427734375,37.386474609375,-70.4278564453125
1758786291.0429862,-0.5810546875,-0.263671875,0.64990234375,-22.3388671875,-2.9296875,0.06103515625,-20.01708984375,37.364501953125,-70.4168701171875
1758786291.0530143,-0.5517578125,-0.25439453125,0.69580078125,-24.90234375,-3.11279296875,-0.06103515625,-20.2423095703125,37.342529296875,-70.4058837890625
1758786291.0634189,-0.5517578125,-0.25439453125,0.69580078125,-24.90234375,-3.11279296875,-0.06103515625,-20.4730224609375,37.320556640625,-70.3948974609375
1758786291.0727253,-0.59716796875,-0.3046875,0.77294921875,-27.64892578125,-3.173828125,-1.28173828125,-20.7366943359375,37.2930908203125,-70.3948974609375
1758786291.0857103,-0.59716796875,-0.3046875,0.77294921875,-27.64892578125,-3.173828125,-1.28173828125,-21.0003662109375,37.2601318359375,-70.400390625
1758786291.0973043,-0.611328125,-0.31494140625,0.74365234375,-21.30126953125,-4.150390625,-2.9296875,-21.214599609375,37.2161865234375,-70.4168701171875
1758786291.1041205,-0.611328125,-0.31494140625,0.74365234375,-21.30126953125,-4.150390625,-2.9296875,-21.42333984375,37.1722412109375,-70.4388427734375
1758786291.1132088,-0.5966796875,-0.361328125,0.77880859375,-9.94873046875,-4.82177734375,-3.662109375,-21.5277099609375,37.11181640625,-70.46630859375
1758786291.1229408,-0.5966796875,-0.361328125,0.77880859375,-9.94873046875,-4.82177734375,-3.662109375,-21.632080078125,37.056884765625,-70.4937744140625
1758786291.1331484,-0.6025390625,-0.3310546875,0.728515625,-6.591796875,-5.2490234375,-3.90625,-21.708984375,36.9964599609375,-70.521240234375
1758786291.1427054,-0.6025390625,-0.3310546875,0.728515625,-6.591796875,-5.2490234375,-3.90625,-21.785888671875,36.9305419921875,-70.55419921875
1758786291.1528165,-0.6162109375,-0.3017578125,0.7001953125,-3.96728515625,-5.126953125,-4.150390625,-21.8353271484375,36.8701171875,-70.587158203125
1758786291.1640422,-0.6162109375,-0.3017578125,0.7001953125,-3.96728515625,-5.126953125,-4.150390625,-21.8902587890625,36.8096923828125,-70.6256103515625
1758786291.1728187,-0.60205078125,-0.3466796875,0.78955078125,3.35693359375,-5.7373046875,-5.18798828125,-21.8792724609375,36.7437744140625,-70.6695556640625
1758786291.183109,-0.60205078125,-0.3466796875,0.78955078125,3.35693359375,-5.7373046875,-5.18798828125,-21.86279296875,36.67236328125,-70.718994140625
1758786291.1928205,-0.56103515625,-0.29736328125,0.857421875,1.89208984375,-6.103515625,-4.69970703125,-21.86279296875,36.595458984375,-70.751953125
1758786291.2031913,-0.56103515625,-0.29736328125,0.857421875,1.89208984375,-6.103515625,-4.69970703125,-21.8572998046875,36.5185546875,-70.784912109375
1758786291.2128184,-0.52783203125,-0.27783203125,0.77587890625,-3.7841796875,-7.01904296875,-5.126953125,-21.90673828125,36.4306640625,-70.81787109375
1758786291.2228394,-0.52783203125,-0.27783203125,0.77587890625,-3.7841796875,-7.01904296875,-5.126953125,-21.9561767578125,36.3427734375,-70.8453369140625
1758786291.2330751,-0.49658203125,-0.28125,0.7216796875,3.47900390625,-7.6904296875,-5.37109375,-21.9342041015625,36.243896484375,-70.8782958984375
1758786291.242916,-0.49658203125,-0.28125,0.7216796875,3.47900390625,-7.6904296875,-5.37109375,-21.90673828125,36.14501953125,-70.90576171875
1758786291.252897,-0.50390625,-0.29541015625,0.732421875,23.8037109375,-7.32421875,-5.92041015625,-21.68701171875,36.046142578125,-70.9442138671875
1758786291.2633815,-0.50390625,-0.29541015625,0.732421875,23.8037109375,-7.32421875,-5.92041015625,-21.46728515625,35.947265625,-70.982666015625
1758786291.2729423,-0.58154296875,-0.2734375,0.8369140625,25.20751953125,-8.36181640625,-6.28662109375,-21.236572265625,35.83740234375,-71.015625
1758786291.283236,-0.58154296875,-0.2734375,0.8369140625,25.20751953125,-8.36181640625,-6.28662109375,-21.005859375,35.7330322265625,-71.0540771484375
1758786291.2930899,-0.6689453125,-0.27587890625,0.98046875,5.9814453125,-11.04736328125,-7.8125,-20.9619140625,35.5902099609375,-71.092529296875
1758786291.302927,-0.6689453125,-0.27587890625,0.98046875,5.9814453125,-11.04736328125,-7.8125,-20.91796875,35.452880859375,-71.1309814453125
1758786291.3128192,-0.6513671875,-0.3125,0.98876953125,-5.0048828125,-13.0615234375,-7.50732421875,-20.9783935546875,35.2935791015625,-71.1529541015625
1758786291.3229172,-0.6513671875,-0.3125,0.98876953125,-5.0048828125,-13.0615234375,-7.50732421875,-21.0333251953125,35.13427734375,-71.16943359375
1758786291.333237,-0.53662109375,-0.35693359375,0.8505859375,0.3662109375,-14.46533203125,-7.080078125,-21.02783203125,34.969482421875,-71.180419921875
1758786291.3428836,-0.53662109375,-0.35693359375,0.8505859375,0.3662109375,-14.46533203125,-7.080078125,-21.02783203125,34.793701171875,-71.1968994140625
1758786291.352881,-0.4560546875,-0.416015625,0.73095703125,18.61572265625,-12.6953125,-7.62939453125,-20.8575439453125,34.639892578125,-71.2298583984375
1758786291.3629396,-0.4560546875,-0.416015625,0.73095703125,18.61572265625,-12.6953125,-7.62939453125,-20.6927490234375,34.4805908203125,-71.268310546875
1758786291.3728673,-0.42236328125,-0.4453125,0.65869140625,48.4619140625,-9.27734375,-8.72802734375,-20.2532958984375,34.3487548828125,-71.34521484375
1758786291.3829064,-0.42236328125,-0.4453125,0.65869140625,48.4619140625,-9.27734375,-8.72802734375,-19.8248291015625,34.2169189453125,-71.4276123046875
1758786291.3974228,-0.40625,-0.412109375,0.67236328125,76.171875,-6.53076171875,-9.70458984375,-19.1436767578125,34.1070556640625,-71.5484619140625
1758786291.404333,-0.40625,-0.412109375,0.67236328125,76.171875,-6.53076171875,-9.70458984375,-18.468017578125,34.002685546875,-71.6748046875
1758786291.4132884,-0.3994140625,-0.31787109375,0.71533203125,68.54248046875,-4.0283203125,-9.82666015625,-17.8802490234375,33.914794921875,-71.817626953125
1758786291.423008,-0.3994140625,-0.31787109375,0.71533203125,68.54248046875,-4.0283203125,-9.82666015625,-17.2979736328125,33.826904296875,-71.9659423828125
1758786291.4340067,-0.42529296875,-0.224609375,0.8076171875,50.29296875,-2.99072265625,-9.3994140625,-16.8914794921875,33.75,-72.1087646484375
1758786291.4430864,-0.42529296875,-0.224609375,0.8076171875,50.29296875,-2.99072265625,-9.3994140625,-16.490478515625,33.673095703125,-72.24609375
1758786291.4533367,-0.48486328125,-0.16259765625,0.96435546875,41.44287109375,-2.9296875,-7.62939453125,-16.1553955078125,33.6016845703125,-72.35595703125
1758786291.4633183,-0.48486328125,-0.16259765625,0.96435546875,41.44287109375,-2.9296875,-7.62939453125,-15.8148193359375,33.5302734375,-72.4603271484375
1758786291.4736323,-0.51513671875,-0.2001953125,0.9873046875,32.8369140625,-4.94384765625,-7.32421875,-15.545654296875,33.4368896484375,-72.5482177734375
1758786291.4829721,-0.51513671875,-0.2001953125,0.9873046875,32.8369140625,-4.94384765625,-7.32421875,-15.2764892578125,33.343505859375,-72.6361083984375
1758786291.4936316,-0.45703125,-0.27001953125,0.7861328125,30.82275390625,-4.69970703125,-6.7138671875,-15.0238037109375,33.2501220703125,-72.7130126953125
1758786291.503113,-0.45703125,-0.27001953125,0.7861328125,30.82275390625,-4.69970703125,-6.7138671875,-14.776611328125,33.1622314453125,-72.79541015625
1758786291.5135844,-0.39697265625,-0.2685546875,0.76904296875,38.2080078125,-4.150390625,-5.55419921875,-14.447021484375,33.079833984375,-72.872314453125
1758786291.5230389,-0.39697265625,-0.2685546875,0.76904296875,38.2080078125,-4.150390625,-5.55419921875,-14.1229248046875,33.0029296875,-72.94921875
1758786291.5339491,-0.396484375,-0.28369140625,0.7578125,26.2451171875,-2.86865234375,-6.04248046875,-13.9251708984375,32.9315185546875,-73.0426025390625
1758786291.5431519,-0.396484375,-0.28369140625,0.7578125,26.2451171875,-2.86865234375,-6.04248046875,-13.7274169921875,32.860107421875,-73.135986328125
1758786291.553038,-0.37060546875,-0.2216796875,0.74609375,15.7470703125,-1.3427734375,-5.31005859375,-13.634033203125,32.80517578125,-73.223876953125
1758786291.5631962,-0.37060546875,-0.2216796875,0.74609375,15.7470703125,-1.3427734375,-5.31005859375,-13.5406494140625,32.750244140625,-73.3172607421875
1758786291.573429,-0.44970703125,-0.26904296875,0.689453125,34.7900390625,0.30517578125,-5.7373046875,-13.2659912109375,32.7117919921875,-73.4161376953125
1758786291.5833933,-0.44970703125,-0.26904296875,0.689453125,34.7900390625,0.30517578125,-5.7373046875,-12.9913330078125,32.67333984375,-73.5260009765625
1758786291.593059,-0.52978515625,-0.21533203125,0.7744140625,32.71484375,1.15966796875,-4.94384765625,-12.7386474609375,32.6513671875,-73.6248779296875
1758786291.6035423,-0.52978515625,-0.21533203125,0.7744140625,32.71484375,1.15966796875,-4.94384765625,-12.48046875,32.6348876953125,-73.7237548828125
1758786291.6130836,-0.66943359375,-0.05908203125,1.0390625,-12.939453125,-0.54931640625,-4.0283203125,-12.6617431640625,32.6019287109375,-73.8006591796875
1758786291.6231623,-0.66943359375,-0.05908203125,1.0390625,-12.939453125,-0.54931640625,-4.0283203125,-12.83203125,32.574462890625,-73.861083984375
1758786291.633409,-0.72802734375,0.0009765625,1.078125,-22.15576171875,-2.13623046875,-2.99072265625,-13.07373046875,32.5360107421875,-73.8995361328125
1758786291.643172,-0.72802734375,0.0009765625,1.078125,-22.15576171875,-2.13623046875,-2.99072265625,-13.2989501953125,32.49755859375,-73.9215087890625
1758786291.6531544,-0.6435546875,-0.255859375,0.88916015625,-2.01416015625,-2.50244140625,-0.732421875,-13.3154296875,32.464599609375,-73.9215087890625
1758786291.663545,-0.6435546875,-0.255859375,0.88916015625,-2.01416015625,-2.50244140625,-0.732421875,-13.3319091796875,32.4371337890625,-73.9215087890625
1758786291.6732109,-0.59521484375,-0.314453125,0.669921875,11.5966796875,-1.3427734375,-0.42724609375,-13.216552734375,32.420654296875,-73.927001953125
1758786291.683622,-0.59521484375,-0.314453125,0.669921875,11.5966796875,-1.3427734375,-0.42724609375,-13.106689453125,32.40966796875,-73.9434814453125
1758786291.6936018,-0.61279296875,-0.30224609375,0.60205078125,20.69091796875,0.6103515625,-2.5634765625,-12.930908203125,32.420654296875,-73.9984130859375
1758786291.703219,-0.61279296875,-0.30224609375,0.60205078125,20.69091796875,0.6103515625,-2.5634765625,-12.755126953125,32.4371337890625,-74.058837890625
1758786291.7131438,-0.62548828125,-0.24072265625,0.6357421875,24.84130859375,1.15966796875,-3.84521484375,-12.557373046875,32.45361328125,-74.1357421875
1758786291.7232084,-0.62548828125,-0.24072265625,0.6357421875,24.84130859375,1.15966796875,-3.84521484375,-12.359619140625,32.4810791015625,-74.2181396484375
1758786291.7331984,-0.6455078125,-0.17724609375,0.83203125,9.70458984375,-0.18310546875,-4.8828125,-12.315673828125,32.4920654296875,-74.3115234375
1758786291.743212,-0.6455078125,-0.17724609375,0.83203125,9.70458984375,-0.18310546875,-4.8828125,-12.271728515625,32.5030517578125,-74.3994140625
1758786291.753181,-0.65478515625,-0.11962890625,0.9404296875,-20.69091796875,-1.5869140625,-3.173828125,-12.5079345703125,32.5030517578125,-74.4598388671875
1758786291.7632875,-0.65478515625,-0.11962890625,0.9404296875,-20.69091796875,-1.5869140625,-3.173828125,-12.744140625,32.5030517578125,-74.50927734375
1758786291.7736454,-0.65283203125,-0.1142578125,0.87109375,-8.056640625,-2.685546875,-3.84521484375,-12.8485107421875,32.4920654296875,-74.564208984375
1758786291.7835834,-0.65283203125,-0.1142578125,0.87109375,-8.056640625,-2.685546875,-3.84521484375,-12.952880859375,32.4810791015625,-74.608154296875
1758786291.7932081,-0.59375,-0.21826171875,0.7978515625,-1.0986328125,-2.25830078125,-2.9296875,-12.974853515625,32.4700927734375,-74.6466064453125
1758786291.803991,-0.59375,-0.21826171875,0.7978515625,-1.0986328125,-2.25830078125,-2.9296875,-13.0023193359375,32.464599609375,-74.68505859375
1758786291.813276,-0.59375,-0.21826171875,0.7978515625,-10.986328125,-2.197265625,-2.44140625,-13.128662109375,32.4591064453125,-74.7235107421875
1758786291.8235323,-0.53759765625,-0.1982421875,0.7392578125,-10.986328125,-2.197265625,-2.44140625,-13.24951171875,32.45361328125,-74.7564697265625
1758786291.8332813,-0.498046875,-0.23583984375,0.78173828125,2.3193359375,-1.77001953125,-2.74658203125,-13.2440185546875,32.4481201171875,-74.794921875
1758786291.8443093,-0.498046875,-0.23583984375,0.78173828125,2.3193359375,-1.77001953125,-2.74658203125,-13.238525390625,32.442626953125,-74.8388671875
1758786291.8533068,-0.48388671875,-0.283203125,0.69873046875,13.73291015625,0.0,-1.03759765625,-13.11767578125,32.4591064453125,-74.8663330078125
1758786291.8636653,-0.48388671875,-0.283203125,0.69873046875,13.73291015625,0.0,-1.03759765625,-13.0023193359375,32.4700927734375,-74.8992919921875
1758786291.8737204,-0.48828125,-0.234375,0.64453125,28.86962890625,0.732421875,-2.99072265625,-12.7496337890625,32.4810791015625,-74.9652099609375
1758786291.8841586,-0.48828125,-0.234375,0.64453125,28.86962890625,0.732421875,-2.99072265625,-12.50244140625,32.49755859375,-75.0311279296875
1758786291.8933122,-0.5712890625,-0.1669921875,0.751953125,26.7333984375,1.64794921875,-2.44140625,-12.271728515625,32.5250244140625,-75.091552734375
1758786291.9042518,-0.5712890625,-0.1669921875,0.751953125,26.7333984375,1.64794921875,-2.44140625,-12.041015625,32.552490234375,-75.1519775390625
1758786291.913605,-0.64306640625,-0.10009765625,0.92822265625,14.34326171875,1.220703125,-3.60107421875,-11.942138671875,32.574462890625,-75.2178955078125
1758786291.9236355,-0.64306640625,-0.10009765625,0.92822265625,14.34326171875,1.220703125,-3.60107421875,-11.832275390625,32.596435546875,-75.2783203125
1758786291.9334164,-0.6787109375,-0.07958984375,0.98486328125,0.18310546875,-0.91552734375,-3.60107421875,-11.854248046875,32.5909423828125,-75.3277587890625
1758786291.9444745,-0.6787109375,-0.07958984375,0.98486328125,0.18310546875,-0.91552734375,-3.60107421875,-11.876220703125,32.5909423828125,-75.3717041015625
1758786291.9533587,-0.59619140625,-0.068359375,0.875,-9.33837890625,-2.3193359375,-1.8310546875,-11.9696044921875,32.5799560546875,-75.38818359375
1758786291.9640408,-0.59619140625,-0.068359375,0.875,-9.33837890625,-2.3193359375,-1.8310546875,-12.06298828125,32.5689697265625,-75.399169921875
1758786291.9737144,-0.57470703125,-0.1455078125,0.736328125,-23.62060546875,-2.99072265625,-0.30517578125,-12.2882080078125,32.552490234375,-75.38818359375
1758786291.9854097,-0.57470703125,-0.1455078125,0.736328125,-23.62060546875,-2.99072265625,-0.30517578125,-12.5079345703125,32.54150390625,-75.377197265625
1758786291.9936874,-0.6220703125,-0.15185546875,0.70556640625,-29.35791015625,-2.25830078125,0.6103515625,-12.7825927734375,32.5360107421875,-75.3607177734375
1758786292.0035243,-0.6220703125,-0.15185546875,0.70556640625,-29.35791015625,-2.25830078125,0.6103515625,-13.0572509765625,32.54150390625,-75.34423828125
1758786292.0138724,-0.642578125,-0.1201171875,0.76025390625,-15.9912109375,-2.3193359375,0.9765625,-13.1890869140625,32.54150390625,-75.322265625
1758786292.0234725,-0.642578125,-0.1201171875,0.76025390625,-15.9912109375,-2.3193359375,0.9765625,-13.326416015625,32.5469970703125,-75.30029296875
1758786292.0334764,-0.599609375,-0.1259765625,0.80859375,-3.96728515625,-1.220703125,0.6103515625,-13.3428955078125,32.5634765625,-75.2783203125
1758786292.0438514,-0.5693359375,-0.2119140625,0.76611328125,-1.0986328125,-0.3662109375,0.91552734375,-13.3428955078125,32.58544921875,-75.2618408203125
1758786292.0534532,-0.5693359375,-0.2119140625,0.76611328125,-1.0986328125,-0.3662109375,0.91552734375,-13.3319091796875,32.607421875,-75.245361328125
1758786292.063504,-0.5908203125,-0.31494140625,0.7822265625,-13.5498046875,0.0,-0.30517578125,-13.392333984375,32.62939453125,-75.2398681640625
1758786292.074119,-0.5908203125,-0.31494140625,0.7822265625,-13.5498046875,0.0,-0.30517578125,-13.524169921875,32.6513671875,-75.245361328125
1758786292.0837066,-0.54931640625,-0.291015625,0.80810546875,-18.9208984375,0.48828125,-1.220703125,-13.68896484375,32.6788330078125,-75.2618408203125
1758786292.0935886,-0.54931640625,-0.291015625,0.80810546875,-18.9208984375,0.48828125,-1.220703125,-13.88671875,32.6953125,-75.289306640625
1758786292.1040623,-0.50341796875,-0.234375,0.77734375,3.90625,1.03759765625,-1.8310546875,-13.9801025390625,32.71728515625,-75.3277587890625
1758786292.1136444,-0.50341796875,-0.234375,0.77734375,3.90625,1.03759765625,-1.8310546875,-13.9581298828125,32.7392578125,-75.3662109375
1758786292.1240852,-0.48583984375,-0.22607421875,0.740234375,16.11328125,2.685546875,-1.8310546875,-13.875732421875,32.7667236328125,-75.4046630859375
