timestamp,acc_x,acc_y,acc_z,gyro_x,gyro_y,gyro_z,angle_x,angle_y,angle_z
1760968002.628409,-0.75439453125,0.0068359375,0.654296875,21.05712890625,0.244140625,-1.8310546875,3.0267333984375,49.5867919921875,-173.84765625
1760968002.6372716,-0.74560546875,0.0302734375,0.7109375,24.7802734375,0.732421875,-2.44140625,3.2354736328125,49.5977783203125,-173.8916015625
1760968002.6494117,-0.74560546875,0.0302734375,0.7109375,24.7802734375,0.732421875,-2.44140625,3.4442138671875,49.603271484375,-173.935546875
1760968002.6609583,-0.73193359375,0.0751953125,0.69140625,20.32470703125,1.15966796875,-2.8076171875,3.6090087890625,49.6087646484375,-173.9849853515625
1760968002.670292,-0.73193359375,0.0751953125,0.69140625,20.32470703125,1.15966796875,-2.8076171875,3.768310546875,49.6197509765625,-174.034423828125
1760968002.6793618,-0.74609375,0.09326171875,0.65869140625,11.16943359375,1.77001953125,-3.11279296875,3.8397216796875,49.6307373046875,-174.08935546875
1760968002.6882799,-0.74609375,0.09326171875,0.65869140625,11.16943359375,1.77001953125,-3.11279296875,3.9166259765625,49.647216796875,-174.1387939453125
1760968002.6969564,-0.783203125,0.09130859375,0.62939453125,3.60107421875,2.50244140625,-3.0517578125,3.9166259765625,49.6636962890625,-174.188232421875
1760968002.7072217,-0.783203125,0.09130859375,0.62939453125,3.60107421875,2.50244140625,-3.0517578125,3.922119140625,49.691162109375,-174.232177734375
1760968002.7169454,-0.7900390625,0.01953125,0.61376953125,-0.91552734375,2.9296875,-1.46484375,3.900146484375,49.7186279296875,-174.2486572265625
1760968002.726592,-0.7900390625,0.01953125,0.61376953125,-0.91552734375,2.9296875,-1.46484375,3.8726806640625,49.74609375,-174.26513671875
1760968002.7356985,-0.80224609375,-0.0126953125,0.60693359375,-0.1220703125,2.38037109375,0.0,3.8726806640625,49.76806640625,-174.26513671875
1760968002.7457328,-0.80224609375,-0.0126953125,0.60693359375,-0.1220703125,2.38037109375,0.0,3.8671875,49.7955322265625,-174.2596435546875
1760968002.7558181,-0.78466796875,0.02978515625,0.60546875,4.94384765625,1.64794921875,0.48828125,3.922119140625,49.81201171875,-174.2486572265625
1760968002.7658699,-0.78466796875,0.02978515625,0.60546875,4.94384765625,1.64794921875,0.48828125,3.9715576171875,49.833984375,-174.2376708984375
1760968002.7766843,-0.76220703125,0.068359375,0.6474609375,6.16455078125,1.64794921875,0.48828125,4.0374755859375,49.85595703125,-174.2266845703125
1760968002.7858617,-0.76220703125,0.068359375,0.6474609375,6.16455078125,1.64794921875,0.48828125,4.1033935546875,49.8724365234375,-174.2156982421875
1760968002.7958753,-0.7236328125,0.041015625,0.705078125,7.080078125,2.0751953125,1.15966796875,4.185791015625,49.8944091796875,-174.1937255859375
1760968002.8062541,-0.7236328125,0.041015625,0.705078125,7.080078125,2.0751953125,1.15966796875,4.2681884765625,49.910888671875,-174.17724609375
1760968002.8161566,-0.71142578125,0.04541015625,0.74169921875,5.126953125,2.44140625,1.5869140625,4.3341064453125,49.932861328125,-174.1607666015625
1760968002.825803,-0.71142578125,0.04541015625,0.74169921875,5.126953125,2.44140625,1.5869140625,4.4000244140625,49.94384765625,-174.144287109375
1760968002.835819,-0.71728515625,0.0283203125,0.6708984375,12.20703125,1.708984375,1.5869140625,4.537353515625,49.954833984375,-174.13330078125
1760968002.8468518,-0.73583984375,0.046875,0.6279296875,10.1318359375,1.03759765625,1.5869140625,4.658203125,49.954833984375,-174.122314453125
1760968002.8558555,-0.73583984375,0.046875,0.6279296875,10.1318359375,1.03759765625,1.5869140625,4.7735595703125,49.954833984375,-174.111328125
1760968002.86585,-0.69384765625,0.08154296875,0.671875,-3.84521484375,1.28173828125,2.25830078125,4.8175048828125,49.954833984375,-174.0948486328125
1760968002.875859,-0.69384765625,0.08154296875,0.671875,-3.84521484375,1.28173828125,2.25830078125,4.801025390625,49.954833984375,-174.0728759765625
1760968002.8858755,-0.751953125,0.0986328125,0.76513671875,-12.39013671875,2.01416015625,2.44140625,4.74609375,49.954833984375,-174.0509033203125
1760968002.895897,-0.751953125,0.0986328125,0.76513671875,-12.39013671875,2.01416015625,2.44140625,4.6527099609375,49.9603271484375,-174.0234375
1760968002.905887,-0.74609375,0.0283203125,0.6123046875,-14.70947265625,2.44140625,2.74658203125,4.5538330078125,49.9658203125,-174.00146484375
1760968002.9161777,-0.74609375,0.0283203125,0.6123046875,-14.70947265625,2.44140625,2.74658203125,4.4384765625,49.9713134765625,-173.968505859375
1760968002.9259334,-0.763671875,0.0400390625,0.66748046875,-11.16943359375,2.0751953125,2.3193359375,4.3450927734375,49.976806640625,-173.9410400390625
1760968002.935924,-0.763671875,0.0400390625,0.66748046875,-11.16943359375,2.0751953125,2.3193359375,4.2626953125,49.98779296875,-173.9190673828125
1760968002.9459527,-0.76171875,0.0546875,0.65771484375,-9.82666015625,1.5869140625,1.89208984375,4.1802978515625,49.9932861328125,-173.8970947265625
1760968002.9559498,-0.76171875,0.0546875,0.65771484375,-9.82666015625,1.5869140625,1.89208984375,4.10888671875,49.9932861328125,-173.880615234375
1760968002.9659696,-0.7587890625,0.0673828125,0.62939453125,-9.3994140625,0.8544921875,1.28173828125,4.0374755859375,49.9932861328125,-173.8641357421875
1760968002.975976,-0.7587890625,0.0673828125,0.62939453125,-9.3994140625,0.8544921875,1.28173828125,3.9605712890625,49.9932861328125,-173.8531494140625
1760968002.9859736,-0.76025390625,0.05908203125,0.65283203125,-12.02392578125,0.30517578125,1.15966796875,3.8726806640625,49.98779296875,-173.8421630859375
1760968002.9959862,-0.76025390625,0.05908203125,0.65283203125,-12.02392578125,0.30517578125,1.15966796875,3.7738037109375,49.9822998046875,-173.82568359375
1760968003.006002,-0.765625,0.03857421875,0.64599609375,-10.6201171875,0.0,0.6103515625,3.6749267578125,49.976806640625,-173.8201904296875
1760968003.0162082,-0.765625,0.03857421875,0.64599609375,-10.6201171875,0.0,0.6103515625,3.58154296875,49.9713134765625,-173.814697265625
1760968003.0260267,-0.76416015625,0.0322265625,0.64453125,-6.77490234375,-0.3662109375,-0.06103515625,3.504638671875,49.9603271484375,-173.814697265625
1760968003.0360475,-0.76416015625,0.0322265625,0.64453125,-6.77490234375,-0.3662109375,-0.06103515625,3.438720703125,49.954833984375,-173.814697265625
1760968003.0460498,-0.765625,0.05224609375,0.66064453125,-8.36181640625,-0.6103515625,-0.18310546875,3.3673095703125,49.94384765625,-173.8201904296875
1760968003.056053,-0.765625,0.05224609375,0.66064453125,-8.36181640625,-0.6103515625,-0.18310546875,3.2904052734375,49.932861328125,-173.82568359375
1760968003.0660567,-0.7529296875,0.05126953125,0.64404296875,-10.8642578125,-0.42724609375,-0.244140625,3.197021484375,49.921875,-173.8311767578125
1760968003.076062,-0.7529296875,0.05126953125,0.64404296875,-10.8642578125,-0.42724609375,-0.244140625,3.0926513671875,49.910888671875,-173.836669921875
1760968003.0860784,-0.7607421875,0.0146484375,0.67529296875,-9.21630859375,-0.06103515625,-0.244140625,2.9937744140625,49.9053955078125,-173.8421630859375
1760968003.0960832,-0.7607421875,0.0146484375,0.67529296875,-9.21630859375,-0.06103515625,-0.244140625,2.9058837890625,49.89990234375,-173.84765625
1760968003.106101,-0.744140625,0.01513671875,0.6806640625,-7.2021484375,0.18310546875,-0.3662109375,2.823486328125,49.8944091796875,-173.8531494140625
1760968003.1163607,-0.744140625,0.01513671875,0.6806640625,-7.2021484375,0.18310546875,-0.3662109375,2.7520751953125,49.888916015625,-173.8641357421875
1760968003.126149,-0.74072265625,0.04052734375,0.67578125,-5.859375,0.18310546875,-0.67138671875,2.6861572265625,49.8834228515625,-173.8751220703125
1760968003.1361477,-0.74072265625,0.04052734375,0.67578125,-5.859375,0.18310546875,-0.67138671875,2.6202392578125,49.8779296875,-173.8916015625
1760968003.146177,-0.74951171875,0.0478515625,0.66064453125,-8.544921875,0.06103515625,-0.6103515625,2.548828125,49.8724365234375,-173.902587890625
1760968003.1561723,-0.74951171875,0.0478515625,0.66064453125,-8.544921875,0.06103515625,-0.6103515625,2.4609375,49.866943359375,-173.91357421875
1760968003.166222,-0.75048828125,0.021484375,0.6611328125,-8.97216796875,-0.06103515625,-0.54931640625,2.373046875,49.85595703125,-173.924560546875
1760968003.1762483,-0.75048828125,0.021484375,0.6611328125,-8.97216796875,-0.06103515625,-0.54931640625,2.2796630859375,49.8504638671875,-173.935546875
1760968003.1863046,-0.76220703125,0.01220703125,0.6591796875,-5.43212890625,-0.18310546875,-0.91552734375,2.208251953125,49.8394775390625,-173.9520263671875
1760968003.196265,-0.76220703125,0.01220703125,0.6591796875,-5.43212890625,-0.18310546875,-0.91552734375,2.1478271484375,49.833984375,-173.968505859375
1760968003.2063413,-0.76513671875,0.03125,0.63671875,-3.47900390625,-0.54931640625,-1.40380859375,2.0928955078125,49.822998046875,-173.990478515625
1760968003.2170696,-0.76513671875,0.03125,0.63671875,-3.47900390625,-0.54931640625,-1.40380859375,2.04345703125,49.81201171875,-174.012451171875
1760968003.2264223,-0.76953125,0.03271484375,0.634765625,-3.84521484375,-0.79345703125,-1.46484375,1.9940185546875,49.801025390625,-174.034423828125
1760968003.2363527,-0.76953125,0.03271484375,0.634765625,-3.84521484375,-0.79345703125,-1.46484375,1.944580078125,49.7900390625,-174.056396484375
1760968003.246317,-0.77734375,0.0322265625,0.6201171875,-5.9814453125,-0.9765625,-1.52587890625,1.8841552734375,49.779052734375,-174.0728759765625
1760968003.2563305,-0.77734375,0.0322265625,0.6201171875,-5.9814453125,-0.9765625,-1.52587890625,1.8072509765625,49.76806640625,-174.0948486328125
1760968003.2670527,-0.79638671875,0.01904296875,0.62548828125,-9.27734375,-1.03759765625,-1.46484375,1.7193603515625,49.757080078125,-174.111328125
1760968003.2763774,-0.79638671875,0.01904296875,0.62548828125,-9.27734375,-1.03759765625,-1.46484375,1.614990234375,49.74609375,-174.122314453125
1760968003.286472,-0.7685546875,0.00146484375,0.58154296875,-5.4931640625,-0.91552734375,-1.89208984375,1.527099609375,49.7406005859375,-174.1387939453125
1760968003.2967052,-0.7685546875,0.00146484375,0.58154296875,-5.4931640625,-0.91552734375,-1.89208984375,1.4556884765625,49.735107421875,-174.1552734375
1760968003.3064346,-0.78515625,-0.01318359375,0.69287109375,-1.220703125,-0.6103515625,-1.953125,1.40625,49.7296142578125,-174.1717529296875
1760968003.3165183,-0.78515625,-0.01318359375,0.69287109375,-1.220703125,-0.6103515625,-1.953125,1.373291015625,49.7296142578125,-174.1937255859375
1760968003.3265257,-0.74658203125,0.03125,0.62841796875,-2.44140625,-0.79345703125,-1.77001953125,1.3348388671875,49.72412109375,-174.2156982421875
1760968003.3365169,-0.74658203125,0.03125,0.62841796875,-2.44140625,-0.79345703125,-1.77001953125,1.2908935546875,49.7186279296875,-174.232177734375
1760968003.346619,-0.759765625,0.03564453125,0.6533203125,-5.4931640625,-0.54931640625,-1.28173828125,1.2359619140625,49.7186279296875,-174.2486572265625
1760968003.3567047,-0.759765625,0.03564453125,0.6533203125,-5.4931640625,-0.54931640625,-1.28173828125,1.1700439453125,49.713134765625,-174.254150390625
1760968003.3665936,-0.759765625,-0.00390625,0.65771484375,-7.32421875,-0.42724609375,-1.3427734375,1.0931396484375,49.713134765625,-174.26513671875
1760968003.376691,-0.759765625,-0.00390625,0.65771484375,-7.32421875,-0.42724609375,-1.3427734375,1.0107421875,49.7076416015625,-174.276123046875
1760968003.3865788,-0.76318359375,-0.01025390625,0.654296875,-4.150390625,-0.30517578125,-1.28173828125,0.9393310546875,49.7021484375,-174.287109375
1760968003.3967724,-0.76318359375,-0.01025390625,0.654296875,-4.150390625,-0.30517578125,-1.28173828125,0.8843994140625,49.7021484375,-174.3035888671875
1760968003.4065826,-0.7685546875,0.01123046875,0.63427734375,0.67138671875,-0.54931640625,-1.40380859375,0.85693359375,49.6966552734375,-174.320068359375
1760968003.418174,-0.7685546875,0.01123046875,0.63427734375,0.67138671875,-0.54931640625,-1.40380859375,0.845947265625,49.691162109375,-174.3310546875
1760968003.4267929,-0.76904296875,0.0078125,0.65869140625,0.67138671875,-0.42724609375,-1.40380859375,0.8404541015625,49.691162109375,-174.3475341796875
1760968003.437153,-0.76904296875,0.0078125,0.65869140625,0.67138671875,-0.42724609375,-1.40380859375,0.8294677734375,49.6856689453125,-174.364013671875
1760968003.4469748,-0.779296875,0.0068359375,0.6455078125,-3.35693359375,-0.06103515625,-1.03759765625,0.802001953125,49.6856689453125,-174.375
1760968003.457693,-0.779296875,0.0068359375,0.6455078125,-3.35693359375,-0.06103515625,-1.03759765625,0.758056640625,49.6856689453125,-174.385986328125
1760968003.466889,-0.79296875,0.02587890625,0.59765625,-3.47900390625,0.18310546875,-0.9765625,0.714111328125,49.6856689453125,-174.3914794921875
1760968003.477715,-0.79296875,0.02587890625,0.59765625,-3.47900390625,0.18310546875,-0.9765625,0.670166015625,49.691162109375,-174.39697265625
1760968003.4874074,-0.7919921875,-0.001953125,0.62548828125,-2.3193359375,0.0,-1.28173828125,0.6317138671875,49.7021484375,-174.4024658203125
1760968003.497331,-0.7919921875,-0.001953125,0.62548828125,-2.3193359375,0.0,-1.28173828125,0.59326171875,49.7076416015625,-174.407958984375
1760968003.5067046,-0.78125,-0.00341796875,0.634765625,-2.685546875,-0.244140625,-1.03759765625,0.560302734375,49.7076416015625,-174.4134521484375
1760968003.5190556,-0.78125,-0.00341796875,0.634765625,-2.685546875,-0.244140625,-1.03759765625,0.5218505859375,49.713134765625,-174.4134521484375
1760968003.5273676,-0.7734375,0.00732421875,0.6201171875,-2.0751953125,-0.3662109375,-1.03759765625,0.4833984375,49.7186279296875,-174.4189453125
1760968003.5374782,-0.7734375,0.00732421875,0.6201171875,-2.0751953125,-0.3662109375,-1.03759765625,0.4559326171875,49.7186279296875,-174.4189453125
1760968003.5468607,-0.7734375,0.00732421875,0.6201171875,-4.21142578125,0.1220703125,-0.732421875,0.4119873046875,49.72412109375,-174.4134521484375
1760968003.5576189,-0.79052734375,0.0048828125,0.6298828125,-4.21142578125,0.1220703125,-0.732421875,0.362548828125,49.735107421875,-174.4134521484375
1760968003.5667095,-0.78076171875,-0.00390625,0.65869140625,-4.33349609375,0.42724609375,-0.67138671875,0.3131103515625,49.74609375,-174.407958984375
1760968003.5777316,-0.78076171875,-0.00390625,0.65869140625,-4.33349609375,0.42724609375,-0.67138671875,0.263671875,49.757080078125,-174.4024658203125
1760968003.587889,-0.7744140625,0.00146484375,0.6279296875,-2.13623046875,0.54931640625,-0.79345703125,0.2252197265625,49.7625732421875,-174.39697265625
1760968003.597873,-0.7744140625,0.00146484375,0.6279296875,-2.13623046875,0.54931640625,-0.79345703125,0.19775390625,49.779052734375,-174.39697265625
1760968003.6068618,-0.77978515625,0.0,0.63037109375,-3.11279296875,0.42724609375,-0.48828125,0.164794921875,49.7900390625,-174.3914794921875
1760968003.6183848,-0.77978515625,0.0,0.63037109375,-3.11279296875,0.42724609375,-0.48828125,0.1263427734375,49.7955322265625,-174.385986328125
1760968003.6268456,-0.77490234375,0.00048828125,0.6328125,-2.44140625,0.244140625,-0.48828125,0.0933837890625,49.8065185546875,-174.3804931640625
1760968003.6374252,-0.77490234375,0.00048828125,0.6328125,-2.44140625,0.244140625,-0.48828125,0.06591796875,49.8175048828125,-174.3695068359375
1760968003.6620145,-0.77685546875,-0.00244140625,0.6455078125,-4.39453125,0.0,-0.30517578125,0.0274658203125,49.822998046875,-174.364013671875
1760968003.672083,-0.77685546875,-0.00244140625,0.6455078125,-4.39453125,0.0,-0.30517578125,-0.010986328125,49.8284912109375,-174.3585205078125
1760968003.679386,-0.77392578125,-0.00927734375,0.6376953125,-3.173828125,0.0,-0.42724609375,-0.054931640625,49.833984375,-174.35302734375
1760968003.6947749,-0.77392578125,-0.00927734375,0.6376953125,-3.173828125,0.0,-0.42724609375,-0.087890625,49.8394775390625,-174.3475341796875
1760968003.7030554,-0.79443359375,-0.00927734375,0.6318359375,-2.86865234375,0.244140625,-0.244140625,-0.1263427734375,49.844970703125,-174.342041015625
1760968003.7238483,-0.79443359375,-0.00927734375,0.6318359375,-2.86865234375,0.244140625,-0.244140625,-0.15380859375,49.85595703125,-174.3365478515625
1760968003.7362785,-0.79541015625,-0.00341796875,0.6201171875,-1.3427734375,0.42724609375,-0.3662109375,-0.1812744140625,49.8614501953125,-174.3255615234375
1760968003.7455373,-0.79541015625,-0.00341796875,0.6201171875,-1.3427734375,0.42724609375,-0.3662109375,-0.19775390625,49.8724365234375,-174.320068359375
1760968003.759612,-0.82861328125,-0.00244140625,0.59228515625,-1.953125,1.0986328125,-0.18310546875,-0.2197265625,49.888916015625,-174.3145751953125
1760968003.7666633,-0.82861328125,-0.00244140625,0.59228515625,-1.953125,1.0986328125,-0.18310546875,-0.24169921875,49.910888671875,-174.298095703125
1760968003.7761936,-0.82373046875,-0.0087890625,0.5634765625,-1.3427734375,1.28173828125,-0.18310546875,-0.2581787109375,49.932861328125,-174.287109375
1760968003.782387,-0.82373046875,-0.0087890625,0.5634765625,-1.3427734375,1.28173828125,-0.18310546875,-0.274658203125,49.9603271484375,-174.2706298828125
1760968003.7894456,-0.81103515625,-0.01708984375,0.60888671875,-0.79345703125,1.5869140625,-0.30517578125,-0.2911376953125,49.98779296875,-174.254150390625
1760968003.7959993,-0.81103515625,-0.01708984375,0.60888671875,-0.79345703125,1.5869140625,-0.30517578125,-0.3021240234375,50.020751953125,-174.2376708984375
1760968003.8022728,-0.7890625,-0.005859375,0.634765625,-0.54931640625,1.953125,-0.244140625,-0.3131103515625,50.0537109375,-174.22119140625
1760968003.808506,-0.7890625,-0.005859375,0.634765625,-0.54931640625,1.953125,-0.244140625,-0.3240966796875,50.086669921875,-174.2047119140625
1760968003.8156948,-0.7724609375,-0.00537109375,0.6357421875,0.18310546875,2.13623046875,-0.244140625,-0.3350830078125,50.11962890625,-174.188232421875
1760968003.8239913,-0.7724609375,-0.00537109375,0.6357421875,0.18310546875,2.13623046875,-0.244140625,-0.3350830078125,50.152587890625,-174.17724609375
1760968003.842367,-0.76708984375,-0.00341796875,0.6494140625,-0.3662109375,2.3193359375,-0.06103515625,-0.340576171875,50.185546875,-174.1607666015625
1760968003.8560681,-0.76708984375,-0.00341796875,0.6494140625,-0.3662109375,2.3193359375,-0.06103515625,-0.3460693359375,50.218505859375,-174.144287109375
1760968003.8653202,-0.76025390625,-0.00927734375,0.65576171875,-1.52587890625,2.44140625,0.1220703125,-0.362548828125,50.2459716796875,-174.13330078125
1760968003.8737483,-0.76025390625,-0.00927734375,0.65576171875,-1.52587890625,2.44140625,0.1220703125,-0.3790283203125,50.2789306640625,-174.1168212890625
1760968003.8807945,-0.7587890625,-0.0087890625,0.66552734375,-2.86865234375,2.62451171875,0.3662109375,-0.4010009765625,50.306396484375,-174.1058349609375
1760968003.894382,-0.7587890625,-0.0087890625,0.66552734375,-2.86865234375,2.62451171875,0.3662109375,-0.428466796875,50.33935546875,-174.0948486328125
1760968003.9006183,-0.7509765625,0.0,0.64794921875,-3.5400390625,2.685546875,0.244140625,-0.46142578125,50.3668212890625,-174.0838623046875
1760968003.906812,-0.7509765625,0.0,0.64794921875,-3.5400390625,2.685546875,0.244140625,-0.494384765625,50.394287109375,-174.078369140625
1760968003.9139159,-0.7451171875,-0.00341796875,0.66943359375,-2.62451171875,2.38037109375,-0.1220703125,-0.5218505859375,50.416259765625,-174.0728759765625
1760968003.9217176,-0.7451171875,-0.00341796875,0.66943359375,-2.62451171875,2.38037109375,-0.1220703125,-0.54931640625,50.438232421875,-174.0728759765625
1760968003.9282682,-0.73046875,-0.0048828125,0.642578125,-2.197265625,2.0751953125,-0.42724609375,-0.5767822265625,50.4547119140625,-174.078369140625
1760968003.9371743,-0.73046875,-0.0048828125,0.642578125,-2.197265625,2.0751953125,-0.42724609375,-0.604248046875,50.47119140625,-174.0838623046875
1760968003.9472556,-0.70556640625,-0.00634765625,0.73095703125,0.42724609375,0.91552734375,-0.9765625,-0.6097412109375,50.47119140625,-174.100341796875
1760968003.9572392,-0.70556640625,-0.00634765625,0.73095703125,0.42724609375,0.91552734375,-0.9765625,-0.615234375,50.47119140625,-174.122314453125
1760968003.9673252,-0.705078125,0.0048828125,0.72021484375,-2.62451171875,0.54931640625,-1.28173828125,-0.6591796875,50.4656982421875,-174.1552734375
1760968004.004176,-0.705078125,0.0048828125,0.72021484375,-2.62451171875,0.54931640625,-1.28173828125,-0.6976318359375,50.4547119140625,-174.1827392578125
1760968004.0439687,-0.7294921875,-0.01025390625,0.6484375,-2.25830078125,-0.06103515625,-1.28173828125,-0.7305908203125,50.438232421875,-174.2156982421875
1760968004.0500767,-0.7294921875,-0.01025390625,0.6484375,-2.25830078125,-0.06103515625,-1.28173828125,-0.76904296875,50.4217529296875,-174.2486572265625
1760968004.0570781,-0.72412109375,-0.013671875,0.68701171875,-0.48828125,-0.9765625,-1.52587890625,-0.791015625,50.3997802734375,-174.287109375
1760968004.0633037,-0.72412109375,-0.013671875,0.68701171875,-0.48828125,-0.9765625,-1.52587890625,-0.81298828125,50.372314453125,-174.3255615234375
1760968004.069872,-0.73681640625,-0.02294921875,0.66796875,1.708984375,-1.3427734375,-1.77001953125,-0.8184814453125,50.3448486328125,-174.364013671875
1760968004.0765564,-0.73681640625,-0.02294921875,0.66796875,1.708984375,-1.3427734375,-1.77001953125,-0.8184814453125,50.3118896484375,-174.407958984375
1760968004.083416,-0.75439453125,-0.01220703125,0.6533203125,1.46484375,-1.52587890625,-1.5869140625,-0.823974609375,50.284423828125,-174.4464111328125
1760968004.0916016,-0.75439453125,-0.01220703125,0.6533203125,1.46484375,-1.52587890625,-1.5869140625,-0.8294677734375,50.25146484375,-174.48486328125
1760968004.0977905,-0.7587890625,-0.00439453125,0.64794921875,-1.220703125,-1.28173828125,-1.5869140625,-0.8624267578125,50.2294921875,-174.5233154296875
1760968004.1051545,-0.7587890625,-0.00439453125,0.64794921875,-1.220703125,-1.28173828125,-1.5869140625,-0.889892578125,50.2020263671875,-174.5562744140625
1760968004.111731,-0.7705078125,-0.00390625,0.64990234375,-1.708984375,-1.220703125,-1.28173828125,-0.9228515625,50.1800537109375,-174.5892333984375
1760968004.1185224,-0.7705078125,-0.00390625,0.64990234375,-1.708984375,-1.220703125,-1.28173828125,-0.955810546875,50.1580810546875,-174.6112060546875
1760968004.1251514,-0.77587890625,-0.02001953125,0.6298828125,-1.0986328125,-1.28173828125,-1.03759765625,-0.977783203125,50.1361083984375,-174.6331787109375
1760968004.1312492,-0.77587890625,-0.02001953125,0.6298828125,-1.0986328125,-1.28173828125,-1.03759765625,-0.999755859375,50.1141357421875,-174.6551513671875
1760968004.138415,-0.79345703125,-0.02587890625,0.6201171875,-0.8544921875,-1.220703125,-0.9765625,-1.0162353515625,50.09765625,-174.671630859375
1760968004.145108,-0.79345703125,-0.02587890625,0.6201171875,-0.8544921875,-1.220703125,-0.9765625,-1.0382080078125,50.0811767578125,-174.6881103515625
1760968004.1518016,-0.8095703125,-0.0166015625,0.60693359375,-1.953125,-0.79345703125,-0.732421875,-1.065673828125,50.0701904296875,-174.693603515625
1760968004.1581538,-0.8095703125,-0.0166015625,0.60693359375,-1.953125,-0.79345703125,-0.732421875,-1.0986328125,50.064697265625,-174.70458984375
1760968004.167626,-0.796875,-0.00830078125,0.60205078125,-3.96728515625,-0.42724609375,-0.67138671875,-1.142578125,50.064697265625,-174.7100830078125
1760968004.179655,-0.796875,-0.00830078125,0.60205078125,-3.96728515625,-0.42724609375,-0.67138671875,-1.1920166015625,50.0592041015625,-174.7100830078125
1760968004.18893,-0.78564453125,-0.0068359375,0.64013671875,-1.52587890625,-0.54931640625,-1.220703125,-1.219482421875,50.0592041015625,-174.7210693359375
1760968004.2013934,-0.78564453125,-0.0068359375,0.64013671875,-1.52587890625,-0.54931640625,-1.220703125,-1.2469482421875,50.0592041015625,-174.7320556640625
1760968004.2085092,-0.779296875,-0.02197265625,0.619140625,-0.79345703125,-0.9765625,-1.708984375,-1.2744140625,50.0537109375,-174.74853515625
1760968004.219362,-0.779296875,-0.02197265625,0.619140625,-0.79345703125,-0.9765625,-1.708984375,-1.3018798828125,50.0482177734375,-174.7650146484375
1760968004.2284324,-0.77685546875,-0.0185546875,0.619140625,-0.30517578125,-1.64794921875,-1.64794921875,-1.3238525390625,50.0372314453125,-174.781494140625
1760968004.2382822,-0.77685546875,-0.0185546875,0.619140625,-0.30517578125,-1.64794921875,-1.64794921875,-1.351318359375,50.0262451171875,-174.7979736328125
1760968004.2475092,-0.7802734375,-0.013671875,0.654296875,1.708984375,-1.77001953125,-1.953125,-1.3568115234375,50.009765625,-174.814453125
1760968004.2577767,-0.7802734375,-0.013671875,0.654296875,1.708984375,-1.77001953125,-1.953125,-1.3623046875,49.998779296875,-174.83642578125
1760968004.2681434,-0.76416015625,-0.02392578125,0.64892578125,1.953125,-1.5869140625,-2.197265625,-1.3677978515625,49.98779296875,-174.8583984375
1760968004.279353,-0.76416015625,-0.02392578125,0.64892578125,1.953125,-1.5869140625,-2.197265625,-1.373291015625,49.9713134765625,-174.8858642578125
1760968004.2982774,-0.7587890625,-0.02685546875,0.6650390625,3.5400390625,-1.15966796875,-2.197265625,-1.3623046875,49.9658203125,-174.913330078125
1760968004.305372,-0.7587890625,-0.02685546875,0.6650390625,3.5400390625,-1.15966796875,-2.197265625,-1.3568115234375,49.954833984375,-174.9407958984375
1760968004.311804,-0.7744140625,-0.02880859375,0.6474609375,4.0283203125,-0.67138671875,-2.197265625,-1.3458251953125,49.9493408203125,-174.9737548828125
1760968004.318624,-0.7744140625,-0.02880859375,0.6474609375,4.0283203125,-0.67138671875,-2.197265625,-1.329345703125,49.94384765625,-175.001220703125
1760968004.3286004,-0.78369140625,-0.01123046875,0.6337890625,2.38037109375,-0.30517578125,-2.0751953125,-1.3348388671875,49.94384765625,-175.0286865234375
1760968004.3390753,-0.78369140625,-0.01123046875,0.6337890625,2.38037109375,-0.30517578125,-2.0751953125,-1.3348388671875,49.9383544921875,-175.0506591796875
1760968004.3503838,-0.78369140625,-0.01806640625,0.619140625,2.74658203125,-0.18310546875,-2.197265625,-1.34033203125,49.94384765625,-175.078125
1760968004.357833,-0.78369140625,-0.01806640625,0.619140625,2.74658203125,-0.18310546875,-2.197265625,-1.34033203125,49.94384765625,-175.1055908203125
1760968004.3683956,-0.7802734375,-0.01806640625,0.6376953125,3.35693359375,-0.18310546875,-2.25830078125,-1.3348388671875,49.94384765625,-175.133056640625
1760968004.3781362,-0.7802734375,-0.01806640625,0.6376953125,3.35693359375,-0.18310546875,-2.25830078125,-1.329345703125,49.94384765625,-175.1605224609375
1760968004.3886518,-0.78759765625,-0.02001953125,0.62890625,3.96728515625,-0.1220703125,-2.25830078125,-1.318359375,49.9493408203125,-175.18798828125
1760968004.401477,-0.78759765625,-0.02001953125,0.62890625,3.96728515625,-0.1220703125,-2.25830078125,-1.307373046875,49.9493408203125,-175.2154541015625
1760968004.4105153,-0.79150390625,-0.0107421875,0.61572265625,2.25830078125,0.18310546875,-2.13623046875,-1.3128662109375,49.9603271484375,-175.242919921875
1760968004.4301789,-0.79150390625,-0.0107421875,0.61572265625,2.25830078125,0.18310546875,-2.13623046875,-1.318359375,49.9658203125,-175.264892578125
1760968004.4519446,-0.7890625,-0.01904296875,0.6318359375,1.28173828125,0.3662109375,-2.197265625,-1.329345703125,49.976806640625,-175.286865234375
1760968004.4596667,-0.7890625,-0.01904296875,0.6318359375,1.28173828125,0.3662109375,-2.197265625,-1.3458251953125,49.98779296875,-175.3143310546875
1760968004.4703126,-0.7763671875,-0.03125,0.6298828125,0.48828125,0.30517578125,-1.708984375,-1.3623046875,49.9932861328125,-175.3253173828125
1760968004.480052,-0.7763671875,-0.03125,0.6298828125,0.48828125,0.30517578125,-1.708984375,-1.38427734375,50.0042724609375,-175.3472900390625
1760968004.4895723,-0.77783203125,-0.01904296875,0.62939453125,2.13623046875,0.244140625,-1.5869140625,-1.38427734375,50.009765625,-175.3582763671875
1760968004.4987998,-0.77783203125,-0.01904296875,0.62939453125,2.13623046875,0.244140625,-1.5869140625,-1.38427734375,50.020751953125,-175.374755859375
1760968004.5069077,-0.76708984375,-0.0244140625,0.63671875,2.685546875,0.0,-1.52587890625,-1.3787841796875,50.0262451171875,-175.3912353515625
1760968004.5152216,-0.76708984375,-0.0244140625,0.63671875,2.685546875,0.0,-1.52587890625,-1.373291015625,50.03173828125,-175.4022216796875
1760968004.524148,-0.763671875,-0.009765625,0.65087890625,1.89208984375,-0.1220703125,-1.46484375,-1.373291015625,50.03173828125,-175.418701171875
1760968004.5309987,-0.763671875,-0.009765625,0.65087890625,1.89208984375,-0.1220703125,-1.46484375,-1.373291015625,50.0372314453125,-175.4351806640625
1760968004.5379462,-0.76806640625,-0.01513671875,0.642578125,1.708984375,-0.244140625,-1.46484375,-1.373291015625,50.0372314453125,-175.45166015625
1760968004.5462759,-0.76806640625,-0.01513671875,0.642578125,1.708984375,-0.244140625,-1.46484375,-1.3787841796875,50.0372314453125,-175.4681396484375
1760968004.5531104,-0.76806640625,-0.01513671875,0.642578125,-0.30517578125,-0.1220703125,-1.28173828125,-1.395263671875,50.0372314453125,-175.484619140625
1760968004.5606782,-0.78515625,-0.02001953125,0.630859375,-0.30517578125,-0.1220703125,-1.28173828125,-1.417236328125,50.042724609375,-175.49560546875
1760968004.5685933,-0.7861328125,-0.02197265625,0.61572265625,0.30517578125,0.0,-1.3427734375,-1.4337158203125,50.042724609375,-175.5120849609375
1760968004.5791936,-0.7861328125,-0.02197265625,0.61572265625,0.30517578125,0.0,-1.3427734375,-1.4447021484375,50.0482177734375,-175.5230712890625
1760968004.5913963,-0.79541015625,-0.0185546875,0.63623046875,1.3427734375,0.06103515625,-1.40380859375,-1.4501953125,50.0537109375,-175.53955078125
1760968004.6085975,-0.79541015625,-0.0185546875,0.63623046875,1.3427734375,0.06103515625,-1.40380859375,-1.4556884765625,50.0592041015625,-175.550537109375
1760968004.6273582,-0.79296875,-0.0205078125,0.609375,1.77001953125,0.18310546875,-1.40380859375,-1.4556884765625,50.064697265625,-175.5670166015625
1760968004.6437917,-0.79296875,-0.0205078125,0.609375,1.77001953125,0.18310546875,-1.40380859375,-1.4556884765625,50.07568359375,-175.5780029296875
1760968004.650968,-0.79296875,-0.02490234375,0.61865234375,1.15966796875,0.30517578125,-1.3427734375,-1.4666748046875,50.086669921875,-175.5889892578125
1760968004.6593864,-0.79296875,-0.02490234375,0.61865234375,1.15966796875,0.30517578125,-1.3427734375,-1.47216796875,50.09765625,-175.594482421875
1760968004.6669528,-0.7822265625,-0.01416015625,0.62939453125,1.5869140625,0.48828125,-1.46484375,-1.4776611328125,50.108642578125,-175.60546875
1760968004.6835248,-0.7822265625,-0.01416015625,0.62939453125,1.5869140625,0.48828125,-1.46484375,-1.4776611328125,50.11962890625,-175.616455078125
1760968004.6913533,-0.7705078125,-0.01806640625,0.64306640625,1.0986328125,0.67138671875,-1.46484375,-1.4886474609375,50.130615234375,-175.6329345703125
1760968004.700154,-0.7705078125,-0.01806640625,0.64306640625,1.0986328125,0.67138671875,-1.46484375,-1.494140625,50.1470947265625,-175.6439208984375
1760968004.708373,-0.763671875,-0.02685546875,0.6494140625,1.0986328125,0.732421875,-1.220703125,-1.4996337890625,50.1580810546875,-175.6549072265625
1760968004.7183518,-0.763671875,-0.02685546875,0.6494140625,1.0986328125,0.732421875,-1.220703125,-1.505126953125,50.1690673828125,-175.67138671875
1760968004.7267947,-0.76025390625,-0.01904296875,0.66650390625,0.9765625,0.42724609375,-1.0986328125,-1.5106201171875,50.174560546875,-175.682373046875
1760968004.735208,-0.76025390625,-0.01904296875,0.66650390625,0.9765625,0.42724609375,-1.0986328125,-1.51611328125,50.1800537109375,-175.693359375
1760968004.7444067,-0.76806640625,-0.0205078125,0.64599609375,1.46484375,0.67138671875,-1.03759765625,-1.51611328125,50.1910400390625,-175.7098388671875
1760968004.7526026,-0.76806640625,-0.0205078125,0.64599609375,1.46484375,0.67138671875,-1.03759765625,-1.51611328125,50.196533203125,-175.7208251953125
1760968004.764354,-0.75341796875,-0.015625,0.63671875,0.54931640625,0.42724609375,-1.0986328125,-1.527099609375,50.2020263671875,-175.7373046875
1760968004.772264,-0.75341796875,-0.015625,0.63671875,0.54931640625,0.42724609375,-1.0986328125,-1.5380859375,50.20751953125,-175.7537841796875
1760968004.7793138,-0.771484375,-0.0166015625,0.677734375,0.3662109375,0.54931640625,-1.03759765625,-1.5435791015625,50.2130126953125,-175.7647705078125
1760968004.7885733,-0.771484375,-0.0166015625,0.677734375,0.3662109375,0.54931640625,-1.03759765625,-1.5545654296875,50.2130126953125,-175.78125
1760968004.7999032,-0.7783203125,-0.02197265625,0.62548828125,0.48828125,0.6103515625,-1.15966796875,-1.5655517578125,50.218505859375,-175.7977294921875
1760968004.8077545,-0.7919921875,-0.01611328125,0.61572265625,1.46484375,0.67138671875,-1.52587890625,-1.571044921875,50.2239990234375,-175.8197021484375
1760968004.8157976,-0.7919921875,-0.01611328125,0.61572265625,1.46484375,0.67138671875,-1.52587890625,-1.5765380859375,50.2349853515625,-175.8416748046875
1760968004.8246412,-0.78857421875,-0.01123046875,0.5966796875,1.15966796875,0.8544921875,-1.64794921875,-1.58203125,50.240478515625,-175.858154296875
1760968004.832269,-0.78857421875,-0.01123046875,0.5966796875,1.15966796875,0.8544921875,-1.64794921875,-1.593017578125,50.25146484375,-175.880126953125
1760968004.8395097,-0.75927734375,-0.01513671875,0.67724609375,0.9765625,0.30517578125,-1.77001953125,-1.60400390625,50.262451171875,-175.902099609375
1760968004.848671,-0.75927734375,-0.01513671875,0.67724609375,0.9765625,0.30517578125,-1.77001953125,-1.614990234375,50.2679443359375,-175.924072265625
1760968004.8609545,-0.7607421875,-0.0244140625,0.66552734375,-0.1220703125,0.79345703125,-1.77001953125,-1.6314697265625,50.2734375,-175.946044921875
1760968004.868684,-0.7607421875,-0.0244140625,0.66552734375,-0.1220703125,0.79345703125,-1.77001953125,-1.6534423828125,50.2789306640625,-175.9735107421875
1760968004.8797116,-0.76708984375,-0.02587890625,0.638671875,-0.18310546875,0.9765625,-1.77001953125,-1.6754150390625,50.284423828125,-176.0009765625
1760968004.8887956,-0.76708984375,-0.02587890625,0.638671875,-0.18310546875,0.9765625,-1.77001953125,-1.6973876953125,50.29541015625,-176.0284423828125
1760968004.901094,-0.76611328125,-0.015625,0.6474609375,0.8544921875,1.0986328125,-1.953125,-1.7193603515625,50.306396484375,-176.0614013671875
1760968004.908842,-0.76611328125,-0.015625,0.6474609375,0.8544921875,1.0986328125,-1.953125,-1.73583984375,50.3118896484375,-176.0888671875
1760968004.9215565,-0.75830078125,-0.02001953125,0.6513671875,0.8544921875,0.8544921875,-2.0751953125,-1.7523193359375,50.3228759765625,-176.121826171875
1760968004.92859,-0.75830078125,-0.02001953125,0.6513671875,0.8544921875,0.8544921875,-2.0751953125,-1.768798828125,50.328369140625,-176.15478515625
1760968004.940022,-0.75439453125,-0.02392578125,0.65966796875,0.67138671875,0.42724609375,-2.3193359375,-1.7852783203125,50.328369140625,-176.1932373046875
1760968004.949608,-0.75439453125,-0.02392578125,0.65966796875,0.67138671875,0.42724609375,-2.3193359375,-1.8072509765625,50.328369140625,-176.2261962890625
1760968004.9601934,-0.76611328125,-0.0263671875,0.6455078125,0.6103515625,0.30517578125,-2.38037109375,-1.8292236328125,50.328369140625,-176.2646484375
1760968004.9689014,-0.76611328125,-0.0263671875,0.6455078125,0.6103515625,0.30517578125,-2.38037109375,-1.8511962890625,50.328369140625,-176.30859375
1760968004.9796522,-0.76806640625,-0.0205078125,0.63427734375,0.8544921875,0.3662109375,-2.50244140625,-1.8731689453125,50.328369140625,-176.3470458984375
1760968004.9906988,-0.76806640625,-0.0205078125,0.63427734375,0.8544921875,0.3662109375,-2.50244140625,-1.8951416015625,50.328369140625,-176.3909912109375
1760968004.9999194,-0.763671875,-0.02880859375,0.65576171875,1.46484375,0.48828125,-2.74658203125,-1.9171142578125,50.328369140625,-176.429443359375
1760968005.0088234,-0.763671875,-0.02880859375,0.65576171875,1.46484375,0.48828125,-2.74658203125,-1.93359375,50.328369140625,-176.4788818359375
1760968005.0215645,-0.76025390625,-0.0205078125,0.65673828125,0.91552734375,0.6103515625,-2.50244140625,-1.95556640625,50.328369140625,-176.5228271484375
1760968005.031456,-0.76025390625,-0.0205078125,0.65673828125,0.91552734375,0.6103515625,-2.50244140625,-1.9775390625,50.328369140625,-176.561279296875
1760968005.0409892,-0.75439453125,-0.021484375,0.64501953125,0.244140625,0.42724609375,-2.5634765625,-1.99951171875,50.3338623046875,-176.605224609375
1760968005.0526178,-0.75439453125,-0.021484375,0.64501953125,0.244140625,0.42724609375,-2.5634765625,-2.0269775390625,50.328369140625,-176.649169921875
1760968005.0634496,-0.75439453125,-0.021484375,0.64501953125,0.732421875,0.244140625,-2.74658203125,-2.054443359375,50.328369140625,-176.6986083984375
1760968005.0737045,-0.75927734375,-0.0244140625,0.66357421875,0.732421875,0.244140625,-2.74658203125,-2.0819091796875,50.3228759765625,-176.7425537109375
1760968005.0845594,-0.751953125,-0.033203125,0.64892578125,2.0751953125,0.0,-2.86865234375,-2.098388671875,50.3228759765625,-176.7919921875
1760968005.092213,-0.751953125,-0.033203125,0.64892578125,2.0751953125,0.0,-2.86865234375,-2.1148681640625,50.3118896484375,-176.8414306640625
1760968005.1021926,-0.74951171875,-0.03173828125,0.6533203125,1.77001953125,-0.244140625,-2.86865234375,-2.13134765625,50.306396484375,-176.890869140625
1760968005.1089594,-0.74951171875,-0.03173828125,0.6533203125,1.77001953125,-0.244140625,-2.86865234375,-2.1478271484375,50.29541015625,-176.9403076171875
1760968005.1264768,-0.75048828125,-0.02880859375,0.66748046875,0.3662109375,-0.42724609375,-2.5634765625,-2.1697998046875,50.284423828125,-176.98974609375
1760968005.1347,-0.75048828125,-0.02880859375,0.66748046875,0.3662109375,-0.42724609375,-2.5634765625,-2.197265625,50.2734375,-177.0391845703125
1760968005.1431673,-0.7568359375,-0.029296875,0.65673828125,1.5869140625,-0.30517578125,-2.50244140625,-2.21923828125,50.262451171875,-177.088623046875
1760968005.1516078,-0.7568359375,-0.029296875,0.65673828125,1.5869140625,-0.30517578125,-2.50244140625,-2.230224609375,50.25146484375,-177.132568359375
1760968005.1637006,-0.765625,-0.037109375,0.6376953125,3.84521484375,-0.18310546875,-2.685546875,-2.2357177734375,50.240478515625,-177.1820068359375
1760968005.1715062,-0.765625,-0.037109375,0.6376953125,3.84521484375,-0.18310546875,-2.685546875,-2.230224609375,50.2349853515625,-177.2314453125
1760968005.1868007,-0.7724609375,-0.0263671875,0.6396484375,4.150390625,-0.244140625,-2.685546875,-2.2247314453125,50.2239990234375,-177.275390625
1760968005.1965468,-0.7724609375,-0.0263671875,0.6396484375,4.150390625,-0.244140625,-2.685546875,-2.21923828125,50.218505859375,-177.3248291015625
1760968005.214499,-0.7822265625,-0.01318359375,0.62060546875,3.2958984375,-0.1220703125,-2.5634765625,-2.2137451171875,50.20751953125,-177.3687744140625
1760968005.2249885,-0.7822265625,-0.01318359375,0.62060546875,3.2958984375,-0.1220703125,-2.5634765625,-2.2137451171875,50.20751953125,-177.4127197265625
1760968005.2343183,-0.78564453125,-0.0205078125,0.63330078125,1.77001953125,0.0,-2.5634765625,-2.21923828125,50.2020263671875,-177.451171875
1760968005.2422621,-0.78564453125,-0.0205078125,0.63330078125,1.77001953125,0.0,-2.5634765625,-2.230224609375,50.2020263671875,-177.4896240234375
1760968005.2505412,-0.79052734375,-0.0390625,0.62109375,2.197265625,0.244140625,-2.62451171875,-2.2412109375,50.2020263671875,-177.528076171875
1760968005.258719,-0.79052734375,-0.0390625,0.62109375,2.197265625,0.244140625,-2.62451171875,-2.252197265625,50.2020263671875,-177.5665283203125
1760968005.2705946,-0.791015625,-0.04541015625,0.6015625,3.72314453125,0.244140625,-2.685546875,-2.2576904296875,50.2020263671875,-177.6104736328125
1760968005.2784271,-0.791015625,-0.04541015625,0.6015625,3.72314453125,0.244140625,-2.685546875,-2.252197265625,50.20751953125,-177.64892578125
1760968005.2868335,-0.7861328125,-0.029296875,0.62548828125,4.45556640625,0.244140625,-2.62451171875,-2.2467041015625,50.2130126953125,-177.6873779296875
1760968005.293841,-0.7861328125,-0.029296875,0.62548828125,4.45556640625,0.244140625,-2.62451171875,-2.2412109375,50.218505859375,-177.725830078125
1760968005.301417,-0.7744140625,-0.02099609375,0.6474609375,3.90625,0.48828125,-2.197265625,-2.230224609375,50.2294921875,-177.7642822265625
1760968005.3094378,-0.7744140625,-0.02099609375,0.6474609375,3.90625,0.48828125,-2.197265625,-2.21923828125,50.2349853515625,-177.7972412109375
1760968005.3212101,-0.7685546875,-0.0302734375,0.650390625,2.8076171875,0.79345703125,-1.953125,-2.2137451171875,50.2459716796875,-177.82470703125
1760968005.3322747,-0.7685546875,-0.0302734375,0.650390625,2.8076171875,0.79345703125,-1.953125,-2.2137451171875,50.25146484375,-177.857666015625
1760968005.3411865,-0.76708984375,-0.033203125,0.65283203125,1.15966796875,1.0986328125,-1.5869140625,-2.2137451171875,50.262451171875,-177.8851318359375
1760968005.3560956,-0.76708984375,-0.033203125,0.65283203125,1.15966796875,1.0986328125,-1.5869140625,-2.2247314453125,50.2734375,-177.91259765625
1760968005.365613,-0.7685546875,-0.03076171875,0.6416015625,0.8544921875,1.46484375,-1.3427734375,-2.2357177734375,50.2899169921875,-177.9400634765625
1760968005.3789754,-0.7685546875,-0.03076171875,0.6416015625,0.8544921875,1.46484375,-1.3427734375,-2.2467041015625,50.3009033203125,-177.9620361328125
1760968005.3869624,-0.763671875,-0.0224609375,0.65087890625,0.54931640625,1.46484375,-0.91552734375,-2.2576904296875,50.3173828125,-177.9840087890625
1760968005.3980355,-0.763671875,-0.0224609375,0.65087890625,0.54931640625,1.46484375,-0.91552734375,-2.26318359375,50.328369140625,-178.00048828125
1760968005.4056702,-0.76513671875,-0.033203125,0.65576171875,0.30517578125,1.5869140625,-0.6103515625,-2.274169921875,50.3448486328125,-178.0169677734375
1760968005.416744,-0.76513671875,-0.033203125,0.65576171875,0.30517578125,1.5869140625,-0.6103515625,-2.2796630859375,50.361328125,-178.033447265625
1760968005.425042,-0.7626953125,-0.03369140625,0.64111328125,1.03759765625,1.77001953125,-0.3662109375,-2.2796630859375,50.372314453125,-178.04443359375
1760968005.4351287,-0.7626953125,-0.03369140625,0.64111328125,1.03759765625,1.77001953125,-0.3662109375,-2.2796630859375,50.3887939453125,-178.055419921875
1760968005.443194,-0.7646484375,-0.03125,0.65185546875,0.9765625,1.77001953125,-0.30517578125,-2.274169921875,50.4052734375,-178.0718994140625
1760968005.4520721,-0.7646484375,-0.03125,0.65185546875,0.9765625,1.77001953125,-0.30517578125,-2.274169921875,50.416259765625,-178.0828857421875
1760968005.4614558,-0.76025390625,-0.02685546875,0.65576171875,-0.1220703125,1.64794921875,-0.3662109375,-2.2796630859375,50.4327392578125,-178.0938720703125
1760968005.4705522,-0.76025390625,-0.02685546875,0.65576171875,-0.1220703125,1.64794921875,-0.3662109375,-2.28515625,50.4437255859375,-178.1048583984375
1760968005.485366,-0.76416015625,-0.00146484375,0.6279296875,0.79345703125,1.46484375,-0.18310546875,-2.2906494140625,50.4547119140625,-178.121337890625
1760968005.4956145,-0.76416015625,-0.00146484375,0.6279296875,0.79345703125,1.46484375,-0.18310546875,-2.28515625,50.4656982421875,-178.1268310546875
1760968005.5039868,-0.767578125,-0.0224609375,0.669921875,-0.18310546875,1.220703125,-0.732421875,-2.28515625,50.4766845703125,-178.1378173828125
1760968005.5147288,-0.767578125,-0.0224609375,0.669921875,-0.18310546875,1.220703125,-0.732421875,-2.296142578125,50.4876708984375,-178.154296875
1760968005.523438,-0.7646484375,-0.03759765625,0.6416015625,-2.5634765625,1.3427734375,-0.79345703125,-2.318115234375,50.4931640625,-178.1707763671875
1760968005.5315852,-0.7646484375,-0.03759765625,0.6416015625,-2.5634765625,1.3427734375,-0.79345703125,-2.3565673828125,50.504150390625,-178.1927490234375
1760968005.5409772,-0.76220703125,-0.015625,0.6396484375,0.6103515625,1.220703125,-0.9765625,-2.373046875,50.5096435546875,-178.209228515625
1760968005.5490656,-0.76220703125,-0.015625,0.6396484375,0.6103515625,1.220703125,-0.9765625,-2.384033203125,50.5206298828125,-178.231201171875
1760968005.5611577,-0.7734375,-0.021484375,0.65380859375,1.708984375,1.3427734375,-1.220703125,-2.384033203125,50.526123046875,-178.2586669921875
1760968005.569699,-0.7734375,-0.021484375,0.65380859375,1.708984375,1.3427734375,-1.220703125,-2.3785400390625,50.537109375,-178.2806396484375
1760968005.5795698,-0.77490234375,-0.0478515625,0.63818359375,2.13623046875,1.52587890625,-1.28173828125,-2.373046875,50.5426025390625,-178.30810546875
1760968005.5907166,-0.77490234375,-0.0478515625,0.63818359375,2.13623046875,1.52587890625,-1.28173828125,-2.3675537109375,50.5535888671875,-178.3355712890625
1760968005.6010613,-0.79052734375,-0.05322265625,0.6220703125,1.953125,1.89208984375,-1.40380859375,-2.3675537109375,50.570068359375,-178.363037109375
1760968005.6096416,-0.79052734375,-0.05322265625,0.6220703125,1.953125,1.89208984375,-1.40380859375,-2.3675537109375,50.5810546875,-178.3905029296875
1760968005.621577,-0.80078125,-0.0263671875,0.595703125,0.54931640625,1.953125,-1.77001953125,-2.3785400390625,50.60302734375,-178.41796875
1760968005.6291158,-0.80078125,-0.0263671875,0.595703125,0.54931640625,1.953125,-1.77001953125,-2.4005126953125,50.6195068359375,-178.450927734375
1760968005.6405756,-0.79931640625,-0.01123046875,0.59716796875,3.35693359375,1.5869140625,-2.01416015625,-2.406005859375,50.635986328125,-178.4783935546875
1760968005.6496375,-0.79931640625,-0.01123046875,0.59716796875,3.35693359375,1.5869140625,-2.01416015625,-2.4005126953125,50.657958984375,-178.5113525390625
1760968005.6655972,-0.80712890625,-0.0283203125,0.6171875,5.0048828125,1.15966796875,-1.89208984375,-2.384033203125,50.6744384765625,-178.538818359375
1760968005.679244,-0.80712890625,-0.0283203125,0.6171875,5.0048828125,1.15966796875,-1.89208984375,-2.3565673828125,50.6854248046875,-178.5662841796875
1760968005.685824,-0.80517578125,-0.0419921875,0.61669921875,1.89208984375,1.15966796875,-1.708984375,-2.35107421875,50.701904296875,-178.59375
1760968005.692975,-0.80517578125,-0.0419921875,0.61669921875,1.89208984375,1.15966796875,-1.708984375,-2.35107421875,50.7183837890625,-178.61572265625
1760968005.6991625,-0.8017578125,-0.0322265625,0.58740234375,2.685546875,1.52587890625,-1.953125,-2.3565673828125,50.7403564453125,-178.6431884765625
1760968005.7091055,-0.8017578125,-0.0322265625,0.58740234375,2.685546875,1.52587890625,-1.953125,-2.3565673828125,50.7623291015625,-178.670654296875
1760968005.7312584,-0.80126953125,-0.04052734375,0.6123046875,3.662109375,1.953125,-1.953125,-2.3565673828125,50.7843017578125,-178.6981201171875
1760968005.7385013,-0.80126953125,-0.04052734375,0.6123046875,3.662109375,1.953125,-1.953125,-2.3455810546875,50.811767578125,-178.7255859375
1760968005.745209,-0.79931640625,-0.02587890625,0.62548828125,4.08935546875,2.44140625,-1.64794921875,-2.3345947265625,50.8392333984375,-178.74755859375
1760968005.7518277,-0.79931640625,-0.02587890625,0.62548828125,4.08935546875,2.44140625,-1.64794921875,-2.318115234375,50.8721923828125,-178.7750244140625
1760968005.7594059,-0.796875,-0.02197265625,0.60791015625,2.44140625,2.62451171875,-1.0986328125,-2.30712890625,50.9051513671875,-178.7969970703125
1760968005.7830725,-0.796875,-0.02197265625,0.60791015625,2.44140625,2.62451171875,-1.0986328125,-2.3016357421875,50.9381103515625,-178.8079833984375
1760968005.7900217,-0.7900390625,-0.03564453125,0.62353515625,2.38037109375,2.74658203125,-0.67138671875,-2.2906494140625,50.9710693359375,-178.824462890625
1760968005.796262,-0.7900390625,-0.03564453125,0.62353515625,2.38037109375,2.74658203125,-0.67138671875,-2.2796630859375,51.0040283203125,-178.83544921875
1760968005.8036628,-0.78369140625,-0.04052734375,0.62890625,1.28173828125,2.8076171875,-0.42724609375,-2.274169921875,51.0369873046875,-178.8409423828125
1760968005.810221,-0.78369140625,-0.04052734375,0.62890625,1.28173828125,2.8076171875,-0.42724609375,-2.274169921875,51.075439453125,-178.8519287109375
1760968005.8192878,-0.783203125,-0.02001953125,0.615234375,0.8544921875,2.685546875,-0.18310546875,-2.274169921875,51.1029052734375,-178.857421875
1760968005.841648,-0.783203125,-0.02001953125,0.615234375,0.8544921875,2.685546875,-0.18310546875,-2.2686767578125,51.1358642578125,-178.8629150390625
1760968005.8533325,-0.787109375,-0.0283203125,0.626953125,2.5634765625,2.8076171875,0.0,-2.2467041015625,51.1688232421875,-178.8629150390625
1760968005.8598008,-0.787109375,-0.0283203125,0.626953125,2.5634765625,2.8076171875,0.0,-2.2247314453125,51.2017822265625,-178.868408203125
1760968005.8672297,-0.78564453125,-0.04736328125,0.62548828125,1.8310546875,2.685546875,0.67138671875,-2.208251953125,51.2347412109375,-178.857421875
1760968005.886374,-0.78564453125,-0.04736328125,0.62548828125,1.8310546875,2.685546875,0.67138671875,-2.186279296875,51.26220703125,-178.857421875
1760968005.895537,-0.77392578125,-0.03271484375,0.62646484375,1.15966796875,2.25830078125,1.15966796875,-2.164306640625,51.2896728515625,-178.8409423828125
1760968005.9045532,-0.77392578125,-0.03271484375,0.62646484375,1.15966796875,2.25830078125,1.15966796875,-2.1478271484375,51.3116455078125,-178.8299560546875
1760968005.9119723,-0.76025390625,-0.02197265625,0.6552734375,3.2958984375,1.8310546875,1.0986328125,-2.1038818359375,51.3336181640625,-178.8189697265625
1760968005.9205499,-0.76025390625,-0.02197265625,0.6552734375,3.2958984375,1.8310546875,1.0986328125,-2.0654296875,51.35009765625,-178.8079833984375
1760968005.9362214,-0.75927734375,-0.01220703125,0.6513671875,2.74658203125,1.708984375,0.9765625,-2.0269775390625,51.3665771484375,-178.802490234375
1760968005.9463737,-0.75927734375,-0.01220703125,0.6513671875,2.74658203125,1.708984375,0.9765625,-1.9940185546875,51.383056640625,-178.7969970703125
1760968005.9549499,-0.7578125,-0.01123046875,0.64501953125,3.0517578125,1.46484375,0.732421875,-1.95556640625,51.39404296875,-178.7969970703125
1760968005.9610314,-0.7578125,-0.01123046875,0.64501953125,3.0517578125,1.46484375,0.732421875,-1.9171142578125,51.3995361328125,-178.7969970703125
1760968005.9691675,-0.759765625,-0.0244140625,0.66259765625,2.8076171875,0.9765625,0.67138671875,-1.8841552734375,51.405029296875,-178.7969970703125
1760968005.9817705,-0.759765625,-0.0244140625,0.66259765625,2.8076171875,0.9765625,0.67138671875,-1.8511962890625,51.4105224609375,-178.7969970703125
1760968005.9891891,-0.76025390625,-0.01416015625,0.62451171875,3.11279296875,0.3662109375,0.42724609375,-1.8182373046875,51.405029296875,-178.802490234375
1760968005.9957013,-0.76025390625,-0.01416015625,0.62451171875,3.11279296875,0.3662109375,0.42724609375,-1.77978515625,51.405029296875,-178.8079833984375
1760968006.0023162,-0.76318359375,-0.02978515625,0.646484375,5.31005859375,-0.30517578125,0.18310546875,-1.7303466796875,51.39404296875,-178.8189697265625
1760968006.0099516,-0.76318359375,-0.02978515625,0.646484375,5.31005859375,-0.30517578125,0.18310546875,-1.6754150390625,51.383056640625,-178.8299560546875
1760968006.0198545,-0.76611328125,-0.0263671875,0.65185546875,3.84521484375,-0.67138671875,0.244140625,-1.636962890625,51.3720703125,-178.8409423828125
1760968006.0406735,-0.76611328125,-0.0263671875,0.65185546875,3.84521484375,-0.67138671875,0.244140625,-1.5985107421875,51.3555908203125,-178.8519287109375
1760968006.0481641,-0.767578125,-0.00244140625,0.62109375,5.2490234375,-1.03759765625,0.0,-1.549072265625,51.339111328125,-178.8629150390625
1760968006.0555305,-0.767578125,-0.00244140625,0.62109375,5.2490234375,-1.03759765625,0.0,-1.4996337890625,51.3226318359375,-178.8739013671875
1760968006.0645032,-0.767578125,-0.00244140625,0.62109375,5.4931640625,-1.40380859375,-0.1220703125,-1.4447021484375,51.3006591796875,-178.890380859375
1760968006.09025,-0.77294921875,-0.009765625,0.642578125,5.4931640625,-1.40380859375,-0.1220703125,-1.395263671875,51.2841796875,-178.9013671875
1760968006.0976026,-0.7763671875,-0.0234375,0.6376953125,5.06591796875,-1.3427734375,0.0,-1.3458251953125,51.26220703125,-178.912353515625
1760968006.1053064,-0.7763671875,-0.0234375,0.6376953125,5.06591796875,-1.3427734375,0.0,-1.29638671875,51.2457275390625,-178.92333984375
1760968006.1115646,-0.77734375,-0.0244140625,0.61669921875,3.7841796875,-1.52587890625,0.42724609375,-1.2579345703125,51.2237548828125,-178.9288330078125
1760968006.1180418,-0.77734375,-0.0244140625,0.61669921875,3.7841796875,-1.52587890625,0.42724609375,-1.219482421875,51.207275390625,-178.9288330078125
1760968006.1394289,-0.7822265625,-0.01953125,0.63720703125,3.11279296875,-1.8310546875,0.67138671875,-1.1810302734375,51.185302734375,-178.9288330078125
1760968006.1470625,-0.7822265625,-0.01953125,0.63720703125,3.11279296875,-1.8310546875,0.67138671875,-1.142578125,51.163330078125,-178.9288330078125
1760968006.1549609,-0.7744140625,-0.01123046875,0.6259765625,2.8076171875,-2.01416015625,0.91552734375,-1.109619140625,51.141357421875,-178.92333984375
1760968006.1640468,-0.7744140625,-0.01123046875,0.6259765625,2.8076171875,-2.01416015625,0.91552734375,-1.0711669921875,51.1138916015625,-178.9178466796875
1760968006.171797,-0.771484375,-0.01611328125,0.63623046875,1.953125,-2.0751953125,1.3427734375,-1.0382080078125,51.0919189453125,-178.9013671875
1760968006.1971612,-0.771484375,-0.01611328125,0.63623046875,1.953125,-2.0751953125,1.3427734375,-1.0052490234375,51.0699462890625,-178.890380859375
1760968006.2055147,-0.76708984375,-0.01220703125,0.6484375,0.42724609375,-2.13623046875,1.953125,-0.9832763671875,51.0479736328125,-178.868408203125
1760968006.213096,-0.76708984375,-0.01220703125,0.6484375,0.42724609375,-2.13623046875,1.953125,-0.955810546875,51.0205078125,-178.846435546875
1760968006.2213776,-0.7763671875,-0.01220703125,0.6337890625,1.0986328125,-2.13623046875,2.44140625,-0.9173583984375,50.99853515625,-178.8134765625
1760968006.236484,-0.7763671875,-0.01220703125,0.6337890625,1.0986328125,-2.13623046875,2.44140625,-0.87890625,50.9765625,-178.7860107421875
1760968006.2487097,-0.76611328125,-0.01123046875,0.6337890625,3.0517578125,-2.50244140625,2.685546875,-0.8184814453125,50.9490966796875,-178.7530517578125
1760968006.2563627,-0.76611328125,-0.01123046875,0.6337890625,3.0517578125,-2.50244140625,2.685546875,-0.758056640625,50.921630859375,-178.7200927734375
1760968006.263879,-0.7451171875,-0.01123046875,0.65869140625,4.21142578125,-2.62451171875,2.685546875,-0.6866455078125,50.8941650390625,-178.6871337890625
1760968006.2709365,-0.7451171875,-0.01123046875,0.65869140625,4.21142578125,-2.62451171875,2.685546875,-0.615234375,50.8612060546875,-178.6541748046875
1760968006.2774162,-0.74658203125,-0.01904296875,0.68310546875,4.8828125,-2.8076171875,2.685546875,-0.538330078125,50.8282470703125,-178.6212158203125
1760968006.28582,-0.74658203125,-0.01904296875,0.68310546875,4.8828125,-2.8076171875,2.685546875,-0.46142578125,50.7952880859375,-178.59375
1760968006.2994156,-0.75537109375,-0.01025390625,0.666015625,6.4697265625,-2.9296875,2.685546875,-0.3680419921875,50.7568359375,-178.5662841796875
1760968006.3090925,-0.75537109375,-0.01025390625,0.666015625,6.4697265625,-2.9296875,2.685546875,-0.2801513671875,50.723876953125,-178.538818359375
1760968006.3245444,-0.7958984375,0.0,0.62890625,6.89697265625,-2.5634765625,2.8076171875,-0.1812744140625,50.69091796875,-178.5113525390625
1760968006.3501866,-0.7958984375,0.0,0.62890625,6.89697265625,-2.5634765625,2.8076171875,-0.0823974609375,50.657958984375,-178.4783935546875
1760968006.3606436,-0.810546875,0.00439453125,0.56689453125,2.44140625,-2.62451171875,2.86865234375,-0.0274658203125,50.6304931640625,-178.4454345703125
1760968006.3684664,-0.810546875,0.00439453125,0.56689453125,2.44140625,-2.62451171875,2.86865234375,0.0164794921875,50.60302734375,-178.406982421875
1760968006.3753586,-0.828125,0.017578125,0.59521484375,-2.62451171875,-2.3193359375,3.0517578125,0.0274658203125,50.5865478515625,-178.3575439453125
1760968006.3826947,-0.828125,0.017578125,0.59521484375,-2.62451171875,-2.3193359375,3.0517578125,0.032958984375,50.5645751953125,-178.3135986328125
1760968006.389503,-0.82958984375,0.00830078125,0.58447265625,-2.685546875,-1.89208984375,3.35693359375,0.0439453125,50.5535888671875,-178.253173828125
1760968006.4041336,-0.82958984375,0.00830078125,0.58447265625,-2.685546875,-1.89208984375,3.35693359375,0.0604248046875,50.5426025390625,-178.1982421875
1760968006.4115958,-0.83251953125,-0.0068359375,0.5908203125,-3.35693359375,-1.708984375,3.41796875,0.06591796875,50.537109375,-178.1378173828125
1760968006.4195688,-0.83251953125,-0.0068359375,0.5908203125,-3.35693359375,-1.708984375,3.41796875,0.0714111328125,50.5316162109375,-178.0718994140625
1760968006.4276638,-0.82861328125,-0.0029296875,0.5654296875,-3.84521484375,-1.3427734375,3.47900390625,0.0714111328125,50.5316162109375,-178.0059814453125
1760968006.437584,-0.82861328125,-0.0029296875,0.5654296875,-3.84521484375,-1.3427734375,3.47900390625,0.0714111328125,50.537109375,-177.9345703125
1760968006.4523363,-0.82568359375,-0.005859375,0.59375,-3.662109375,-1.03759765625,3.72314453125,0.0823974609375,50.5426025390625,-177.8631591796875
1760968006.459935,-0.82568359375,-0.005859375,0.59375,-3.662109375,-1.03759765625,3.72314453125,0.087890625,50.548095703125,-177.791748046875
1760968006.4677205,-0.81787109375,-0.00341796875,0.59814453125,-3.23486328125,-0.6103515625,4.08935546875,0.098876953125,50.55908203125,-177.7093505859375
1760968006.476117,-0.81787109375,-0.00341796875,0.59814453125,-3.23486328125,-0.6103515625,4.08935546875,0.1153564453125,50.570068359375,-177.6324462890625
1760968006.4835937,-0.7998046875,-0.0029296875,0.603515625,-2.86865234375,-0.48828125,4.638671875,0.1373291015625,50.5810546875,-177.5390625
1760968006.4976864,-0.7998046875,-0.0029296875,0.603515625,-2.86865234375,-0.48828125,4.638671875,0.164794921875,50.592041015625,-177.451171875
1760968006.5051024,-0.78369140625,-0.00634765625,0.63916015625,-1.52587890625,-0.54931640625,5.31005859375,0.208740234375,50.60302734375,-177.3577880859375
1760968006.5119002,-0.78369140625,-0.00634765625,0.63916015625,-1.52587890625,-0.54931640625,5.31005859375,0.252685546875,50.6085205078125,-177.2589111328125
1760968006.5192184,-0.76904296875,0.0029296875,0.6376953125,-2.197265625,-0.732421875,5.7373046875,0.296630859375,50.614013671875,-177.1600341796875
1760968006.5269728,-0.76904296875,0.0029296875,0.6376953125,-2.197265625,-0.732421875,5.7373046875,0.340576171875,50.6195068359375,-177.0611572265625
1760968006.5388184,-0.771484375,0.00146484375,0.6435546875,-1.8310546875,-0.732421875,5.67626953125,0.3900146484375,50.6195068359375,-176.9677734375
1760968006.5460565,-0.771484375,0.00146484375,0.6435546875,-1.8310546875,-0.732421875,5.67626953125,0.439453125,50.6195068359375,-176.868896484375
1760968006.5534046,-0.77294921875,0.009765625,0.6416015625,-2.13623046875,-0.67138671875,5.55419921875,0.4779052734375,50.6195068359375,-176.7755126953125
1760968006.561487,-0.77294921875,0.009765625,0.6416015625,-2.13623046875,-0.67138671875,5.55419921875,0.5218505859375,50.6195068359375,-176.6876220703125
1760968006.5686133,-0.775390625,0.01220703125,0.64013671875,-2.25830078125,-0.6103515625,5.4931640625,0.5657958984375,50.6195068359375,-176.59423828125
1760968006.575795,-0.775390625,0.01220703125,0.64013671875,-2.25830078125,-0.6103515625,5.4931640625,0.604248046875,50.6195068359375,-176.50634765625
1760968006.590504,-0.77392578125,0.00927734375,0.642578125,-1.0986328125,-0.54931640625,5.55419921875,0.6591796875,50.6195068359375,-176.4129638671875
1760968006.5981321,-0.77392578125,0.00927734375,0.642578125,-1.0986328125,-0.54931640625,5.55419921875,0.714111328125,50.614013671875,-176.3250732421875
1760968006.6068878,-0.7724609375,0.00830078125,0.64697265625,-0.244140625,-0.54931640625,5.615234375,0.780029296875,50.614013671875,-176.2371826171875
1760968006.613919,-0.7724609375,0.00830078125,0.64697265625,-0.244140625,-0.54931640625,5.615234375,0.8404541015625,50.6085205078125,-176.1492919921875
1760968006.6220684,-0.77001953125,0.01416015625,0.63916015625,-2.25830078125,-0.42724609375,5.79833984375,0.889892578125,50.60302734375,-176.055908203125
1760968006.6364522,-0.77001953125,0.01416015625,0.63916015625,-2.25830078125,-0.42724609375,5.79833984375,0.933837890625,50.60302734375,-175.968017578125
1760968006.6444185,-0.77001953125,0.013671875,0.64111328125,-3.96728515625,-0.18310546875,5.859375,0.9613037109375,50.60302734375,-175.8746337890625
1760968006.6511362,-0.77001953125,0.013671875,0.64111328125,-3.96728515625,-0.18310546875,5.859375,0.9942626953125,50.5975341796875,-175.78125
1760968006.6605027,-0.771484375,0.00341796875,0.6435546875,-2.62451171875,-0.1220703125,5.9814453125,1.0382080078125,50.5975341796875,-175.693359375
1760968006.6697638,-0.771484375,0.00341796875,0.6435546875,-2.62451171875,-0.1220703125,5.9814453125,1.0821533203125,50.5975341796875,-175.5999755859375
1760968006.6835613,-0.77197265625,0.00830078125,0.638671875,-2.8076171875,-0.3662109375,6.4697265625,1.1260986328125,50.592041015625,-175.5010986328125
1760968006.6902008,-0.77197265625,0.00830078125,0.638671875,-2.8076171875,-0.3662109375,6.4697265625,1.175537109375,50.5865478515625,-175.4022216796875
1760968006.7000682,-0.77197265625,0.01611328125,0.6435546875,-3.90625,-0.6103515625,6.9580078125,1.219482421875,50.5810546875,-175.2978515625
1760968006.720431,-0.77197265625,0.01611328125,0.6435546875,-3.90625,-0.6103515625,6.9580078125,1.263427734375,50.570068359375,-175.1934814453125
1760968006.7311387,-0.77685546875,0.01611328125,0.63330078125,-5.7373046875,-0.6103515625,7.26318359375,1.2908935546875,50.5645751953125,-175.078125
1760968006.7406712,-0.77685546875,0.01611328125,0.63330078125,-5.7373046875,-0.6103515625,7.26318359375,1.318359375,50.5535888671875,-174.96826171875
1760968006.7483904,-0.78271484375,0.015625,0.6240234375,-6.34765625,-0.42724609375,7.32421875,1.34033203125,50.548095703125,-174.8529052734375
1760968006.7564049,-0.78271484375,0.015625,0.6240234375,-6.34765625,-0.42724609375,7.32421875,1.3623046875,50.5426025390625,-174.7430419921875
1760968006.7742739,-0.7822265625,0.00927734375,0.634765625,-4.21142578125,-0.42724609375,7.26318359375,1.40625,50.537109375,-174.627685546875
1760968006.7813575,-0.7822265625,0.00927734375,0.634765625,-4.21142578125,-0.42724609375,7.26318359375,1.4501953125,50.537109375,-174.5123291015625
1760968006.789186,-0.775390625,0.0146484375,0.6357421875,-2.25830078125,-0.48828125,7.26318359375,1.5106201171875,50.5316162109375,-174.4024658203125
1760968006.7967477,-0.775390625,0.0146484375,0.6357421875,-2.25830078125,-0.48828125,7.26318359375,1.5765380859375,50.526123046875,-174.287109375
1760968006.818013,-0.77001953125,0.025390625,0.64111328125,-2.38037109375,-0.54931640625,7.38525390625,1.636962890625,50.51513671875,-174.1717529296875
1760968006.8248825,-0.77001953125,0.025390625,0.64111328125,-2.38037109375,-0.54931640625,7.38525390625,1.702880859375,50.5096435546875,-174.056396484375
1760968006.8315206,-0.76708984375,0.02490234375,0.64501953125,-3.2958984375,-0.6103515625,7.4462890625,1.7578125,50.504150390625,-173.9410400390625
1760968006.8400729,-0.765625,0.01123046875,0.650390625,-3.0517578125,-0.48828125,7.4462890625,1.812744140625,50.4931640625,-173.82568359375
1760968006.8539789,-0.765625,0.01123046875,0.650390625,-3.0517578125,-0.48828125,7.4462890625,1.86767578125,50.4876708984375,-173.7158203125
1760968006.86525,-0.767578125,0.0283203125,0.64013671875,-2.9296875,-0.42724609375,7.4462890625,1.922607421875,50.482177734375,-173.6004638671875
1760968006.8764286,-0.767578125,0.0283203125,0.64013671875,-2.9296875,-0.42724609375,7.4462890625,1.9830322265625,50.47119140625,-173.485107421875
1760968006.8898335,-0.76806640625,0.0263671875,0.6494140625,-3.5400390625,-0.48828125,7.6904296875,2.0379638671875,50.4656982421875,-173.3697509765625
1760968006.8995335,-0.76806640625,0.0263671875,0.6494140625,-3.5400390625,-0.48828125,7.6904296875,2.0928955078125,50.4547119140625,-173.25439453125
1760968006.913104,-0.76220703125,0.0244140625,0.6484375,-6.103515625,-0.6103515625,8.11767578125,2.1368408203125,50.4437255859375,-173.133544921875
1760968006.9242709,-0.76220703125,0.0244140625,0.6484375,-6.103515625,-0.6103515625,8.11767578125,2.17529296875,50.4327392578125,-173.0072021484375
1760968006.9349468,-0.76025390625,0.0244140625,0.6455078125,-6.103515625,-0.8544921875,8.11767578125,2.208251953125,50.4217529296875,-172.8863525390625
1760968006.9483576,-0.76025390625,0.0244140625,0.6455078125,-6.103515625,-0.8544921875,8.11767578125,2.2412109375,50.4107666015625,-172.760009765625
1760968006.9571362,-0.7578125,0.021484375,0.65478515625,-5.06591796875,-0.91552734375,8.056640625,2.2796630859375,50.394287109375,-172.63916015625
1760968006.967701,-0.7578125,0.021484375,0.65478515625,-5.06591796875,-0.91552734375,8.056640625,2.3236083984375,50.3778076171875,-172.518310546875
1760968006.9772615,-0.75830078125,0.02490234375,0.6611328125,-4.0283203125,-0.732421875,7.9345703125,2.373046875,50.3668212890625,-172.3974609375
1760968006.988291,-0.75830078125,0.02490234375,0.6611328125,-4.0283203125,-0.732421875,7.9345703125,2.4224853515625,50.350341796875,-172.2821044921875
1760968006.9985034,-0.75732421875,0.04150390625,0.64697265625,-2.62451171875,-0.8544921875,7.50732421875,2.4774169921875,50.3338623046875,-172.166748046875
1760968007.0063217,-0.75732421875,0.04150390625,0.64697265625,-2.62451171875,-0.8544921875,7.50732421875,2.537841796875,50.3173828125,-172.056884765625
1760968007.0238342,-0.75732421875,0.03515625,0.6611328125,-3.173828125,-1.220703125,7.14111328125,2.5982666015625,50.3009033203125,-171.947021484375
1760968007.030424,-0.75732421875,0.03515625,0.6611328125,-3.173828125,-1.220703125,7.14111328125,2.647705078125,50.2789306640625,-171.8426513671875
1760968007.0379198,-0.7529296875,0.0341796875,0.64990234375,-4.5166015625,-1.5869140625,6.77490234375,2.691650390625,50.2569580078125,-171.73828125
1760968007.045768,-0.7529296875,0.0341796875,0.64990234375,-4.5166015625,-1.5869140625,6.77490234375,2.724609375,50.2349853515625,-171.639404296875
1760968007.0532634,-0.75,0.037109375,0.654296875,-3.173828125,-1.89208984375,6.103515625,2.7630615234375,50.20751953125,-171.5460205078125
1760968007.061944,-0.75,0.037109375,0.654296875,-3.173828125,-1.89208984375,6.103515625,2.801513671875,50.185546875,-171.45263671875
1760968007.069005,-0.74853515625,0.03857421875,0.6806640625,-2.5634765625,-1.953125,5.79833984375,2.8399658203125,50.1580810546875,-171.36474609375
1760968007.0752733,-0.74853515625,0.03857421875,0.6806640625,-2.5634765625,-1.953125,5.79833984375,2.8839111328125,50.1251220703125,-171.2823486328125
1760968007.083005,-0.736328125,0.04345703125,0.66748046875,-2.86865234375,-2.0751953125,5.43212890625,2.92236328125,50.09765625,-171.2054443359375
1760968007.0906243,-0.736328125,0.04345703125,0.66748046875,-2.86865234375,-2.0751953125,5.43212890625,2.955322265625,50.064697265625,-171.1285400390625
1760968007.0982633,-0.73583984375,0.04150390625,0.6767578125,-3.662109375,-2.5634765625,5.0048828125,2.9827880859375,50.03173828125,-171.0516357421875
1760968007.1072862,-0.73583984375,0.04150390625,0.6767578125,-3.662109375,-2.5634765625,5.0048828125,3.0047607421875,49.998779296875,-170.980224609375
1760968007.1149666,-0.75244140625,0.04052734375,0.6533203125,-4.08935546875,-2.9296875,4.57763671875,3.021240234375,49.9603271484375,-170.914306640625
1760968007.125398,-0.75244140625,0.04052734375,0.6533203125,-4.08935546875,-2.9296875,4.57763671875,3.0322265625,49.9163818359375,-170.8538818359375
1760968007.1339417,-0.7431640625,0.0439453125,0.66796875,-1.64794921875,-3.41796875,4.2724609375,3.05419921875,49.8779296875,-170.79345703125
1760968007.1409168,-0.7431640625,0.0439453125,0.66796875,-1.64794921875,-3.41796875,4.2724609375,3.087158203125,49.833984375,-170.7330322265625
1760968007.1601677,-0.7392578125,0.03564453125,0.673828125,-3.173828125,-2.99072265625,4.5166015625,3.1146240234375,49.7900390625,-170.672607421875
1760968007.167733,-0.7392578125,0.03564453125,0.673828125,-3.173828125,-2.99072265625,4.5166015625,3.1365966796875,49.74609375,-170.6121826171875
1760968007.1752942,-0.7314453125,0.0302734375,0.68701171875,-3.35693359375,-2.86865234375,4.82177734375,3.153076171875,49.7076416015625,-170.5462646484375
1760968007.1933565,-0.7314453125,0.0302734375,0.68701171875,-3.35693359375,-2.86865234375,4.82177734375,3.175048828125,49.669189453125,-170.4803466796875
1760968007.20542,-0.72509765625,0.033203125,0.7080078125,-1.89208984375,-2.8076171875,4.8828125,3.2025146484375,49.625244140625,-170.4144287109375
1760968007.2143073,-0.72509765625,0.033203125,0.7080078125,-1.89208984375,-2.8076171875,4.8828125,3.240966796875,49.5867919921875,-170.35400390625
1760968007.2219632,-0.7294921875,0.0498046875,0.66845703125,-1.52587890625,-2.86865234375,4.69970703125,3.27392578125,49.5428466796875,-170.2880859375
1760968007.2322385,-0.7294921875,0.0498046875,0.66845703125,-1.52587890625,-2.86865234375,4.69970703125,3.3123779296875,49.4989013671875,-170.2276611328125
1760968007.2397568,-0.72900390625,0.05029296875,0.671875,-0.91552734375,-3.0517578125,4.150390625,3.3453369140625,49.4549560546875,-170.1727294921875
1760968007.258719,-0.72900390625,0.05029296875,0.671875,-0.91552734375,-3.0517578125,4.150390625,3.3837890625,49.4110107421875,-170.1177978515625
1760968007.26704,-0.74560546875,0.03955078125,0.68701171875,-2.74658203125,-3.0517578125,3.72314453125,3.4112548828125,49.3670654296875,-170.068359375
1760968007.279266,-0.74560546875,0.03955078125,0.68701171875,-2.74658203125,-3.0517578125,3.72314453125,3.4222412109375,49.3231201171875,-170.0189208984375
1760968007.287129,-0.74951171875,0.0517578125,0.65234375,-1.77001953125,-2.99072265625,3.47900390625,3.438720703125,49.2791748046875,-169.969482421875
1760968007.2990308,-0.74951171875,0.0517578125,0.65234375,-1.77001953125,-2.99072265625,3.47900390625,3.460693359375,49.24072265625,-169.925537109375
1760968007.307462,-0.74951171875,0.0517578125,0.65234375,-0.3662109375,-2.86865234375,2.99072265625,3.4881591796875,49.19677734375,-169.881591796875
1760968007.324359,-0.75,0.056640625,0.658203125,-0.3662109375,-2.86865234375,2.99072265625,3.515625,49.1583251953125,-169.837646484375
1760968007.3351588,-0.7568359375,0.0576171875,0.66015625,-2.3193359375,-2.685546875,2.62451171875,3.53759765625,49.1253662109375,-169.793701171875
1760968007.3419096,-0.7568359375,0.0576171875,0.66015625,-2.3193359375,-2.685546875,2.62451171875,3.5430908203125,49.0869140625,-169.7552490234375
1760968007.3492968,-0.7705078125,0.05322265625,0.6484375,-4.8828125,-2.44140625,2.50244140625,3.53759765625,49.053955078125,-169.7113037109375
1760968007.366359,-0.7705078125,0.05322265625,0.6484375,-4.8828125,-2.44140625,2.50244140625,3.5211181640625,49.0264892578125,-169.6728515625
1760968007.3766077,-0.740234375,0.0341796875,0.66943359375,-1.220703125,-2.5634765625,1.64794921875,3.515625,48.9935302734375,-169.6343994140625
1760968007.3850427,-0.740234375,0.0341796875,0.66943359375,-1.220703125,-2.5634765625,1.64794921875,3.526611328125,48.966064453125,-169.60693359375
1760968007.3923693,-0.748046875,0.0302734375,0.6611328125,-1.77001953125,-1.89208984375,1.708984375,3.5321044921875,48.9385986328125,-169.5794677734375
1760968007.4043076,-0.748046875,0.0302734375,0.6611328125,-1.77001953125,-1.89208984375,1.708984375,3.5321044921875,48.9111328125,-169.5465087890625
1760968007.421262,-0.73779296875,0.06689453125,0.6572265625,-1.5869140625,-2.01416015625,1.3427734375,3.5321044921875,48.88916015625,-169.51904296875
1760968007.4305205,-0.73779296875,0.06689453125,0.6572265625,-1.5869140625,-2.01416015625,1.3427734375,3.5321044921875,48.8671875,-169.4970703125
1760968007.4399638,-0.7373046875,0.05615234375,0.681640625,-6.89697265625,-2.197265625,1.40380859375,3.5101318359375,48.8397216796875,-169.4696044921875
1760968007.4467752,-0.7373046875,0.05615234375,0.681640625,-6.89697265625,-2.197265625,1.40380859375,3.460693359375,48.812255859375,-169.442138671875
1760968007.4558609,-0.74462890625,0.056640625,0.66064453125,-8.4228515625,-2.44140625,1.64794921875,3.4002685546875,48.7847900390625,-169.4146728515625
1760968007.4658716,-0.74462890625,0.056640625,0.66064453125,-8.4228515625,-2.44140625,1.64794921875,3.33984375,48.75732421875,-169.3817138671875
1760968007.4861333,-0.7587890625,0.01904296875,0.64208984375,-4.0283203125,-2.8076171875,1.46484375,3.3013916015625,48.724365234375,-169.354248046875
1760968007.493193,-0.7587890625,0.01904296875,0.64208984375,-4.0283203125,-2.8076171875,1.46484375,3.2794189453125,48.69140625,-169.3267822265625
1760968007.5102575,-0.7578125,0.029296875,0.68310546875,-2.50244140625,-2.74658203125,1.15966796875,3.262939453125,48.6639404296875,-169.29931640625
1760968007.535073,-0.7578125,0.029296875,0.68310546875,-2.50244140625,-2.74658203125,1.15966796875,3.251953125,48.636474609375,-169.2718505859375
1760968007.5419238,-0.7587890625,0.041015625,0.6416015625,-1.40380859375,-2.62451171875,0.9765625,3.2464599609375,48.603515625,-169.2498779296875
1760968007.5494297,-0.7587890625,0.041015625,0.6416015625,-1.40380859375,-2.62451171875,0.9765625,3.240966796875,48.5760498046875,-169.2279052734375
1760968007.560416,-0.76171875,0.0546875,0.646484375,-5.2490234375,-2.86865234375,0.9765625,3.218994140625,48.548583984375,-169.2059326171875
1760968007.56831,-0.76171875,0.0546875,0.646484375,-5.2490234375,-2.86865234375,0.9765625,3.1805419921875,48.5211181640625,-169.1839599609375
1760968007.5776308,-0.7568359375,0.0517578125,0.66552734375,-6.77490234375,-2.86865234375,0.6103515625,3.131103515625,48.49365234375,-169.156494140625
1760968007.586283,-0.7568359375,0.0517578125,0.66552734375,-6.77490234375,-2.86865234375,0.6103515625,3.076171875,48.4661865234375,-169.1400146484375
1760968007.5972457,-0.751953125,0.01806640625,0.62744140625,-3.11279296875,-2.86865234375,0.0,3.0322265625,48.438720703125,-169.12353515625
1760968007.605456,-0.751953125,0.01806640625,0.62744140625,-3.11279296875,-2.86865234375,0.0,3.0047607421875,48.416748046875,-169.1070556640625
1760968007.6139219,-0.7626953125,0.029296875,0.70458984375,-0.42724609375,-2.86865234375,0.30517578125,2.98828125,48.3892822265625,-169.0960693359375
1760968007.6222107,-0.7626953125,0.029296875,0.70458984375,-0.42724609375,-2.86865234375,0.30517578125,2.98828125,48.36181640625,-169.07958984375
1760968007.631867,-0.76171875,0.06396484375,0.64794921875,-3.35693359375,-2.50244140625,0.0,2.9718017578125,48.33984375,-169.0631103515625
1760968007.6405017,-0.76171875,0.06396484375,0.64794921875,-3.35693359375,-2.50244140625,0.0,2.9388427734375,48.31787109375,-169.046630859375
1760968007.6519887,-0.77197265625,0.05078125,0.62890625,-6.77490234375,-2.3193359375,0.1220703125,2.8948974609375,48.2958984375,-169.0301513671875
1760968007.6598094,-0.77197265625,0.05078125,0.62890625,-6.77490234375,-2.3193359375,0.1220703125,2.83447265625,48.2794189453125,-169.013671875
1760968007.6704402,-0.77880859375,0.013671875,0.658203125,-5.43212890625,-2.197265625,0.0,2.7740478515625,48.262939453125,-168.99169921875
1760968007.678354,-0.77880859375,0.013671875,0.658203125,-5.43212890625,-2.197265625,0.0,2.724609375,48.2464599609375,-168.9697265625
1760968007.6853337,-0.7939453125,0.02099609375,0.650390625,-2.685546875,-1.77001953125,0.0,2.6861572265625,48.22998046875,-168.9532470703125
1760968007.69245,-0.7939453125,0.02099609375,0.650390625,-2.685546875,-1.77001953125,0.0,2.6641845703125,48.218994140625,-168.9312744140625
1760968007.7001212,-0.7890625,0.0302734375,0.58740234375,-0.6103515625,-1.64794921875,-0.732421875,2.6422119140625,48.2135009765625,-168.9202880859375
1760968007.7085922,-0.7890625,0.0302734375,0.58740234375,-0.6103515625,-1.64794921875,-0.732421875,2.6312255859375,48.2080078125,-168.90380859375
1760968007.7191327,-0.76025390625,0.03173828125,0.6630859375,-0.9765625,-1.89208984375,-1.0986328125,2.61474609375,48.2025146484375,-168.892822265625
1760968007.726204,-0.76025390625,0.03173828125,0.6630859375,-0.9765625,-1.89208984375,-1.0986328125,2.5927734375,48.197021484375,-168.8873291015625
1760968007.7332082,-0.7607421875,0.03466796875,0.677734375,-0.79345703125,-1.708984375,-1.220703125,2.57080078125,48.18603515625,-168.8818359375
1760968007.7392755,-0.7607421875,0.03466796875,0.677734375,-0.79345703125,-1.708984375,-1.220703125,2.548828125,48.1805419921875,-168.8818359375
1760968007.7459123,-0.7578125,0.029296875,0.62548828125,0.3662109375,-2.01416015625,-1.40380859375,2.537841796875,48.175048828125,-168.8818359375
1760968007.7558582,-0.7578125,0.029296875,0.62548828125,0.3662109375,-2.01416015625,-1.40380859375,2.52685546875,48.1640625,-168.8818359375
1760968007.7645614,-0.75146484375,0.0234375,0.67529296875,-0.8544921875,-1.708984375,-1.28173828125,2.5103759765625,48.153076171875,-168.8818359375
1760968007.7727838,-0.75146484375,0.0234375,0.67529296875,-0.8544921875,-1.708984375,-1.28173828125,2.4884033203125,48.1475830078125,-168.8818359375
1760968007.7792506,-0.7373046875,0.01806640625,0.6767578125,-0.18310546875,-1.52587890625,-0.9765625,2.4664306640625,48.1365966796875,-168.8818359375
1760968007.78661,-0.7373046875,0.01806640625,0.6767578125,-0.18310546875,-1.52587890625,-0.9765625,2.4554443359375,48.131103515625,-168.8818359375
1760968007.7938335,-0.73291015625,0.0166015625,0.67626953125,1.0986328125,-1.52587890625,-0.79345703125,2.449951171875,48.1201171875,-168.8818359375
1760968007.803089,-0.73291015625,0.0166015625,0.67626953125,1.0986328125,-1.52587890625,-0.79345703125,2.449951171875,48.109130859375,-168.8763427734375
1760968007.8109722,-0.7255859375,0.03076171875,0.68896484375,1.15966796875,-1.8310546875,-0.8544921875,2.449951171875,48.09814453125,-168.8763427734375
1760968007.8216634,-0.7255859375,0.03076171875,0.68896484375,1.15966796875,-1.8310546875,-0.8544921875,2.449951171875,48.0816650390625,-168.8818359375
1760968007.8309462,-0.73095703125,0.04248046875,0.6845703125,-0.9765625,-1.8310546875,-0.30517578125,2.43896484375,48.065185546875,-168.8763427734375
1760968007.8412282,-0.73095703125,0.04248046875,0.6845703125,-0.9765625,-1.8310546875,-0.30517578125,2.4224853515625,48.0487060546875,-168.8653564453125
1760968007.850928,-0.73291015625,0.0224609375,0.68505859375,-3.5400390625,-1.89208984375,0.3662109375,2.39501953125,48.0322265625,-168.8543701171875
1760968007.8610976,-0.73291015625,0.0224609375,0.68505859375,-3.5400390625,-1.89208984375,0.3662109375,2.362060546875,48.01025390625,-168.837890625
1760968007.8710263,-0.7373046875,0.01611328125,0.68603515625,-0.06103515625,-2.01416015625,0.244140625,2.362060546875,47.98828125,-168.826904296875
1760968007.8811824,-0.7373046875,0.01611328125,0.68603515625,-0.06103515625,-2.01416015625,0.244140625,2.362060546875,47.96630859375,-168.81591796875
1760968007.9040282,-0.7412109375,0.0302734375,0.65771484375,0.67138671875,-2.0751953125,0.06103515625,2.3675537109375,47.9443359375,-168.804931640625
1760968007.9111667,-0.7412109375,0.0302734375,0.65771484375,0.67138671875,-2.0751953125,0.06103515625,2.373046875,47.92236328125,-168.7939453125
1760968007.9306743,-0.7470703125,0.03515625,0.67578125,0.91552734375,-2.0751953125,0.0,2.384033203125,47.9058837890625,-168.782958984375
1760968007.9376812,-0.7470703125,0.03515625,0.67578125,0.91552734375,-2.0751953125,0.0,2.3895263671875,47.8839111328125,-168.7774658203125
1760968007.944161,-0.74365234375,0.03271484375,0.673828125,0.9765625,-1.77001953125,-0.30517578125,2.39501953125,47.867431640625,-168.77197265625
1760968007.9514265,-0.74365234375,0.03271484375,0.673828125,0.9765625,-1.77001953125,-0.30517578125,2.4005126953125,47.845458984375,-168.760986328125
1760968007.9614537,-0.73828125,0.03076171875,0.6650390625,0.1220703125,-1.5869140625,-0.48828125,2.4005126953125,47.83447265625,-168.760986328125
1760968007.9703665,-0.73828125,0.03076171875,0.6650390625,0.1220703125,-1.5869140625,-0.48828125,2.39501953125,47.8179931640625,-168.7554931640625
1760968007.9767523,-0.734375,0.03466796875,0.70556640625,-0.48828125,-1.52587890625,-0.54931640625,2.384033203125,47.801513671875,-168.7554931640625
1760968007.9838169,-0.734375,0.03466796875,0.70556640625,-0.48828125,-1.52587890625,-0.54931640625,2.373046875,47.7850341796875,-168.75
1760968007.9914665,-0.73779296875,0.03173828125,0.67431640625,-1.220703125,-1.46484375,-0.42724609375,2.3565673828125,47.7685546875,-168.75
1760968008.0024788,-0.73779296875,0.03173828125,0.67431640625,-1.220703125,-1.46484375,-0.42724609375,2.340087890625,47.7520751953125,-168.7445068359375
1760968008.0158777,-0.74853515625,0.0146484375,0.66455078125,0.0,-1.708984375,-0.6103515625,2.3345947265625,47.735595703125,-168.7445068359375
1760968008.0230021,-0.74853515625,0.0146484375,0.66455078125,0.0,-1.708984375,-0.6103515625,2.3291015625,47.7191162109375,-168.7445068359375
1760968008.031202,-0.75,0.0166015625,0.66552734375,0.732421875,-1.77001953125,-0.48828125,2.3291015625,47.70263671875,-168.7445068359375
1760968008.0506473,-0.75,0.0166015625,0.66552734375,0.732421875,-1.77001953125,-0.48828125,2.3291015625,47.6861572265625,-168.739013671875
1760968008.0586486,-0.75390625,0.021484375,0.66796875,0.79345703125,-1.64794921875,-0.06103515625,2.3345947265625,47.669677734375,-168.7335205078125
1760968008.066244,-0.75390625,0.021484375,0.66796875,0.79345703125,-1.64794921875,-0.06103515625,2.340087890625,47.6531982421875,-168.7225341796875
1760968008.072766,-0.75732421875,0.01904296875,0.6552734375,-0.54931640625,-1.3427734375,0.06103515625,2.3345947265625,47.6422119140625,-168.7115478515625
1760968008.0880404,-0.75732421875,0.01904296875,0.6552734375,-0.54931640625,-1.3427734375,0.06103515625,2.3236083984375,47.6312255859375,-168.695068359375
1760968008.0949955,-0.763671875,0.03564453125,0.65673828125,-1.708984375,-1.15966796875,0.244140625,2.30712890625,47.625732421875,-168.6785888671875
1760968008.1014555,-0.763671875,0.03564453125,0.65673828125,-1.708984375,-1.15966796875,0.244140625,2.296142578125,47.61474609375,-168.6566162109375
1760968008.11896,-0.75537109375,0.03564453125,0.65625,-2.0751953125,-1.03759765625,0.18310546875,2.274169921875,47.6092529296875,-168.64013671875
1760968008.1264064,-0.75537109375,0.03564453125,0.65625,-2.0751953125,-1.03759765625,0.18310546875,2.2576904296875,47.603759765625,-168.6236572265625
1760968008.1336806,-0.74267578125,0.0283203125,0.68359375,-1.953125,-1.15966796875,-0.1220703125,2.2357177734375,47.5982666015625,-168.607177734375
1760968008.1415524,-0.74267578125,0.0283203125,0.68359375,-1.953125,-1.15966796875,-0.1220703125,2.2137451171875,47.5927734375,-168.59619140625
1760968008.163458,-0.73876953125,0.02001953125,0.68017578125,-2.25830078125,-0.9765625,-0.06103515625,2.1917724609375,47.5872802734375,-168.5797119140625
1760968008.1705084,-0.73876953125,0.02001953125,0.68017578125,-2.25830078125,-0.9765625,-0.06103515625,2.1697998046875,47.581787109375,-168.5687255859375
1760968008.1806562,-0.7470703125,0.02685546875,0.669921875,-4.0283203125,-0.9765625,0.0,2.13134765625,47.57080078125,-168.55224609375
1760968008.20368,-0.7470703125,0.02685546875,0.669921875,-4.0283203125,-0.9765625,0.0,2.08740234375,47.5653076171875,-168.5357666015625
1760968008.2130978,-0.73828125,0.02294921875,0.6689453125,-3.7841796875,-0.91552734375,0.0,2.0489501953125,47.559814453125,-168.5247802734375
1760968008.2208347,-0.73828125,0.02294921875,0.6689453125,-3.7841796875,-0.91552734375,0.0,2.0159912109375,47.5543212890625,-168.50830078125
1760968008.2408056,-0.72998046875,0.02685546875,0.68408203125,-3.35693359375,-0.8544921875,0.0,1.9830322265625,47.548828125,-168.4918212890625
1760968008.2486744,-0.72998046875,0.02685546875,0.68408203125,-3.35693359375,-0.8544921875,0.0,1.9500732421875,47.5433349609375,-168.4808349609375
1760968008.2556825,-0.724609375,0.03076171875,0.71142578125,-1.8310546875,-0.9765625,-0.42724609375,1.9281005859375,47.5323486328125,-168.475341796875
1760968008.276906,-0.724609375,0.03076171875,0.71142578125,-1.8310546875,-0.9765625,-0.42724609375,1.9061279296875,47.5213623046875,-168.4698486328125
1760968008.2847362,-0.73095703125,0.0185546875,0.693359375,-2.3193359375,-0.6103515625,-0.67138671875,1.878662109375,47.515869140625,-168.46435546875
1760968008.2921839,-0.73095703125,0.0185546875,0.693359375,-2.3193359375,-0.6103515625,-0.67138671875,1.8511962890625,47.5103759765625,-168.46435546875
1760968008.3069003,-0.7392578125,0.01025390625,0.67333984375,-1.8310546875,-0.42724609375,-0.732421875,1.82373046875,47.5048828125,-168.46435546875
1760968008.3150303,-0.7392578125,0.01025390625,0.67333984375,-1.8310546875,-0.42724609375,-0.732421875,1.7962646484375,47.4993896484375,-168.4698486328125
1760968008.3235288,-0.7392578125,0.01025390625,0.67333984375,-0.244140625,-0.48828125,-0.9765625,1.7852783203125,47.4884033203125,-168.4698486328125
1760968008.3404844,-0.7265625,0.0107421875,0.6875,-0.244140625,-0.48828125,-0.9765625,1.768798828125,47.48291015625,-168.475341796875
1760968008.3518054,-0.71435546875,0.013671875,0.69482421875,4.0283203125,-0.732421875,-1.708984375,1.790771484375,47.4774169921875,-168.497314453125
1760968008.3588748,-0.71435546875,0.013671875,0.69482421875,4.0283203125,-0.732421875,-1.708984375,1.812744140625,47.4664306640625,-168.5137939453125
1760968008.3677044,-0.724609375,0.01513671875,0.70751953125,6.4697265625,-0.79345703125,-2.38037109375,1.8511962890625,47.4554443359375,-168.5467529296875
1760968008.381586,-0.724609375,0.01513671875,0.70751953125,6.4697265625,-0.79345703125,-2.38037109375,1.8841552734375,47.4444580078125,-168.5797119140625
1760968008.3905482,-0.73779296875,0.05078125,0.693359375,5.0048828125,-0.3662109375,-2.86865234375,1.9061279296875,47.4334716796875,-168.6126708984375
1760968008.4034047,-0.73779296875,0.05078125,0.693359375,5.0048828125,-0.3662109375,-2.86865234375,1.922607421875,47.427978515625,-168.651123046875
1760968008.43143,-0.76171875,0.02978515625,0.681640625,5.67626953125,0.42724609375,-3.0517578125,1.944580078125,47.427978515625,-168.6895751953125
1760968008.4401028,-0.76171875,0.02978515625,0.681640625,5.67626953125,0.42724609375,-3.0517578125,1.9720458984375,47.4334716796875,-168.72802734375
1760968008.448938,-0.767578125,0.00048828125,0.64990234375,7.8125,1.220703125,-3.11279296875,2.0159912109375,47.4444580078125,-168.760986328125
1760968008.4669514,-0.767578125,0.00048828125,0.64990234375,7.8125,1.220703125,-3.11279296875,2.0599365234375,47.4554443359375,-168.7994384765625
1760968008.4732976,-0.77783203125,0.021484375,0.5869140625,5.31005859375,2.3193359375,-2.99072265625,2.076416015625,47.48291015625,-168.8323974609375
1760968008.4799829,-0.77783203125,0.021484375,0.5869140625,5.31005859375,2.3193359375,-2.99072265625,2.098388671875,47.5103759765625,-168.85986328125
1760968008.4876566,-0.7470703125,0.041015625,0.73095703125,2.62451171875,1.46484375,-3.2958984375,2.08740234375,47.5323486328125,-168.892822265625
1760968008.4966063,-0.7470703125,0.041015625,0.73095703125,2.62451171875,1.46484375,-3.2958984375,2.076416015625,47.5543212890625,-168.92578125
1760968008.5118752,-0.7412109375,0.03466796875,0.67578125,2.25830078125,1.953125,-3.84521484375,2.0599365234375,47.5762939453125,-168.9697265625
1760968008.5181003,-0.7412109375,0.03466796875,0.67578125,2.25830078125,1.953125,-3.84521484375,2.04345703125,47.5982666015625,-169.013671875
1760968008.527555,-0.76220703125,0.02685546875,0.62841796875,2.86865234375,1.89208984375,-4.2724609375,2.0269775390625,47.6202392578125,-169.0631103515625
1760968008.5357418,-0.76220703125,0.02685546875,0.62841796875,2.86865234375,1.89208984375,-4.2724609375,2.010498046875,47.6422119140625,-169.1070556640625
1760968008.5497556,-0.763671875,0.0322265625,0.67724609375,2.685546875,2.0751953125,-4.45556640625,1.988525390625,47.669677734375,-169.156494140625
1760968008.5560439,-0.763671875,0.0322265625,0.67724609375,2.685546875,2.0751953125,-4.45556640625,1.9720458984375,47.6971435546875,-169.200439453125
1760968008.5653927,-0.75830078125,0.017578125,0.66015625,1.89208984375,2.44140625,-4.69970703125,1.944580078125,47.724609375,-169.25537109375
1760968008.5819435,-0.75830078125,0.017578125,0.66015625,1.89208984375,2.44140625,-4.69970703125,1.91162109375,47.757568359375,-169.3048095703125
1760968008.5909793,-0.76025390625,0.02490234375,0.65185546875,2.86865234375,2.38037109375,-5.06591796875,1.8896484375,47.7850341796875,-169.365234375
1760968008.6120644,-0.76025390625,0.02490234375,0.65185546875,2.86865234375,2.38037109375,-5.06591796875,1.8621826171875,47.8179931640625,-169.420166015625
1760968008.6308124,-0.75732421875,0.04052734375,0.662109375,1.46484375,2.44140625,-5.37109375,1.82373046875,47.8509521484375,-169.4805908203125
1760968008.638527,-0.75732421875,0.04052734375,0.662109375,1.46484375,2.44140625,-5.37109375,1.77978515625,47.87841796875,-169.541015625
1760968008.6527812,-0.7548828125,0.02734375,0.6748046875,0.732421875,2.38037109375,-5.43212890625,1.73583984375,47.911376953125,-169.6014404296875
1760968008.6668708,-0.7548828125,0.02734375,0.6748046875,0.732421875,2.38037109375,-5.43212890625,1.6864013671875,47.9388427734375,-169.661865234375
1760968008.6745288,-0.751953125,0.00048828125,0.654296875,1.28173828125,2.44140625,-5.37109375,1.6424560546875,47.96630859375,-169.7222900390625
1760968008.6963875,-0.751953125,0.00048828125,0.654296875,1.28173828125,2.44140625,-5.37109375,1.5985107421875,47.999267578125,-169.7882080078125
1760968008.7103572,-0.75244140625,0.0048828125,0.6767578125,2.50244140625,2.50244140625,-5.126953125,1.571044921875,48.0267333984375,-169.8486328125
1760968008.7252707,-0.75244140625,0.0048828125,0.6767578125,2.50244140625,2.50244140625,-5.126953125,1.5380859375,48.0596923828125,-169.9090576171875
1760968008.7406864,-0.74658203125,0.01611328125,0.66162109375,2.44140625,2.5634765625,-4.8828125,1.5106201171875,48.087158203125,-169.969482421875
1760968008.7491012,-0.74658203125,0.01611328125,0.66162109375,2.44140625,2.5634765625,-4.8828125,1.483154296875,48.1146240234375,-170.0299072265625
1760968008.7639809,-0.72705078125,-0.00048828125,0.6806640625,2.62451171875,2.25830078125,-4.57763671875,1.461181640625,48.14208984375,-170.0848388671875
1760968008.7826185,-0.72705078125,-0.00048828125,0.6806640625,2.62451171875,2.25830078125,-4.57763671875,1.4337158203125,48.1640625,-170.145263671875
1760968008.7983816,-0.7138671875,0.00732421875,0.705078125,3.72314453125,2.01416015625,-4.45556640625,1.4227294921875,48.18603515625,-170.2056884765625
1760968008.807922,-0.7138671875,0.00732421875,0.705078125,3.72314453125,2.01416015625,-4.45556640625,1.40625,48.2025146484375,-170.2716064453125
1760968008.8169417,-0.71044921875,0.01123046875,0.708984375,4.57763671875,1.89208984375,-4.21142578125,1.40625,48.218994140625,-170.33203125
1760968008.8233666,-0.71044921875,0.01123046875,0.708984375,4.57763671875,1.89208984375,-4.21142578125,1.4007568359375,48.2354736328125,-170.3924560546875
1760968008.835807,-0.7109375,0.0009765625,0.705078125,4.57763671875,1.8310546875,-4.08935546875,1.4007568359375,48.2464599609375,-170.452880859375
1760968008.8510108,-0.7109375,0.0009765625,0.705078125,4.57763671875,1.8310546875,-4.08935546875,1.4007568359375,48.2574462890625,-170.518798828125
1760968008.8642828,-0.7001953125,0.00439453125,0.70654296875,6.7138671875,1.52587890625,-4.08935546875,1.417236328125,48.262939453125,-170.584716796875
1760968008.871416,-0.7001953125,0.00439453125,0.70654296875,6.7138671875,1.52587890625,-4.08935546875,1.4337158203125,48.2684326171875,-170.650634765625
1760968008.8912506,-0.7109375,0.02783203125,0.697265625,7.62939453125,1.220703125,-4.638671875,1.4556884765625,48.27392578125,-170.7275390625
1760968008.9037564,-0.7109375,0.02783203125,0.697265625,7.62939453125,1.220703125,-4.638671875,1.4776611328125,48.27392578125,-170.804443359375
1760968008.9111135,-0.71728515625,0.03515625,0.68212890625,5.859375,0.732421875,-4.94384765625,1.4776611328125,48.2684326171875,-170.8868408203125
1760968008.9269416,-0.71728515625,0.03515625,0.68212890625,5.859375,0.732421875,-4.94384765625,1.483154296875,48.2684326171875,-170.96923828125
1760968008.9410856,-0.73974609375,0.017578125,0.69091796875,3.90625,0.6103515625,-5.37109375,1.461181640625,48.262939453125,-171.05712890625
1760968008.9545748,-0.73974609375,0.017578125,0.69091796875,3.90625,0.6103515625,-5.37109375,1.439208984375,48.2574462890625,-171.1395263671875
1760968008.9625368,-0.75048828125,0.0078125,0.6650390625,5.2490234375,0.67138671875,-5.43212890625,1.4337158203125,48.2574462890625,-171.2274169921875
1760968008.9729297,-0.7578125,0.01123046875,0.6474609375,6.40869140625,0.67138671875,-5.18798828125,1.42822265625,48.2574462890625,-171.309814453125
1760968008.9828792,-0.7578125,0.01123046875,0.6474609375,6.40869140625,0.67138671875,-5.18798828125,1.4337158203125,48.2574462890625,-171.38671875
1760968008.9893615,-0.76318359375,0.0224609375,0.65625,6.2255859375,0.48828125,-4.8828125,1.439208984375,48.2574462890625,-171.463623046875
1760968009.0006518,-0.76318359375,0.0224609375,0.65625,6.2255859375,0.48828125,-4.8828125,1.4501953125,48.2574462890625,-171.5350341796875
1760968009.0069249,-0.7646484375,0.02099609375,0.658203125,3.11279296875,0.3662109375,-4.5166015625,1.4447021484375,48.262939453125,-171.6064453125
1760968009.0134947,-0.7646484375,0.02099609375,0.658203125,3.11279296875,0.3662109375,-4.5166015625,1.4227294921875,48.262939453125,-171.6668701171875
1760968009.023416,-0.767578125,0.0009765625,0.64404296875,1.0986328125,0.3662109375,-4.21142578125,1.395263671875,48.2684326171875,-171.7327880859375
1760968009.030807,-0.767578125,0.0009765625,0.64404296875,1.0986328125,0.3662109375,-4.21142578125,1.3568115234375,48.2684326171875,-171.7877197265625
1760968009.0380325,-0.775390625,0.001953125,0.6474609375,1.46484375,0.48828125,-3.173828125,1.329345703125,48.27392578125,-171.8426513671875
1760968009.0459387,-0.775390625,0.001953125,0.6474609375,1.46484375,0.48828125,-3.173828125,1.307373046875,48.284912109375,-171.881103515625
1760968009.0521936,-0.77685546875,0.0009765625,0.6416015625,2.8076171875,0.79345703125,-2.86865234375,1.2908935546875,48.2904052734375,-171.9195556640625
1760968009.0591316,-0.77685546875,0.0009765625,0.6416015625,2.8076171875,0.79345703125,-2.86865234375,1.285400390625,48.306884765625,-171.9580078125
1760968009.0672688,-0.78466796875,0.0,0.63916015625,3.2958984375,1.03759765625,-2.50244140625,1.285400390625,48.31787109375,-171.990966796875
1760968009.0748045,-0.78466796875,0.0,0.63916015625,3.2958984375,1.03759765625,-2.50244140625,1.285400390625,48.3343505859375,-172.0184326171875
1760968009.0827055,-0.77001953125,0.01904296875,0.64794921875,4.21142578125,0.79345703125,-2.50244140625,1.2908935546875,48.350830078125,-172.0458984375
1760968009.0901823,-0.77001953125,0.01904296875,0.64794921875,4.21142578125,0.79345703125,-2.50244140625,1.3018798828125,48.3673095703125,-172.078857421875
1760968009.0965662,-0.77490234375,0.03369140625,0.64404296875,4.0283203125,0.8544921875,-2.74658203125,1.3128662109375,48.3782958984375,-172.1063232421875
1760968009.104031,-0.77490234375,0.03369140625,0.64404296875,4.0283203125,0.8544921875,-2.74658203125,1.3238525390625,48.394775390625,-172.1337890625
1760968009.1107235,-0.76904296875,0.01611328125,0.6552734375,2.0751953125,0.8544921875,-2.74658203125,1.3238525390625,48.4112548828125,-172.166748046875
1760968009.1248877,-0.76904296875,0.01611328125,0.6552734375,2.0751953125,0.8544921875,-2.74658203125,1.3128662109375,48.427734375,-172.1942138671875
1760968009.1309586,-0.75146484375,0.017578125,0.673828125,2.74658203125,1.03759765625,-2.74658203125,1.3018798828125,48.4442138671875,-172.2271728515625
1760968009.138653,-0.75146484375,0.017578125,0.673828125,2.74658203125,1.03759765625,-2.74658203125,1.3018798828125,48.460693359375,-172.2601318359375
1760968009.145934,-0.7587890625,0.017578125,0.66064453125,2.25830078125,1.28173828125,-3.0517578125,1.29638671875,48.4771728515625,-172.2930908203125
1760968009.1635575,-0.7587890625,0.017578125,0.66064453125,2.25830078125,1.28173828125,-3.0517578125,1.285400390625,48.4991455078125,-172.33154296875
1760968009.1701863,-0.7587890625,0.017578125,0.66064453125,1.64794921875,0.9765625,-2.99072265625,1.2689208984375,48.515625,-172.3699951171875
1760968009.1778822,-0.76025390625,0.0166015625,0.64453125,1.64794921875,0.9765625,-2.99072265625,1.25244140625,48.526611328125,-172.408447265625
1760968009.185028,-0.7587890625,0.00439453125,0.6572265625,2.0751953125,0.6103515625,-2.86865234375,1.241455078125,48.5430908203125,-172.4468994140625
1760968009.193406,-0.7587890625,0.00439453125,0.6572265625,2.0751953125,0.6103515625,-2.86865234375,1.2249755859375,48.5540771484375,-172.4798583984375
1760968009.208767,-0.75732421875,0.00390625,0.66162109375,2.25830078125,0.30517578125,-2.8076171875,1.2139892578125,48.5650634765625,-172.518310546875
1760968009.2157536,-0.75732421875,0.00390625,0.66162109375,2.25830078125,0.30517578125,-2.8076171875,1.20849609375,48.570556640625,-172.5567626953125
1760968009.2219422,-0.75927734375,0.01513671875,0.65283203125,3.11279296875,0.30517578125,-2.8076171875,1.2030029296875,48.5760498046875,-172.59521484375
1760968009.2289104,-0.75927734375,0.01513671875,0.65283203125,3.11279296875,0.30517578125,-2.8076171875,1.197509765625,48.5870361328125,-172.6336669921875
1760968009.2445004,-0.76416015625,0.0107421875,0.65380859375,3.11279296875,0.3662109375,-2.86865234375,1.197509765625,48.592529296875,-172.6666259765625
1760968009.2535372,-0.76416015625,0.0107421875,0.65380859375,3.11279296875,0.3662109375,-2.86865234375,1.197509765625,48.603515625,-172.705078125
1760968009.2597697,-0.7685546875,0.0146484375,0.65673828125,3.23486328125,0.3662109375,-2.9296875,1.1920166015625,48.6090087890625,-172.7435302734375
1760968009.2677655,-0.7685546875,0.0146484375,0.65673828125,3.23486328125,0.3662109375,-2.9296875,1.1920166015625,48.6199951171875,-172.781982421875
1760968009.2817733,-0.77294921875,0.017578125,0.6416015625,4.33349609375,0.42724609375,-3.23486328125,1.197509765625,48.62548828125,-172.8204345703125
1760968009.2911017,-0.77294921875,0.017578125,0.6416015625,4.33349609375,0.42724609375,-3.23486328125,1.2030029296875,48.636474609375,-172.8643798828125
1760968009.2987266,-0.77490234375,0.00830078125,0.64453125,3.96728515625,0.79345703125,-3.173828125,1.20849609375,48.6474609375,-172.9083251953125
1760968009.305211,-0.77490234375,0.00830078125,0.64453125,3.96728515625,0.79345703125,-3.173828125,1.20849609375,48.6639404296875,-172.94677734375
1760968009.312109,-0.77587890625,0.01513671875,0.64794921875,3.2958984375,1.28173828125,-3.23486328125,1.20849609375,48.680419921875,-172.9852294921875
1760968009.3323326,-0.77587890625,0.01513671875,0.64794921875,3.2958984375,1.28173828125,-3.23486328125,1.2030029296875,48.6968994140625,-173.0291748046875
1760968009.338927,-0.77001953125,0.0087890625,0.638671875,3.96728515625,1.40380859375,-3.173828125,1.2030029296875,48.7188720703125,-173.0731201171875
1760968009.3724685,-0.77001953125,0.0087890625,0.638671875,3.96728515625,1.40380859375,-3.173828125,1.20849609375,48.7408447265625,-173.111572265625
1760968009.3796868,-0.75634765625,-0.00244140625,0.66796875,5.0048828125,1.220703125,-3.0517578125,1.2139892578125,48.7628173828125,-173.1500244140625
1760968009.3869414,-0.75634765625,-0.00244140625,0.66796875,5.0048828125,1.220703125,-3.0517578125,1.23046875,48.779296875,-173.1884765625
1760968009.397323,-0.74658203125,0.0107421875,0.66357421875,6.40869140625,0.9765625,-3.173828125,1.2469482421875,48.7957763671875,-173.232421875
1760968009.4120727,-0.74658203125,0.0107421875,0.66357421875,6.40869140625,0.9765625,-3.173828125,1.2744140625,48.8067626953125,-173.2763671875
1760968009.4191108,-0.74072265625,0.0244140625,0.666015625,5.126953125,0.8544921875,-3.23486328125,1.29638671875,48.8232421875,-173.3258056640625
1760968009.4296284,-0.74072265625,0.0244140625,0.666015625,5.126953125,0.8544921875,-3.23486328125,1.307373046875,48.834228515625,-173.3697509765625
1760968009.4357,-0.7275390625,0.015625,0.6982421875,3.0517578125,0.79345703125,-3.23486328125,1.307373046875,48.84521484375,-173.419189453125
1760968009.4436083,-0.7275390625,0.015625,0.6982421875,3.0517578125,0.79345703125,-3.23486328125,1.3018798828125,48.8507080078125,-173.4686279296875
1760968009.4500144,-0.72607421875,0.01171875,0.6845703125,2.3193359375,0.67138671875,-3.23486328125,1.2908935546875,48.856201171875,-173.5235595703125
1760968009.4645371,-0.72607421875,0.01171875,0.6845703125,2.3193359375,0.67138671875,-3.23486328125,1.2744140625,48.8616943359375,-173.5784912109375
1760968009.4705484,-0.7275390625,0.01904296875,0.68115234375,3.5400390625,0.54931640625,-3.47900390625,1.263427734375,48.8671875,-173.6334228515625
1760968009.4778059,-0.7275390625,0.01904296875,0.68115234375,3.5400390625,0.54931640625,-3.47900390625,1.263427734375,48.8671875,-173.69384765625
1760968009.4853666,-0.732421875,0.017578125,0.68896484375,2.86865234375,0.42724609375,-3.5400390625,1.25244140625,48.8671875,-173.748779296875
1760968009.4928625,-0.732421875,0.017578125,0.68896484375,2.86865234375,0.42724609375,-3.5400390625,1.241455078125,48.8671875,-173.814697265625
1760968009.4998147,-0.73583984375,0.01171875,0.6767578125,2.74658203125,0.3662109375,-3.47900390625,1.23046875,48.8616943359375,-173.8751220703125
1760968009.506107,-0.73583984375,0.01171875,0.6767578125,2.74658203125,0.3662109375,-3.47900390625,1.2139892578125,48.8616943359375,-173.935546875
1760968009.5124328,-0.7451171875,0.01513671875,0.6708984375,3.60107421875,0.18310546875,-3.60107421875,1.20849609375,48.856201171875,-173.9959716796875
1760968009.5202816,-0.7451171875,0.01513671875,0.6708984375,3.60107421875,0.18310546875,-3.60107421875,1.2030029296875,48.8507080078125,-174.056396484375
1760968009.5277474,-0.75,0.01123046875,0.65185546875,3.5400390625,0.3662109375,-3.7841796875,1.197509765625,48.8507080078125,-174.122314453125
1760968009.5346556,-0.75,0.01123046875,0.65185546875,3.5400390625,0.3662109375,-3.7841796875,1.1865234375,48.8507080078125,-174.188232421875
1760968009.5417664,-0.75537109375,0.01611328125,0.6767578125,2.5634765625,0.48828125,-3.662109375,1.175537109375,48.8507080078125,-174.2486572265625
1760968009.5480106,-0.75537109375,0.01611328125,0.6767578125,2.5634765625,0.48828125,-3.662109375,1.1590576171875,48.8507080078125,-174.3145751953125
1760968009.55733,-0.75439453125,0.01123046875,0.65283203125,2.197265625,0.6103515625,-3.35693359375,1.142578125,48.8507080078125,-174.375
1760968009.565337,-0.75439453125,0.01123046875,0.65283203125,2.197265625,0.6103515625,-3.35693359375,1.1260986328125,48.8507080078125,-174.429931640625
1760968009.5889397,-0.76025390625,0.0107421875,0.6455078125,2.13623046875,0.30517578125,-3.23486328125,1.109619140625,48.856201171875,-174.48486328125
1760968009.5975604,-0.76025390625,0.0107421875,0.6455078125,2.13623046875,0.30517578125,-3.23486328125,1.0986328125,48.856201171875,-174.539794921875
1760968009.6153867,-0.77587890625,0.01318359375,0.65380859375,1.03759765625,0.18310546875,-2.86865234375,1.07666015625,48.856201171875,-174.5892333984375
1760968009.6228852,-0.77587890625,0.01318359375,0.65380859375,1.03759765625,0.18310546875,-2.86865234375,1.0546875,48.856201171875,-174.6331787109375
1760968009.632329,-0.77880859375,-0.00537109375,0.6220703125,2.38037109375,0.0,-2.62451171875,1.043701171875,48.856201171875,-174.6771240234375
1760968009.6405163,-0.77880859375,-0.00537109375,0.6220703125,2.38037109375,0.0,-2.62451171875,1.03271484375,48.8616943359375,-174.7210693359375
1760968009.6473997,-0.7802734375,0.00732421875,0.6298828125,2.8076171875,-0.244140625,-2.50244140625,1.03271484375,48.8616943359375,-174.7540283203125
1760968009.6607385,-0.7802734375,0.00732421875,0.6298828125,2.8076171875,-0.244140625,-2.50244140625,1.0272216796875,48.8616943359375,-174.79248046875
1760968009.6675193,-0.76904296875,0.01708984375,0.64208984375,2.13623046875,-0.3662109375,-2.197265625,1.0272216796875,48.8671875,-174.825439453125
1760968009.6779332,-0.76904296875,0.01708984375,0.64208984375,2.13623046875,-0.3662109375,-2.197265625,1.021728515625,48.8671875,-174.8529052734375
1760968009.6867852,-0.74951171875,-0.0087890625,0.662109375,0.06103515625,-0.48828125,-1.40380859375,1.0107421875,48.8671875,-174.8748779296875
1760968009.694433,-0.74951171875,-0.0087890625,0.662109375,0.06103515625,-0.48828125,-1.40380859375,0.9942626953125,48.8671875,-174.891357421875
1760968009.704825,-0.72412109375,-0.01708984375,0.69482421875,-0.30517578125,-0.48828125,-0.67138671875,0.977783203125,48.8671875,-174.9078369140625
1760968009.7129505,-0.72412109375,-0.01708984375,0.69482421875,-0.30517578125,-0.48828125,-0.67138671875,0.9613037109375,48.8616943359375,-174.9188232421875
1760968009.7209175,-0.70947265625,0.02880859375,0.70703125,0.0,-0.42724609375,-0.48828125,0.9503173828125,48.856201171875,-174.9298095703125
1760968009.728014,-0.70947265625,0.02880859375,0.70703125,0.0,-0.42724609375,-0.48828125,0.9393310546875,48.8507080078125,-174.9462890625
1760968009.7366753,-0.7119140625,0.015625,0.70263671875,1.0986328125,-0.244140625,-0.48828125,0.9393310546875,48.8397216796875,-174.957275390625
1760968009.7449224,-0.7119140625,0.015625,0.70263671875,1.0986328125,-0.244140625,-0.48828125,0.94482421875,48.834228515625,-174.9737548828125
1760968009.7522666,-0.720703125,-0.01904296875,0.71044921875,1.5869140625,-0.244140625,-0.42724609375,0.9503173828125,48.8232421875,-174.990234375
1760968009.7590058,-0.720703125,-0.01904296875,0.71044921875,1.5869140625,-0.244140625,-0.42724609375,0.955810546875,48.812255859375,-175.01220703125
1760968009.7680569,-0.7216796875,0.017578125,0.68212890625,3.11279296875,-0.18310546875,-0.8544921875,0.9722900390625,48.80126953125,-175.0396728515625
1760968009.7766416,-0.7216796875,0.017578125,0.68212890625,3.11279296875,-0.18310546875,-0.8544921875,0.98876953125,48.790283203125,-175.067138671875
1760968009.7833483,-0.732421875,0.0302734375,0.6953125,4.150390625,-0.18310546875,-1.03759765625,1.0107421875,48.779296875,-175.0946044921875
1760968009.7910194,-0.732421875,0.0302734375,0.6953125,4.150390625,-0.18310546875,-1.03759765625,1.0382080078125,48.7628173828125,-175.1275634765625
1760968009.797798,-0.74072265625,0.0146484375,0.67431640625,2.13623046875,0.0,-0.67138671875,1.0601806640625,48.7518310546875,-175.1495361328125
1760968009.8048964,-0.74072265625,0.0146484375,0.67431640625,2.13623046875,0.0,-0.67138671875,1.0711669921875,48.746337890625,-175.1715087890625
1760968009.8133843,-0.74462890625,-0.005859375,0.66015625,2.25830078125,0.0,-0.48828125,1.087646484375,48.7353515625,-175.1934814453125
1760968009.8200328,-0.74462890625,-0.005859375,0.66015625,2.25830078125,0.0,-0.48828125,1.0986328125,48.724365234375,-175.2154541015625
1760968009.8268325,-0.7626953125,0.01123046875,0.66796875,2.86865234375,-0.1220703125,-0.54931640625,1.1151123046875,48.7188720703125,-175.23193359375
1760968009.8355823,-0.7626953125,0.01123046875,0.66796875,2.86865234375,-0.1220703125,-0.54931640625,1.1370849609375,48.7078857421875,-175.25390625
1760968009.8423555,-0.7626953125,0.01123046875,0.66796875,3.35693359375,0.0,-0.732421875,1.1590576171875,48.702392578125,-175.2703857421875
1760968009.8498812,-0.7724609375,0.0146484375,0.64697265625,3.35693359375,0.0,-0.732421875,1.1810302734375,48.6968994140625,-175.2923583984375
1760968009.8585072,-0.7763671875,0.00927734375,0.63427734375,2.685546875,0.30517578125,-0.6103515625,1.2030029296875,48.6968994140625,-175.308837890625
1760968009.8662865,-0.7763671875,0.00927734375,0.63427734375,2.685546875,0.30517578125,-0.6103515625,1.219482421875,48.6968994140625,-175.31982421875
1760968009.8736022,-0.77685546875,0.00634765625,0.64599609375,3.60107421875,0.3662109375,-0.3662109375,1.2469482421875,48.702392578125,-175.3253173828125
1760968009.8805065,-0.77685546875,0.00634765625,0.64599609375,3.60107421875,0.3662109375,-0.3662109375,1.2799072265625,48.7078857421875,-175.3363037109375
1760968009.8873253,-0.77490234375,0.0341796875,0.62890625,2.44140625,0.3662109375,-0.244140625,1.29638671875,48.7078857421875,-175.341796875
1760968009.8951726,-0.77490234375,0.0341796875,0.62890625,2.44140625,0.3662109375,-0.244140625,1.318359375,48.7188720703125,-175.341796875
1760968009.901246,-0.77099609375,0.0068359375,0.6484375,1.52587890625,0.30517578125,0.0,1.3348388671875,48.724365234375,-175.341796875
1760968009.9077778,-0.77099609375,0.0068359375,0.6484375,1.52587890625,0.30517578125,0.0,1.3458251953125,48.7298583984375,-175.341796875
1760968009.915173,-0.755859375,-0.01171875,0.662109375,1.8310546875,0.54931640625,0.1220703125,1.3623046875,48.7408447265625,-175.341796875
1760968009.9223394,-0.755859375,-0.01171875,0.662109375,1.8310546875,0.54931640625,0.1220703125,1.3787841796875,48.746337890625,-175.341796875
1760968009.9288557,-0.73779296875,0.015625,0.66943359375,5.67626953125,0.67138671875,0.0,1.4337158203125,48.75732421875,-175.341796875
1760968009.935362,-0.73779296875,0.015625,0.66943359375,5.67626953125,0.67138671875,0.0,1.483154296875,48.7628173828125,-175.341796875
1760968009.9489343,-0.7275390625,0.03125,0.67236328125,4.5166015625,0.6103515625,0.1220703125,1.527099609375,48.768310546875,-175.341796875
1760968009.9577858,-0.7275390625,0.03125,0.67236328125,4.5166015625,0.6103515625,0.1220703125,1.571044921875,48.7738037109375,-175.3472900390625
1760968009.9656172,-0.7197265625,0.0234375,0.7001953125,3.84521484375,0.30517578125,0.06103515625,1.6094970703125,48.7738037109375,-175.352783203125
1760968009.9752588,-0.7197265625,0.0234375,0.7001953125,3.84521484375,0.30517578125,0.06103515625,1.64794921875,48.7738037109375,-175.3582763671875
1760968009.9830244,-0.716796875,0.00830078125,0.6875,3.173828125,0.244140625,0.18310546875,1.680908203125,48.7738037109375,-175.36376953125
1760968009.994869,-0.716796875,0.00830078125,0.6875,3.173828125,0.244140625,0.18310546875,1.7083740234375,48.768310546875,-175.3692626953125
1760968010.0034022,-0.72607421875,0.02392578125,0.68701171875,3.7841796875,0.0,0.0,1.746826171875,48.7628173828125,-175.3857421875
1760968010.0141869,-0.72607421875,0.02392578125,0.68701171875,3.7841796875,0.0,0.0,1.77978515625,48.75732421875,-175.396728515625
1760968010.026204,-0.7353515625,0.01904296875,0.68505859375,4.21142578125,-0.06103515625,-0.06103515625,1.8182373046875,48.746337890625,-175.40771484375
1760968010.033528,-0.7353515625,0.01904296875,0.68505859375,4.21142578125,-0.06103515625,-0.06103515625,1.856689453125,48.7408447265625,-175.4241943359375
1760968010.0500875,-0.748046875,0.01904296875,0.669921875,4.39453125,-0.1220703125,-0.06103515625,1.8951416015625,48.7298583984375,-175.4351806640625
1760968010.0574114,-0.748046875,0.01904296875,0.669921875,4.39453125,-0.1220703125,-0.06103515625,1.93359375,48.724365234375,-175.45166015625
1760968010.064213,-0.748046875,0.01904296875,0.669921875,4.45556640625,0.0,0.0,1.9775390625,48.7188720703125,-175.462646484375
1760968010.083651,-0.75341796875,0.02587890625,0.67919921875,4.45556640625,0.0,0.0,2.021484375,48.7078857421875,-175.4736328125
1760968010.0929732,-0.7626953125,0.02392578125,0.64013671875,2.0751953125,0.30517578125,0.1220703125,2.0379638671875,48.7078857421875,-175.484619140625
1760968010.101003,-0.7626953125,0.02392578125,0.64013671875,2.0751953125,0.30517578125,0.1220703125,2.0599365234375,48.7078857421875,-175.4901123046875
1760968010.1092298,-0.7685546875,0.029296875,0.6484375,0.48828125,0.06103515625,0.0,2.0599365234375,48.702392578125,-175.49560546875
1760968010.1180828,-0.7685546875,0.029296875,0.6484375,0.48828125,0.06103515625,0.0,2.0654296875,48.702392578125,-175.5010986328125
1760968010.1250978,-0.783203125,0.0380859375,0.63623046875,-0.67138671875,0.0,-0.30517578125,2.054443359375,48.702392578125,-175.5120849609375
1760968010.1331012,-0.783203125,0.0380859375,0.63623046875,-0.67138671875,0.0,-0.30517578125,2.04345703125,48.702392578125,-175.517578125
1760968010.1555645,-0.783203125,0.02978515625,0.61279296875,-2.8076171875,0.0,-0.18310546875,2.0159912109375,48.702392578125,-175.517578125
1760968010.1634376,-0.783203125,0.02978515625,0.61279296875,-2.8076171875,0.0,-0.18310546875,1.988525390625,48.7078857421875,-175.517578125
1760968010.1707625,-0.7900390625,0.013671875,0.64306640625,-2.99072265625,0.42724609375,-0.1220703125,1.95556640625,48.7188720703125,-175.517578125
1760968010.1772227,-0.7900390625,0.013671875,0.64306640625,-2.99072265625,0.42724609375,-0.1220703125,1.9281005859375,48.7298583984375,-175.517578125
1760968010.193683,-0.7763671875,0.0068359375,0.6396484375,-3.2958984375,0.732421875,0.30517578125,1.8951416015625,48.7408447265625,-175.506591796875
1760968010.200898,-0.7763671875,0.0068359375,0.6396484375,-3.2958984375,0.732421875,0.30517578125,1.86767578125,48.75732421875,-175.49560546875
1760968010.2082908,-0.76513671875,0.0126953125,0.65478515625,-1.64794921875,0.79345703125,0.42724609375,1.856689453125,48.768310546875,-175.4901123046875
1760968010.2234917,-0.76513671875,0.0126953125,0.65478515625,-1.64794921875,0.79345703125,0.42724609375,1.8402099609375,48.7847900390625,-175.4791259765625
1760968010.231064,-0.7685546875,0.02099609375,0.650390625,-2.38037109375,0.91552734375,0.3662109375,1.82373046875,48.7957763671875,-175.4681396484375
1760968010.2384892,-0.7685546875,0.02099609375,0.650390625,-2.38037109375,0.91552734375,0.3662109375,1.8017578125,48.812255859375,-175.4571533203125
1760968010.2474093,-0.76904296875,0.02783203125,0.64306640625,-1.5869140625,0.8544921875,0.1220703125,1.7852783203125,48.8287353515625,-175.45166015625
1760968010.2630925,-0.76904296875,0.02783203125,0.64306640625,-1.5869140625,0.8544921875,0.1220703125,1.7742919921875,48.8397216796875,-175.4461669921875
1760968010.2696574,-0.763671875,0.02978515625,0.64453125,-0.8544921875,0.8544921875,-0.1220703125,1.7633056640625,48.856201171875,-175.4461669921875
1760968010.2864094,-0.763671875,0.02978515625,0.64453125,-0.8544921875,0.8544921875,-0.1220703125,1.7578125,48.8671875,-175.440673828125
1760968010.2959766,-0.75244140625,0.01904296875,0.67138671875,-1.52587890625,0.79345703125,-0.18310546875,1.7413330078125,48.8836669921875,-175.4351806640625
1760968010.3033168,-0.75244140625,0.01904296875,0.67138671875,-1.52587890625,0.79345703125,-0.18310546875,1.724853515625,48.8946533203125,-175.4351806640625
1760968010.309697,-0.74609375,0.01806640625,0.6787109375,-1.0986328125,0.8544921875,-0.30517578125,1.7138671875,48.9056396484375,-175.4351806640625
1760968010.3290539,-0.74609375,0.01806640625,0.6787109375,-1.0986328125,0.8544921875,-0.30517578125,1.6973876953125,48.9166259765625,-175.440673828125
1760968010.337304,-0.7470703125,0.01953125,0.66455078125,-1.28173828125,0.91552734375,-0.3662109375,1.680908203125,48.9276123046875,-175.4461669921875
1760968010.3453505,-0.7470703125,0.01953125,0.66455078125,-1.28173828125,0.91552734375,-0.3662109375,1.6644287109375,48.9385986328125,-175.45166015625
1760968010.352086,-0.74755859375,0.0302734375,0.66845703125,-2.0751953125,0.8544921875,-0.54931640625,1.6424560546875,48.944091796875,-175.4571533203125
1760968010.3674455,-0.74755859375,0.0302734375,0.66845703125,-2.0751953125,0.8544921875,-0.54931640625,1.614990234375,48.955078125,-175.4681396484375
1760968010.3750136,-0.7431640625,0.0166015625,0.67578125,-1.220703125,0.732421875,-0.8544921875,1.5985107421875,48.9605712890625,-175.484619140625
1760968010.3835633,-0.7431640625,0.0166015625,0.67578125,-1.220703125,0.732421875,-0.8544921875,1.5765380859375,48.966064453125,-175.49560546875
1760968010.3900573,-0.74169921875,0.01318359375,0.6728515625,-0.06103515625,0.67138671875,-1.03759765625,1.5655517578125,48.9715576171875,-175.517578125
1760968010.3969154,-0.74169921875,0.01318359375,0.6728515625,-0.06103515625,0.67138671875,-1.03759765625,1.5545654296875,48.97705078125,-175.53955078125
1760968010.4044974,-0.74365234375,0.0205078125,0.66943359375,-1.3427734375,0.8544921875,-1.03759765625,1.5325927734375,48.9825439453125,-175.5615234375
1760968010.4141698,-0.74365234375,0.0205078125,0.66943359375,-1.3427734375,0.8544921875,-1.03759765625,1.505126953125,48.988037109375,-175.5780029296875
1760968010.429444,-0.7392578125,0.0107421875,0.68408203125,-1.89208984375,0.9765625,-0.91552734375,1.4776611328125,48.9935302734375,-175.5999755859375
1760968010.4367328,-0.7392578125,0.0107421875,0.68408203125,-1.89208984375,0.9765625,-0.91552734375,1.4501953125,48.9990234375,-175.6219482421875
1760968010.4471028,-0.74169921875,0.01611328125,0.67236328125,-1.708984375,1.0986328125,-0.91552734375,1.4227294921875,49.0045166015625,-175.6439208984375
1760968010.4541335,-0.74169921875,0.01611328125,0.67236328125,-1.708984375,1.0986328125,-0.91552734375,1.395263671875,49.010009765625,-175.6658935546875
1760968010.4722233,-0.744140625,0.02099609375,0.65576171875,-1.0986328125,0.91552734375,-1.15966796875,1.373291015625,49.0155029296875,-175.693359375
1760968010.479146,-0.744140625,0.02099609375,0.65576171875,-1.0986328125,0.91552734375,-1.15966796875,1.351318359375,49.0155029296875,-175.71533203125
1760968010.4866383,-0.7578125,0.0185546875,0.6748046875,-0.67138671875,0.8544921875,-1.220703125,1.329345703125,49.02099609375,-175.7427978515625
1760968010.4941483,-0.7578125,0.0185546875,0.6748046875,-0.67138671875,0.8544921875,-1.220703125,1.3128662109375,49.0264892578125,-175.7647705078125
1760968010.5051343,-0.75634765625,0.015625,0.65087890625,-0.42724609375,0.91552734375,-1.28173828125,1.29638671875,49.031982421875,-175.792236328125
1760968010.5214756,-0.75634765625,0.015625,0.65087890625,-0.42724609375,0.91552734375,-1.28173828125,1.2799072265625,49.0374755859375,-175.8197021484375
1760968010.5303707,-0.75439453125,0.0029296875,0.66162109375,-0.732421875,1.0986328125,-1.3427734375,1.2579345703125,49.04296875,-175.8416748046875
1760968010.5393531,-0.75439453125,0.0029296875,0.66162109375,-0.732421875,1.0986328125,-1.3427734375,1.2359619140625,49.053955078125,-175.869140625
1760968010.555883,-0.75634765625,0.0146484375,0.67041015625,-1.64794921875,1.28173828125,-1.15966796875,1.2030029296875,49.0594482421875,-175.89111328125
1760968010.5653038,-0.75634765625,0.0146484375,0.67041015625,-1.64794921875,1.28173828125,-1.15966796875,1.175537109375,49.0704345703125,-175.9130859375
1760968010.5763497,-0.7568359375,0.01171875,0.65869140625,-2.197265625,1.28173828125,-0.9765625,1.142578125,49.0814208984375,-175.93505859375
1760968010.583641,-0.7568359375,0.01171875,0.65869140625,-2.197265625,1.28173828125,-0.9765625,1.109619140625,49.0924072265625,-175.9515380859375
1760968010.592367,-0.77001953125,0.0244140625,0.626953125,-3.2958984375,1.15966796875,-0.9765625,1.0711669921875,49.097900390625,-175.9735107421875
1760968010.6088393,-0.77001953125,0.0244140625,0.626953125,-3.2958984375,1.15966796875,-0.9765625,1.0272216796875,49.10888671875,-175.9844970703125
1760968010.6201615,-0.771484375,0.0048828125,0.65625,-1.3427734375,0.79345703125,-1.15966796875,1.0052490234375,49.119873046875,-176.0064697265625
1760968010.6444228,-0.771484375,0.0048828125,0.65625,-1.3427734375,0.79345703125,-1.15966796875,0.977783203125,49.1253662109375,-176.02294921875
1760968010.6512845,-0.76708984375,-0.001953125,0.65673828125,-1.15966796875,0.8544921875,-0.9765625,0.955810546875,49.1363525390625,-176.0394287109375
1760968010.658065,-0.76708984375,-0.001953125,0.65673828125,-1.15966796875,0.8544921875,-0.9765625,0.933837890625,49.141845703125,-176.055908203125
1760968010.6675818,-0.76953125,0.02197265625,0.63623046875,-2.197265625,1.03759765625,-1.03759765625,0.90087890625,49.15283203125,-176.0723876953125
