timestamp,acc_x,acc_y,acc_z,gyro_x,gyro_y,gyro_z,angle_x,angle_y,angle_z
1758527805.6293988,0.78173828125,-0.1201171875,0.58251953125,16.11328125,6.28662109375,2.0751953125,-12.5299072265625,-53.173828125,-26.641845703125
1758527805.639727,0.7919921875,-0.130859375,0.61669921875,10.25390625,6.40869140625,2.0751953125,-12.4200439453125,-53.10791015625,-26.6363525390625
1758527805.6525788,0.7919921875,-0.130859375,0.61669921875,10.25390625,6.40869140625,2.0751953125,-12.3431396484375,-53.0419921875,-26.6363525390625
1758527805.6652062,0.80810546875,-0.1689453125,0.642578125,9.1552734375,6.04248046875,1.40380859375,-12.2607421875,-52.9815673828125,-26.6363525390625
1758527805.676317,0.80810546875,-0.1689453125,0.642578125,9.1552734375,6.04248046875,1.40380859375,-12.183837890625,-52.921142578125,-26.6473388671875
1758527805.6832721,0.81787109375,-0.16259765625,0.6259765625,9.82666015625,5.43212890625,0.79345703125,-12.1014404296875,-52.8607177734375,-26.663818359375
1758527805.6892557,0.81787109375,-0.16259765625,0.6259765625,9.82666015625,5.43212890625,0.79345703125,-12.0135498046875,-52.8057861328125,-26.6802978515625
1758527805.6981075,0.81005859375,-0.11376953125,0.603515625,7.26318359375,5.06591796875,1.220703125,-11.942138671875,-52.7508544921875,-26.69677734375
1758527805.708907,0.81005859375,-0.11376953125,0.603515625,7.26318359375,5.06591796875,1.220703125,-11.8817138671875,-52.6959228515625,-26.707763671875
1758527805.718152,0.79296875,-0.09765625,0.61083984375,9.09423828125,4.82177734375,1.220703125,-11.8157958984375,-52.646484375,-26.7132568359375
1758527805.728135,0.79296875,-0.09765625,0.61083984375,9.09423828125,4.82177734375,1.220703125,-11.7333984375,-52.5970458984375,-26.7242431640625
1758527805.7381616,0.77490234375,-0.11767578125,0.61279296875,4.2724609375,3.90625,1.89208984375,-11.6839599609375,-52.547607421875,-26.729736328125
1758527805.7481458,0.77490234375,-0.11767578125,0.61279296875,4.2724609375,3.90625,1.89208984375,-11.6619873046875,-52.503662109375,-26.7242431640625
1758527805.75819,0.7734375,-0.1376953125,0.59033203125,3.72314453125,3.35693359375,1.0986328125,-11.634521484375,-52.4652099609375,-26.729736328125
1758527805.768717,0.7734375,-0.1376953125,0.59033203125,3.72314453125,3.35693359375,1.0986328125,-11.6070556640625,-52.4267578125,-26.74072265625
1758527805.778547,0.77685546875,-0.1552734375,0.5576171875,9.46044921875,3.60107421875,0.3662109375,-11.5521240234375,-52.393798828125,-26.7572021484375
1758527805.788282,0.77685546875,-0.1552734375,0.5576171875,9.46044921875,3.60107421875,0.3662109375,-11.458740234375,-52.3553466796875,-26.773681640625
1758527805.8025384,0.78515625,-0.15576171875,0.53662109375,11.41357421875,3.90625,-1.0986328125,-11.3543701171875,-52.3223876953125,-26.806640625
1758527805.8086753,0.78515625,-0.15576171875,0.53662109375,11.41357421875,3.90625,-1.0986328125,-11.22802734375,-52.2894287109375,-26.8450927734375
1758527805.8182485,0.76708984375,-0.16552734375,0.52197265625,14.09912109375,4.2724609375,-3.41796875,-11.07421875,-52.2564697265625,-26.9000244140625
1758527805.8282483,0.76708984375,-0.16552734375,0.52197265625,14.09912109375,4.2724609375,-3.41796875,-10.8984375,-52.2235107421875,-26.971435546875
1758527805.8382587,0.74365234375,-0.197265625,0.49755859375,30.8837890625,4.5166015625,-6.103515625,-10.6292724609375,-52.196044921875,-27.0648193359375
1758527805.848608,0.74365234375,-0.197265625,0.49755859375,30.8837890625,4.5166015625,-6.103515625,-10.26123046875,-52.1685791015625,-27.1746826171875
1758527805.8582947,0.7333984375,-0.1796875,0.43408203125,52.001953125,5.7373046875,-9.21630859375,-9.7723388671875,-52.14111328125,-27.3065185546875
1758527805.8682952,0.7333984375,-0.1796875,0.43408203125,52.001953125,5.7373046875,-9.21630859375,-9.16259765625,-52.108154296875,-27.4603271484375
1758527805.8783271,0.71240234375,-0.15966796875,0.39794921875,60.48583984375,7.75146484375,-12.20703125,-8.4979248046875,-52.0697021484375,-27.6361083984375
1758527805.8883288,0.71240234375,-0.15966796875,0.39794921875,60.48583984375,7.75146484375,-12.20703125,-7.7783203125,-52.0257568359375,-27.828369140625
1758527805.898329,0.70458984375,-0.1337890625,0.3740234375,57.55615234375,11.23046875,-15.625,-7.05322265625,-51.9708251953125,-28.048095703125
1758527805.9083428,0.70458984375,-0.1337890625,0.3740234375,57.55615234375,11.23046875,-15.625,-6.3226318359375,-51.8994140625,-28.289794921875
1758527805.9183714,0.68408203125,-0.13623046875,0.3564453125,39.00146484375,15.2587890625,-18.73779296875,-5.6744384765625,-51.8170166015625,-28.5479736328125
1758527805.9283872,0.68408203125,-0.13623046875,0.3564453125,39.00146484375,15.2587890625,-18.73779296875,-5.09765625,-51.712646484375,-28.828125
1758527805.9383907,0.71826171875,-0.146484375,0.3525390625,23.5595703125,20.5078125,-21.728515625,-4.581298828125,-51.5863037109375,-29.1302490234375
1758527805.9483993,0.71826171875,-0.146484375,0.3525390625,23.5595703125,20.5078125,-21.728515625,-4.130859375,-51.43798828125,-29.443359375
1758527805.9584138,0.771484375,-0.15625,0.3447265625,26.67236328125,26.611328125,-24.10888671875,-3.6529541015625,-51.26220703125,-29.77294921875
1758527805.9684305,0.771484375,-0.15625,0.3447265625,26.67236328125,26.611328125,-24.10888671875,-3.1475830078125,-51.0589599609375,-30.1080322265625
1758527805.9784417,0.79736328125,-0.1455078125,0.35498046875,34.48486328125,33.14208984375,-25.87890625,-2.5927734375,-50.8282470703125,-30.4486083984375
1758527805.9884477,0.79736328125,-0.1455078125,0.35498046875,34.48486328125,33.14208984375,-25.87890625,-1.99951171875,-50.570068359375,-30.7891845703125
1758527805.9984694,0.79931640625,-0.13134765625,0.38720703125,30.70068359375,38.2080078125,-27.83203125,-1.417236328125,-50.2899169921875,-31.13525390625
1758527806.0084727,0.79931640625,-0.13134765625,0.38720703125,30.70068359375,38.2080078125,-27.83203125,-0.8514404296875,-49.9822998046875,-31.48681640625
1758527806.0184777,0.794921875,-0.1044921875,0.39306640625,15.56396484375,41.259765625,-29.541015625,-0.3570556640625,-49.6636962890625,-31.8328857421875
1758527806.0285141,0.794921875,-0.1044921875,0.39306640625,15.56396484375,41.259765625,-29.541015625,0.0604248046875,-49.32861328125,-32.1844482421875
1758527806.0385509,0.7880859375,-0.08837890625,0.4091796875,-2.0751953125,42.724609375,-30.21240234375,0.3955078125,-48.9935302734375,-32.530517578125
1758527806.0487306,0.7880859375,-0.08837890625,0.4091796875,-2.0751953125,42.724609375,-30.21240234375,0.6427001953125,-48.6474609375,-32.8656005859375
1758527806.058546,0.75244140625,-0.08544921875,0.4609375,-16.11328125,43.212890625,-30.517578125,0.823974609375,-48.3013916015625,-33.20068359375
1758527806.06855,0.75244140625,-0.08544921875,0.4609375,-16.11328125,43.212890625,-30.517578125,0.9283447265625,-47.9498291015625,-33.5357666015625
1758527806.079042,0.7333984375,-0.05078125,0.49462890625,-28.9306640625,41.6259765625,-30.33447265625,0.966796875,-47.6092529296875,-33.8653564453125
1758527806.0885863,0.7333984375,-0.05078125,0.49462890625,-28.9306640625,41.6259765625,-30.33447265625,0.94482421875,-47.274169921875,-34.1949462890625
1758527806.0986063,0.8251953125,-0.0302734375,0.5078125,-35.46142578125,39.36767578125,-29.23583984375,0.87890625,-46.9500732421875,-34.5135498046875
1758527806.108605,0.8251953125,-0.0302734375,0.5078125,-35.46142578125,39.36767578125,-29.23583984375,0.7855224609375,-46.636962890625,-34.82666015625
1758527806.1186118,0.88671875,-0.0048828125,0.53564453125,-33.8134765625,37.65869140625,-28.01513671875,0.692138671875,-46.3348388671875,-35.1287841796875
1758527806.129063,0.88671875,-0.0048828125,0.53564453125,-33.8134765625,37.65869140625,-28.01513671875,0.6097412109375,-46.0382080078125,-35.4254150390625
1758527806.138662,0.82080078125,-0.00244140625,0.62841796875,-27.77099609375,35.58349609375,-27.34375,0.5767822265625,-45.7635498046875,-35.7110595703125
1758527806.1487014,0.82080078125,-0.00244140625,0.62841796875,-27.77099609375,35.58349609375,-27.34375,0.54931640625,-45.4888916015625,-36.002197265625
1758527806.158734,0.80029296875,0.0439453125,0.70361328125,-26.67236328125,31.18896484375,-27.77099609375,0.538330078125,-45.2471923828125,-36.3043212890625
1758527806.1687663,0.80029296875,0.0439453125,0.70361328125,-26.67236328125,31.18896484375,-27.77099609375,0.5328369140625,-45.0054931640625,-36.617431640625
1758527806.178728,0.884765625,0.07080078125,0.65478515625,-25.32958984375,28.80859375,-27.099609375,0.5328369140625,-44.7857666015625,-36.9195556640625
1758527806.1887429,0.884765625,0.07080078125,0.65478515625,-25.32958984375,28.80859375,-27.099609375,0.538330078125,-44.560546875,-37.2216796875
1758527806.1987324,0.861328125,0.08642578125,0.67529296875,-12.451171875,30.82275390625,-25.0244140625,0.6536865234375,-44.31884765625,-37.496337890625
1758527806.208847,0.861328125,0.08642578125,0.67529296875,-12.451171875,30.82275390625,-25.0244140625,0.7745361328125,-44.0716552734375,-37.77099609375
1758527806.2187881,0.76708984375,0.103515625,0.78369140625,-6.7138671875,29.84619140625,-23.13232421875,0.9283447265625,-43.8299560546875,-38.023681640625
1758527806.229048,0.76708984375,0.103515625,0.78369140625,-6.7138671875,29.84619140625,-23.13232421875,1.087646484375,-43.5882568359375,-38.2818603515625
1758527806.238906,0.76806640625,0.109375,0.779296875,-20.5078125,28.62548828125,-22.88818359375,1.1041259765625,-43.3465576171875,-38.5400390625
1758527806.2488968,0.76806640625,0.109375,0.779296875,-20.5078125,28.62548828125,-22.88818359375,1.1260986328125,-43.1048583984375,-38.8037109375
1758527806.2588527,0.775390625,0.12060546875,0.77978515625,-41.015625,29.96826171875,-21.6064453125,0.9283447265625,-42.8466796875,-39.0509033203125
1758527806.2692113,0.775390625,0.12060546875,0.77978515625,-41.015625,29.96826171875,-21.6064453125,0.736083984375,-42.5885009765625,-39.298095703125
1758527806.279008,0.673828125,0.09130859375,0.84765625,-21.97265625,30.45654296875,-19.287109375,0.714111328125,-42.3248291015625,-39.5233154296875
1758527806.2889454,0.673828125,0.09130859375,0.84765625,-21.97265625,30.45654296875,-19.287109375,0.6866455078125,-42.0501708984375,-39.7540283203125
1758527806.2991595,0.55126953125,0.05810546875,0.91064453125,23.98681640625,27.52685546875,-16.05224609375,1.087646484375,-41.7974853515625,-39.9462890625
1758527806.309155,0.55126953125,0.05810546875,0.91064453125,23.98681640625,27.52685546875,-16.05224609375,1.483154296875,-41.539306640625,-40.1385498046875
1758527806.3189504,0.50927734375,0.0888671875,0.923828125,25.57373046875,24.658203125,-16.11328125,1.8951416015625,-41.3031005859375,-40.341796875
1758527806.3290293,0.50927734375,0.0888671875,0.923828125,25.57373046875,24.658203125,-16.11328125,2.296142578125,-41.055908203125,-40.5450439453125
1758527806.3391414,0.56103515625,0.0908203125,0.90283203125,-18.49365234375,24.5361328125,-15.93017578125,2.2576904296875,-40.80322265625,-40.7537841796875
1758527806.3490462,0.56103515625,0.0908203125,0.90283203125,-18.49365234375,24.5361328125,-15.93017578125,2.2137451171875,-40.550537109375,-40.9625244140625
1758527806.3590147,0.51806640625,0.0654296875,1.0009765625,-13.61083984375,26.55029296875,-13.97705078125,2.208251953125,-40.2703857421875,-41.1492919921875
1758527806.3691134,0.51806640625,0.0654296875,1.0009765625,-13.61083984375,26.55029296875,-13.97705078125,2.1917724609375,-39.9847412109375,-41.341552734375
1758527806.379003,0.4208984375,0.00927734375,1.06689453125,35.15625,24.4140625,-13.48876953125,2.6641845703125,-39.715576171875,-41.5283203125
1758527806.3890305,0.4208984375,0.00927734375,1.06689453125,35.15625,24.4140625,-13.48876953125,3.1201171875,-39.4354248046875,-41.72607421875
1758527806.3990128,0.4365234375,0.0869140625,1.060546875,37.78076171875,22.94921875,-15.625,3.6199951171875,-39.1607666015625,-41.94580078125
1758527806.409478,0.4365234375,0.0869140625,1.060546875,37.78076171875,22.94921875,-15.625,4.1143798828125,-38.880615234375,-42.1710205078125
1758527806.4190316,0.4365234375,0.0869140625,1.060546875,4.33349609375,22.4609375,-18.00537109375,4.2901611328125,-38.594970703125,-42.42919921875
1758527806.4291482,0.45361328125,0.10546875,1.08154296875,4.33349609375,22.4609375,-18.00537109375,4.4659423828125,-38.309326171875,-42.6873779296875
1758527806.4394286,0.46142578125,0.09228515625,1.1640625,16.11328125,20.99609375,-16.54052734375,4.74609375,-38.03466796875,-42.923583984375
1758527806.4491751,0.46142578125,0.09228515625,1.1640625,16.11328125,20.99609375,-16.54052734375,5.020751953125,-37.7545166015625,-43.165283203125
1758527806.4591215,0.44189453125,0.123046875,1.15771484375,23.193359375,16.41845703125,-15.07568359375,5.361328125,-37.518310546875,-43.3905029296875
1758527806.469588,0.44189453125,0.123046875,1.15771484375,23.193359375,16.41845703125,-15.07568359375,5.6964111328125,-37.276611328125,-43.61572265625
1758527806.4791481,0.47900390625,0.1376953125,1.05908203125,2.685546875,12.939453125,-15.0146484375,5.82275390625,-37.06787109375,-43.8409423828125
1758527806.489152,0.47900390625,0.1376953125,1.05908203125,2.685546875,12.939453125,-15.0146484375,5.95458984375,-36.8646240234375,-44.066162109375
1758527806.4998436,-0.3193359375,0.64111328125,2.16064453125,-47.66845703125,-2.74658203125,-13.48876953125,5.5975341796875,-36.7877197265625,-44.307861328125
1758527806.5092556,-0.3193359375,0.64111328125,2.16064453125,-47.66845703125,-2.74658203125,-13.48876953125,5.262451171875,-36.6888427734375,-44.560546875
1758527806.5191422,0.15869140625,0.17431640625,2.08642578125,-22.15576171875,-25.390625,5.126953125,5.0592041015625,-36.815185546875,-44.6209716796875
1758527806.5297272,0.15869140625,0.17431640625,2.08642578125,-22.15576171875,-25.390625,5.126953125,4.8614501953125,-36.9305419921875,-44.6759033203125
1758527806.5395572,0.87841796875,0.330078125,0.68994140625,71.77734375,-33.87451171875,3.0517578125,5.614013671875,-37.1392822265625,-44.769287109375
1758527806.54927,0.87841796875,0.330078125,0.68994140625,71.77734375,-33.87451171875,3.0517578125,6.3775634765625,-37.364501953125,-44.857177734375
1758527806.5595555,0.9423828125,0.06982421875,0.47021484375,26.9775390625,-22.4609375,12.6953125,6.5972900390625,-37.50732421875,-44.80224609375
1758527806.5696626,0.9423828125,0.06982421875,0.47021484375,26.9775390625,-22.4609375,12.6953125,6.8170166015625,-37.6611328125,-44.736328125
1758527806.5792804,0.84130859375,0.12890625,0.41357421875,10.3759765625,-11.962890625,2.8076171875,6.9378662109375,-37.716064453125,-44.769287109375
1758527806.5895977,0.84130859375,0.12890625,0.41357421875,10.3759765625,-11.962890625,2.8076171875,7.05322265625,-37.79296875,-44.791259765625
1758527806.5996473,0.4052734375,0.12939453125,0.98876953125,-58.4716796875,-10.7421875,4.57763671875,6.470947265625,-37.8533935546875,-44.7857666015625
1758527806.6094205,0.4052734375,0.12939453125,0.98876953125,-58.4716796875,-10.7421875,4.57763671875,5.8831787109375,-37.913818359375,-44.7857666015625
1758527806.6196187,0.4970703125,0.02685546875,1.22314453125,-117.85888671875,-13.916015625,3.96728515625,4.7186279296875,-37.9962158203125,-44.7967529296875
1758527806.6298018,0.4970703125,0.02685546875,1.22314453125,-117.85888671875,-13.916015625,3.96728515625,3.548583984375,-38.0731201171875,-44.813232421875
1758527806.63943,0.72265625,0.07861328125,0.74609375,-68.7255859375,-15.44189453125,3.0517578125,2.87841796875,-38.1719970703125,-44.8297119140625
1758527806.649717,0.72265625,0.07861328125,0.74609375,-68.7255859375,-15.44189453125,3.0517578125,2.208251953125,-38.2818603515625,-44.8406982421875
1758527806.6598337,0.537109375,-0.173828125,0.95263671875,-0.54931640625,-14.404296875,-0.18310546875,2.2357177734375,-38.375244140625,-44.89013671875
1758527806.669446,0.537109375,-0.173828125,0.95263671875,-0.54931640625,-14.404296875,-0.18310546875,2.2576904296875,-38.4686279296875,-44.9395751953125
1758527806.6794007,0.60498046875,0.00927734375,0.7353515625,7.080078125,-14.2822265625,-3.35693359375,2.373046875,-38.5675048828125,-45.0274658203125
1758527806.689385,0.60498046875,0.00927734375,0.7353515625,7.080078125,-14.2822265625,-3.35693359375,2.4884033203125,-38.660888671875,-45.10986328125
1758527806.6997874,0.58056640625,0.1298828125,0.6826171875,1.708984375,-11.77978515625,-4.2724609375,2.5543212890625,-38.73779296875,-45.2032470703125
1758527806.7095032,0.58056640625,0.1298828125,0.6826171875,1.708984375,-11.77978515625,-4.2724609375,2.625732421875,-38.8201904296875,-45.2911376953125
1758527806.7196813,0.6259765625,0.064453125,0.8857421875,-17.51708984375,-10.498046875,-2.25830078125,2.4884033203125,-38.8916015625,-45.3515625
1758527806.7295527,0.6259765625,0.064453125,0.8857421875,-17.51708984375,-10.498046875,-2.25830078125,2.35107421875,-38.95751953125,-45.4119873046875
1758527806.7394736,0.64501953125,0.01513671875,0.75634765625,-19.95849609375,-10.8642578125,-1.52587890625,2.186279296875,-39.034423828125,-45.46142578125
1758527806.7496092,0.64501953125,0.01513671875,0.75634765625,-19.95849609375,-10.8642578125,-1.52587890625,2.0159912109375,-39.1168212890625,-45.50537109375
1758527806.7598927,0.611328125,0.00048828125,0.8193359375,-4.94384765625,-11.04736328125,-2.5634765625,1.99951171875,-39.19921875,-45.560302734375
1758527806.7702634,0.611328125,0.00048828125,0.8193359375,-4.94384765625,-11.04736328125,-2.5634765625,1.988525390625,-39.287109375,-45.615234375
1758527806.7795594,0.625,0.0478515625,0.76953125,-5.4931640625,-11.16943359375,-3.96728515625,1.9775390625,-39.3695068359375,-45.692138671875
1758527806.789766,0.625,0.0478515625,0.76953125,-5.4931640625,-11.16943359375,-3.96728515625,1.966552734375,-39.4573974609375,-45.758056640625
1758527806.8000715,0.576171875,0.05908203125,0.77392578125,-4.150390625,-10.3759765625,-4.5166015625,1.9775390625,-39.539794921875,-45.8349609375
1758527806.8095987,0.576171875,0.05908203125,0.77392578125,-4.150390625,-10.3759765625,-4.5166015625,1.9830322265625,-39.61669921875,-45.9173583984375
1758527806.8196113,0.60595703125,-0.00341796875,0.69287109375,-6.2255859375,-8.97216796875,-5.0048828125,1.9775390625,-39.6826171875,-45.9942626953125
1758527806.82966,0.60595703125,-0.00341796875,0.69287109375,-6.2255859375,-8.97216796875,-5.0048828125,1.966552734375,-39.7540283203125,-46.07666015625
1758527806.839586,0.62255859375,0.00830078125,0.79150390625,1.40380859375,-8.97216796875,-5.06591796875,2.0269775390625,-39.825439453125,-46.153564453125
1758527806.8496504,0.62255859375,0.00830078125,0.79150390625,1.40380859375,-8.97216796875,-5.06591796875,2.0928955078125,-39.8968505859375,-46.2359619140625
1758527806.8601255,0.64990234375,0.00146484375,0.76513671875,2.74658203125,-9.82666015625,-4.45556640625,2.1588134765625,-39.9737548828125,-46.307373046875
1758527806.8697135,0.64990234375,0.00146484375,0.76513671875,2.74658203125,-9.82666015625,-4.45556640625,2.230224609375,-40.05615234375,-46.3787841796875
1758527806.879689,0.67041015625,0.02490234375,0.8056640625,5.0048828125,-10.80322265625,-3.90625,2.3126220703125,-40.1495361328125,-46.439208984375
1758527806.889764,0.67041015625,0.02490234375,0.8056640625,5.0048828125,-10.80322265625,-3.90625,2.4005126953125,-40.242919921875,-46.505126953125
1758527806.9000845,0.67578125,0.0166015625,0.794921875,9.27734375,-10.92529296875,-3.5400390625,2.5213623046875,-40.3363037109375,-46.5655517578125
1758527806.909729,0.67578125,0.0166015625,0.794921875,9.27734375,-10.92529296875,-3.5400390625,2.647705078125,-40.4351806640625,-46.6204833984375
1758527806.9197352,0.66943359375,0.01171875,0.81689453125,13.7939453125,-10.55908203125,-3.47900390625,2.8125,-40.528564453125,-46.680908203125
1758527806.9298103,0.66943359375,0.01171875,0.81689453125,13.7939453125,-10.55908203125,-3.47900390625,2.977294921875,-40.616455078125,-46.73583984375
1758527806.9397533,0.6396484375,0.0390625,0.7607421875,14.95361328125,-10.07080078125,-3.11279296875,3.1475830078125,-40.704345703125,-46.790771484375
1758527806.9500566,0.6396484375,0.0390625,0.7607421875,14.95361328125,-10.07080078125,-3.11279296875,3.3233642578125,-40.792236328125,-46.8402099609375
1758527806.9601884,0.6318359375,0.0400390625,0.779296875,7.32421875,-9.3994140625,-2.50244140625,3.4112548828125,-40.8746337890625,-46.8841552734375
1758527806.9698677,0.6318359375,0.0400390625,0.779296875,7.32421875,-9.3994140625,-2.50244140625,3.504638671875,-40.9515380859375,-46.93359375
1758527806.979809,0.62060546875,0.03857421875,0.716796875,8.36181640625,-7.87353515625,-1.5869140625,3.5980224609375,-41.0174560546875,-46.9610595703125
1758527806.9898703,0.62060546875,0.03857421875,0.716796875,8.36181640625,-7.87353515625,-1.5869140625,3.69140625,-41.0888671875,-46.9940185546875
1758527807.0001142,0.63330078125,-0.001953125,0.76171875,15.869140625,-6.591796875,-1.15966796875,3.8507080078125,-41.1383056640625,-47.021484375
1758527807.009881,0.63330078125,-0.001953125,0.76171875,15.869140625,-6.591796875,-1.15966796875,4.010009765625,-41.1932373046875,-47.0489501953125
1758527807.0200756,0.65087890625,0.0322265625,0.74658203125,18.73779296875,-6.04248046875,-1.15966796875,4.2022705078125,-41.24267578125,-47.0709228515625
1758527807.0301135,0.65087890625,0.0322265625,0.74658203125,18.73779296875,-6.04248046875,-1.15966796875,4.3890380859375,-41.2921142578125,-47.098388671875
1758527807.03986,0.640625,0.0927734375,0.77294921875,10.43701171875,-5.18798828125,-0.67138671875,4.4879150390625,-41.3360595703125,-47.1148681640625
1758527807.0501182,0.640625,0.0927734375,0.77294921875,10.43701171875,-5.18798828125,-0.67138671875,4.59228515625,-41.37451171875,-47.1368408203125
1758527807.0602415,0.6806640625,0.1171875,0.76220703125,-0.6103515625,-4.57763671875,0.0,4.581298828125,-41.407470703125,-47.142333984375
1758527807.0699484,0.6806640625,0.1171875,0.76220703125,-0.6103515625,-4.57763671875,0.0,4.5703125,-41.4459228515625,-47.1533203125
1758527807.0805779,0.70263671875,0.05859375,0.80078125,-0.9765625,-4.69970703125,0.30517578125,4.559326171875,-41.484375,-47.1588134765625
1758527807.0901878,0.70263671875,0.05859375,0.80078125,-0.9765625,-4.69970703125,0.30517578125,4.54833984375,-41.5228271484375,-47.164306640625
1758527807.1002343,0.7080078125,0.04541015625,0.7900390625,2.50244140625,-5.615234375,0.6103515625,4.5648193359375,-41.572265625,-47.164306640625
1758527807.110175,0.7080078125,0.04541015625,0.7900390625,2.50244140625,-5.615234375,0.6103515625,4.5867919921875,-41.6217041015625,-47.164306640625
1758527807.120016,0.701171875,0.04833984375,0.76708984375,1.64794921875,-6.34765625,0.244140625,4.603271484375,-41.68212890625,-47.1697998046875
1758527807.130326,0.68994140625,0.07080078125,0.7900390625,-0.732421875,-7.26318359375,0.244140625,4.603271484375,-41.7425537109375,-47.17529296875
1758527807.1400428,0.68994140625,0.07080078125,0.7900390625,-0.732421875,-7.26318359375,0.244140625,4.5977783203125,-41.8084716796875,-47.1807861328125
1758527807.1500947,0.66943359375,0.0263671875,0.71337890625,5.06591796875,-8.23974609375,0.79345703125,4.6142578125,-41.8798828125,-47.1807861328125
1758527807.1604211,0.66943359375,0.0263671875,0.71337890625,5.06591796875,-8.23974609375,0.79345703125,4.658203125,-41.9622802734375,-47.1807861328125
1758527807.1701028,0.65234375,0.00927734375,0.7529296875,8.9111328125,-9.21630859375,0.732421875,4.72412109375,-42.044677734375,-47.1807861328125
1758527807.1801326,0.65234375,0.00927734375,0.7529296875,8.9111328125,-9.21630859375,0.732421875,4.801025390625,-42.132568359375,-47.186279296875
1758527807.1902313,0.642578125,0.08447265625,0.69140625,4.82177734375,-9.09423828125,1.0986328125,4.8614501953125,-42.2149658203125,-47.1807861328125
1758527807.2003975,0.642578125,0.08447265625,0.69140625,4.82177734375,-9.09423828125,1.0986328125,4.89990234375,-42.3028564453125,-47.1807861328125
1758527807.2102163,0.68359375,0.1171875,0.76220703125,-5.37109375,-8.48388671875,2.0751953125,4.8834228515625,-42.38525390625,-47.1697998046875
1758527807.2201755,0.68359375,0.1171875,0.76220703125,-5.37109375,-8.48388671875,2.0751953125,4.81201171875,-42.4676513671875,-47.1533203125
1758527807.230379,0.689453125,0.1015625,0.76123046875,-15.2587890625,-8.23974609375,4.08935546875,4.691162109375,-42.5445556640625,-47.120361328125
1758527807.240182,0.689453125,0.1015625,0.76123046875,-15.2587890625,-8.23974609375,4.08935546875,4.5098876953125,-42.626953125,-47.076416015625
1758527807.250267,0.66357421875,0.00927734375,0.734375,-6.40869140625,-7.62939453125,4.08935546875,4.37255859375,-42.703857421875,-47.032470703125
1758527807.260443,0.66357421875,0.00927734375,0.734375,-6.40869140625,-7.62939453125,4.08935546875,4.2791748046875,-42.7752685546875,-46.9830322265625
1758527807.270236,0.64501953125,0.037109375,0.73388671875,-5.43212890625,-6.8359375,3.84521484375,4.1912841796875,-42.8411865234375,-46.9390869140625
1758527807.2802777,0.64501953125,0.037109375,0.73388671875,-5.43212890625,-6.8359375,3.84521484375,4.10888671875,-42.9071044921875,-46.900634765625
1758527807.290272,0.6572265625,0.09375,0.6689453125,-4.0283203125,-5.859375,4.21142578125,4.0264892578125,-42.9620361328125,-46.856689453125
1758527807.300826,0.6572265625,0.09375,0.6689453125,-4.0283203125,-5.859375,4.21142578125,3.955078125,-43.0169677734375,-46.8072509765625
1758527807.3103108,0.611328125,0.05126953125,0.6728515625,-6.40869140625,-4.21142578125,4.57763671875,3.8726806640625,-43.06640625,-46.7523193359375
1758527807.3203325,0.611328125,0.05126953125,0.6728515625,-6.40869140625,-4.21142578125,4.57763671875,3.7738037109375,-43.1048583984375,-46.6973876953125
1758527807.3306751,0.63720703125,0.017578125,0.740234375,-4.94384765625,-3.35693359375,4.2724609375,3.680419921875,-43.1378173828125,-46.6424560546875
1758527807.3404272,0.63720703125,0.017578125,0.740234375,-4.94384765625,-3.35693359375,4.2724609375,3.5980224609375,-43.1707763671875,-46.593017578125
1758527807.3503385,0.6357421875,0.0615234375,0.64208984375,-3.47900390625,-2.5634765625,3.84521484375,3.526611328125,-43.1927490234375,-46.549072265625
1758527807.360799,0.6357421875,0.0615234375,0.64208984375,-3.47900390625,-2.5634765625,3.84521484375,3.460693359375,-43.2147216796875,-46.4996337890625
1758527807.3706489,0.62353515625,0.07373046875,0.67578125,-7.26318359375,-1.8310546875,3.84521484375,3.3782958984375,-43.231201171875,-46.4556884765625
1758527807.380324,0.62353515625,0.07373046875,0.67578125,-7.26318359375,-1.8310546875,3.84521484375,3.2794189453125,-43.2476806640625,-46.40625
1758527807.39055,0.626953125,0.04150390625,0.64404296875,-5.67626953125,-1.28173828125,3.173828125,3.1915283203125,-43.2586669921875,-46.3623046875
1758527807.4006252,0.626953125,0.04150390625,0.64404296875,-5.67626953125,-1.28173828125,3.173828125,3.1146240234375,-43.2696533203125,-46.3238525390625
1758527807.410454,0.611328125,0.052734375,0.68212890625,-4.57763671875,-0.48828125,1.953125,3.0487060546875,-43.2806396484375,-46.2908935546875
1758527807.4204206,0.611328125,0.052734375,0.68212890625,-4.57763671875,-0.48828125,1.953125,2.9937744140625,-43.2806396484375,-46.263427734375
1758527807.4307222,0.61474609375,0.048828125,0.65673828125,-2.0751953125,0.06103515625,1.220703125,2.9498291015625,-43.2806396484375,-46.2469482421875
1758527807.440533,0.61474609375,0.048828125,0.65673828125,-2.0751953125,0.06103515625,1.220703125,2.9278564453125,-43.275146484375,-46.23046875
1758527807.4507794,0.6435546875,0.04150390625,0.68359375,-2.5634765625,0.8544921875,0.244140625,2.9058837890625,-43.26416015625,-46.2249755859375
1758527807.4605503,0.6435546875,0.04150390625,0.68359375,-2.5634765625,0.8544921875,0.244140625,2.889404296875,-43.253173828125,-46.219482421875
1758527807.4704978,0.662109375,0.0673828125,0.7216796875,-1.8310546875,1.89208984375,-1.28173828125,2.87841796875,-43.2366943359375,-46.23046875
1758527807.480569,0.662109375,0.0673828125,0.7216796875,-1.8310546875,1.89208984375,-1.28173828125,2.8839111328125,-43.2147216796875,-46.2469482421875
1758527807.490703,0.66455078125,0.05224609375,0.724609375,-2.86865234375,2.9296875,-2.50244140625,2.8839111328125,-43.187255859375,-46.2689208984375
1758527807.5007317,0.66455078125,0.05224609375,0.724609375,-2.86865234375,2.9296875,-2.50244140625,2.889404296875,-43.154296875,-46.3018798828125
1758527807.510548,0.67626953125,0.00390625,0.732421875,3.173828125,3.47900390625,-3.2958984375,2.92236328125,-43.1158447265625,-46.34033203125
1758527807.520546,0.67626953125,0.00390625,0.732421875,3.173828125,3.47900390625,-3.2958984375,2.98828125,-43.077392578125,-46.38427734375
1758527807.5308316,0.66748046875,0.05615234375,0.765625,2.99072265625,3.35693359375,-2.62451171875,3.0487060546875,-43.0389404296875,-46.4227294921875
1758527807.5406215,0.66748046875,0.05615234375,0.765625,2.99072265625,3.35693359375,-2.62451171875,3.1036376953125,-43.00048828125,-46.461181640625
1758527807.5509098,0.6943359375,0.05859375,0.72998046875,-4.45556640625,2.62451171875,-0.8544921875,3.1146240234375,-42.967529296875,-46.483154296875
1758527807.5610795,0.6943359375,0.05859375,0.72998046875,-4.45556640625,2.62451171875,-0.8544921875,3.0816650390625,-42.9345703125,-46.494140625
1758527807.5710075,0.7080078125,0.0048828125,0.75048828125,-1.8310546875,1.46484375,0.18310546875,3.0596923828125,-42.91259765625,-46.4996337890625
1758527807.5806181,0.7080078125,0.0048828125,0.75048828125,-1.8310546875,1.46484375,0.18310546875,3.0377197265625,-42.8961181640625,-46.494140625
1758527807.590915,0.7197265625,0.01953125,0.7568359375,-1.0986328125,0.3662109375,0.732421875,3.021240234375,-42.8851318359375,-46.4886474609375
1758527807.6009004,0.7197265625,0.01953125,0.7568359375,-1.0986328125,0.3662109375,0.732421875,3.0047607421875,-42.8851318359375,-46.4776611328125
1758527807.610673,0.71923828125,0.03857421875,0.77587890625,-3.173828125,-0.6103515625,1.708984375,2.9718017578125,-42.8851318359375,-46.461181640625
1758527807.6208405,0.71923828125,0.03857421875,0.77587890625,-3.173828125,-0.6103515625,1.708984375,2.92236328125,-42.890625,-46.439208984375
1758527807.6308877,0.71240234375,0.0517578125,0.7744140625,-10.498046875,-1.46484375,2.8076171875,2.83447265625,-42.901611328125,-46.40625
1758527807.6407442,0.71240234375,0.0517578125,0.7744140625,-10.498046875,-1.46484375,2.8076171875,2.70263671875,-42.9180908203125,-46.3677978515625
1758527807.6508095,0.72998046875,0.0126953125,0.74560546875,-9.033203125,-2.3193359375,3.11279296875,2.581787109375,-42.9400634765625,-46.329345703125
1758527807.6608412,0.72998046875,0.0126953125,0.74560546875,-9.033203125,-2.3193359375,3.11279296875,2.4664306640625,-42.9620361328125,-46.2908935546875
1758527807.6707935,0.73583984375,-0.021484375,0.80908203125,-0.9765625,-3.2958984375,3.47900390625,2.3895263671875,-42.9949951171875,-46.241455078125
1758527807.6807623,0.73583984375,-0.021484375,0.80908203125,-0.9765625,-3.2958984375,3.47900390625,2.3455810546875,-43.0279541015625,-46.197509765625
1758527807.690923,0.7421875,0.029296875,0.78173828125,-2.197265625,-4.69970703125,4.5166015625,2.2906494140625,-43.06640625,-46.142578125
1758527807.7009175,0.7421875,0.029296875,0.78173828125,-2.197265625,-4.69970703125,4.5166015625,2.2247314453125,-43.1158447265625,-46.0821533203125
1758527807.710777,0.68408203125,0.04248046875,0.74560546875,-7.99560546875,-6.04248046875,5.67626953125,2.1258544921875,-43.1707763671875,-46.0162353515625
1758527807.7207675,0.68408203125,0.04248046875,0.74560546875,-7.99560546875,-6.04248046875,5.67626953125,1.99951171875,-43.231201171875,-45.94482421875
1758527807.7310596,0.66796875,0.060546875,0.71435546875,-14.0380859375,-6.16455078125,5.92041015625,1.834716796875,-43.2916259765625,-45.867919921875
1758527807.7408464,0.66796875,0.060546875,0.71435546875,-14.0380859375,-6.16455078125,5.92041015625,1.64794921875,-43.3575439453125,-45.791015625
1758527807.7508388,0.67822265625,0.048828125,0.68408203125,-17.27294921875,-5.67626953125,4.57763671875,1.4501953125,-43.4124755859375,-45.72509765625
1758527807.7609403,0.67822265625,0.048828125,0.68408203125,-17.27294921875,-5.67626953125,4.57763671875,1.241455078125,-43.4674072265625,-45.6646728515625
1758527807.770883,0.65625,-0.0166015625,0.7158203125,-20.1416015625,-5.9814453125,4.2724609375,1.0272216796875,-43.52783203125,-45.604248046875
1758527807.7808814,0.65625,-0.0166015625,0.7158203125,-20.1416015625,-5.9814453125,4.2724609375,0.791015625,-43.582763671875,-45.54931640625
1758527807.7916677,0.65966796875,0.02490234375,0.69677734375,-22.216796875,-6.8359375,5.126953125,0.54931640625,-43.648681640625,-45.4833984375
1758527807.801016,0.65966796875,0.02490234375,0.69677734375,-22.216796875,-6.8359375,5.126953125,0.28564453125,-43.714599609375,-45.41748046875
1758527807.8109064,0.65283203125,0.04248046875,0.6767578125,-22.3388671875,-7.62939453125,5.31005859375,0.0274658203125,-43.780517578125,-45.3460693359375
1758527807.8208814,0.65283203125,0.04248046875,0.6767578125,-22.3388671875,-7.62939453125,5.31005859375,-0.2252197265625,-43.857421875,-45.274658203125
1758527807.8310921,0.65087890625,-0.0244140625,0.6728515625,-22.8271484375,-8.056640625,4.69970703125,-0.4833984375,-43.9288330078125,-45.208740234375
1758527807.8410227,0.65087890625,-0.0244140625,0.6728515625,-22.8271484375,-8.056640625,4.69970703125,-0.7470703125,-44.0057373046875,-45.142822265625
1758527807.8512573,0.673828125,-0.0478515625,0.6865234375,-12.87841796875,-8.11767578125,3.47900390625,-0.9503173828125,-44.0826416015625,-45.087890625
1758527807.8610477,0.673828125,-0.0478515625,0.6865234375,-12.87841796875,-8.11767578125,3.47900390625,-1.1041259765625,-44.1595458984375,-45.0384521484375
1758527807.87099,0.673828125,-0.0302734375,0.69287109375,-5.7373046875,-8.4228515625,2.01416015625,-1.2139892578125,-44.2364501953125,-44.9945068359375
1758527807.8810387,0.673828125,-0.0302734375,0.69287109375,-5.7373046875,-8.4228515625,2.01416015625,-1.285400390625,-44.31884765625,-44.967041015625
1758527807.8916085,0.68017578125,-0.00390625,0.685546875,-2.86865234375,-9.46044921875,0.91552734375,-1.3348388671875,-44.40673828125,-44.945068359375
1758527807.9016738,0.68017578125,-0.00390625,0.685546875,-2.86865234375,-9.46044921875,0.91552734375,-1.3677978515625,-44.49462890625,-44.9285888671875
1758527807.9109876,0.7177734375,-0.01220703125,0.7001953125,0.30517578125,-9.6435546875,-0.30517578125,-1.373291015625,-44.5880126953125,-44.923095703125
1758527807.921028,0.7177734375,-0.01220703125,0.7001953125,0.30517578125,-9.6435546875,-0.30517578125,-1.3623046875,-44.681396484375,-44.923095703125
1758527807.9312236,0.703125,-0.0634765625,0.74169921875,5.79833984375,-9.21630859375,-1.15966796875,-1.3238525390625,-44.7747802734375,-44.9285888671875
1758527807.941054,0.703125,-0.0634765625,0.74169921875,5.79833984375,-9.21630859375,-1.15966796875,-1.25244140625,-44.8626708984375,-44.945068359375
1758527807.9511855,0.71728515625,0.0068359375,0.69384765625,3.90625,-8.97216796875,-1.5869140625,-1.1920166015625,-44.945068359375,-44.9615478515625
1758527807.9612062,0.71728515625,0.0068359375,0.69384765625,3.90625,-8.97216796875,-1.5869140625,-1.1370849609375,-45.032958984375,-44.9835205078125
1758527807.971152,0.72119140625,0.00146484375,0.7099609375,7.87353515625,-9.6435546875,-2.99072265625,-1.0546875,-45.120849609375,-45.010986328125
1758527807.9812088,0.72119140625,0.00146484375,0.7099609375,7.87353515625,-9.6435546875,-2.99072265625,-0.94482421875,-45.2142333984375,-45.0494384765625
1758527807.9914732,0.72119140625,0.00146484375,0.7099609375,18.37158203125,-11.04736328125,-5.126953125,-0.7745361328125,-45.318603515625,-45.1043701171875
1758527808.0013735,0.7099609375,-0.07861328125,0.69970703125,18.37158203125,-11.04736328125,-5.126953125,-0.5438232421875,-45.4229736328125,-45.17578125
1758527808.0111675,0.6806640625,-0.0126953125,0.6572265625,24.2919921875,-11.29150390625,-6.591796875,-0.2801513671875,-45.5328369140625,-45.2581787109375
1758527808.0211627,0.6806640625,-0.0126953125,0.6572265625,24.2919921875,-11.29150390625,-6.591796875,0.010986328125,-45.6427001953125,-45.3515625
1758527808.0312324,0.6806640625,0.02587890625,0.65576171875,20.3857421875,-11.23046875,-6.77490234375,0.296630859375,-45.7470703125,-45.450439453125
1758527808.041226,0.6806640625,0.02587890625,0.65576171875,20.3857421875,-11.23046875,-6.77490234375,0.560302734375,-45.85693359375,-45.5438232421875
1758527808.0512657,0.69580078125,0.05908203125,0.6767578125,13.85498046875,-11.77978515625,-6.4697265625,0.791015625,-45.966796875,-45.6427001953125
1758527808.0613139,0.69580078125,0.05908203125,0.6767578125,13.85498046875,-11.77978515625,-6.4697265625,0.98876953125,-46.07666015625,-45.736083984375
1758527808.0712843,0.701171875,-0.0107421875,0.68603515625,16.357421875,-11.23046875,-6.77490234375,1.20849609375,-46.1865234375,-45.8349609375
1758527808.0812993,0.701171875,-0.0107421875,0.68603515625,16.357421875,-11.23046875,-6.77490234375,1.4337158203125,-46.2908935546875,-45.933837890625
1758527808.0915892,0.7705078125,-0.02392578125,0.71923828125,26.123046875,-9.6435546875,-8.4228515625,1.7193603515625,-46.3897705078125,-46.0491943359375
1758527808.1014442,0.7705078125,-0.02392578125,0.71923828125,26.123046875,-9.6435546875,-8.4228515625,2.0599365234375,-46.4776611328125,-46.175537109375
1758527808.1112792,0.7646484375,0.05615234375,0.751953125,21.3623046875,-10.55908203125,-8.97216796875,2.3785400390625,-46.571044921875,-46.3018798828125
1758527808.1212938,0.7646484375,0.05615234375,0.751953125,21.3623046875,-10.55908203125,-8.97216796875,2.6751708984375,-46.6644287109375,-46.439208984375
1758527808.1314266,0.775390625,0.11279296875,0.7333984375,2.01416015625,-10.92529296875,-7.26318359375,2.8729248046875,-46.7633056640625,-46.56005859375
1758527808.1413472,0.775390625,0.11279296875,0.7333984375,2.01416015625,-10.92529296875,-7.26318359375,2.96630859375,-46.8621826171875,-46.6754150390625
1758527808.1517622,0.70263671875,0.05419921875,0.67578125,-4.57763671875,-10.498046875,-4.8828125,2.9718017578125,-46.95556640625,-46.7523193359375
1758527808.1615243,0.70263671875,0.05419921875,0.67578125,-4.57763671875,-10.498046875,-4.8828125,2.9827880859375,-47.0489501953125,-46.8292236328125
1758527808.171535,0.75,-0.01904296875,0.6591796875,0.48828125,-10.1318359375,-4.5166015625,3.0322265625,-47.142333984375,-46.9061279296875
1758527808.1814866,0.75,-0.01904296875,0.6591796875,0.48828125,-10.1318359375,-4.5166015625,3.0816650390625,-47.2357177734375,-46.9775390625
1758527808.1913815,0.7587890625,0.052734375,0.7275390625,0.30517578125,-9.033203125,-4.21142578125,3.131103515625,-47.318115234375,-47.04345703125
1758527808.2019289,0.7587890625,0.052734375,0.7275390625,0.30517578125,-9.033203125,-4.21142578125,3.175048828125,-47.4005126953125,-47.109375
1758527808.2114418,0.77880859375,0.1005859375,0.71728515625,-11.23046875,-7.75146484375,-2.38037109375,3.0926513671875,-47.471923828125,-47.1478271484375
1758527808.2215786,0.77880859375,0.1005859375,0.71728515625,-11.23046875,-7.75146484375,-2.38037109375,3.01025390625,-47.537841796875,-47.186279296875
1758527808.2318037,0.748046875,-0.01708984375,0.69482421875,-16.78466796875,-6.65283203125,-0.48828125,2.8509521484375,-47.5982666015625,-47.197265625
1758527808.2415025,0.748046875,-0.01708984375,0.69482421875,-16.78466796875,-6.65283203125,-0.48828125,2.691650390625,-47.65869140625,-47.208251953125
1758527808.251716,0.75390625,-0.02587890625,0.64013671875,-9.94873046875,-5.67626953125,0.42724609375,2.5872802734375,-47.713623046875,-47.208251953125
1758527808.2616382,0.75390625,-0.02587890625,0.64013671875,-9.94873046875,-5.67626953125,0.42724609375,2.4774169921875,-47.7630615234375,-47.2027587890625
1758527808.2715416,0.7021484375,0.017578125,0.68603515625,-4.39453125,-5.43212890625,1.40380859375,2.4169921875,-47.8125,-47.1807861328125
1758527808.2815328,0.7021484375,0.017578125,0.68603515625,-4.39453125,-5.43212890625,1.40380859375,2.3565673828125,-47.8619384765625,-47.164306640625
1758527808.2920744,0.7451171875,0.0341796875,0.62646484375,-4.8828125,-5.37109375,3.23486328125,2.2686767578125,-47.9168701171875,-47.1148681640625
1758527808.3019419,0.7451171875,0.0341796875,0.62646484375,-4.8828125,-5.37109375,3.23486328125,2.1807861328125,-47.96630859375,-47.0654296875
1758527808.3115923,0.73095703125,0.0078125,0.67333984375,-4.94384765625,-5.4931640625,3.7841796875,2.0928955078125,-48.021240234375,-47.010498046875
1758527808.3218703,0.73095703125,0.0078125,0.67333984375,-4.94384765625,-5.4931640625,3.7841796875,1.99951171875,-48.0706787109375,-46.95556640625
1758527808.332078,0.73583984375,0.0185546875,0.6474609375,-3.41796875,-5.43212890625,3.72314453125,1.922607421875,-48.1256103515625,-46.900634765625
1758527808.3416624,0.73583984375,0.0185546875,0.6474609375,-3.41796875,-5.43212890625,3.72314453125,1.8511962890625,-48.175048828125,-46.845703125
1758527808.351626,0.73583984375,0.0302734375,0.65283203125,-0.67138671875,-5.06591796875,3.23486328125,1.8072509765625,-48.2244873046875,-46.8017578125
1758527808.3617587,0.73583984375,0.0302734375,0.65283203125,-0.67138671875,-5.06591796875,3.23486328125,1.7633056640625,-48.27392578125,-46.7523193359375
1758527808.3716218,0.72607421875,0.0185546875,0.68115234375,-0.30517578125,-4.21142578125,4.0283203125,1.7193603515625,-48.3123779296875,-46.69189453125
1758527808.3816705,0.72607421875,0.0185546875,0.68115234375,-0.30517578125,-4.21142578125,4.0283203125,1.669921875,-48.350830078125,-46.6314697265625
1758527808.391592,0.736328125,0.01904296875,0.64599609375,-4.2724609375,-2.50244140625,4.39453125,1.58203125,-48.372802734375,-46.5655517578125
1758527808.4020352,0.736328125,0.01904296875,0.64599609375,-4.2724609375,-2.50244140625,4.39453125,1.494140625,-48.394775390625,-46.4996337890625
1758527808.411621,0.7451171875,0.01220703125,0.66650390625,-4.39453125,-0.54931640625,4.5166015625,1.4007568359375,-48.4002685546875,-46.4337158203125
1758527808.4217095,0.7451171875,0.01220703125,0.66650390625,-4.39453125,-0.54931640625,4.5166015625,1.307373046875,-48.4002685546875,-46.3623046875
1758527808.4321208,0.75634765625,-0.0107421875,0.68359375,0.0,0.6103515625,4.21142578125,1.2579345703125,-48.394775390625,-46.29638671875
1758527808.4417846,0.75634765625,-0.0107421875,0.68359375,0.0,0.6103515625,4.21142578125,1.2139892578125,-48.3837890625,-46.23046875
1758527808.4518144,0.75244140625,0.03369140625,0.6650390625,-2.38037109375,1.0986328125,4.638671875,1.1370849609375,-48.372802734375,-46.16455078125
1758527808.4621253,0.75244140625,0.03369140625,0.6650390625,-2.38037109375,1.0986328125,4.638671875,1.0601806640625,-48.36181640625,-46.0931396484375
1758527808.472143,0.74658203125,0.02490234375,0.66455078125,-4.39453125,1.8310546875,5.615234375,0.955810546875,-48.33984375,-46.0052490234375
1758527808.4818819,0.74658203125,0.02490234375,0.66455078125,-4.39453125,1.8310546875,5.615234375,0.8514404296875,-48.3233642578125,-45.9228515625
1758527808.4918077,0.728515625,-0.029296875,0.66650390625,-1.89208984375,2.50244140625,5.7373046875,0.7745361328125,-48.2958984375,-45.8349609375
1758527808.502757,0.728515625,-0.029296875,0.66650390625,-1.89208984375,2.50244140625,5.7373046875,0.692138671875,-48.2684326171875,-45.7470703125
1758527808.511764,0.7294921875,-0.0029296875,0.63623046875,-0.18310546875,3.60107421875,5.4931640625,0.626220703125,-48.2354736328125,-45.6646728515625
1758527808.5225189,0.7294921875,-0.0029296875,0.63623046875,-0.18310546875,3.60107421875,5.4931640625,0.5657958984375,-48.197021484375,-45.5767822265625
1758527808.532242,0.74169921875,0.03564453125,0.65966796875,-0.79345703125,4.82177734375,5.67626953125,0.494384765625,-48.1475830078125,-45.494384765625
1758527808.5423286,0.74169921875,0.03564453125,0.65966796875,-0.79345703125,4.82177734375,5.67626953125,0.428466796875,-48.1036376953125,-45.406494140625
1758527808.552109,0.7548828125,-0.00537109375,0.69140625,-4.638671875,5.79833984375,5.9814453125,0.318603515625,-48.043212890625,-45.3131103515625
1758527808.5619547,0.7548828125,-0.00537109375,0.69140625,-4.638671875,5.79833984375,5.9814453125,0.208740234375,-47.98828125,-45.2252197265625
1758527808.5718102,0.74658203125,-0.0009765625,0.68994140625,-5.18798828125,7.14111328125,5.7373046875,0.0933837890625,-47.9168701171875,-45.1373291015625
1758527808.5818655,0.74658203125,-0.0009765625,0.68994140625,-5.18798828125,7.14111328125,5.7373046875,-0.010986328125,-47.845458984375,-45.054931640625
1758527808.5918207,0.7353515625,-0.01025390625,0.6650390625,-0.732421875,8.056640625,4.94384765625,-0.0714111328125,-47.7685546875,-44.97802734375
1758527808.6028461,0.7353515625,-0.01025390625,0.6650390625,-0.732421875,8.056640625,4.94384765625,-0.1263427734375,-47.6861572265625,-44.9066162109375
1758527808.6118748,0.744140625,0.025390625,0.65283203125,-2.25830078125,8.36181640625,4.2724609375,-0.1922607421875,-47.603759765625,-44.8406982421875
1758527808.6221125,0.744140625,0.025390625,0.65283203125,-2.25830078125,8.36181640625,4.2724609375,-0.2581787109375,-47.52685546875,-44.7747802734375
1758527808.632442,0.74755859375,0.05517578125,0.70654296875,-9.033203125,9.21630859375,4.5166015625,-0.3900146484375,-47.4334716796875,-44.7088623046875
1758527808.6421041,0.74755859375,0.05517578125,0.70654296875,-9.033203125,9.21630859375,4.5166015625,-0.516357421875,-47.3455810546875,-44.6429443359375
1758527808.652182,0.73486328125,0.03076171875,0.7060546875,-18.798828125,11.04736328125,5.2490234375,-0.7470703125,-47.2357177734375,-44.5660400390625
1758527808.662222,0.73486328125,0.03076171875,0.7060546875,-18.798828125,11.04736328125,5.2490234375,-0.9722900390625,-47.1258544921875,-44.49462890625
1758527808.6719542,0.7265625,-0.05810546875,0.6650390625,-17.578125,12.51220703125,5.37109375,-1.1920166015625,-47.0050048828125,-44.417724609375
1758527808.682098,0.7265625,-0.05810546875,0.6650390625,-17.578125,12.51220703125,5.37109375,-1.4117431640625,-46.878662109375,-44.3408203125
1758527808.6919765,0.7158203125,-0.0517578125,0.66455078125,-10.07080078125,13.0615234375,4.7607421875,-1.549072265625,-46.7523193359375,-44.27490234375
1758527808.7026653,0.7158203125,-0.0517578125,0.66455078125,-10.07080078125,13.0615234375,4.7607421875,-1.6864013671875,-46.6259765625,-44.2144775390625
1758527808.7120187,0.71484375,-0.0234375,0.693359375,-8.23974609375,13.61083984375,5.126953125,-1.812744140625,-46.494140625,-44.14306640625
1758527808.72209,0.71484375,-0.0234375,0.693359375,-8.23974609375,13.61083984375,5.126953125,-1.9390869140625,-46.3568115234375,-44.0771484375
1758527808.73251,0.71435546875,0.01025390625,0.689453125,-12.63427734375,13.73291015625,5.4931640625,-2.109375,-46.2249755859375,-44.000244140625
1758527808.7421818,0.71435546875,0.01025390625,0.689453125,-12.63427734375,13.73291015625,5.4931640625,-2.274169921875,-46.0931396484375,-43.9288330078125
1758527808.7523608,0.70166015625,-0.04345703125,0.65625,-12.39013671875,12.87841796875,4.69970703125,-2.4334716796875,-45.966796875,-43.8739013671875
1758527808.762703,0.70166015625,-0.04345703125,0.65625,-12.39013671875,12.87841796875,4.69970703125,-2.5872802734375,-45.8404541015625,-43.8134765625
1758527808.7722268,0.68310546875,-0.0107421875,0.849609375,-10.80322265625,9.8876953125,4.21142578125,-2.724609375,-45.7415771484375,-43.758544921875
1758527808.7821164,0.68310546875,-0.0107421875,0.849609375,-10.80322265625,9.8876953125,4.21142578125,-2.8619384765625,-45.6427001953125,-43.714599609375
1758527808.7921274,0.8154296875,0.03662109375,0.44384765625,-17.333984375,-5.126953125,0.42724609375,-3.0267333984375,-45.6976318359375,-43.70361328125
1758527808.8025327,0.8154296875,0.03662109375,0.44384765625,-17.333984375,-5.126953125,0.42724609375,-3.1915283203125,-45.758056640625,-43.6871337890625
1758527808.8121984,0.74609375,-0.044921875,0.5439453125,0.6103515625,-12.8173828125,-5.37109375,-3.1201171875,-45.9063720703125,-43.7420654296875
1758527808.8227596,0.74609375,-0.044921875,0.5439453125,0.6103515625,-12.8173828125,-5.37109375,-3.05419921875,-46.0546875,-43.79150390625
1758527808.83271,0.65576171875,-0.1484375,0.6591796875,41.1376953125,-14.0380859375,-8.1787109375,-2.559814453125,-46.2139892578125,-43.8848876953125
1758527808.8422642,0.65576171875,-0.1484375,0.6591796875,41.1376953125,-14.0380859375,-8.1787109375,-2.0709228515625,-46.3677978515625,-43.9837646484375
1758527808.8522677,0.6884765625,-0.0859375,0.66357421875,39.36767578125,-10.3759765625,-9.33837890625,-1.593017578125,-46.4886474609375,-44.09912109375
1758527808.8623493,0.6884765625,-0.0859375,0.66357421875,39.36767578125,-10.3759765625,-9.33837890625,-1.12060546875,-46.5985107421875,-44.219970703125
1758527808.8722126,0.75634765625,0.12744140625,0.87451171875,14.34326171875,-4.39453125,-8.056640625,-0.9063720703125,-46.64794921875,-44.329833984375
1758527808.8822596,0.75634765625,0.12744140625,0.87451171875,14.34326171875,-4.39453125,-8.056640625,-0.68115234375,-46.6973876953125,-44.4451904296875
1758527808.8922286,0.80419921875,0.05029296875,0.78955078125,-5.4931640625,-3.5400390625,-7.26318359375,-0.6591796875,-46.7303466796875,-44.549560546875
1758527808.9028034,0.80419921875,0.05029296875,0.78955078125,-5.4931640625,-3.5400390625,-7.26318359375,-0.6317138671875,-46.7633056640625,-44.659423828125
1758527808.9123275,0.802734375,0.0048828125,0.6552734375,-7.01904296875,-5.43212890625,-7.01904296875,-0.626220703125,-46.8182373046875,-44.75830078125
1758527808.9225802,0.802734375,0.0048828125,0.6552734375,-7.01904296875,-5.43212890625,-7.01904296875,-0.6207275390625,-46.8731689453125,-44.857177734375
1758527808.9328346,0.74658203125,-0.0634765625,0.732421875,-1.03759765625,-4.69970703125,-5.43212890625,-0.5712890625,-46.9171142578125,-44.93408203125
1758527808.9423537,0.74658203125,-0.0634765625,0.732421875,-1.03759765625,-4.69970703125,-5.43212890625,-0.52734375,-46.966552734375,-45.0054931640625
1758527808.9523866,0.73193359375,-0.07177734375,0.73583984375,-1.708984375,-3.35693359375,-2.44140625,-0.5218505859375,-46.99951171875,-45.0439453125
1758527808.962621,0.73193359375,-0.07177734375,0.73583984375,-1.708984375,-3.35693359375,-2.44140625,-0.5218505859375,-47.0269775390625,-45.076904296875
1758527808.9723372,0.75634765625,0.0234375,0.66064453125,-11.3525390625,-4.7607421875,-0.18310546875,-0.63720703125,-47.0709228515625,-45.076904296875
1758527808.9824226,0.75634765625,0.0234375,0.66064453125,-11.3525390625,-4.7607421875,-0.18310546875,-0.7525634765625,-47.120361328125,-45.076904296875
1758527808.9923518,0.75634765625,0.0234375,0.66064453125,-14.2822265625,-6.34765625,0.54931640625,-0.9063720703125,-47.1807861328125,-45.06591796875
1758527809.0029125,0.78759765625,-0.0078125,0.6416015625,-14.2822265625,-6.34765625,0.54931640625,-1.0546875,-47.2467041015625,-45.054931640625
1758527809.012388,0.76318359375,-0.07568359375,0.720703125,-2.62451171875,-6.28662109375,0.244140625,-1.087646484375,-47.3126220703125,-45.0439453125
1758527809.0228372,0.76318359375,-0.07568359375,0.720703125,-2.62451171875,-6.28662109375,0.244140625,-1.1260986328125,-47.373046875,-45.0384521484375
1758527809.0330148,0.6982421875,-0.03662109375,0.7021484375,0.3662109375,-5.67626953125,0.42724609375,-1.131591796875,-47.427978515625,-45.0274658203125
1758527809.0424466,0.6982421875,-0.03662109375,0.7021484375,0.3662109375,-5.67626953125,0.42724609375,-1.142578125,-47.48291015625,-45.0164794921875
1758527809.0524697,0.6943359375,0.0439453125,0.62841796875,-3.7841796875,-5.18798828125,1.0986328125,-1.197509765625,-47.5323486328125,-45.0
1758527809.0627258,0.6943359375,0.0439453125,0.62841796875,-3.7841796875,-5.18798828125,1.0986328125,-1.2469482421875,-47.581787109375,-44.9835205078125
1758527809.0725303,0.71435546875,0.00439453125,0.625,-9.1552734375,-5.06591796875,1.8310546875,-1.3568115234375,-47.6312255859375,-44.9560546875
1758527809.0825596,0.71435546875,0.00439453125,0.625,-9.1552734375,-5.06591796875,1.8310546875,-1.4666748046875,-47.6751708984375,-44.9285888671875
1758527809.0925384,0.74658203125,-0.048828125,0.64990234375,-2.74658203125,-5.126953125,1.3427734375,-1.5106201171875,-47.724609375,-44.9066162109375
1758527809.1028466,0.74658203125,-0.048828125,0.64990234375,-2.74658203125,-5.126953125,1.3427734375,-1.5545654296875,-47.779541015625,-44.879150390625
1758527809.1125324,0.71240234375,-0.1005859375,0.6572265625,13.18359375,-3.7841796875,-0.732421875,-1.417236328125,-47.8125,-44.89013671875
1758527809.1228173,0.71240234375,-0.1005859375,0.6572265625,13.18359375,-3.7841796875,-0.732421875,-1.285400390625,-47.8509521484375,-44.8956298828125
1758527809.1331582,0.70361328125,-0.00244140625,0.666015625,18.310546875,-2.62451171875,-1.03759765625,-1.1041259765625,-47.8729248046875,-44.9066162109375
1758527809.142603,0.68603515625,0.017578125,0.625,9.58251953125,-1.5869140625,0.06103515625,-0.966796875,-47.8948974609375,-44.912109375
1758527809.1526623,0.68603515625,0.017578125,0.625,9.58251953125,-1.5869140625,0.06103515625,-0.87890625,-47.9058837890625,-44.912109375
1758527809.163045,0.69091796875,-0.01025390625,0.62060546875,6.77490234375,-0.48828125,0.42724609375,-0.802001953125,-47.9168701171875,-44.9066162109375
1758527809.1727293,0.69091796875,-0.01025390625,0.62060546875,6.77490234375,-0.48828125,0.42724609375,-0.7470703125,-47.9168701171875,-44.901123046875
1758527809.182873,0.69384765625,-0.048828125,0.6298828125,12.51220703125,0.54931640625,0.244140625,-0.6591796875,-47.9168701171875,-44.8956298828125
1758527809.1926074,0.69384765625,-0.048828125,0.6298828125,12.51220703125,0.54931640625,0.244140625,-0.5438232421875,-47.9058837890625,-44.8956298828125
1758527809.203046,0.7119140625,0.00732421875,0.6484375,12.20703125,1.28173828125,0.1220703125,-0.4339599609375,-47.8948974609375,-44.89013671875
1758527809.2127337,0.7119140625,0.00732421875,0.6484375,12.20703125,1.28173828125,0.1220703125,-0.318603515625,-47.8839111328125,-44.89013671875
1758527809.2227354,0.7158203125,0.03369140625,0.666015625,4.69970703125,2.01416015625,0.91552734375,-0.2471923828125,-47.8619384765625,-44.879150390625
1758527809.23317,0.7158203125,0.03369140625,0.666015625,4.69970703125,2.01416015625,0.91552734375,-0.2197265625,-47.8399658203125,-44.8681640625
1758527809.2427685,0.73291015625,0.0146484375,0.65625,0.3662109375,2.44140625,1.46484375,-0.208740234375,-47.8179931640625,-44.8516845703125
1758527809.252949,0.73291015625,0.0146484375,0.65625,0.3662109375,2.44140625,1.46484375,-0.2197265625,-47.79052734375,-44.8297119140625
1758527809.2630584,0.74072265625,-0.03369140625,0.68212890625,3.7841796875,2.86865234375,1.46484375,-0.2197265625,-47.7630615234375,-44.8077392578125
1758527809.2727747,0.74072265625,-0.03369140625,0.68212890625,3.7841796875,2.86865234375,1.46484375,-0.19775390625,-47.735595703125,-44.7857666015625
1758527809.2827857,0.76416015625,-0.01708984375,0.6884765625,3.47900390625,3.11279296875,1.15966796875,-0.1812744140625,-47.7081298828125,-44.7637939453125
1758527809.2927544,0.76416015625,-0.01708984375,0.6884765625,3.47900390625,3.11279296875,1.15966796875,-0.164794921875,-47.6751708984375,-44.747314453125
1758527809.3031147,0.7822265625,0.001953125,0.70556640625,4.0283203125,2.74658203125,1.15966796875,-0.142822265625,-47.6422119140625,-44.7308349609375
1758527809.3127952,0.7822265625,0.001953125,0.70556640625,4.0283203125,2.74658203125,1.15966796875,-0.120849609375,-47.6202392578125,-44.71435546875
1758527809.3228493,0.791015625,-0.0009765625,0.73193359375,1.708984375,2.50244140625,1.40380859375,-0.10986328125,-47.5927734375,-44.6923828125
1758527809.3333557,0.791015625,-0.0009765625,0.73193359375,1.708984375,2.50244140625,1.40380859375,-0.10986328125,-47.5653076171875,-44.67041015625
1758527809.3431892,0.7919921875,0.017578125,0.70849609375,0.54931640625,1.52587890625,1.0986328125,-0.1153564453125,-47.548828125,-44.6539306640625
1758527809.3529809,0.7919921875,0.017578125,0.70849609375,0.54931640625,1.52587890625,1.0986328125,-0.1263427734375,-47.5323486328125,-44.637451171875
1758527809.3630016,0.78515625,0.009765625,0.69970703125,4.08935546875,0.06103515625,0.1220703125,-0.10986328125,-47.52685546875,-44.62646484375
1758527809.3729162,0.78515625,0.009765625,0.69970703125,4.08935546875,0.06103515625,0.1220703125,-0.06591796875,-47.52685546875,-44.62646484375
1758527809.3830025,0.77001953125,-0.01904296875,0.7041015625,6.28662109375,-0.9765625,-0.06103515625,-0.0164794921875,-47.5323486328125,-44.62646484375
1758527809.3928816,0.77001953125,-0.01904296875,0.7041015625,6.28662109375,-0.9765625,-0.06103515625,0.0384521484375,-47.5433349609375,-44.62646484375
1758527809.4033303,0.77490234375,0.01806640625,0.70361328125,4.638671875,-1.77001953125,0.06103515625,0.0933837890625,-47.559814453125,-44.62646484375
1758527809.4129553,0.77490234375,0.01806640625,0.70361328125,4.638671875,-1.77001953125,0.06103515625,0.1373291015625,-47.581787109375,-44.6209716796875
1758527809.424054,0.77490234375,0.01806640625,0.70361328125,1.77001953125,-2.3193359375,0.42724609375,0.164794921875,-47.603759765625,-44.6209716796875
1758527809.4337664,0.76806640625,0.00634765625,0.69873046875,1.77001953125,-2.3193359375,0.42724609375,0.17578125,-47.625732421875,-44.6099853515625
1758527809.443299,0.75634765625,-0.00048828125,0.68896484375,1.0986328125,-2.99072265625,0.54931640625,0.186767578125,-47.6531982421875,-44.6044921875
1758527809.4530394,0.75634765625,-0.00048828125,0.68896484375,1.0986328125,-2.99072265625,0.54931640625,0.1922607421875,-47.6806640625,-44.5989990234375
1758527809.4644263,0.7529296875,0.00244140625,0.6650390625,2.38037109375,-3.7841796875,0.1220703125,0.2032470703125,-47.7191162109375,-44.593505859375
1758527809.473049,0.7529296875,0.00244140625,0.6650390625,2.38037109375,-3.7841796875,0.1220703125,0.2252197265625,-47.757568359375,-44.593505859375
1758527809.483432,0.74951171875,-0.0029296875,0.6826171875,3.662109375,-3.7841796875,-0.18310546875,0.2581787109375,-47.7960205078125,-44.593505859375
1758527809.4930148,0.74951171875,-0.0029296875,0.6826171875,3.662109375,-3.7841796875,-0.18310546875,0.2911376953125,-47.83447265625,-44.593505859375
1758527809.5042503,0.74951171875,-0.0029296875,0.6826171875,5.18798828125,-3.7841796875,-0.3662109375,0.340576171875,-47.8729248046875,-44.5989990234375
1758527809.5131776,0.7626953125,-0.001953125,0.68994140625,5.18798828125,-3.7841796875,-0.3662109375,0.3955078125,-47.9058837890625,-44.6044921875
1758527809.523607,0.7431640625,-0.001953125,0.6513671875,3.173828125,-3.72314453125,0.0,0.4339599609375,-47.9443359375,-44.6044921875
1758527809.533964,0.7431640625,-0.001953125,0.6513671875,3.173828125,-3.72314453125,0.0,0.46142578125,-47.9827880859375,-44.6044921875
1758527809.5436063,0.71728515625,0.0,0.61767578125,4.7607421875,-3.96728515625,0.06103515625,0.4998779296875,-48.021240234375,-44.6044921875
1758527809.5534801,0.71728515625,0.0,0.61767578125,4.7607421875,-3.96728515625,0.06103515625,0.5438232421875,-48.0596923828125,-44.6044921875
1758527809.5644114,0.734375,0.0146484375,0.6591796875,7.75146484375,-3.60107421875,-0.1220703125,0.604248046875,-48.09814453125,-44.6044921875
1758527809.5731952,0.734375,0.0146484375,0.6591796875,7.75146484375,-3.60107421875,-0.1220703125,0.68115234375,-48.1365966796875,-44.6044921875
1758527809.5838852,0.77001953125,0.01318359375,0.7216796875,5.55419921875,-3.41796875,-0.244140625,0.7470703125,-48.1695556640625,-44.6099853515625
1758527809.5931313,0.77001953125,0.01318359375,0.7216796875,5.55419921875,-3.41796875,-0.244140625,0.802001953125,-48.2025146484375,-44.615478515625
1758527809.6035182,0.7802734375,0.0029296875,0.689453125,3.173828125,-3.90625,0.0,0.845947265625,-48.240966796875,-44.615478515625
1758527809.613181,0.7802734375,0.0029296875,0.689453125,3.173828125,-3.90625,0.0,0.8734130859375,-48.2794189453125,-44.615478515625
1758527809.6231656,0.765625,0.03125,0.6708984375,-2.01416015625,-4.69970703125,0.18310546875,0.87890625,-48.31787109375,-44.6209716796875
1758527809.6338227,0.765625,0.03125,0.6708984375,-2.01416015625,-4.69970703125,0.18310546875,0.85693359375,-48.36181640625,-44.615478515625
1758527809.6432884,0.7646484375,0.05419921875,0.65234375,-7.50732421875,-5.18798828125,0.1220703125,0.8074951171875,-48.4112548828125,-44.615478515625
1758527809.6533985,0.7646484375,0.05419921875,0.65234375,-7.50732421875,-5.18798828125,0.1220703125,0.736083984375,-48.4661865234375,-44.6209716796875
1758527809.6635602,0.751953125,0.0029296875,0.64404296875,-9.521484375,-5.4931640625,0.18310546875,0.6536865234375,-48.515625,-44.615478515625
1758527809.6732662,0.751953125,0.0029296875,0.64404296875,-9.521484375,-5.4931640625,0.18310546875,0.560302734375,-48.570556640625,-44.615478515625
1758527809.6834624,0.74462890625,-0.02392578125,0.66455078125,-5.67626953125,-5.2490234375,0.3662109375,0.4833984375,-48.62548828125,-44.615478515625
1758527809.6932626,0.74462890625,-0.02392578125,0.66455078125,-5.67626953125,-5.2490234375,0.3662109375,0.428466796875,-48.680419921875,-44.6099853515625
1758527809.7036695,0.7490234375,0.037109375,0.65673828125,-8.60595703125,-5.18798828125,0.79345703125,0.3515625,-48.7298583984375,-44.5989990234375
1758527809.7133281,0.7490234375,0.037109375,0.65673828125,-8.60595703125,-5.18798828125,0.79345703125,0.263671875,-48.779296875,-44.5880126953125
1758527809.7233293,0.73681640625,0.029296875,0.64599609375,-11.29150390625,-5.126953125,0.42724609375,0.1593017578125,-48.8287353515625,-44.58251953125
1758527809.7338028,0.73681640625,0.029296875,0.64599609375,-11.29150390625,-5.126953125,0.42724609375,0.0494384765625,-48.878173828125,-44.5770263671875
1758527809.7433422,0.77294921875,-0.013671875,0.6552734375,-4.33349609375,-5.06591796875,-0.30517578125,-0.0164794921875,-48.9276123046875,-44.5770263671875
1758527809.7535944,0.77294921875,-0.013671875,0.6552734375,-4.33349609375,-5.06591796875,-0.30517578125,-0.0494384765625,-48.97705078125,-44.58251953125
1758527809.7645874,0.7900390625,-0.0380859375,0.67236328125,-2.197265625,-5.7373046875,-0.1220703125,-0.0714111328125,-49.031982421875,-44.5880126953125
1758527809.7738523,0.7900390625,-0.0380859375,0.67236328125,-2.197265625,-5.7373046875,-0.1220703125,-0.087890625,-49.0869140625,-44.5880126953125
1758527809.7833538,0.77978515625,0.01611328125,0.68994140625,-8.544921875,-5.18798828125,1.28173828125,-0.1483154296875,-49.141845703125,-44.5770263671875
1758527809.7935066,0.77978515625,0.01611328125,0.68994140625,-8.544921875,-5.18798828125,1.28173828125,-0.2471923828125,-49.1912841796875,-44.560546875
1758527809.803782,0.810546875,-0.009765625,0.65234375,-4.39453125,-5.67626953125,1.40380859375,-0.3240966796875,-49.2462158203125,-44.53857421875
1758527809.8134224,0.810546875,-0.009765625,0.65234375,-4.39453125,-5.67626953125,1.40380859375,-0.3790283203125,-49.3011474609375,-44.5166015625
1758527809.823679,0.7880859375,-0.05078125,0.69921875,0.30517578125,-6.28662109375,1.03759765625,-0.4119873046875,-49.361572265625,-44.49462890625
1758527809.8344362,0.7880859375,-0.05078125,0.69921875,0.30517578125,-6.28662109375,1.03759765625,-0.4229736328125,-49.4219970703125,-44.4781494140625
1758527809.843487,0.7978515625,0.0107421875,0.6357421875,3.5400390625,-6.65283203125,0.244140625,-0.4119873046875,-49.482421875,-44.4671630859375
1758527809.8541582,0.7978515625,0.0107421875,0.6357421875,3.5400390625,-6.65283203125,0.244140625,-0.3790283203125,-49.54833984375,-44.4561767578125
1758527809.863822,0.791015625,0.00341796875,0.6552734375,7.2021484375,-7.4462890625,0.1220703125,-0.32958984375,-49.6197509765625,-44.45068359375
1758527809.874188,0.791015625,0.00341796875,0.6552734375,7.2021484375,-7.4462890625,0.1220703125,-0.2581787109375,-49.6966552734375,-44.4451904296875
1758527809.8834748,0.7802734375,-0.0234375,0.689453125,8.9111328125,-7.50732421875,0.54931640625,-0.186767578125,-49.76806640625,-44.439697265625
1758527809.8943522,0.7802734375,-0.0234375,0.689453125,8.9111328125,-7.50732421875,0.54931640625,-0.1043701171875,-49.8394775390625,-44.4287109375
1758527809.9040284,0.783203125,0.04443359375,0.64599609375,-0.244140625,-7.87353515625,1.28173828125,-0.0714111328125,-49.9163818359375,-44.417724609375
1758527809.9139988,0.783203125,0.04443359375,0.64599609375,-0.244140625,-7.87353515625,1.28173828125,-0.0933837890625,-49.9932861328125,-44.395751953125
1758527809.9236,0.75830078125,0.0517578125,0.63427734375,-7.9345703125,-8.36181640625,1.28173828125,-0.142822265625,-50.0701904296875,-44.3792724609375
1758527809.9346757,0.75830078125,0.0517578125,0.63427734375,-7.9345703125,-8.36181640625,1.28173828125,-0.2362060546875,-50.152587890625,-44.3572998046875
1758527809.9436204,0.73974609375,-0.01123046875,0.5927734375,-6.7138671875,-8.36181640625,0.91552734375,-0.3131103515625,-50.2349853515625,-44.3408203125
1758527809.9542322,0.73974609375,-0.01123046875,0.5927734375,-6.7138671875,-8.36181640625,0.91552734375,-0.384521484375,-50.3173828125,-44.329833984375
1758527809.9640923,0.72265625,-0.02978515625,0.5791015625,-0.67138671875,-8.36181640625,0.3662109375,-0.4229736328125,-50.3997802734375,-44.31884765625
1758527809.9746735,0.72265625,-0.02978515625,0.5791015625,-0.67138671875,-8.36181640625,0.3662109375,-0.4339599609375,-50.4766845703125,-44.3133544921875
1758527809.983607,0.7451171875,0.01318359375,0.63525390625,-8.97216796875,-8.23974609375,1.3427734375,-0.4888916015625,-50.55908203125,-44.296875
1758527809.994293,0.7451171875,0.01318359375,0.63525390625,-8.97216796875,-8.23974609375,1.3427734375,-0.59326171875,-50.6414794921875,-44.27490234375
1758527810.0040295,0.77294921875,0.0244140625,0.6376953125,-14.0380859375,-7.38525390625,1.953125,-0.7196044921875,-50.712890625,-44.2474365234375
1758527810.0144012,0.77294921875,0.0244140625,0.6376953125,-14.0380859375,-7.38525390625,1.953125,-0.87890625,-50.7843017578125,-44.219970703125
1758527810.0240014,0.7734375,-0.04931640625,0.61083984375,-10.92529296875,-7.14111328125,1.89208984375,-1.021728515625,-50.8502197265625,-44.18701171875
1758527810.0348957,0.7734375,-0.04931640625,0.61083984375,-10.92529296875,-7.14111328125,1.89208984375,-1.1480712890625,-50.921630859375,-44.154052734375
1758527810.0437257,0.77001953125,-0.064453125,0.59619140625,0.54931640625,-7.080078125,0.8544921875,-1.2139892578125,-50.987548828125,-44.1265869140625
1758527810.0537968,0.77001953125,-0.064453125,0.59619140625,0.54931640625,-7.080078125,0.8544921875,-1.219482421875,-51.0589599609375,-44.110107421875
1758527810.064118,0.76171875,-0.009765625,0.6279296875,3.5400390625,-6.89697265625,0.0,-1.20849609375,-51.1248779296875,-44.09912109375
1758527810.073854,0.76171875,-0.009765625,0.6279296875,3.5400390625,-6.89697265625,0.0,-1.175537109375,-51.1907958984375,-44.0936279296875
1758527810.083883,0.771484375,0.021484375,0.595703125,0.54931640625,-6.16455078125,0.1220703125,-1.153564453125,-51.251220703125,-44.088134765625
1758527810.0937433,0.771484375,0.021484375,0.595703125,0.54931640625,-6.16455078125,0.1220703125,-1.153564453125,-51.3116455078125,-44.0826416015625
1758527810.1041932,0.77978515625,-0.0244140625,0.619140625,2.50244140625,-6.103515625,0.06103515625,-1.1370849609375,-51.3720703125,-44.0771484375
1758527810.114145,0.77978515625,-0.0244140625,0.619140625,2.50244140625,-6.103515625,0.06103515625,-1.109619140625,-51.4324951171875,-44.0716552734375
1758527810.123834,0.78466796875,-0.04345703125,0.65869140625,5.615234375,-5.67626953125,0.18310546875,-1.07666015625,-51.4874267578125,-44.066162109375
1758527810.1343822,0.78466796875,-0.04345703125,0.65869140625,5.615234375,-5.67626953125,0.18310546875,-1.021728515625,-51.5423583984375,-44.0606689453125
1758527810.1438465,0.80810546875,-0.01806640625,0.60107421875,8.85009765625,-6.04248046875,-0.6103515625,-0.9503173828125,-51.5972900390625,-44.0606689453125
1758527810.1539302,0.80810546875,-0.01806640625,0.60107421875,8.85009765625,-6.04248046875,-0.6103515625,-0.8624267578125,-51.6522216796875,-44.0716552734375
1758527810.1644852,0.79150390625,0.0205078125,0.63623046875,3.72314453125,-6.28662109375,-0.9765625,-0.8184814453125,-51.712646484375,-44.0826416015625
1758527810.1739671,0.79150390625,0.0205078125,0.63623046875,3.72314453125,-6.28662109375,-0.9765625,-0.76904296875,-51.7730712890625,-44.0936279296875
1758527810.1839502,0.75439453125,0.00927734375,0.60693359375,2.685546875,-6.103515625,-0.9765625,-0.7305908203125,-51.83349609375,-44.110107421875
1758527810.1938906,0.75439453125,0.00927734375,0.60693359375,2.685546875,-6.103515625,-0.9765625,-0.692138671875,-51.888427734375,-44.12109375
1758527810.2044215,0.72900390625,-0.01708984375,0.546875,9.21630859375,-5.79833984375,-1.28173828125,-0.582275390625,-51.943359375,-44.14306640625
1758527810.2141757,0.72900390625,-0.01708984375,0.546875,9.21630859375,-5.79833984375,-1.28173828125,-0.4779052734375,-51.998291015625,-44.1595458984375
1758527810.2238984,0.7060546875,0.005859375,0.54345703125,9.765625,-5.31005859375,-1.40380859375,-0.362548828125,-52.0477294921875,-44.176025390625
1758527810.2343562,0.7060546875,0.005859375,0.54345703125,9.765625,-5.31005859375,-1.40380859375,-0.252685546875,-52.1026611328125,-44.197998046875
1758527810.2439911,0.7353515625,0.025390625,0.623046875,-0.54931640625,-4.7607421875,-0.9765625,-0.2471923828125,-52.1466064453125,-44.2144775390625
1758527810.2543557,0.7353515625,0.025390625,0.623046875,-0.54931640625,-4.7607421875,-0.9765625,-0.2362060546875,-52.18505859375,-44.23095703125
1758527810.264274,0.755859375,0.00341796875,0.53173828125,-2.685546875,-4.08935546875,-0.8544921875,-0.252685546875,-52.2235107421875,-44.241943359375
1758527810.274674,0.755859375,0.00341796875,0.53173828125,-2.685546875,-4.08935546875,-0.8544921875,-0.263671875,-52.261962890625,-44.2584228515625
1758527810.2840683,0.75341796875,-0.0185546875,0.6005859375,0.244140625,-3.7841796875,-1.28173828125,-0.2471923828125,-52.3004150390625,-44.27490234375
1758527810.293991,0.75341796875,-0.0185546875,0.6005859375,0.244140625,-3.7841796875,-1.28173828125,-0.2252197265625,-52.3333740234375,-44.296875
1758527810.3048635,0.76513671875,0.005859375,0.5888671875,0.0,-2.99072265625,-1.46484375,-0.208740234375,-52.36083984375,-44.31884765625
1758527810.3150835,0.76513671875,0.005859375,0.5888671875,0.0,-2.99072265625,-1.46484375,-0.186767578125,-52.3883056640625,-44.3408203125
1758527810.3244128,0.77685546875,0.01513671875,0.5830078125,-2.99072265625,-2.44140625,-1.28173828125,-0.2032470703125,-52.4102783203125,-44.36279296875
1758527810.3340995,0.77685546875,0.01513671875,0.5830078125,-2.99072265625,-2.44140625,-1.28173828125,-0.2142333984375,-52.4322509765625,-44.3792724609375
1758527810.3450754,0.79150390625,-0.02734375,0.60302734375,-0.91552734375,-1.953125,-1.03759765625,-0.208740234375,-52.4542236328125,-44.395751953125
1758527810.3540852,0.79150390625,-0.02734375,0.60302734375,-0.91552734375,-1.953125,-1.03759765625,-0.2032470703125,-52.470703125,-44.40673828125
1758527810.364795,0.79931640625,-0.0087890625,0.619140625,1.03759765625,-1.52587890625,-1.03759765625,-0.1812744140625,-52.4871826171875,-44.4232177734375
1758527810.3744445,0.79931640625,-0.0087890625,0.619140625,1.03759765625,-1.52587890625,-1.03759765625,-0.1593017578125,-52.4981689453125,-44.4342041015625
1758527810.3851116,0.787109375,0.0390625,0.5966796875,-2.0751953125,-1.40380859375,-1.40380859375,-0.1593017578125,-52.5146484375,-44.4561767578125
1758527810.3941321,0.787109375,0.0390625,0.5966796875,-2.0751953125,-1.40380859375,-1.40380859375,-0.1593017578125,-52.525634765625,-44.47265625
1758527810.4049945,0.7783203125,-0.00048828125,0.5908203125,-1.03759765625,-0.9765625,-1.77001953125,-0.142822265625,-52.53662109375,-44.5001220703125
1758527810.414951,0.7783203125,-0.00048828125,0.5908203125,-1.03759765625,-0.9765625,-1.77001953125,-0.1318359375,-52.5421142578125,-44.5220947265625
1758527810.424704,0.7783203125,-0.00048828125,0.5908203125,0.91552734375,-0.6103515625,-1.64794921875,-0.098876953125,-52.547607421875,-44.549560546875
1758527810.4345632,0.78076171875,-0.02978515625,0.59375,0.91552734375,-0.6103515625,-1.64794921875,-0.0714111328125,-52.5531005859375,-44.571533203125
1758527810.4447649,0.80810546875,0.01220703125,0.58349609375,0.1220703125,-0.91552734375,-1.46484375,-0.0494384765625,-52.5640869140625,-44.5880126953125
1758527810.45422,0.80810546875,0.01220703125,0.58349609375,0.1220703125,-0.91552734375,-1.46484375,-0.0274658203125,-52.5750732421875,-44.6044921875
1758527810.4657056,0.822265625,0.01220703125,0.66015625,-2.0751953125,-0.8544921875,-1.46484375,-0.032958984375,-52.5860595703125,-44.62646484375
1758527810.474271,0.822265625,0.01220703125,0.66015625,-2.0751953125,-0.8544921875,-1.46484375,-0.032958984375,-52.591552734375,-44.6429443359375
1758527810.484847,0.8173828125,-0.01171875,0.6103515625,-3.60107421875,-0.9765625,-1.46484375,-0.0494384765625,-52.6025390625,-44.6649169921875
1758527810.4942918,0.8173828125,-0.01171875,0.6103515625,-3.60107421875,-0.9765625,-1.46484375,-0.06591796875,-52.613525390625,-44.6868896484375
1758527810.5050359,0.8173828125,-0.01171875,0.6103515625,2.0751953125,-1.40380859375,-1.5869140625,-0.02197265625,-52.62451171875,-44.7088623046875
1758527810.514725,0.80078125,-0.00830078125,0.58056640625,2.0751953125,-1.40380859375,-1.5869140625,0.010986328125,-52.6409912109375,-44.725341796875
1758527810.5243418,0.8056640625,0.00927734375,0.6171875,5.7373046875,-1.3427734375,-1.89208984375,0.0933837890625,-52.657470703125,-44.7528076171875
1758527810.5346537,0.8056640625,0.00927734375,0.6171875,5.7373046875,-1.3427734375,-1.89208984375,0.17578125,-52.6739501953125,-44.7802734375
1758527810.5443306,0.8349609375,0.01513671875,0.62353515625,-2.50244140625,-1.52587890625,-1.28173828125,0.164794921875,-52.6904296875,-44.791259765625
1758527810.5544577,0.8349609375,0.01513671875,0.62353515625,-2.50244140625,-1.52587890625,-1.28173828125,0.1593017578125,-52.7069091796875,-44.8077392578125
1758527810.5652328,0.8427734375,0.00146484375,0.6494140625,-6.16455078125,-1.46484375,-0.79345703125,0.10986328125,-52.7178955078125,-44.8187255859375
1758527810.5743966,0.8427734375,0.00146484375,0.6494140625,-6.16455078125,-1.46484375,-0.79345703125,0.0604248046875,-52.734375,-44.8297119140625
1758527810.5843456,0.81103515625,-0.00537109375,0.6064453125,-4.94384765625,-1.708984375,-0.42724609375,0.0164794921875,-52.7508544921875,-44.8297119140625
1758527810.6010137,0.81103515625,-0.00537109375,0.6064453125,-4.94384765625,-1.708984375,-0.42724609375,-0.02197265625,-52.7728271484375,-44.835205078125
1758527810.608189,0.77197265625,-0.01904296875,0.5732421875,1.52587890625,-2.0751953125,-0.91552734375,0.0,-52.7947998046875,-44.84619140625
1758527810.6147883,0.77197265625,-0.01904296875,0.5732421875,1.52587890625,-2.0751953125,-0.91552734375,0.0274658203125,-52.811279296875,-44.857177734375
1758527810.6244574,0.7724609375,0.00341796875,0.5615234375,3.23486328125,-2.50244140625,-0.91552734375,0.06591796875,-52.8387451171875,-44.8626708984375
1758527810.6349766,0.7724609375,0.00341796875,0.5615234375,3.23486328125,-2.50244140625,-0.91552734375,0.10986328125,-52.8662109375,-44.8736572265625
1758527810.644498,0.806640625,0.02294921875,0.6103515625,-1.28173828125,-2.50244140625,-0.6103515625,0.1043701171875,-52.8936767578125,-44.879150390625
1758527810.6545594,0.806640625,0.02294921875,0.6103515625,-1.28173828125,-2.50244140625,-0.6103515625,0.1043701171875,-52.921142578125,-44.8846435546875
1758527810.6648536,0.796875,-0.0166015625,0.61669921875,-3.7841796875,-2.197265625,0.0,0.06591796875,-52.943115234375,-44.879150390625
1758527810.6746354,0.796875,-0.0166015625,0.61669921875,-3.7841796875,-2.197265625,0.0,0.0274658203125,-52.965087890625,-44.8736572265625
1758527810.6844945,0.75732421875,-0.0322265625,0.5859375,-0.6103515625,-1.28173828125,0.8544921875,0.0054931640625,-52.97607421875,-44.857177734375
1758527810.6946552,0.75732421875,-0.0322265625,0.5859375,-0.6103515625,-1.28173828125,0.8544921875,-0.0054931640625,-52.987060546875,-44.8406982421875
1758527810.704933,0.7431640625,0.00732421875,0.4736328125,4.0283203125,-1.46484375,1.0986328125,0.010986328125,-53.0035400390625,-44.8187255859375
1758527810.7147076,0.7431640625,0.00732421875,0.4736328125,4.0283203125,-1.46484375,1.0986328125,0.032958984375,-53.02001953125,-44.791259765625
1758527810.7245667,0.75927734375,0.01806640625,0.6005859375,-0.3662109375,-0.79345703125,1.3427734375,0.010986328125,-53.031005859375,-44.7637939453125
1758527810.735125,0.75927734375,0.01806640625,0.6005859375,-0.3662109375,-0.79345703125,1.3427734375,-0.0054931640625,-53.0419921875,-44.736328125
1758527810.7445676,0.8212890625,-0.01708984375,0.62646484375,-1.52587890625,0.1220703125,1.708984375,-0.0439453125,-53.0419921875,-44.703369140625
1758527810.7550504,0.8212890625,-0.01708984375,0.62646484375,-1.52587890625,0.1220703125,1.708984375,-0.0823974609375,-53.0419921875,-44.67041015625
1758527810.7648897,0.841796875,-0.00537109375,0.62060546875,-2.99072265625,0.54931640625,2.197265625,-0.142822265625,-53.0364990234375,-44.62646484375
1758527810.7747533,0.841796875,-0.00537109375,0.62060546875,-2.99072265625,0.54931640625,2.197265625,-0.2032470703125,-53.031005859375,-44.5880126953125
1758527810.7846277,0.80517578125,-0.01025390625,0.6416015625,5.18798828125,0.91552734375,1.77001953125,-0.17578125,-53.0255126953125,-44.5550537109375
1758527810.7947998,0.80517578125,-0.01025390625,0.6416015625,5.18798828125,0.91552734375,1.77001953125,-0.1483154296875,-53.0145263671875,-44.5220947265625
1758527810.8049908,0.7861328125,0.0029296875,0.5478515625,3.173828125,0.732421875,1.77001953125,-0.142822265625,-53.0035400390625,-44.4891357421875
1758527810.8147376,0.7861328125,0.0029296875,0.5478515625,3.173828125,0.732421875,1.77001953125,-0.1373291015625,-52.998046875,-44.4561767578125
1758527810.8246195,0.8115234375,0.03857421875,0.58642578125,-2.685546875,0.0,1.8310546875,-0.186767578125,-53.0035400390625,-44.4232177734375
1758527810.8353438,0.8115234375,0.03857421875,0.58642578125,-2.685546875,0.0,1.8310546875,-0.2362060546875,-53.0035400390625,-44.384765625
1758527810.8446918,0.8564453125,-0.02490234375,0.6494140625,-0.67138671875,-0.8544921875,1.708984375,-0.263671875,-53.0145263671875,-44.351806640625
1758527810.8549924,0.8564453125,-0.02490234375,0.6494140625,-0.67138671875,-0.8544921875,1.708984375,-0.2911376953125,-53.0255126953125,-44.31884765625
1758527810.8648887,0.86865234375,-0.02197265625,0.64501953125,-2.0751953125,-2.01416015625,1.953125,-0.3350830078125,-53.0474853515625,-44.2803955078125
1758527810.8749456,0.86865234375,-0.02197265625,0.64501953125,-2.0751953125,-2.01416015625,1.953125,-0.384521484375,-53.0694580078125,-44.241943359375
1758527810.8847904,0.87646484375,0.01904296875,0.6455078125,1.5869140625,-2.99072265625,1.5869140625,-0.384521484375,-53.1024169921875,-44.208984375
1758527810.894929,0.87646484375,0.01904296875,0.6455078125,1.5869140625,-2.99072265625,1.5869140625,-0.3900146484375,-53.1298828125,-44.1815185546875
1758527810.905163,0.888671875,-0.00634765625,0.6259765625,2.685546875,-3.84521484375,0.732421875,-0.37353515625,-53.173828125,-44.1650390625
1758527810.9148633,0.888671875,-0.00634765625,0.6259765625,2.685546875,-3.84521484375,0.732421875,-0.3515625,-53.2122802734375,-44.14306640625
1758527810.9247723,0.8701171875,0.01513671875,0.65966796875,2.197265625,-4.39453125,0.0,-0.32958984375,-53.26171875,-44.1375732421875
1758527810.9354155,0.8701171875,0.01513671875,0.65966796875,2.197265625,-4.39453125,0.0,-0.3076171875,-53.3056640625,-44.1375732421875
1758527810.9447699,0.822265625,0.005859375,0.607421875,5.4931640625,-4.57763671875,-0.9765625,-0.2362060546875,-53.349609375,-44.1485595703125
1758527810.9549446,0.822265625,0.005859375,0.607421875,5.4931640625,-4.57763671875,-0.9765625,-0.164794921875,-53.3990478515625,-44.1595458984375
1758527810.9649837,0.76318359375,-0.00341796875,0.572265625,4.08935546875,-4.69970703125,-0.67138671875,-0.1153564453125,-53.4429931640625,-44.1650390625
1758527810.975007,0.76318359375,-0.00341796875,0.572265625,4.08935546875,-4.69970703125,-0.67138671875,-0.06591796875,-53.492431640625,-44.176025390625
1758527810.9847898,0.767578125,0.01513671875,0.52978515625,2.50244140625,-4.7607421875,0.0,-0.0384521484375,-53.5418701171875,-44.1705322265625
1758527810.994932,0.767578125,0.01513671875,0.52978515625,2.50244140625,-4.7607421875,0.0,-0.010986328125,-53.59130859375,-44.1650390625
1758527811.0054214,0.8056640625,-0.01025390625,0.5595703125,1.0986328125,-5.43212890625,0.18310546875,0.0,-53.646240234375,-44.1595458984375
1758527811.0149832,0.8056640625,-0.01025390625,0.5595703125,1.0986328125,-5.43212890625,0.18310546875,0.0054931640625,-53.701171875,-44.1485595703125
1758527811.0250049,0.8173828125,0.00146484375,0.63720703125,-0.42724609375,-5.7373046875,0.18310546875,0.0,-53.7615966796875,-44.14306640625
1758527811.0353355,0.8173828125,0.00146484375,0.63720703125,-0.42724609375,-5.7373046875,0.18310546875,0.0,-53.8165283203125,-44.1375732421875
1758527811.0448942,0.826171875,0.0146484375,0.5947265625,2.13623046875,-5.37109375,-0.30517578125,0.02197265625,-53.8714599609375,-44.14306640625
1758527811.0552647,0.826171875,0.0146484375,0.5947265625,2.13623046875,-5.37109375,-0.30517578125,0.0439453125,-53.9208984375,-44.14306640625
1758527811.0651405,0.82275390625,-0.00537109375,0.603515625,3.90625,-5.06591796875,-0.732421875,0.098876953125,-53.9703369140625,-44.154052734375
1758527811.0751793,0.82275390625,-0.00537109375,0.603515625,3.90625,-5.06591796875,-0.732421875,0.1483154296875,-54.019775390625,-44.1650390625
1758527811.0857863,0.8515625,-0.0078125,0.5810546875,4.21142578125,-4.7607421875,0.0,0.186767578125,-54.0692138671875,-44.1595458984375
1758527811.0952194,0.8515625,-0.0078125,0.5810546875,4.21142578125,-4.7607421875,0.0,0.230712890625,-54.1131591796875,-44.154052734375
1758527811.1053164,0.81787109375,-0.01611328125,0.62060546875,6.40869140625,-4.39453125,0.6103515625,0.28564453125,-54.1571044921875,-44.14306640625
1758527811.1150768,0.81787109375,-0.01611328125,0.62060546875,6.40869140625,-4.39453125,0.6103515625,0.3350830078125,-54.2010498046875,-44.1265869140625
1758527811.1251864,0.79443359375,0.0283203125,0.59375,-0.67138671875,-3.41796875,1.0986328125,0.3131103515625,-54.2340087890625,-44.1046142578125
1758527811.135579,0.79443359375,0.0283203125,0.59375,-0.67138671875,-3.41796875,1.0986328125,0.2911376953125,-54.261474609375,-44.0826416015625
1758527811.1452198,0.796875,0.01220703125,0.529296875,1.15966796875,-3.11279296875,0.79345703125,0.2911376953125,-54.29443359375,-44.0716552734375
1758527811.1552901,0.796875,0.01220703125,0.529296875,1.15966796875,-3.11279296875,0.79345703125,0.2911376953125,-54.3218994140625,-44.0496826171875
1758527811.165828,0.787109375,-0.02587890625,0.583984375,5.67626953125,-3.0517578125,1.03759765625,0.3350830078125,-54.3548583984375,-44.033203125
1758527811.1755967,0.8291015625,0.0146484375,0.54052734375,2.01416015625,-3.41796875,0.8544921875,0.3570556640625,-54.38232421875,-44.01123046875
1758527811.1850626,0.8291015625,0.0146484375,0.54052734375,2.01416015625,-3.41796875,0.8544921875,0.3680419921875,-54.4207763671875,-43.9892578125
1758527811.1956062,0.8076171875,0.08154296875,0.611328125,-7.26318359375,-3.90625,0.48828125,0.32958984375,-54.4537353515625,-43.978271484375
1758527811.2058613,0.8076171875,0.08154296875,0.611328125,-7.26318359375,-3.90625,0.48828125,0.2581787109375,-54.4921875,-43.9617919921875
1758527811.2152317,0.8212890625,0.00390625,0.55908203125,-9.94873046875,-4.33349609375,0.244140625,0.17578125,-54.5361328125,-43.956298828125
1758527811.2259257,0.8212890625,0.00390625,0.55908203125,-9.94873046875,-4.33349609375,0.244140625,0.0823974609375,-54.5745849609375,-43.9508056640625
1758527811.2355983,0.83447265625,-0.037109375,0.55908203125,0.3662109375,-5.126953125,-0.732421875,0.0439453125,-54.6240234375,-43.9508056640625
1758527811.2451894,0.83447265625,-0.037109375,0.55908203125,0.3662109375,-5.126953125,-0.732421875,0.06591796875,-54.6734619140625,-43.9617919921875
1758527811.255283,0.8544921875,-0.0087890625,0.56396484375,-0.79345703125,-6.40869140625,-0.6103515625,0.076904296875,-54.73388671875,-43.96728515625
1758527811.2654195,0.8544921875,-0.0087890625,0.56396484375,-0.79345703125,-6.40869140625,-0.6103515625,0.076904296875,-54.7998046875,-43.96728515625
1758527811.275253,0.8486328125,0.05859375,0.6376953125,-3.72314453125,-6.9580078125,-0.6103515625,0.06591796875,-54.8712158203125,-43.9727783203125
1758527811.2852242,0.8486328125,0.05859375,0.6376953125,-3.72314453125,-6.9580078125,-0.6103515625,0.0439453125,-54.9371337890625,-43.978271484375
1758527811.2955055,0.86865234375,0.00439453125,0.59130859375,-2.38037109375,-7.080078125,-0.3662109375,0.0274658203125,-55.008544921875,-43.9837646484375
1758527811.3053834,0.86865234375,0.00439453125,0.59130859375,-2.38037109375,-7.080078125,-0.3662109375,0.0164794921875,-55.0799560546875,-43.9837646484375
1758527811.3152313,0.82470703125,-0.03076171875,0.5537109375,0.0,-7.38525390625,-0.42724609375,0.0164794921875,-55.1513671875,-43.9892578125
1758527811.325323,0.82470703125,-0.03076171875,0.5537109375,0.0,-7.38525390625,-0.42724609375,0.02197265625,-55.2227783203125,-43.9892578125
1758527811.3356931,0.78076171875,0.0,0.53955078125,0.8544921875,-7.14111328125,-0.42724609375,0.0384521484375,-55.294189453125,-43.9947509765625
1758527811.3453133,0.78076171875,0.0,0.53955078125,0.8544921875,-7.14111328125,-0.42724609375,0.054931640625,-55.3656005859375,-43.9947509765625
1758527811.3553572,0.80078125,-0.00830078125,0.5205078125,1.3427734375,-7.01904296875,-0.1220703125,0.0714111328125,-55.43701171875,-43.9947509765625
1758527811.3657448,0.80078125,-0.00830078125,0.5205078125,1.3427734375,-7.01904296875,-0.1220703125,0.087890625,-55.5029296875,-43.9892578125
1758527811.3753386,0.802734375,-0.04296875,0.5673828125,1.03759765625,-6.77490234375,0.42724609375,0.0933837890625,-55.5743408203125,-43.978271484375
1758527811.3853874,0.802734375,-0.04296875,0.5673828125,1.03759765625,-6.77490234375,0.42724609375,0.0933837890625,-55.6402587890625,-43.9617919921875
1758527811.395613,0.7978515625,-0.009765625,0.53662109375,2.99072265625,-6.4697265625,1.03759765625,0.098876953125,-55.7061767578125,-43.9453125
1758527811.4056084,0.7978515625,-0.009765625,0.53662109375,2.99072265625,-6.4697265625,1.03759765625,0.10986328125,-55.7666015625,-43.9178466796875
1758527811.4153478,0.81591796875,0.03515625,0.5322265625,2.13623046875,-6.4697265625,1.15966796875,0.1153564453125,-55.83251953125,-43.8958740234375
1758527811.4253423,0.81591796875,0.03515625,0.5322265625,2.13623046875,-6.4697265625,1.15966796875,0.1153564453125,-55.8929443359375,-43.868408203125
1758527811.4361389,0.85888671875,0.02734375,0.5908203125,-2.38037109375,-6.2255859375,2.13623046875,0.0933837890625,-55.953369140625,-43.83544921875
1758527811.445968,0.85888671875,0.02734375,0.5908203125,-2.38037109375,-6.2255859375,2.13623046875,0.0384521484375,-56.0137939453125,-43.79150390625
1758527811.4555867,0.8603515625,-0.00830078125,0.58984375,-1.64794921875,-5.67626953125,3.47900390625,-0.0164794921875,-56.07421875,-43.736572265625
1758527811.4657943,0.8603515625,-0.00830078125,0.58984375,-1.64794921875,-5.67626953125,3.47900390625,-0.0823974609375,-56.129150390625,-43.670654296875
1758527811.4755044,0.84716796875,-0.03076171875,0.5419921875,-0.3662109375,-5.4931640625,3.47900390625,-0.142822265625,-56.1785888671875,-43.604736328125
1758527811.4856093,0.84716796875,-0.03076171875,0.5419921875,-0.3662109375,-5.4931640625,3.47900390625,-0.19775390625,-56.2335205078125,-43.538818359375
1758527811.4957113,0.8642578125,-0.02587890625,0.5693359375,2.99072265625,-5.79833984375,2.5634765625,-0.230712890625,-56.2884521484375,-43.4783935546875
1758527811.5059874,0.8642578125,-0.02587890625,0.5693359375,2.99072265625,-5.79833984375,2.5634765625,-0.24169921875,-56.3433837890625,-43.428955078125
1758527811.5155299,0.8720703125,0.0,0.5771484375,10.92529296875,-6.2255859375,1.52587890625,-0.208740234375,-56.40380859375,-43.385009765625
1758527811.5254538,0.8720703125,0.0,0.5771484375,10.92529296875,-6.2255859375,1.52587890625,-0.1263427734375,-56.4642333984375,-43.35205078125
1758527811.5360672,0.83740234375,0.02734375,0.53369140625,5.615234375,-7.2021484375,1.46484375,-0.06591796875,-56.5301513671875,-43.319091796875
1758527811.5454848,0.83740234375,0.02734375,0.53369140625,5.615234375,-7.2021484375,1.46484375,-0.032958984375,-56.6015625,-43.2861328125
1758527811.5557966,0.84326171875,0.03466796875,0.55029296875,-3.7841796875,-7.4462890625,1.15966796875,-0.0439453125,-56.6729736328125,-43.2586669921875
1758527811.5659225,0.84326171875,0.03466796875,0.55029296875,-3.7841796875,-7.4462890625,1.15966796875,-0.098876953125,-56.744384765625,-43.231201171875
1758527811.5756757,0.8701171875,0.0234375,0.5546875,-7.01904296875,-8.30078125,0.30517578125,-0.1593017578125,-56.8212890625,-43.2147216796875
1758527811.585737,0.8701171875,0.0234375,0.5546875,-7.01904296875,-8.30078125,0.30517578125,-0.2252197265625,-56.9036865234375,-43.2037353515625
1758527811.595871,0.861328125,0.0234375,0.54638671875,-6.8359375,-8.60595703125,-0.9765625,-0.28564453125,-56.986083984375,-43.2037353515625
1758527811.6058204,0.861328125,0.0234375,0.54638671875,-6.8359375,-8.60595703125,-0.9765625,-0.32958984375,-57.0684814453125,-43.22021484375
1758527811.6156359,0.8349609375,0.04150390625,0.52197265625,-8.30078125,-8.30078125,-1.52587890625,-0.37353515625,-57.15087890625,-43.2366943359375
1758527811.6257238,0.8349609375,0.04150390625,0.52197265625,-8.30078125,-8.30078125,-1.52587890625,-0.4229736328125,-57.2332763671875,-43.2586669921875
1758527811.6362963,0.8583984375,-0.02197265625,0.56201171875,-5.9814453125,-7.6904296875,-1.40380859375,-0.46142578125,-57.315673828125,-43.2806396484375
1758527811.6457393,0.8583984375,-0.02197265625,0.56201171875,-5.9814453125,-7.6904296875,-1.40380859375,-0.4888916015625,-57.3870849609375,-43.3026123046875
1758527811.6558592,0.8828125,-0.03857421875,0.53271484375,0.42724609375,-7.50732421875,-2.197265625,-0.4779052734375,-57.4639892578125,-43.330078125
1758527811.6660535,0.8828125,-0.03857421875,0.53271484375,0.42724609375,-7.50732421875,-2.197265625,-0.4339599609375,-57.535400390625,-43.363037109375
1758527811.6758294,0.826171875,0.00634765625,0.572265625,0.42724609375,-6.8359375,-2.50244140625,-0.3900146484375,-57.6068115234375,-43.39599609375
1758527811.6858068,0.826171875,0.00634765625,0.572265625,0.42724609375,-6.8359375,-2.50244140625,-0.3460693359375,-57.6727294921875,-43.4344482421875
1758527811.695898,0.76513671875,0.0244140625,0.4697265625,-5.18798828125,-5.43212890625,-0.91552734375,-0.340576171875,-57.7276611328125,-43.4619140625
1758527811.7064164,0.76513671875,0.0244140625,0.4697265625,-5.18798828125,-5.43212890625,-0.91552734375,-0.37353515625,-57.777099609375,-43.472900390625
1758527811.7156975,0.72509765625,-0.02197265625,0.443359375,-6.89697265625,-3.84521484375,0.1220703125,-0.4229736328125,-57.821044921875,-43.472900390625
1758527811.7261586,0.72509765625,-0.02197265625,0.443359375,-6.89697265625,-3.84521484375,0.1220703125,-0.4888916015625,-57.8594970703125,-43.4674072265625
1758527811.7364664,0.763671875,-0.03662109375,0.453125,-1.953125,-2.685546875,1.15966796875,-0.538330078125,-57.886962890625,-43.4454345703125
1758527811.7458696,0.763671875,-0.03662109375,0.453125,-1.953125,-2.685546875,1.15966796875,-0.5767822265625,-57.9144287109375,-43.41796875
1758527811.7561455,0.783203125,-0.07421875,0.4716796875,-1.40380859375,-2.5634765625,1.77001953125,-0.6207275390625,-57.9364013671875,-43.3795166015625
1758527811.7661943,0.783203125,-0.07421875,0.4716796875,-1.40380859375,-2.5634765625,1.77001953125,-0.670166015625,-57.9638671875,-43.3355712890625
1758527811.7761962,0.82373046875,0.0390625,0.53466796875,-1.40380859375,-2.50244140625,0.42724609375,-0.7086181640625,-57.98583984375,-43.3026123046875
1758527811.7859147,0.82373046875,0.0390625,0.53466796875,-1.40380859375,-2.50244140625,0.42724609375,-0.7305908203125,-58.0133056640625,-43.2861328125
1758527811.7962787,0.8203125,0.02587890625,0.4462890625,-1.15966796875,-3.5400390625,0.0,-0.7470703125,-58.040771484375,-43.275146484375
1758527811.8060813,0.8203125,0.02587890625,0.4462890625,-1.15966796875,-3.5400390625,0.0,-0.758056640625,-58.0792236328125,-43.2696533203125
1758527811.8158283,0.8408203125,0.013671875,0.5302734375,-2.25830078125,-3.35693359375,0.1220703125,-0.7745361328125,-58.1121826171875,-43.2586669921875
1758527811.826015,0.8408203125,0.013671875,0.5302734375,-2.25830078125,-3.35693359375,0.1220703125,-0.7965087890625,-58.150634765625,-43.2476806640625
1758527811.836628,0.89208984375,-0.0380859375,0.572265625,-4.45556640625,-2.01416015625,2.13623046875,-0.8404541015625,-58.1781005859375,-43.2147216796875
1758527811.846026,0.89208984375,-0.0380859375,0.572265625,-4.45556640625,-2.01416015625,2.13623046875,-0.9173583984375,-58.194580078125,-43.165283203125
1758527811.8563426,0.93017578125,-0.0634765625,0.6044921875,-4.39453125,-1.0986328125,2.74658203125,-0.999755859375,-58.2110595703125,-43.1158447265625
1758527811.866239,0.93017578125,-0.0634765625,0.6044921875,-4.39453125,-1.0986328125,2.74658203125,-1.0931396484375,-58.2220458984375,-43.055419921875
1758527811.8762548,0.95458984375,0.0322265625,0.4833984375,0.732421875,-2.8076171875,1.03759765625,-1.1480712890625,-58.238525390625,-43.011474609375
1758527811.8860435,0.95458984375,0.0322265625,0.4833984375,0.732421875,-2.8076171875,1.03759765625,-1.153564453125,-58.2659912109375,-42.978515625
1758527811.8964279,0.89990234375,-0.0087890625,0.625,0.8544921875,-2.38037109375,0.3662109375,-1.1590576171875,-58.2989501953125,-42.9510498046875
1758527811.9064004,0.89990234375,-0.0087890625,0.625,0.8544921875,-2.38037109375,0.3662109375,-1.153564453125,-58.3209228515625,-42.9345703125
1758527811.9160461,0.91455078125,0.00927734375,0.564453125,-1.89208984375,-1.3427734375,0.91552734375,-1.1700439453125,-58.33740234375,-42.9180908203125
1758527811.9263473,0.91455078125,0.00927734375,0.564453125,-1.89208984375,-1.3427734375,0.91552734375,-1.197509765625,-58.348388671875,-42.8961181640625
1758527811.9367576,0.92578125,-0.03515625,0.515625,-0.9765625,-2.38037109375,0.732421875,-1.2249755859375,-58.370361328125,-42.8741455078125
1758527811.9461095,0.92578125,-0.03515625,0.515625,-0.9765625,-2.38037109375,0.732421875,-1.241455078125,-58.392333984375,-42.8521728515625
1758527811.9560285,0.89013671875,0.01611328125,0.55810546875,-3.5400390625,-3.662109375,-0.79345703125,-1.263427734375,-58.42529296875,-42.8411865234375
1758527811.966308,0.89013671875,0.01611328125,0.55810546875,-3.5400390625,-3.662109375,-0.79345703125,-1.285400390625,-58.4637451171875,-42.8466796875
1758527811.976181,0.880859375,0.025390625,0.521484375,-6.34765625,-3.173828125,-1.28173828125,-1.3128662109375,-58.4967041015625,-42.857666015625
1758527811.9862874,0.880859375,0.025390625,0.521484375,-6.34765625,-3.173828125,-1.28173828125,-1.351318359375,-58.5296630859375,-42.8741455078125
1758527811.9963963,0.865234375,-0.01123046875,0.5146484375,-7.2021484375,-2.74658203125,-0.732421875,-1.395263671875,-58.5626220703125,-42.8851318359375
1758527812.0062518,0.865234375,-0.01123046875,0.5146484375,-7.2021484375,-2.74658203125,-0.732421875,-1.4501953125,-58.590087890625,-42.890625
1758527812.0160208,0.84130859375,-0.04150390625,0.54052734375,1.03759765625,-2.8076171875,-0.1220703125,-1.4666748046875,-58.6175537109375,-42.890625
1758527812.0262847,0.84130859375,-0.04150390625,0.54052734375,1.03759765625,-2.8076171875,-0.1220703125,-1.4501953125,-58.64501953125,-42.879638671875
1758527812.0366704,0.84423828125,-0.025390625,0.4921875,-0.8544921875,-3.0517578125,-0.42724609375,-1.4447021484375,-58.677978515625,-42.879638671875
1758527812.0465183,0.84423828125,-0.025390625,0.4921875,-0.8544921875,-3.0517578125,-0.42724609375,-1.4447021484375,-58.7054443359375,-42.8741455078125
1758527812.056139,0.8359375,-0.01513671875,0.50341796875,0.0,-2.3193359375,-0.67138671875,-1.439208984375,-58.73291015625,-42.8741455078125
1758527812.0664713,0.8359375,-0.01513671875,0.50341796875,0.0,-2.3193359375,-0.67138671875,-1.4337158203125,-58.7548828125,-42.8741455078125
1758527812.0763748,0.80078125,-0.01025390625,0.5107421875,0.732421875,-1.220703125,-0.42724609375,-1.417236328125,-58.77685546875,-42.8741455078125
1758527812.0864558,0.80078125,-0.01025390625,0.5107421875,0.732421875,-1.220703125,-0.42724609375,-1.40625,-58.787841796875,-42.8741455078125
1758527812.0972264,0.8173828125,0.0205078125,0.44775390625,-0.9765625,-1.15966796875,-0.3662109375,-1.4007568359375,-58.798828125,-42.8741455078125
1758527812.1063008,0.8173828125,0.0205078125,0.44775390625,-0.9765625,-1.15966796875,-0.3662109375,-1.4007568359375,-58.809814453125,-42.8741455078125
1758527812.116144,0.82421875,0.00341796875,0.51904296875,-7.9345703125,-0.732421875,0.0,-1.439208984375,-58.82080078125,-42.86865234375
1758527812.126389,0.82421875,0.00341796875,0.51904296875,-7.9345703125,-0.732421875,0.0,-1.5106201171875,-58.8262939453125,-42.857666015625
1758527812.136763,0.82861328125,-0.01904296875,0.50537109375,-15.7470703125,-0.06103515625,1.220703125,-1.636962890625,-58.831787109375,-42.8411865234375
1758527812.14633,0.82861328125,-0.01904296875,0.50537109375,-15.7470703125,-0.06103515625,1.220703125,-1.8072509765625,-58.831787109375,-42.8082275390625
1758527812.1562188,0.841796875,-0.0439453125,0.49462890625,-7.87353515625,0.91552734375,1.15966796875,-1.9390869140625,-58.8262939453125,-42.78076171875
1758527812.1665335,0.841796875,-0.0439453125,0.49462890625,-7.87353515625,0.91552734375,1.15966796875,-2.032470703125,-58.8153076171875,-42.747802734375
1758527812.176397,0.83154296875,-0.0791015625,0.50927734375,0.54931640625,1.708984375,1.40380859375,-2.08740234375,-58.8043212890625,-42.7203369140625
1758527812.186463,0.83154296875,-0.0791015625,0.50927734375,0.54931640625,1.708984375,1.40380859375,-2.1038818359375,-58.787841796875,-42.681884765625
1758527812.1967626,0.8359375,0.013671875,0.52880859375,-0.79345703125,2.197265625,1.40380859375,-2.13134765625,-58.765869140625,-42.6434326171875
1758527812.2064729,0.8359375,0.013671875,0.52880859375,-0.79345703125,2.197265625,1.40380859375,-2.164306640625,-58.743896484375,-42.6104736328125
1758527812.2163322,0.81689453125,-0.00048828125,0.490234375,-6.53076171875,2.5634765625,1.77001953125,-2.252197265625,-58.7164306640625,-42.5665283203125
1758527812.2265108,0.81689453125,-0.00048828125,0.490234375,-6.53076171875,2.5634765625,1.77001953125,-2.3455810546875,-58.68896484375,-42.528076171875
1758527812.2369006,0.8740234375,-0.0400390625,0.50927734375,-5.55419921875,2.99072265625,1.64794921875,-2.4224853515625,-58.6614990234375,-42.4896240234375
1758527812.2464683,0.8740234375,-0.0400390625,0.50927734375,-5.55419921875,2.99072265625,1.64794921875,-2.5048828125,-58.6285400390625,-42.4566650390625
1758527812.2563136,0.8583984375,-0.06103515625,0.5146484375,-1.52587890625,2.3193359375,1.5869140625,-2.5433349609375,-58.6065673828125,-42.418212890625
1758527812.266932,0.8583984375,-0.06103515625,0.5146484375,-1.52587890625,2.3193359375,1.5869140625,-2.5872802734375,-58.5845947265625,-42.3797607421875
1758527812.2765443,0.86376953125,-0.00830078125,0.51513671875,1.64794921875,2.13623046875,1.708984375,-2.5982666015625,-58.568115234375,-42.3358154296875
1758527812.2865725,0.86376953125,-0.00830078125,0.51513671875,1.64794921875,2.13623046875,1.708984375,-2.6092529296875,-58.546142578125,-42.29736328125
1758527812.2969255,0.8818359375,-0.00390625,0.5263671875,-4.39453125,1.64794921875,2.44140625,-2.691650390625,-58.53515625,-42.2369384765625
1758527812.306674,0.8818359375,-0.00390625,0.5263671875,-4.39453125,1.64794921875,2.44140625,-2.7740478515625,-58.5186767578125,-42.1875
1758527812.316456,0.8935546875,-0.05029296875,0.5625,-2.01416015625,1.3427734375,3.173828125,-2.8399658203125,-58.5076904296875,-42.1160888671875
1758527812.3266819,0.8935546875,-0.05029296875,0.5625,-2.01416015625,1.3427734375,3.173828125,-2.911376953125,-58.4912109375,-42.0501708984375
1758527812.3371427,0.90576171875,-0.04248046875,0.50830078125,-0.6103515625,0.54931640625,3.47900390625,-2.9718017578125,-58.4857177734375,-41.9732666015625
1758527812.3470342,0.90576171875,-0.04248046875,0.50830078125,-0.6103515625,0.54931640625,3.47900390625,-3.0377197265625,-58.4857177734375,-41.8963623046875
1758527812.356491,0.884765625,-0.05078125,0.546875,6.77490234375,-0.3662109375,3.0517578125,-3.021240234375,-58.4912109375,-41.824951171875
1758527812.3669877,0.884765625,-0.05078125,0.546875,6.77490234375,-0.3662109375,3.0517578125,-3.0047607421875,-58.4967041015625,-41.7535400390625
1758527812.3767056,0.87744140625,-0.01318359375,0.50830078125,4.69970703125,-1.15966796875,2.74658203125,-3.01025390625,-58.5076904296875,-41.6876220703125
1758527812.3868294,0.87744140625,-0.01318359375,0.50830078125,4.69970703125,-1.15966796875,2.74658203125,-3.01025390625,-58.5186767578125,-41.627197265625
1758527812.396568,0.85400390625,-0.0263671875,0.52783203125,9.6435546875,-1.28173828125,1.77001953125,-2.9443359375,-58.53515625,-41.5777587890625
1758527812.408173,0.85400390625,-0.0263671875,0.52783203125,9.6435546875,-1.28173828125,1.77001953125,-2.87841796875,-58.5516357421875,-41.5338134765625
1758527812.416585,0.84130859375,-0.03662109375,0.50390625,9.21630859375,-1.40380859375,1.28173828125,-2.8125,-58.568115234375,-41.495361328125
1758527812.4268653,0.84130859375,-0.03662109375,0.50390625,9.21630859375,-1.40380859375,1.28173828125,-2.74658203125,-58.5845947265625,-41.46240234375
1758527812.4431882,0.8056640625,-0.00244140625,0.49658203125,10.986328125,-1.0986328125,0.3662109375,-2.6422119140625,-58.5955810546875,-41.4404296875
1758527812.4493878,0.8056640625,-0.00244140625,0.49658203125,10.986328125,-1.0986328125,0.3662109375,-2.5433349609375,-58.6065673828125,-41.4239501953125
1758527812.4566076,0.8369140625,-0.00439453125,0.48681640625,2.74658203125,-1.64794921875,0.0,-2.515869140625,-58.623046875,-41.4129638671875
1758527812.4730031,0.8369140625,-0.00439453125,0.48681640625,2.74658203125,-1.64794921875,0.0,-2.4884033203125,-58.64501953125,-41.4019775390625
1758527812.4796712,0.8251953125,-0.00048828125,0.53173828125,8.4228515625,-0.91552734375,-0.91552734375,-2.3895263671875,-58.656005859375,-41.4129638671875
1758527812.4866219,0.8251953125,-0.00048828125,0.53173828125,8.4228515625,-0.91552734375,-0.91552734375,-2.2906494140625,-58.6669921875,-41.4239501953125
1758527812.4966207,0.83056640625,-0.033203125,0.4833984375,10.19287109375,-0.732421875,-1.0986328125,-2.1697998046875,-58.6724853515625,-41.4404296875
1758527812.5130405,0.83056640625,-0.033203125,0.4833984375,10.19287109375,-0.732421875,-1.0986328125,-2.0489501953125,-58.6834716796875,-41.451416015625
1758527812.5196588,0.84912109375,0.00146484375,0.51953125,5.0048828125,-0.54931640625,-1.15966796875,-1.9830322265625,-58.68896484375,-41.4678955078125
1758527812.5267267,0.84912109375,0.00146484375,0.51953125,5.0048828125,-0.54931640625,-1.15966796875,-1.91162109375,-58.6944580078125,-41.484375
1758527812.5367668,0.85791015625,-0.0068359375,0.5390625,1.89208984375,-0.18310546875,-0.8544921875,-1.878662109375,-58.699951171875,-41.495361328125
1758527812.5469584,0.85791015625,-0.0068359375,0.5390625,1.89208984375,-0.18310546875,-0.8544921875,-1.845703125,-58.699951171875,-41.50634765625
1758527812.5567183,0.853515625,-0.0078125,0.5166015625,0.67138671875,0.0,-0.79345703125,-1.82373046875,-58.699951171875,-41.517333984375
1758527812.5670938,0.853515625,-0.0078125,0.5166015625,0.67138671875,0.0,-0.79345703125,-1.8017578125,-58.699951171875,-41.5283203125
1758527812.5770948,0.86572265625,-0.029296875,0.474609375,5.92041015625,-0.1220703125,-0.54931640625,-1.73583984375,-58.7054443359375,-41.5338134765625
1758527812.5867376,0.86572265625,-0.029296875,0.474609375,5.92041015625,-0.1220703125,-0.54931640625,-1.6644287109375,-58.7054443359375,-41.5338134765625
1758527812.5970263,0.87646484375,-0.02099609375,0.54150390625,-2.685546875,-0.244140625,0.6103515625,-1.702880859375,-58.7109375,-41.5118408203125
1758527812.6070611,0.87646484375,-0.02099609375,0.54150390625,-2.685546875,-0.244140625,0.6103515625,-1.7413330078125,-58.7164306640625,-41.495361328125
1758527812.6167545,0.896484375,-0.0107421875,0.55126953125,-6.04248046875,0.244140625,1.52587890625,-1.8292236328125,-58.7164306640625,-41.4569091796875
1758527812.62685,0.896484375,-0.0107421875,0.55126953125,-6.04248046875,0.244140625,1.52587890625,-1.91162109375,-58.7109375,-41.4239501953125
1758527812.6372476,0.8974609375,-0.02685546875,0.537109375,-6.7138671875,0.1220703125,1.46484375,-2.0050048828125,-58.7109375,-41.385498046875
1758527812.6468232,0.8974609375,-0.02685546875,0.537109375,-6.7138671875,0.1220703125,1.46484375,-2.0928955078125,-58.7109375,-41.3525390625
1758527812.6568096,0.87646484375,-0.04541015625,0.53955078125,0.48828125,0.0,1.15966796875,-2.109375,-58.7109375,-41.3250732421875
1758527812.6669955,0.87646484375,-0.04541015625,0.53955078125,0.48828125,0.0,1.15966796875,-2.1258544921875,-58.7109375,-41.2921142578125
1758527812.6768677,0.8837890625,-0.00537109375,0.494140625,-0.48828125,-0.3662109375,1.0986328125,-2.1478271484375,-58.7164306640625,-41.2646484375
1758527812.6869159,0.8837890625,-0.00537109375,0.494140625,-0.48828125,-0.3662109375,1.0986328125,-2.1697998046875,-58.721923828125,-41.231689453125
1758527812.696856,0.8896484375,0.00732421875,0.54736328125,-6.77490234375,-0.18310546875,1.28173828125,-2.2576904296875,-58.7274169921875,-41.19873046875
1758527812.7072878,0.8896484375,0.00732421875,0.54736328125,-6.77490234375,-0.18310546875,1.28173828125,-2.3455810546875,-58.7274169921875,-41.165771484375
1758527812.716883,0.89697265625,-0.01513671875,0.55712890625,-8.60595703125,-0.06103515625,1.89208984375,-2.4554443359375,-58.7274169921875,-41.1273193359375
1758527812.7271283,0.89697265625,-0.01513671875,0.55712890625,-8.60595703125,-0.06103515625,1.89208984375,-2.57080078125,-58.73291015625,-41.0833740234375
1758527812.7373712,0.89697265625,-0.01513671875,0.55712890625,0.0,-0.30517578125,0.9765625,-2.581787109375,-58.73291015625,-41.055908203125
1758527812.746906,0.89306640625,-0.04248046875,0.54296875,0.0,-0.30517578125,0.9765625,-2.5927734375,-58.7384033203125,-41.033935546875
1758527812.7569351,0.8388671875,-0.05908203125,0.53466796875,9.765625,-0.42724609375,0.42724609375,-2.5048828125,-58.7384033203125,-41.0174560546875
1758527812.7671103,0.8388671875,-0.05908203125,0.53466796875,9.765625,-0.42724609375,0.42724609375,-2.4169921875,-58.743896484375,-41.0009765625
1758527812.776954,0.81884765625,-0.03076171875,0.4423828125,6.7138671875,-0.9765625,0.8544921875,-2.3675537109375,-58.7548828125,-40.9735107421875
1758527812.7870336,0.81884765625,-0.03076171875,0.4423828125,6.7138671875,-0.9765625,0.8544921875,-2.318115234375,-58.765869140625,-40.946044921875
1758527812.7969935,0.78955078125,0.02783203125,0.46484375,-2.5634765625,-1.5869140625,1.220703125,-2.3675537109375,-58.7823486328125,-40.9130859375
1758527812.8072743,0.78955078125,0.02783203125,0.46484375,-2.5634765625,-1.5869140625,1.220703125,-2.4114990234375,-58.798828125,-40.880126953125
1758527812.8170938,0.7744140625,-0.03125,0.4638671875,-2.5634765625,-2.197265625,2.50244140625,-2.4774169921875,-58.82080078125,-40.8197021484375
1758527812.8270254,0.7744140625,-0.03125,0.4638671875,-2.5634765625,-2.197265625,2.50244140625,-2.5433349609375,-58.8427734375,-40.7647705078125
1758527812.8371632,0.7744140625,-0.06005859375,0.439453125,-0.1220703125,-3.41796875,2.86865234375,-2.5982666015625,-58.8812255859375,-40.693359375
1758527812.8470325,0.7744140625,-0.06005859375,0.439453125,-0.1220703125,-3.41796875,2.86865234375,-2.647705078125,-58.9141845703125,-40.62744140625
1758527812.857083,0.810546875,-0.0390625,0.47216796875,5.126953125,-3.7841796875,2.99072265625,-2.6531982421875,-58.95263671875,-40.5560302734375
1758527812.8672094,0.810546875,-0.0390625,0.47216796875,5.126953125,-3.7841796875,2.99072265625,-2.65869140625,-58.9910888671875,-40.484619140625
1758527812.877067,0.84228515625,-0.0205078125,0.52001953125,2.9296875,-3.35693359375,3.35693359375,-2.6971435546875,-59.0240478515625,-40.4022216796875
1758527812.8871422,0.84228515625,-0.0205078125,0.52001953125,2.9296875,-3.35693359375,3.35693359375,-2.724609375,-59.0570068359375,-40.3253173828125
1758527812.8970938,0.8876953125,0.00390625,0.5078125,-4.0283203125,-3.23486328125,3.35693359375,-2.8289794921875,-59.0899658203125,-40.2484130859375
1758527812.9073067,0.8876953125,0.00390625,0.5078125,-4.0283203125,-3.23486328125,3.35693359375,-2.92236328125,-59.1229248046875,-40.177001953125
1758527812.9171097,0.91259765625,-0.021484375,0.5556640625,-3.47900390625,-2.5634765625,2.99072265625,-3.01025390625,-59.150390625,-40.1055908203125
1758527812.9275818,0.91259765625,-0.021484375,0.5556640625,-3.47900390625,-2.5634765625,2.99072265625,-3.0926513671875,-59.17236328125,-40.0396728515625
1758527812.9377801,0.927734375,-0.0380859375,0.5595703125,1.28173828125,-2.0751953125,2.197265625,-3.1146240234375,-59.1943359375,-39.990234375
1758527812.9479544,0.927734375,-0.0380859375,0.5595703125,1.28173828125,-2.0751953125,2.197265625,-3.1365966796875,-59.2108154296875,-39.9407958984375
1758527812.9574986,0.94091796875,-0.021484375,0.533203125,3.173828125,-2.44140625,1.40380859375,-3.131103515625,-59.23828125,-39.90234375
1758527812.967436,0.94091796875,-0.021484375,0.533203125,3.173828125,-2.44140625,1.40380859375,-3.1201171875,-59.26025390625,-39.869384765625
1758527812.977154,0.95166015625,0.009765625,0.56396484375,1.64794921875,-3.11279296875,0.67138671875,-3.1146240234375,-59.293212890625,-39.847412109375
1758527812.987297,0.95166015625,0.009765625,0.56396484375,1.64794921875,-3.11279296875,0.67138671875,-3.1036376953125,-59.326171875,-39.825439453125
1758527812.9972126,0.95166015625,0.0146484375,0.5732421875,0.18310546875,-3.41796875,0.244140625,-3.1036376953125,-59.359130859375,-39.814453125
1758527813.0074775,0.95166015625,0.0146484375,0.5732421875,0.18310546875,-3.41796875,0.244140625,-3.09814453125,-59.39208984375,-39.803466796875
1758527813.0172513,0.9541015625,0.02587890625,0.5244140625,1.89208984375,-4.21142578125,-0.3662109375,-3.065185546875,-59.43603515625,-39.8089599609375
1758527813.0275493,0.9541015625,0.02587890625,0.5244140625,1.89208984375,-4.21142578125,-0.3662109375,-3.0267333984375,-59.4744873046875,-39.8089599609375
1758527813.0374951,0.9443359375,0.03369140625,0.55712890625,7.080078125,-5.0048828125,-0.3662109375,-2.9388427734375,-59.5294189453125,-39.8089599609375
1758527813.0472953,0.9443359375,0.03369140625,0.55712890625,7.080078125,-5.0048828125,-0.3662109375,-2.845458984375,-59.578857421875,-39.814453125
1758527813.0574543,0.92822265625,0.04248046875,0.5302734375,8.1787109375,-5.615234375,0.1220703125,-2.7520751953125,-59.6337890625,-39.8089599609375
1758527813.0674977,0.92822265625,0.04248046875,0.5302734375,8.1787109375,-5.615234375,0.1220703125,-2.65869140625,-59.6942138671875,-39.7979736328125
1758527813.0773222,0.8984375,0.05224609375,0.51318359375,-1.46484375,-6.591796875,1.0986328125,-2.669677734375,-59.7601318359375,-39.7760009765625
1758527813.087352,0.8984375,0.05224609375,0.51318359375,-1.46484375,-6.591796875,1.0986328125,-2.6806640625,-59.820556640625,-39.7540283203125
1758527813.097294,0.861328125,0.0458984375,0.484375,1.52587890625,-7.4462890625,2.25830078125,-2.6806640625,-59.8974609375,-39.70458984375
1758527813.1075149,0.861328125,0.0458984375,0.484375,1.52587890625,-7.4462890625,2.25830078125,-2.6806640625,-59.9688720703125,-39.66064453125
1758527813.1173267,0.8271484375,0.03564453125,0.458984375,6.65283203125,-8.4228515625,3.72314453125,-2.6531982421875,-60.05126953125,-39.5892333984375
1758527813.1274989,0.8271484375,0.03564453125,0.458984375,6.65283203125,-8.4228515625,3.72314453125,-2.625732421875,-60.1336669921875,-39.5123291015625
1758527813.1375823,0.81103515625,0.02587890625,0.44384765625,2.01416015625,-9.1552734375,5.615234375,-2.6806640625,-60.2215576171875,-39.39697265625
1758527813.1474688,0.81103515625,0.02587890625,0.44384765625,2.01416015625,-9.1552734375,5.615234375,-2.7301025390625,-60.31494140625,-39.287109375
1758527813.1574118,0.81396484375,0.01611328125,0.4580078125,-7.8125,-9.27734375,7.080078125,-2.9058837890625,-60.40283203125,-39.144287109375
1758527813.1674874,0.81396484375,0.01611328125,0.4580078125,-7.8125,-9.27734375,7.080078125,-3.0816650390625,-60.49072265625,-39.00146484375
1758527813.1779335,0.830078125,-0.00390625,0.4560546875,-7.14111328125,-8.9111328125,7.9345703125,-3.2684326171875,-60.5731201171875,-38.836669921875
1758527813.1874726,0.830078125,-0.00390625,0.4560546875,-7.14111328125,-8.9111328125,7.9345703125,-3.4552001953125,-60.6610107421875,-38.6773681640625
1758527813.1974757,0.86328125,-0.01708984375,0.478515625,-1.708984375,-8.23974609375,7.9345703125,-3.592529296875,-60.7379150390625,-38.5125732421875
1758527813.20788,0.86328125,-0.01708984375,0.478515625,-1.708984375,-8.23974609375,7.9345703125,-3.7298583984375,-60.809326171875,-38.3477783203125
1758527813.2174556,0.90380859375,-0.02783203125,0.51708984375,-4.39453125,-7.14111328125,7.9345703125,-3.8946533203125,-60.875244140625,-38.1884765625
1758527813.2275116,0.90966796875,-0.03857421875,0.52001953125,-9.27734375,-6.04248046875,7.32421875,-4.075927734375,-60.9356689453125,-38.0291748046875
1758527813.237881,0.90966796875,-0.03857421875,0.52001953125,-9.27734375,-6.04248046875,7.32421875,-4.28466796875,-60.985107421875,-37.880859375
1758527813.2503412,0.90966796875,-0.03857421875,0.52001953125,-13.00048828125,-5.55419921875,6.4697265625,-4.50439453125,-61.0345458984375,-37.7325439453125
1758527813.2589014,0.90380859375,-0.048828125,0.47412109375,-13.00048828125,-5.55419921875,6.4697265625,-4.735107421875,-61.083984375,-37.59521484375
1758527813.2678843,0.9267578125,-0.0615234375,0.50927734375,-0.1220703125,-5.0048828125,4.33349609375,-4.8834228515625,-61.1334228515625,-37.4798583984375
1758527813.2777271,0.9267578125,-0.0615234375,0.50927734375,-0.1220703125,-5.0048828125,4.33349609375,-4.954833984375,-61.1773681640625,-37.386474609375
1758527813.2875633,0.9267578125,-0.06787109375,0.53173828125,3.60107421875,-4.150390625,3.5400390625,-4.998779296875,-61.2158203125,-37.298583984375
1758527813.29759,0.9267578125,-0.06787109375,0.53173828125,3.60107421875,-4.150390625,3.5400390625,-5.020751953125,-61.2542724609375,-37.2216796875
1758527813.3078146,0.8876953125,-0.0625,0.47900390625,-6.28662109375,-4.150390625,2.44140625,-5.086669921875,-61.2872314453125,-37.15576171875
1758527813.3175797,0.8876953125,-0.0625,0.47900390625,-6.28662109375,-4.150390625,2.44140625,-5.1910400390625,-61.32568359375,-37.100830078125
1758527813.3276026,0.86962890625,-0.0615234375,0.423828125,-3.72314453125,-5.06591796875,1.28173828125,-5.2789306640625,-61.3641357421875,-37.0513916015625
1758527813.3378592,0.86962890625,-0.0615234375,0.423828125,-3.72314453125,-5.06591796875,1.28173828125,-5.33935546875,-61.41357421875,-37.012939453125
1758527813.3475897,0.8486328125,-0.06494140625,0.4794921875,0.0,-5.43212890625,2.0751953125,-5.394287109375,-61.4630126953125,-36.9635009765625
1758527813.3575926,0.8486328125,-0.06494140625,0.4794921875,0.0,-5.43212890625,2.0751953125,-5.4437255859375,-61.512451171875,-36.903076171875
1758527813.367706,0.8095703125,-0.07080078125,0.435546875,-1.3427734375,-5.43212890625,2.62451171875,-5.4986572265625,-61.5618896484375,-36.8426513671875
1758527813.3775747,0.8095703125,-0.07080078125,0.435546875,-1.3427734375,-5.43212890625,2.62451171875,-5.5755615234375,-61.611328125,-36.771240234375
1758527813.3876033,0.77099609375,-0.09814453125,0.38134765625,-6.16455078125,-5.9814453125,3.60107421875,-5.679931640625,-61.666259765625,-36.6888427734375
1758527813.3976815,0.77099609375,-0.09814453125,0.38134765625,-6.16455078125,-5.9814453125,3.60107421875,-5.8282470703125,-61.72119140625,-36.595458984375
1758527813.408219,0.7607421875,-0.12548828125,0.41162109375,-2.9296875,-5.7373046875,1.46484375,-5.9381103515625,-61.776123046875,-36.5185546875
1758527813.4176986,0.7607421875,-0.12548828125,0.41162109375,-2.9296875,-5.7373046875,1.46484375,-6.0205078125,-61.8255615234375,-36.463623046875
1758527813.4277117,0.7607421875,-0.12548828125,0.41162109375,4.5166015625,-4.94384765625,-0.6103515625,-6.053466796875,-61.875,-36.4306640625
1758527813.4378278,0.75048828125,-0.12548828125,0.40576171875,4.5166015625,-4.94384765625,-0.6103515625,-6.031494140625,-61.9244384765625,-36.419677734375
1758527813.448009,0.716796875,-0.125,0.38916015625,2.685546875,-4.2724609375,-2.74658203125,-5.99853515625,-61.9683837890625,-36.4306640625
1758527813.4577122,0.716796875,-0.125,0.38916015625,2.685546875,-4.2724609375,-2.74658203125,-5.9600830078125,-62.0068359375,-36.463623046875
1758527813.4679534,0.701171875,-0.13134765625,0.349609375,1.708984375,-3.96728515625,-4.39453125,-5.9161376953125,-62.05078125,-36.507568359375
1758527813.4777927,0.701171875,-0.13134765625,0.349609375,1.708984375,-3.96728515625,-4.39453125,-5.86669921875,-62.0892333984375,-36.573486328125
1758527813.4877584,0.7216796875,-0.15185546875,0.36669921875,1.0986328125,-3.84521484375,-6.16455078125,-5.8062744140625,-62.127685546875,-36.650390625
1758527813.497825,0.7216796875,-0.15185546875,0.36669921875,1.0986328125,-3.84521484375,-6.16455078125,-5.7403564453125,-62.171630859375,-36.7437744140625
1758527813.5080466,0.779296875,-0.0654296875,0.41162109375,6.4697265625,-3.0517578125,-6.9580078125,-5.635986328125,-62.20458984375,-36.84814453125
1758527813.5178428,0.779296875,-0.0654296875,0.41162109375,6.4697265625,-3.0517578125,-6.9580078125,-5.4986572265625,-62.237548828125,-36.9635009765625
1758527813.5277975,0.83154296875,-0.0400390625,0.43505859375,11.3525390625,-2.62451171875,-7.62939453125,-5.328369140625,-62.2705078125,-37.0843505859375
1758527813.5383444,0.83154296875,-0.0400390625,0.43505859375,11.3525390625,-2.62451171875,-7.62939453125,-5.11962890625,-62.303466796875,-37.2161865234375
1758527813.54785,0.8701171875,-0.00634765625,0.431640625,2.86865234375,-2.9296875,-7.080078125,-4.954833984375,-62.3309326171875,-37.342529296875
1758527813.5580988,0.8701171875,-0.00634765625,0.431640625,2.86865234375,-2.9296875,-7.080078125,-4.833984375,-62.3638916015625,-37.46337890625
1758527813.567873,0.93212890625,-0.01513671875,0.466796875,-0.06103515625,-3.41796875,-7.8125,-4.713134765625,-62.40234375,-37.59521484375
1758527813.577889,0.93212890625,-0.01513671875,0.466796875,-0.06103515625,-3.41796875,-7.8125,-4.59228515625,-62.4407958984375,-37.738037109375
1758527813.5880728,0.966796875,-0.0419921875,0.52734375,1.52587890625,-3.35693359375,-8.9111328125,-4.4549560546875,-62.4847412109375,-37.891845703125
1758527813.5978377,0.966796875,-0.0419921875,0.52734375,1.52587890625,-3.35693359375,-8.9111328125,-4.295654296875,-62.523193359375,-38.0621337890625
1758527813.608154,0.966796875,-0.0498046875,0.49462890625,7.26318359375,-3.173828125,-10.43701171875,-4.0924072265625,-62.5616455078125,-38.2489013671875
1758527813.6179004,0.966796875,-0.0498046875,0.49462890625,7.26318359375,-3.173828125,-10.43701171875,-3.8397216796875,-62.5946044921875,-38.4521484375
1758527813.6278543,0.93701171875,-0.0390625,0.46240234375,11.29150390625,-2.86865234375,-11.962890625,-3.5595703125,-62.633056640625,-38.671875
1758527813.6383727,0.93701171875,-0.0390625,0.46240234375,11.29150390625,-2.86865234375,-11.962890625,-3.240966796875,-62.666015625,-38.9080810546875
