timestamp,acc_x,acc_y,acc_z,gyro_x,gyro_y,gyro_z,angle_x,angle_y,angle_z
1758528125.8576052,0.0,0.0,0.0,0.79345703125,-0.48828125,0.1220703125,2.1807861328125,-22.0330810546875,-36.881103515625
1758528125.867225,0.3779296875,0.033203125,0.93310546875,0.8544921875,-0.54931640625,0.0,2.186279296875,-22.03857421875,-36.881103515625
1758528125.8776999,0.3779296875,0.033203125,0.93310546875,0.8544921875,-0.54931640625,0.0,2.197265625,-22.0440673828125,-36.881103515625
1758528125.8880327,0.3779296875,0.04052734375,0.9267578125,0.79345703125,-0.67138671875,0.1220703125,2.2027587890625,-22.0550537109375,-36.881103515625
1758528125.8978117,0.3779296875,0.04052734375,0.9267578125,0.79345703125,-0.67138671875,0.1220703125,2.2137451171875,-22.060546875,-36.881103515625
1758528125.9085839,0.37451171875,0.04052734375,0.9248046875,0.54931640625,-0.6103515625,0.06103515625,2.21923828125,-22.0660400390625,-36.881103515625
1758528125.91796,0.37451171875,0.04052734375,0.9248046875,0.54931640625,-0.6103515625,0.06103515625,2.2247314453125,-22.071533203125,-36.881103515625
1758528125.927395,0.3759765625,0.03466796875,0.92333984375,0.244140625,-0.54931640625,0.0,2.2247314453125,-22.0770263671875,-36.881103515625
1758528125.9362302,0.3759765625,0.03466796875,0.92333984375,0.244140625,-0.54931640625,0.0,2.2247314453125,-22.08251953125,-36.881103515625
1758528125.9458535,0.376953125,0.029296875,0.92578125,0.42724609375,-0.48828125,-0.1220703125,2.230224609375,-22.0880126953125,-36.8865966796875
1758528125.956107,0.376953125,0.029296875,0.92578125,0.42724609375,-0.48828125,-0.1220703125,2.2357177734375,-22.093505859375,-36.8865966796875
1758528125.9662426,0.37646484375,0.03759765625,0.921875,0.54931640625,-0.48828125,-0.1220703125,2.2412109375,-22.0989990234375,-36.8865966796875
1758528125.9758246,0.37646484375,0.03759765625,0.921875,0.54931640625,-0.48828125,-0.1220703125,2.2467041015625,-22.0989990234375,-36.89208984375
1758528125.9855728,0.375,0.0400390625,0.9189453125,0.06103515625,-0.42724609375,0.0,2.2467041015625,-22.1044921875,-36.89208984375
1758528125.9969838,0.375,0.0400390625,0.9189453125,0.06103515625,-0.42724609375,0.0,2.2467041015625,-22.1099853515625,-36.89208984375
1758528126.005585,0.3759765625,0.03662109375,0.93017578125,-0.18310546875,-0.244140625,0.1220703125,2.2467041015625,-22.1099853515625,-36.89208984375
1758528126.0155919,0.3759765625,0.03662109375,0.93017578125,-0.18310546875,-0.244140625,0.1220703125,2.2467041015625,-22.115478515625,-36.89208984375
1758528126.025586,0.37744140625,0.0380859375,0.93115234375,0.0,-0.18310546875,0.06103515625,2.2412109375,-22.115478515625,-36.89208984375
1758528126.0356348,0.37744140625,0.0380859375,0.93115234375,0.0,-0.18310546875,0.06103515625,2.2412109375,-22.1209716796875,-36.89208984375
1758528126.0455794,0.37841796875,0.0361328125,0.9267578125,0.0,-0.244140625,0.06103515625,2.2412109375,-22.1209716796875,-36.89208984375
1758528126.0556035,0.37841796875,0.0361328125,0.9267578125,0.0,-0.244140625,0.06103515625,2.2412109375,-22.1209716796875,-36.8865966796875
1758528126.0655842,0.37646484375,0.03662109375,0.92626953125,-0.1220703125,-0.1220703125,0.0,2.2412109375,-22.12646484375,-36.8865966796875
1758528126.0755825,0.37646484375,0.03662109375,0.92626953125,-0.1220703125,-0.1220703125,0.0,2.2412109375,-22.12646484375,-36.8865966796875
1758528126.0855844,0.37939453125,0.04052734375,0.92529296875,-0.18310546875,0.0,0.0,2.2412109375,-22.12646484375,-36.8865966796875
1758528126.095781,0.37939453125,0.04052734375,0.92529296875,-0.18310546875,0.0,0.0,2.2357177734375,-22.12646484375,-36.8865966796875
1758528126.1056664,0.37744140625,0.03759765625,0.9306640625,-0.1220703125,0.1220703125,-0.06103515625,2.2357177734375,-22.12646484375,-36.8865966796875
1758528126.1156695,0.37744140625,0.03759765625,0.9306640625,-0.1220703125,0.1220703125,-0.06103515625,2.2357177734375,-22.1209716796875,-36.8865966796875
1758528126.1256673,0.37744140625,0.0341796875,0.9326171875,-0.1220703125,0.1220703125,-0.06103515625,2.2357177734375,-22.1209716796875,-36.8865966796875
1758528126.135689,0.37744140625,0.0341796875,0.9326171875,-0.1220703125,0.1220703125,-0.06103515625,2.2357177734375,-22.1209716796875,-36.8865966796875
1758528126.1456616,0.37646484375,0.03173828125,0.921875,0.18310546875,0.0,0.0,2.2357177734375,-22.1209716796875,-36.8865966796875
1758528126.155683,0.37646484375,0.03173828125,0.921875,0.18310546875,0.0,0.0,2.2412109375,-22.1209716796875,-36.8865966796875
1758528126.1656942,0.376953125,0.04052734375,0.92041015625,0.244140625,-0.1220703125,0.0,2.2412109375,-22.1209716796875,-36.8865966796875
1758528126.1757154,0.376953125,0.04052734375,0.92041015625,0.244140625,-0.1220703125,0.0,2.2467041015625,-22.1209716796875,-36.8865966796875
1758528126.1857393,0.3779296875,0.03759765625,0.92236328125,-0.18310546875,-0.1220703125,0.0,2.2412109375,-22.12646484375,-36.89208984375
1758528126.1957557,0.3779296875,0.03759765625,0.92236328125,-0.18310546875,-0.1220703125,0.0,2.2412109375,-22.12646484375,-36.89208984375
1758528126.2057533,0.37744140625,0.03759765625,0.92919921875,-0.1220703125,-0.1220703125,0.0,2.2412109375,-22.12646484375,-36.89208984375
1758528126.2157779,0.37744140625,0.03759765625,0.92919921875,-0.1220703125,-0.1220703125,0.0,2.2412109375,-22.12646484375,-36.89208984375
1758528126.225764,0.37939453125,0.04296875,0.93408203125,0.0,-0.18310546875,0.0,2.2412109375,-22.1319580078125,-36.89208984375
1758528126.235768,0.37939453125,0.04296875,0.93408203125,0.0,-0.18310546875,0.0,2.2412109375,-22.1319580078125,-36.89208984375
1758528126.245771,0.3779296875,0.03564453125,0.9306640625,0.0,-0.244140625,0.0,2.2412109375,-22.1319580078125,-36.89208984375
1758528126.255791,0.3779296875,0.03564453125,0.9306640625,0.0,-0.244140625,0.0,2.2412109375,-22.137451171875,-36.89208984375
1758528126.2657883,0.37841796875,0.0302734375,0.92626953125,0.0,-0.3662109375,0.0,2.2412109375,-22.1429443359375,-36.8975830078125
1758528126.2758038,0.37841796875,0.0302734375,0.92626953125,0.0,-0.3662109375,0.0,2.2412109375,-22.1429443359375,-36.8975830078125
1758528126.28582,0.3798828125,0.04150390625,0.923828125,0.3662109375,-0.30517578125,-0.42724609375,2.2467041015625,-22.1484375,-36.903076171875
1758528126.2959423,0.3798828125,0.04150390625,0.923828125,0.3662109375,-0.30517578125,-0.42724609375,2.252197265625,-22.1484375,-36.9085693359375
1758528126.3059082,0.376953125,0.03662109375,0.92822265625,0.42724609375,-0.18310546875,-0.42724609375,2.2576904296875,-22.1539306640625,-36.9085693359375
1758528126.3160276,0.376953125,0.03662109375,0.92822265625,0.42724609375,-0.18310546875,-0.42724609375,2.26318359375,-22.1539306640625,-36.9140625
1758528126.3259013,0.37841796875,0.03564453125,0.92822265625,0.42724609375,-0.1220703125,-0.48828125,2.274169921875,-22.1539306640625,-36.9195556640625
1758528126.336015,0.37841796875,0.03564453125,0.92822265625,0.42724609375,-0.1220703125,-0.48828125,2.2796630859375,-22.1539306640625,-36.9305419921875
1758528126.345911,0.37890625,0.0380859375,0.9296875,0.54931640625,-0.1220703125,-0.42724609375,2.28515625,-22.159423828125,-36.9305419921875
1758528126.3560584,0.37890625,0.0380859375,0.9296875,0.54931640625,-0.1220703125,-0.42724609375,2.2906494140625,-22.159423828125,-36.93603515625
1758528126.3659098,0.37890625,0.0380859375,0.9306640625,0.732421875,-0.18310546875,-0.30517578125,2.3016357421875,-22.159423828125,-36.9415283203125
1758528126.376007,0.37890625,0.0380859375,0.9306640625,0.732421875,-0.18310546875,-0.30517578125,2.30712890625,-22.159423828125,-36.947021484375
1758528126.3859396,0.376953125,0.03076171875,0.92236328125,0.732421875,-0.244140625,-0.1220703125,2.318115234375,-22.1649169921875,-36.947021484375
1758528126.3959663,0.376953125,0.03076171875,0.92236328125,0.732421875,-0.244140625,-0.1220703125,2.3236083984375,-22.1649169921875,-36.947021484375
1758528126.4060078,0.3818359375,0.0439453125,0.9189453125,0.30517578125,-0.1220703125,-0.06103515625,2.3291015625,-22.1649169921875,-36.9525146484375
1758528126.4159975,0.3818359375,0.0439453125,0.9189453125,0.30517578125,-0.1220703125,-0.06103515625,2.3291015625,-22.17041015625,-36.9525146484375
1758528126.426016,0.38623046875,0.0390625,0.94091796875,0.6103515625,-0.06103515625,-0.1220703125,2.3345947265625,-22.17041015625,-36.9525146484375
1758528126.4360013,0.38623046875,0.0390625,0.94091796875,0.6103515625,-0.06103515625,-0.1220703125,2.3455810546875,-22.17041015625,-36.9525146484375
1758528126.4461017,0.396484375,0.0283203125,0.95068359375,0.9765625,-0.18310546875,-0.244140625,2.3565673828125,-22.1759033203125,-36.9580078125
1758528126.4562132,0.396484375,0.0283203125,0.95068359375,0.9765625,-0.18310546875,-0.244140625,2.362060546875,-22.1759033203125,-36.9580078125
1758528126.466167,0.3828125,0.03125,0.9580078125,1.15966796875,-0.67138671875,-0.06103515625,2.373046875,-22.181396484375,-36.9635009765625
1758528126.47617,0.3828125,0.03125,0.9580078125,1.15966796875,-0.67138671875,-0.06103515625,2.384033203125,-22.1923828125,-36.9635009765625
1758528126.4861438,0.369140625,0.03564453125,0.921875,-0.8544921875,-0.54931640625,0.42724609375,2.373046875,-22.1978759765625,-36.9580078125
1758528126.4961674,0.369140625,0.03564453125,0.921875,-0.8544921875,-0.54931640625,0.42724609375,2.362060546875,-22.203369140625,-36.9525146484375
1758528126.5093005,0.36865234375,0.05126953125,0.89990234375,-0.8544921875,0.1220703125,0.8544921875,2.35107421875,-22.1978759765625,-36.947021484375
1758528126.5161324,0.36865234375,0.05126953125,0.89990234375,-0.8544921875,0.1220703125,0.8544921875,2.340087890625,-22.1978759765625,-36.93603515625
1758528126.526207,0.37158203125,0.0341796875,0.90576171875,-0.30517578125,0.67138671875,0.91552734375,2.3291015625,-22.1923828125,-36.9305419921875
1758528126.536604,0.37158203125,0.0341796875,0.90576171875,-0.30517578125,0.67138671875,0.91552734375,2.3236083984375,-22.1868896484375,-36.9195556640625
1758528126.546162,0.37109375,0.03662109375,0.9072265625,0.0,0.732421875,0.48828125,2.3236083984375,-22.181396484375,-36.9140625
1758528126.5561607,0.37109375,0.03662109375,0.9072265625,0.0,0.732421875,0.48828125,2.318115234375,-22.17041015625,-36.9085693359375
1758528126.5662634,0.376953125,0.0439453125,0.92333984375,0.0,0.48828125,0.30517578125,2.318115234375,-22.1649169921875,-36.9085693359375
1758528126.5762045,0.376953125,0.0439453125,0.92333984375,0.0,0.48828125,0.30517578125,2.318115234375,-22.1649169921875,-36.903076171875
1758528126.5864546,0.3828125,0.037109375,0.9375,-0.30517578125,0.1220703125,0.42724609375,2.3126220703125,-22.159423828125,-36.8975830078125
1758528126.5972192,0.3828125,0.037109375,0.9375,-0.30517578125,0.1220703125,0.42724609375,2.30712890625,-22.159423828125,-36.8975830078125
1758528126.6066296,0.3837890625,0.041015625,0.9423828125,-0.48828125,-0.18310546875,0.3662109375,2.3016357421875,-22.1649169921875,-36.89208984375
1758528126.61627,0.3837890625,0.041015625,0.9423828125,-0.48828125,-0.18310546875,0.3662109375,2.296142578125,-22.1649169921875,-36.89208984375
1758528126.626261,0.38916015625,0.0458984375,0.94140625,-0.732421875,-0.54931640625,0.0,2.2906494140625,-22.17041015625,-36.89208984375
1758528126.6362839,0.38916015625,0.0458984375,0.94140625,-0.732421875,-0.54931640625,0.0,2.28515625,-22.1759033203125,-36.89208984375
1758528126.6466317,0.39501953125,0.0400390625,0.95263671875,1.03759765625,-1.15966796875,-0.3662109375,2.296142578125,-22.1868896484375,-36.8975830078125
1758528126.65629,0.39501953125,0.0400390625,0.95263671875,1.03759765625,-1.15966796875,-0.3662109375,2.3126220703125,-22.1978759765625,-36.903076171875
1758528126.6663647,0.3984375,0.0400390625,0.970703125,3.5400390625,-1.64794921875,-0.9765625,2.35107421875,-22.21435546875,-36.9140625
1758528126.6765707,0.3984375,0.0400390625,0.970703125,3.5400390625,-1.64794921875,-0.9765625,2.3895263671875,-22.2308349609375,-36.925048828125
1758528126.6863494,0.4091796875,0.0283203125,0.97216796875,5.0048828125,-2.38037109375,-1.0986328125,2.4444580078125,-22.25830078125,-36.93603515625
1758528126.696651,0.4091796875,0.0283203125,0.97216796875,5.0048828125,-2.38037109375,-1.0986328125,2.4993896484375,-22.2802734375,-36.947021484375
1758528126.707292,0.40673828125,0.04296875,0.98583984375,4.39453125,-3.72314453125,-1.0986328125,2.548828125,-22.3187255859375,-36.9635009765625
1758528126.7167869,0.388671875,0.046875,0.9375,2.62451171875,-4.638671875,-0.91552734375,2.5872802734375,-22.357177734375,-36.9744873046875
1758528126.7267396,0.388671875,0.046875,0.9375,2.62451171875,-4.638671875,-0.91552734375,2.61474609375,-22.4066162109375,-36.990966796875
1758528126.7366464,0.40380859375,0.04248046875,0.9423828125,1.8310546875,-5.0048828125,-1.03759765625,2.6422119140625,-22.4505615234375,-37.001953125
1758528126.747305,0.40380859375,0.04248046875,0.9423828125,1.8310546875,-5.0048828125,-1.03759765625,2.6641845703125,-22.5,-37.012939453125
1758528126.7568753,0.42529296875,0.0322265625,1.0205078125,2.86865234375,-6.89697265625,-1.3427734375,2.691650390625,-22.5604248046875,-37.0294189453125
1758528126.766907,0.42529296875,0.0322265625,1.0205078125,2.86865234375,-6.89697265625,-1.3427734375,2.724609375,-22.6318359375,-37.0458984375
1758528126.7767045,0.43896484375,0.044921875,1.0029296875,6.04248046875,-9.27734375,-1.5869140625,2.7740478515625,-22.708740234375,-37.06787109375
1758528126.787282,0.43896484375,0.044921875,1.0029296875,6.04248046875,-9.27734375,-1.5869140625,2.8399658203125,-22.8021240234375,-37.08984375
1758528126.7964494,0.43896484375,0.044921875,1.0029296875,3.60107421875,-12.26806640625,-1.52587890625,2.8948974609375,-22.906494140625,-37.11181640625
1758528126.8066163,0.45068359375,0.0400390625,1.0615234375,3.60107421875,-12.26806640625,-1.52587890625,2.933349609375,-23.02734375,-37.1337890625
1758528126.8167446,0.4453125,0.052734375,1.029296875,-2.44140625,-15.625,-0.48828125,2.9443359375,-23.1646728515625,-37.15576171875
1758528126.8266985,0.4453125,0.052734375,1.029296875,-2.44140625,-15.625,-0.48828125,2.92236328125,-23.3184814453125,-37.1722412109375
1758528126.8365264,0.4443359375,0.056640625,1.0,-6.7138671875,-18.49365234375,-0.06103515625,2.87841796875,-23.4832763671875,-37.1832275390625
1758528126.8465555,0.4443359375,0.056640625,1.0,-6.7138671875,-18.49365234375,-0.06103515625,2.8179931640625,-23.66455078125,-37.1942138671875
1758528126.856986,0.451171875,0.06640625,0.96923828125,-10.31494140625,-20.20263671875,-0.244140625,2.735595703125,-23.8568115234375,-37.210693359375
1758528126.8665738,0.451171875,0.06640625,0.96923828125,-10.31494140625,-20.20263671875,-0.244140625,2.63671875,-24.0545654296875,-37.2216796875
1758528126.8765728,0.4365234375,0.04248046875,0.94091796875,-11.65771484375,-21.54541015625,-0.6103515625,2.5323486328125,-24.2578125,-37.2381591796875
1758528126.8873649,0.4365234375,0.04248046875,0.94091796875,-11.65771484375,-21.54541015625,-0.6103515625,2.427978515625,-24.466552734375,-37.254638671875
1758528126.89695,0.44189453125,0.03271484375,0.95458984375,-13.427734375,-22.52197265625,-0.8544921875,2.3126220703125,-24.6807861328125,-37.276611328125
1758528126.9066188,0.44189453125,0.03271484375,0.95458984375,-13.427734375,-22.52197265625,-0.8544921875,2.186279296875,-24.9005126953125,-37.298583984375
1758528126.9175005,0.46533203125,0.03076171875,0.9228515625,-11.23046875,-23.3154296875,-0.91552734375,2.076416015625,-25.1202392578125,-37.3150634765625
1758528126.9265869,0.46533203125,0.03076171875,0.9228515625,-11.23046875,-23.3154296875,-0.91552734375,1.9775390625,-25.345458984375,-37.3370361328125
1758528126.9365995,0.44287109375,0.01611328125,0.9287109375,-8.60595703125,-22.94921875,-1.220703125,1.8896484375,-25.5706787109375,-37.3590087890625
1758528126.9468493,0.44287109375,0.01611328125,0.9287109375,-8.60595703125,-22.94921875,-1.220703125,1.812744140625,-25.7958984375,-37.3809814453125
1758528126.9566774,0.4150390625,0.02099609375,0.8046875,-5.79833984375,-21.240234375,-1.8310546875,1.7578125,-26.004638671875,-37.4029541015625
1758528126.966884,0.4150390625,0.02099609375,0.8046875,-5.79833984375,-21.240234375,-1.8310546875,1.7138671875,-26.21337890625,-37.4359130859375
1758528126.9767466,0.439453125,-0.013671875,0.89892578125,5.55419921875,-20.44677734375,-2.197265625,1.724853515625,-26.4111328125,-37.46337890625
1758528126.986983,0.439453125,-0.013671875,0.89892578125,5.55419921875,-20.44677734375,-2.197265625,1.7962646484375,-26.60888671875,-37.496337890625
1758528126.9966755,0.4150390625,0.0283203125,0.861328125,11.65771484375,-18.798828125,-2.13623046875,1.8951416015625,-26.7901611328125,-37.529296875
1758528127.0068502,0.4150390625,0.0283203125,0.861328125,11.65771484375,-18.798828125,-2.13623046875,2.021484375,-26.971435546875,-37.562255859375
1758528127.017671,0.42138671875,0.04833984375,0.8408203125,14.83154296875,-16.7236328125,-1.77001953125,2.164306640625,-27.13623046875,-37.59521484375
1758528127.026722,0.42138671875,0.04833984375,0.8408203125,14.83154296875,-16.7236328125,-1.77001953125,2.3236083984375,-27.2900390625,-37.6226806640625
1758528127.036764,0.4150390625,0.02880859375,0.8076171875,12.20703125,-14.58740234375,-0.91552734375,2.4664306640625,-27.4383544921875,-37.650146484375
1758528127.0467956,0.4150390625,0.02880859375,0.8076171875,12.20703125,-14.58740234375,-0.91552734375,2.5927734375,-27.5701904296875,-37.672119140625
1758528127.0567176,0.4052734375,0.02587890625,0.7998046875,11.962890625,-12.0849609375,-0.30517578125,2.7191162109375,-27.6910400390625,-37.694091796875
1758528127.0673761,0.4052734375,0.02587890625,0.7998046875,11.962890625,-12.0849609375,-0.30517578125,2.83447265625,-27.8009033203125,-37.705078125
1758528127.0770512,0.41064453125,0.04833984375,0.7900390625,6.53076171875,-9.70458984375,0.54931640625,2.92236328125,-27.8997802734375,-37.716064453125
1758528127.0867357,0.41064453125,0.04833984375,0.7900390625,6.53076171875,-9.70458984375,0.54931640625,2.9827880859375,-27.9876708984375,-37.7215576171875
1758528127.096753,0.400390625,0.08154296875,0.78515625,1.40380859375,-6.7138671875,1.15966796875,3.0157470703125,-28.05908203125,-37.7215576171875
1758528127.107166,0.400390625,0.08154296875,0.78515625,1.40380859375,-6.7138671875,1.15966796875,3.0267333984375,-28.114013671875,-37.7215576171875
1758528127.1180232,0.43408203125,0.06396484375,0.7958984375,-1.46484375,-4.0283203125,1.52587890625,3.0157470703125,-28.157958984375,-37.7105712890625
1758528127.126903,0.43408203125,0.06396484375,0.7958984375,-1.46484375,-4.0283203125,1.52587890625,2.999267578125,-28.19091796875,-37.6995849609375
1758528127.1372318,0.44677734375,0.0263671875,0.84912109375,-1.5869140625,-2.01416015625,1.708984375,2.977294921875,-28.212890625,-37.6885986328125
1758528127.1473618,0.44677734375,0.0263671875,0.84912109375,-1.5869140625,-2.01416015625,1.708984375,2.9498291015625,-28.223876953125,-37.6776123046875
1758528127.1571932,0.46630859375,0.037109375,0.85986328125,-1.15966796875,-0.91552734375,1.40380859375,2.9278564453125,-28.23486328125,-37.6611328125
1758528127.16745,0.46630859375,0.037109375,0.85986328125,-1.15966796875,-0.91552734375,1.40380859375,2.911376953125,-28.23486328125,-37.650146484375
1758528127.178221,0.47412109375,0.060546875,0.87744140625,-2.86865234375,-0.42724609375,1.03759765625,2.8839111328125,-28.2403564453125,-37.6446533203125
1758528127.1869578,0.47412109375,0.060546875,0.87744140625,-2.86865234375,-0.42724609375,1.03759765625,2.8509521484375,-28.2403564453125,-37.6336669921875
1758528127.197237,0.4873046875,0.05810546875,0.89794921875,-4.94384765625,-0.48828125,0.91552734375,2.8070068359375,-28.2403564453125,-37.628173828125
1758528127.207096,0.4873046875,0.05810546875,0.89794921875,-4.94384765625,-0.48828125,0.91552734375,2.7520751953125,-28.2403564453125,-37.6171875
1758528127.2183435,0.48095703125,0.044921875,0.8818359375,-4.57763671875,-1.0986328125,0.48828125,2.7081298828125,-28.245849609375,-37.6116943359375
1758528127.2269413,0.48095703125,0.044921875,0.8818359375,-4.57763671875,-1.0986328125,0.48828125,2.65869140625,-28.2513427734375,-37.606201171875
1758528127.2376037,0.484375,0.03662109375,0.87255859375,-4.0283203125,-1.40380859375,-0.18310546875,2.6202392578125,-28.2623291015625,-37.606201171875
1758528127.2473638,0.484375,0.03662109375,0.87255859375,-4.0283203125,-1.40380859375,-0.18310546875,2.581787109375,-28.2733154296875,-37.6116943359375
1758528127.257569,0.4921875,0.03759765625,0.875,-2.5634765625,-2.197265625,-0.732421875,2.5543212890625,-28.289794921875,-37.6116943359375
1758528127.2669733,0.4921875,0.03759765625,0.875,-2.5634765625,-2.197265625,-0.732421875,2.537841796875,-28.311767578125,-37.6226806640625
1758528127.2779481,0.4794921875,0.0361328125,0.89306640625,-2.44140625,-2.86865234375,-0.9765625,2.5213623046875,-28.3392333984375,-37.628173828125
1758528127.2870927,0.4794921875,0.0361328125,0.89306640625,-2.44140625,-2.86865234375,-0.9765625,2.5048828125,-28.36669921875,-37.63916015625
1758528127.2971117,0.4853515625,0.0546875,0.88232421875,-5.2490234375,-3.47900390625,-0.9765625,2.471923828125,-28.3941650390625,-37.650146484375
1758528127.3073835,0.4853515625,0.0546875,0.88232421875,-5.2490234375,-3.47900390625,-0.9765625,2.427978515625,-28.4271240234375,-37.6611328125
1758528127.3170843,0.5078125,0.01953125,0.912109375,-3.72314453125,-4.33349609375,-1.15966796875,2.39501953125,-28.465576171875,-37.6776123046875
1758528127.3270037,0.5078125,0.01953125,0.912109375,-3.72314453125,-4.33349609375,-1.15966796875,2.362060546875,-28.509521484375,-37.6885986328125
1758528127.3375106,0.50634765625,0.03125,0.908203125,-1.953125,-5.31005859375,-1.0986328125,2.3455810546875,-28.5589599609375,-37.6995849609375
1758528127.3470852,0.50634765625,0.03125,0.908203125,-1.953125,-5.31005859375,-1.0986328125,2.3345947265625,-28.6083984375,-37.716064453125
1758528127.3571143,0.517578125,0.04443359375,0.9228515625,-1.28173828125,-6.40869140625,-0.8544921875,2.3236083984375,-28.6688232421875,-37.72705078125
1758528127.3673525,0.517578125,0.04443359375,0.9228515625,-1.28173828125,-6.40869140625,-0.8544921875,2.318115234375,-28.7347412109375,-37.738037109375
1758528127.3770988,0.53173828125,0.0458984375,0.951171875,-1.46484375,-7.6904296875,-0.67138671875,2.3126220703125,-28.8006591796875,-37.7490234375
1758528127.3871043,0.53173828125,0.0458984375,0.951171875,-1.46484375,-7.6904296875,-0.67138671875,2.30712890625,-28.8775634765625,-37.7545166015625
1758528127.3971307,0.533203125,0.04296875,0.9482421875,0.0,-9.58251953125,-0.6103515625,2.30712890625,-28.9654541015625,-37.7655029296875
1758528127.4076219,0.533203125,0.04296875,0.9482421875,0.0,-9.58251953125,-0.6103515625,2.3126220703125,-29.058837890625,-37.77099609375
1758528127.4171574,0.51708984375,0.0341796875,0.9033203125,0.42724609375,-11.1083984375,-0.79345703125,2.3236083984375,-29.1632080078125,-37.781982421875
1758528127.4271343,0.51708984375,0.0341796875,0.9033203125,0.42724609375,-11.1083984375,-0.79345703125,2.3345947265625,-29.267578125,-37.79296875
1758528127.4373856,0.4990234375,0.02880859375,0.8671875,0.06103515625,-12.3291015625,-0.6103515625,2.3455810546875,-29.3829345703125,-37.803955078125
1758528127.4473126,0.4990234375,0.02880859375,0.8671875,0.06103515625,-12.3291015625,-0.6103515625,2.35107421875,-29.5037841796875,-37.81494140625
1758528127.4571419,0.49951171875,0.048828125,0.818359375,-2.50244140625,-12.63427734375,-1.03759765625,2.3455810546875,-29.630126953125,-37.8314208984375
1758528127.4671423,0.49951171875,0.048828125,0.818359375,-2.50244140625,-12.63427734375,-1.03759765625,2.3345947265625,-29.7509765625,-37.8424072265625
1758528127.4775975,0.501953125,0.021484375,0.8896484375,-3.23486328125,-13.00048828125,-0.8544921875,2.3126220703125,-29.8773193359375,-37.85888671875
1758528127.4875374,0.501953125,0.021484375,0.8896484375,-3.23486328125,-13.00048828125,-0.8544921875,2.2906494140625,-30.0091552734375,-37.869873046875
1758528127.4972804,0.52294921875,0.03662109375,0.87890625,-3.41796875,-13.427734375,-0.79345703125,2.26318359375,-30.135498046875,-37.8863525390625
1758528127.5076075,0.52294921875,0.03662109375,0.87890625,-3.41796875,-13.427734375,-0.79345703125,2.2412109375,-30.267333984375,-37.8973388671875
1758528127.5172682,0.533203125,0.0,0.8818359375,-0.6103515625,-13.671875,-0.1220703125,2.2247314453125,-30.399169921875,-37.9083251953125
1758528127.527261,0.533203125,0.0,0.8818359375,-0.6103515625,-13.671875,-0.1220703125,2.21923828125,-30.531005859375,-37.913818359375
1758528127.5373197,0.52197265625,0.01220703125,0.86083984375,4.638671875,-13.73291015625,0.1220703125,2.2412109375,-30.662841796875,-37.9193115234375
1758528127.5478425,0.52197265625,0.01220703125,0.86083984375,4.638671875,-13.73291015625,0.1220703125,2.2906494140625,-30.8001708984375,-37.9193115234375
1758528127.557304,0.5419921875,0.02392578125,0.8740234375,6.65283203125,-13.5498046875,0.42724609375,2.3455810546875,-30.9320068359375,-37.9193115234375
1758528127.5676396,0.5419921875,0.02392578125,0.8740234375,6.65283203125,-13.5498046875,0.42724609375,2.406005859375,-31.0638427734375,-37.9193115234375
1758528127.57768,0.52978515625,0.0478515625,0.8759765625,7.9345703125,-13.427734375,0.91552734375,2.471923828125,-31.1956787109375,-37.9193115234375
1758528127.5885952,0.52978515625,0.0478515625,0.8759765625,7.9345703125,-13.427734375,0.91552734375,2.548828125,-31.3275146484375,-37.913818359375
1758528127.5972974,0.5146484375,0.03857421875,0.84423828125,8.85009765625,-12.87841796875,1.15966796875,2.625732421875,-31.453857421875,-37.9083251953125
1758528127.607786,0.5146484375,0.03857421875,0.84423828125,8.85009765625,-12.87841796875,1.15966796875,2.7081298828125,-31.57470703125,-37.90283203125
1758528127.6178412,0.5048828125,0.03759765625,0.8076171875,4.8828125,-12.0849609375,1.708984375,2.7630615234375,-31.695556640625,-37.891845703125
1758528127.6276178,0.5048828125,0.03759765625,0.8076171875,4.8828125,-12.0849609375,1.708984375,2.801513671875,-31.8109130859375,-37.880859375
1758528127.6373932,0.517578125,0.03857421875,0.80078125,2.8076171875,-11.29150390625,2.01416015625,2.8289794921875,-31.92626953125,-37.8643798828125
1758528127.6484275,0.517578125,0.03857421875,0.80078125,2.8076171875,-11.29150390625,2.01416015625,2.845458984375,-32.0361328125,-37.847900390625
1758528127.6574137,0.5185546875,0.03466796875,0.82666015625,2.8076171875,-10.6201171875,1.953125,2.8619384765625,-32.1405029296875,-37.8314208984375
1758528127.6677632,0.5185546875,0.03466796875,0.82666015625,2.8076171875,-10.6201171875,1.953125,2.87841796875,-32.244873046875,-37.81494140625
1758528127.6779227,0.51806640625,0.03125,0.822265625,3.84521484375,-9.58251953125,1.8310546875,2.900390625,-32.3382568359375,-37.7984619140625
1758528127.6879623,0.51806640625,0.03125,0.822265625,3.84521484375,-9.58251953125,1.8310546875,2.92236328125,-32.431640625,-37.781982421875
1758528127.697425,0.53076171875,0.0517578125,0.828125,5.37109375,-8.23974609375,1.64794921875,2.955322265625,-32.5140380859375,-37.7655029296875
1758528127.708534,0.53076171875,0.0517578125,0.828125,5.37109375,-8.23974609375,1.64794921875,2.999267578125,-32.5909423828125,-37.7545166015625
1758528127.717446,0.5302734375,0.04248046875,0.826171875,5.92041015625,-6.77490234375,1.5869140625,3.0487060546875,-32.662353515625,-37.738037109375
1758528127.728082,0.5302734375,0.04248046875,0.826171875,5.92041015625,-6.77490234375,1.5869140625,3.0926513671875,-32.728271484375,-37.7215576171875
1758528127.7378535,0.5390625,0.06787109375,0.82275390625,6.53076171875,-5.126953125,1.15966796875,3.1475830078125,-32.783203125,-37.7105712890625
1758528127.7475085,0.5390625,0.06787109375,0.82275390625,6.53076171875,-5.126953125,1.15966796875,3.2025146484375,-32.8326416015625,-37.6995849609375
1758528127.7575705,0.53173828125,0.0595703125,0.845703125,5.859375,-3.7841796875,0.79345703125,3.2574462890625,-32.8656005859375,-37.694091796875
1758528127.7679853,0.53173828125,0.0595703125,0.845703125,5.859375,-3.7841796875,0.79345703125,3.3123779296875,-32.8985595703125,-37.6885986328125
1758528127.777557,0.51953125,0.060546875,0.7880859375,5.126953125,-2.99072265625,0.48828125,3.36181640625,-32.926025390625,-37.6885986328125
1758528127.788007,0.51953125,0.060546875,0.7880859375,5.126953125,-2.99072265625,0.48828125,3.40576171875,-32.947998046875,-37.68310546875
1758528127.797999,0.51953125,0.060546875,0.7880859375,5.79833984375,-2.0751953125,0.244140625,3.4661865234375,-32.969970703125,-37.68310546875
1758528127.807588,0.5146484375,0.0556640625,0.77197265625,5.79833984375,-2.0751953125,0.244140625,3.5211181640625,-32.9864501953125,-37.68310546875
1758528127.8175852,0.556640625,0.04248046875,0.837890625,5.0048828125,-1.8310546875,0.06103515625,3.570556640625,-33.0029296875,-37.68310546875
1758528127.8278322,0.556640625,0.04248046875,0.837890625,5.0048828125,-1.8310546875,0.06103515625,3.6199951171875,-33.0194091796875,-37.68310546875
1758528127.8375833,0.56591796875,0.052734375,0.84814453125,3.41796875,-2.74658203125,-0.30517578125,3.658447265625,-33.046875,-37.6885986328125
1758528127.847633,0.56591796875,0.052734375,0.84814453125,3.41796875,-2.74658203125,-0.30517578125,3.69140625,-33.06884765625,-37.6885986328125
1758528127.8577025,0.5556640625,0.08349609375,0.8369140625,1.77001953125,-3.5400390625,-0.42724609375,3.71337890625,-33.1072998046875,-37.694091796875
1758528127.8676462,0.5556640625,0.08349609375,0.8369140625,1.77001953125,-3.5400390625,-0.42724609375,3.7353515625,-33.1402587890625,-37.6995849609375
1758528127.877666,0.583984375,0.0537109375,0.84130859375,1.77001953125,-4.57763671875,-0.54931640625,3.75732421875,-33.1842041015625,-37.7105712890625
1758528127.888044,0.583984375,0.0537109375,0.84130859375,1.77001953125,-4.57763671875,-0.54931640625,3.7847900390625,-33.2281494140625,-37.716064453125
1758528127.8977761,0.56640625,0.0498046875,0.85986328125,1.0986328125,-5.9814453125,-0.67138671875,3.80126953125,-33.28857421875,-37.72705078125
1758528127.9076898,0.56640625,0.0498046875,0.85986328125,1.0986328125,-5.9814453125,-0.67138671875,3.8177490234375,-33.3489990234375,-37.738037109375
1758528127.9179397,0.564453125,0.05712890625,0.8212890625,-1.953125,-7.32421875,-0.30517578125,3.80126953125,-33.42041015625,-37.7435302734375
1758528127.927726,0.564453125,0.05712890625,0.8212890625,-1.953125,-7.32421875,-0.30517578125,3.790283203125,-33.497314453125,-37.7490234375
1758528127.9377115,0.54736328125,0.06689453125,0.7978515625,-2.38037109375,-8.11767578125,0.244140625,3.768310546875,-33.57421875,-37.7490234375
1758528127.9477262,0.54736328125,0.06689453125,0.7978515625,-2.38037109375,-8.11767578125,0.244140625,3.746337890625,-33.6566162109375,-37.7490234375
1758528127.9579306,0.560546875,0.0498046875,0.79833984375,-4.39453125,-8.36181640625,0.91552734375,3.702392578125,-33.7445068359375,-37.7435302734375
1758528127.9677193,0.560546875,0.0498046875,0.79833984375,-4.39453125,-8.36181640625,0.91552734375,3.6529541015625,-33.826904296875,-37.7325439453125
1758528127.9777355,0.5732421875,0.05029296875,0.84912109375,-7.32421875,-8.11767578125,1.28173828125,3.5760498046875,-33.9093017578125,-37.7215576171875
1758528127.9881992,0.5732421875,0.05029296875,0.84912109375,-7.32421875,-8.11767578125,1.28173828125,3.4991455078125,-33.99169921875,-37.7105712890625
1758528127.997855,0.57373046875,0.048828125,0.85107421875,-8.7890625,-7.568359375,1.5869140625,3.40576171875,-34.068603515625,-37.694091796875
1758528128.0077946,0.57373046875,0.048828125,0.85107421875,-8.7890625,-7.568359375,1.5869140625,3.3123779296875,-34.1400146484375,-37.6776123046875
1758528128.0182908,0.56884765625,0.04296875,0.81298828125,-7.6904296875,-6.89697265625,1.8310546875,3.22998046875,-34.21142578125,-37.6556396484375
1758528128.0284812,0.56884765625,0.04296875,0.81298828125,-7.6904296875,-6.89697265625,1.8310546875,3.1475830078125,-34.2828369140625,-37.63916015625
1758528128.0382032,0.57373046875,0.03857421875,0.80322265625,-1.8310546875,-6.34765625,2.0751953125,3.1201171875,-34.34326171875,-37.6171875
1758528128.0478406,0.57373046875,0.03857421875,0.80322265625,-1.8310546875,-6.34765625,2.0751953125,3.0926513671875,-34.4091796875,-37.5897216796875
1758528128.0592563,0.58740234375,0.04248046875,0.8505859375,0.18310546875,-6.34765625,1.89208984375,3.0816650390625,-34.4696044921875,-37.5677490234375
1758528128.0679061,0.58740234375,0.04248046875,0.8505859375,0.18310546875,-6.34765625,1.89208984375,3.076171875,-34.5355224609375,-37.5457763671875
1758528128.0787003,0.60009765625,0.0546875,0.8623046875,-0.30517578125,-6.89697265625,1.8310546875,3.065185546875,-34.60693359375,-37.529296875
1758528128.0883439,0.60009765625,0.0546875,0.8623046875,-0.30517578125,-6.89697265625,1.8310546875,3.05419921875,-34.6728515625,-37.50732421875
1758528128.0985615,0.603515625,0.03662109375,0.8515625,0.0,-7.75146484375,1.8310546875,3.043212890625,-34.749755859375,-37.4853515625
1758528128.1079185,0.603515625,0.03662109375,0.8515625,0.0,-7.75146484375,1.8310546875,3.0377197265625,-34.82666015625,-37.4688720703125
1758528128.1187866,0.5966796875,0.03271484375,0.8232421875,1.89208984375,-8.60595703125,1.89208984375,3.043212890625,-34.91455078125,-37.4468994140625
1758528128.1289816,0.5966796875,0.03271484375,0.8232421875,1.89208984375,-8.60595703125,1.89208984375,3.05419921875,-35.00244140625,-37.4249267578125
1758528128.1385624,0.60107421875,0.03369140625,0.82763671875,0.79345703125,-9.521484375,1.8310546875,3.05419921875,-35.0958251953125,-37.408447265625
1758528128.1479514,0.60107421875,0.03369140625,0.82763671875,0.79345703125,-9.521484375,1.8310546875,3.0487060546875,-35.189208984375,-37.386474609375
1758528128.1588705,0.58056640625,0.0361328125,0.81103515625,-1.40380859375,-10.07080078125,2.01416015625,3.0267333984375,-35.2935791015625,-37.364501953125
1758528128.1679926,0.58056640625,0.0361328125,0.81103515625,-1.40380859375,-10.07080078125,2.01416015625,2.999267578125,-35.3924560546875,-37.342529296875
1758528128.1788216,0.56298828125,0.029296875,0.779296875,-0.91552734375,-10.25390625,2.197265625,2.977294921875,-35.496826171875,-37.320556640625
1758528128.188472,0.56298828125,0.029296875,0.779296875,-0.91552734375,-10.25390625,2.197265625,2.955322265625,-35.595703125,-37.2930908203125
1758528128.1980574,0.57666015625,0.05126953125,0.763671875,0.732421875,-9.765625,2.38037109375,2.9498291015625,-35.694580078125,-37.2711181640625
1758528128.2080665,0.57666015625,0.05126953125,0.763671875,0.732421875,-9.765625,2.38037109375,2.9388427734375,-35.79345703125,-37.24365234375
1758528128.2181292,0.60302734375,0.07763671875,0.82958984375,-1.0986328125,-9.21630859375,2.44140625,2.9168701171875,-35.88134765625,-37.2161865234375
1758528128.229184,0.60302734375,0.07763671875,0.82958984375,-1.0986328125,-9.21630859375,2.44140625,2.8948974609375,-35.9747314453125,-37.188720703125
1758528128.238222,0.61181640625,0.0546875,0.8349609375,-7.26318359375,-9.09423828125,2.74658203125,2.8070068359375,-36.0626220703125,-37.15576171875
1758528128.2481446,0.61181640625,0.0546875,0.8349609375,-7.26318359375,-9.09423828125,2.74658203125,2.724609375,-36.156005859375,-37.1282958984375
1758528128.2587094,0.57568359375,0.02685546875,0.78076171875,-7.26318359375,-8.97216796875,2.3193359375,2.6422119140625,-36.243896484375,-37.100830078125
1758528128.2682347,0.57568359375,0.02685546875,0.78076171875,-7.26318359375,-8.97216796875,2.3193359375,2.559814453125,-36.331787109375,-37.078857421875
1758528128.2783866,0.55126953125,0.02197265625,0.7392578125,-1.220703125,-7.99560546875,1.77001953125,2.537841796875,-36.40869140625,-37.056884765625
1758528128.288234,0.55126953125,0.02197265625,0.7392578125,-1.220703125,-7.99560546875,1.77001953125,2.515869140625,-36.485595703125,-37.0404052734375
1758528128.2985241,0.58203125,0.05517578125,0.7578125,1.0986328125,-6.591796875,1.220703125,2.52685546875,-36.551513671875,-37.0294189453125
1758528128.3082235,0.58203125,0.05517578125,0.7578125,1.0986328125,-6.591796875,1.220703125,2.5323486328125,-36.6119384765625,-37.012939453125
1758528128.3182514,0.6064453125,0.05908203125,0.82763671875,-2.50244140625,-5.79833984375,1.0986328125,2.5048828125,-36.67236328125,-37.001953125
1758528128.3291793,0.6064453125,0.05908203125,0.82763671875,-2.50244140625,-5.79833984375,1.0986328125,2.4774169921875,-36.727294921875,-36.990966796875
1758528128.3382525,0.607421875,0.0263671875,0.794921875,-6.8359375,-5.55419921875,0.9765625,2.4114990234375,-36.7767333984375,-36.97998046875
1758528128.3482156,0.607421875,0.0263671875,0.794921875,-6.8359375,-5.55419921875,0.9765625,2.340087890625,-36.8316650390625,-36.968994140625
1758528128.3584876,0.58056640625,0.0234375,0.7666015625,-2.5634765625,-4.8828125,0.244140625,2.318115234375,-36.881103515625,-36.9635009765625
1758528128.3682814,0.58056640625,0.0234375,0.7666015625,-2.5634765625,-4.8828125,0.244140625,2.296142578125,-36.925048828125,-36.9635009765625
1758528128.3785152,0.5947265625,0.02880859375,0.7783203125,4.33349609375,-3.90625,-0.42724609375,2.3455810546875,-36.9635009765625,-36.9635009765625
1758528128.3888655,0.5947265625,0.02880859375,0.7783203125,4.33349609375,-3.90625,-0.42724609375,2.39501953125,-37.001953125,-36.968994140625
1758528128.3993394,0.64990234375,0.0478515625,0.822265625,4.2724609375,-3.72314453125,-0.67138671875,2.449951171875,-37.034912109375,-36.9744873046875
1758528128.4084651,0.64990234375,0.0478515625,0.822265625,4.2724609375,-3.72314453125,-0.67138671875,2.4993896484375,-37.0733642578125,-36.97998046875
1758528128.418318,0.66015625,0.044921875,0.87744140625,0.1220703125,-4.69970703125,-0.67138671875,2.5103759765625,-37.1173095703125,-36.9854736328125
1758528128.4291537,0.66015625,0.044921875,0.87744140625,0.1220703125,-4.69970703125,-0.67138671875,2.515869140625,-37.166748046875,-36.990966796875
1758528128.4383724,0.650390625,0.04638671875,0.82861328125,-0.54931640625,-5.92041015625,-0.79345703125,2.5213623046875,-37.2216796875,-37.001953125
1758528128.448368,0.650390625,0.04638671875,0.82861328125,-0.54931640625,-5.92041015625,-0.79345703125,2.52685546875,-37.2821044921875,-37.0074462890625
1758528128.4586434,0.638671875,0.02197265625,0.81103515625,0.3662109375,-6.53076171875,-0.91552734375,2.5433349609375,-37.3480224609375,-37.0184326171875
1758528128.4687514,0.638671875,0.02197265625,0.81103515625,0.3662109375,-6.53076171875,-0.91552734375,2.5543212890625,-37.408447265625,-37.0294189453125
1758528128.479018,0.62890625,0.00634765625,0.8125,4.21142578125,-7.01904296875,-1.15966796875,2.6092529296875,-37.4798583984375,-37.0404052734375
1758528128.4891212,0.62890625,0.00634765625,0.8125,4.21142578125,-7.01904296875,-1.15966796875,2.65869140625,-37.55126953125,-37.056884765625
1758528128.4984891,0.630859375,0.0419921875,0.81298828125,4.638671875,-7.50732421875,-1.28173828125,2.713623046875,-37.6226806640625,-37.06787109375
1758528128.5087707,0.630859375,0.0419921875,0.81298828125,4.638671875,-7.50732421875,-1.28173828125,2.7740478515625,-37.694091796875,-37.0843505859375
1758528128.5184405,0.63720703125,0.04833984375,0.783203125,0.732421875,-8.36181640625,-0.79345703125,2.7850341796875,-37.7764892578125,-37.0953369140625
1758528128.5298963,0.63720703125,0.04833984375,0.783203125,0.732421875,-8.36181640625,-0.79345703125,2.801513671875,-37.85888671875,-37.1063232421875
1758528128.53845,0.61962890625,0.04638671875,0.7412109375,-2.74658203125,-8.9111328125,-0.1220703125,2.779541015625,-37.9522705078125,-37.1063232421875
1758528128.5489461,0.61962890625,0.04638671875,0.7412109375,-2.74658203125,-8.9111328125,-0.1220703125,2.757568359375,-38.0401611328125,-37.1063232421875
1758528128.558793,0.61181640625,0.04345703125,0.7939453125,-2.9296875,-9.033203125,0.244140625,2.7301025390625,-38.1280517578125,-37.1063232421875
1758528128.5693753,0.61181640625,0.04345703125,0.7939453125,-2.9296875,-9.033203125,0.244140625,2.70263671875,-38.221435546875,-37.100830078125
1758528128.5790653,0.6083984375,0.0517578125,0.72900390625,-4.33349609375,-8.97216796875,1.15966796875,2.6531982421875,-38.309326171875,-37.08984375
1758528128.5889907,0.6083984375,0.0517578125,0.72900390625,-4.33349609375,-8.97216796875,1.15966796875,2.603759765625,-38.397216796875,-37.0733642578125
1758528128.5990038,0.6083984375,0.0517578125,0.72900390625,-7.99560546875,-8.544921875,2.01416015625,2.515869140625,-38.485107421875,-37.0458984375
1758528128.6091075,0.60009765625,0.0322265625,0.7470703125,-7.99560546875,-8.544921875,2.01416015625,2.427978515625,-38.5675048828125,-37.02392578125
1758528128.6185534,0.61669921875,0.013671875,0.7578125,-9.521484375,-7.8125,2.197265625,2.318115234375,-38.64990234375,-36.9964599609375
1758528128.6301656,0.61669921875,0.013671875,0.7578125,-9.521484375,-7.8125,2.197265625,2.208251953125,-38.726806640625,-36.968994140625
1758528128.6387236,0.6298828125,0.02685546875,0.7626953125,-5.79833984375,-7.14111328125,1.8310546875,2.142333984375,-38.7982177734375,-36.9415283203125
1758528128.6485581,0.6298828125,0.02685546875,0.7626953125,-5.79833984375,-7.14111328125,1.8310546875,2.076416015625,-38.86962890625,-36.9195556640625
1758528128.6586103,0.63427734375,0.04541015625,0.78466796875,-4.8828125,-6.34765625,1.64794921875,2.0159912109375,-38.9300537109375,-36.8975830078125
1758528128.668815,0.63427734375,0.04541015625,0.78466796875,-4.8828125,-6.34765625,1.64794921875,1.9610595703125,-38.9959716796875,-36.8756103515625
1758528128.6786284,0.63671875,0.0166015625,0.77392578125,-4.94384765625,-5.9814453125,1.64794921875,1.900634765625,-39.0509033203125,-36.8536376953125
1758528128.6888247,0.63671875,0.0166015625,0.77392578125,-4.94384765625,-5.9814453125,1.64794921875,1.845703125,-39.111328125,-36.8316650390625
1758528128.6991374,0.66064453125,0.0087890625,0.7578125,-4.33349609375,-5.859375,1.28173828125,1.7962646484375,-39.1717529296875,-36.8096923828125
1758528128.7088943,0.66064453125,0.0087890625,0.7578125,-4.33349609375,-5.859375,1.28173828125,1.746826171875,-39.232177734375,-36.793212890625
1758528128.7187538,0.6708984375,0.0068359375,0.814453125,-0.9765625,-6.04248046875,0.79345703125,1.7303466796875,-39.2926025390625,-36.7767333984375
1758528128.728706,0.6708984375,0.0068359375,0.814453125,-0.9765625,-6.04248046875,0.79345703125,1.7193603515625,-39.35302734375,-36.7657470703125
1758528128.7388766,0.69580078125,0.046875,0.83447265625,-0.3662109375,-7.01904296875,0.6103515625,1.7138671875,-39.4244384765625,-36.7547607421875
1758528128.7486975,0.6845703125,0.03515625,0.7978515625,-2.8076171875,-8.1787109375,0.9765625,1.69189453125,-39.495849609375,-36.7437744140625
1758528128.7587242,0.6845703125,0.03515625,0.7978515625,-2.8076171875,-8.1787109375,0.9765625,1.658935546875,-39.5782470703125,-36.727294921875
1758528128.768905,0.67236328125,0.0087890625,0.78076171875,-5.43212890625,-9.521484375,1.0986328125,1.614990234375,-39.6661376953125,-36.7108154296875
1758528128.7788239,0.67236328125,0.0087890625,0.78076171875,-5.43212890625,-9.521484375,1.0986328125,1.5545654296875,-39.7650146484375,-36.6943359375
1758528128.788786,0.68212890625,0.0224609375,0.7880859375,-1.28173828125,-10.7421875,0.6103515625,1.5216064453125,-39.8638916015625,-36.6778564453125
1758528128.7988229,0.68212890625,0.0224609375,0.7880859375,-1.28173828125,-10.7421875,0.6103515625,1.505126953125,-39.9737548828125,-36.6668701171875
1758528128.8088248,0.68701171875,0.0068359375,0.7861328125,0.0,-11.8408203125,0.42724609375,1.4996337890625,-40.089111328125,-36.661376953125
1758528128.818774,0.68701171875,0.0068359375,0.7861328125,0.0,-11.8408203125,0.42724609375,1.4996337890625,-40.2044677734375,-36.650390625
1758528128.8288336,0.67626953125,0.02880859375,0.787109375,-3.11279296875,-12.8173828125,0.244140625,1.483154296875,-40.330810546875,-36.6448974609375
1758528128.8389919,0.67626953125,0.02880859375,0.787109375,-3.11279296875,-12.8173828125,0.244140625,1.4556884765625,-40.4571533203125,-36.639404296875
1758528128.8489904,0.66552734375,0.0498046875,0.76318359375,-6.9580078125,-13.73291015625,0.48828125,1.40625,-40.5889892578125,-36.6339111328125
1758528128.858855,0.66552734375,0.0498046875,0.76318359375,-6.9580078125,-13.73291015625,0.48828125,1.3348388671875,-40.7208251953125,-36.6229248046875
1758528128.8688328,0.66650390625,0.033203125,0.73681640625,-15.19775390625,-14.16015625,0.9765625,1.2249755859375,-40.858154296875,-36.6119384765625
1758528128.8796792,0.66650390625,0.033203125,0.73681640625,-15.19775390625,-14.16015625,0.9765625,1.07666015625,-41.0009765625,-36.595458984375
1758528128.888843,0.66259765625,0.01318359375,0.73291015625,-13.61083984375,-14.2822265625,1.15966796875,0.933837890625,-41.1383056640625,-36.5789794921875
1758528128.9001267,0.66259765625,0.01318359375,0.73291015625,-13.61083984375,-14.2822265625,1.15966796875,0.7965087890625,-41.2811279296875,-36.5625
1758528128.9089274,0.63671875,0.02490234375,0.72509765625,-13.36669921875,-13.916015625,1.46484375,0.6536865234375,-41.41845703125,-36.54052734375
1758528128.9192393,0.63671875,0.02490234375,0.72509765625,-13.36669921875,-13.916015625,1.46484375,0.5218505859375,-41.5557861328125,-36.5185546875
1758528128.929386,0.634765625,-0.0390625,0.67724609375,-13.36669921875,-12.5732421875,1.46484375,0.384521484375,-41.6876220703125,-36.49658203125
1758528128.9393733,0.634765625,-0.0390625,0.67724609375,-13.36669921875,-12.5732421875,1.46484375,0.24169921875,-41.8084716796875,-36.4691162109375
1758528128.9489708,0.64111328125,-0.0048828125,0.72509765625,-5.4931640625,-11.3525390625,1.28173828125,0.142822265625,-41.923828125,-36.4471435546875
1758528128.9600928,0.64111328125,-0.0048828125,0.72509765625,-5.4931640625,-11.3525390625,1.28173828125,0.076904296875,-42.03369140625,-36.4251708984375
1758528128.9690063,0.673828125,-0.0107421875,0.72216796875,-2.86865234375,-10.19287109375,1.0986328125,0.032958984375,-42.1380615234375,-36.4031982421875
1758528128.9794266,0.673828125,-0.0107421875,0.72216796875,-2.86865234375,-10.19287109375,1.0986328125,0.0,-42.2369384765625,-36.3812255859375
1758528128.989282,0.69140625,-0.015625,0.74658203125,-1.77001953125,-9.27734375,0.8544921875,-0.0274658203125,-42.330322265625,-36.36474609375
1758528129.0002935,0.69140625,-0.015625,0.74658203125,-1.77001953125,-9.27734375,0.8544921875,-0.0494384765625,-42.418212890625,-36.3427734375
1758528129.0089674,0.701171875,-0.01171875,0.74853515625,1.15966796875,-8.97216796875,0.3662109375,-0.0604248046875,-42.5115966796875,-36.331787109375
1758528129.0196729,0.701171875,-0.01171875,0.74853515625,1.15966796875,-8.97216796875,0.3662109375,-0.0494384765625,-42.593994140625,-36.3153076171875
1758528129.029542,0.681640625,0.0009765625,0.73876953125,5.9814453125,-8.6669921875,-0.06103515625,-0.0164794921875,-42.681884765625,-36.309814453125
1758528129.0390074,0.681640625,0.0009765625,0.73876953125,5.9814453125,-8.6669921875,-0.06103515625,0.0384521484375,-42.7642822265625,-36.3043212890625
1758528129.0490701,0.67578125,-0.00830078125,0.69970703125,6.04248046875,-8.4228515625,-0.1220703125,0.098876953125,-42.8466796875,-36.298828125
1758528129.059478,0.67578125,-0.00830078125,0.69970703125,6.04248046875,-8.4228515625,-0.1220703125,0.1593017578125,-42.9290771484375,-36.2933349609375
1758528129.0690782,0.69677734375,-0.001953125,0.7392578125,7.9345703125,-8.1787109375,-0.1220703125,0.230712890625,-43.011474609375,-36.287841796875
1758528129.079125,0.69677734375,-0.001953125,0.7392578125,7.9345703125,-8.1787109375,-0.1220703125,0.3076171875,-43.08837890625,-36.287841796875
1758528129.0891502,0.69677734375,-0.001953125,0.7392578125,8.6669921875,-8.36181640625,-0.18310546875,0.3900146484375,-43.1707763671875,-36.2823486328125
1758528129.099499,0.708984375,-0.005859375,0.734375,8.6669921875,-8.36181640625,-0.18310546875,0.472412109375,-43.2476806640625,-36.27685546875
1758528129.1091125,0.68798828125,0.00341796875,0.72412109375,6.103515625,-8.30078125,0.244140625,0.5438232421875,-43.330078125,-36.2713623046875
1758528129.1191602,0.68798828125,0.00341796875,0.72412109375,6.103515625,-8.30078125,0.244140625,0.5987548828125,-43.4124755859375,-36.2603759765625
1758528129.129305,0.65673828125,0.013671875,0.68994140625,3.7841796875,-8.30078125,1.03759765625,0.63720703125,-43.494873046875,-36.2493896484375
1758528129.139171,0.65673828125,0.013671875,0.68994140625,3.7841796875,-8.30078125,1.03759765625,0.6646728515625,-43.57177734375,-36.2274169921875
1758528129.1491385,0.65087890625,0.01171875,0.677734375,2.74658203125,-7.87353515625,1.708984375,0.68115234375,-43.6541748046875,-36.2054443359375
1758528129.15938,0.65087890625,0.01171875,0.677734375,2.74658203125,-7.87353515625,1.708984375,0.692138671875,-43.7255859375,-36.177978515625
1758528129.1693044,0.646484375,0.009765625,0.65234375,4.638671875,-6.65283203125,2.13623046875,0.7086181640625,-43.7969970703125,-36.14501953125
1758528129.1791725,0.646484375,0.009765625,0.65234375,4.638671875,-6.65283203125,2.13623046875,0.7305908203125,-43.8629150390625,-36.112060546875
1758528129.1892514,0.65966796875,0.033203125,0.689453125,-1.0986328125,-5.18798828125,2.44140625,0.72509765625,-43.9178466796875,-36.0736083984375
1758528129.1996465,0.65966796875,0.033203125,0.689453125,-1.0986328125,-5.18798828125,2.44140625,0.692138671875,-43.96728515625,-36.03515625
1758528129.209245,0.67626953125,0.01171875,0.697265625,-2.62451171875,-3.7841796875,2.01416015625,0.6536865234375,-44.01123046875,-35.9967041015625
1758528129.219348,0.67626953125,0.01171875,0.697265625,-2.62451171875,-3.7841796875,2.01416015625,0.6097412109375,-44.0496826171875,-35.9637451171875
1758528129.229603,0.65576171875,-0.00927734375,0.6728515625,0.9765625,-2.8076171875,1.8310546875,0.582275390625,-44.0771484375,-35.936279296875
1758528129.239258,0.65576171875,-0.00927734375,0.6728515625,0.9765625,-2.8076171875,1.8310546875,0.5767822265625,-44.1046142578125,-35.9033203125
1758528129.2493312,0.658203125,0.01171875,0.65234375,-2.62451171875,-2.0751953125,1.40380859375,0.5548095703125,-44.1265869140625,-35.8758544921875
1758528129.2592647,0.658203125,0.01171875,0.65234375,-2.62451171875,-2.0751953125,1.40380859375,0.5108642578125,-44.1485595703125,-35.848388671875
1758528129.2697554,0.6796875,0.01025390625,0.68994140625,-1.77001953125,-0.8544921875,1.0986328125,0.4779052734375,-44.1595458984375,-35.826416015625
1758528129.2792451,0.6796875,0.01025390625,0.68994140625,-1.77001953125,-0.8544921875,1.0986328125,0.450439453125,-44.1705322265625,-35.804443359375
1758528129.2896433,0.703125,-0.01025390625,0.73681640625,-0.3662109375,0.0,0.732421875,0.4339599609375,-44.1705322265625,-35.782470703125
1758528129.300089,0.703125,-0.01025390625,0.73681640625,-0.3662109375,0.0,0.732421875,0.4229736328125,-44.1705322265625,-35.7659912109375
1758528129.309365,0.7294921875,0.00927734375,0.7138671875,1.77001953125,0.18310546875,0.3662109375,0.4229736328125,-44.1705322265625,-35.7550048828125
1758528129.3193634,0.7294921875,0.00927734375,0.7138671875,1.77001953125,0.18310546875,0.3662109375,0.439453125,-44.1705322265625,-35.738525390625
1758528129.3300512,0.72705078125,0.02001953125,0.7373046875,0.18310546875,0.244140625,0.06103515625,0.4449462890625,-44.1705322265625,-35.7275390625
1758528129.3393612,0.72705078125,0.02001953125,0.7373046875,0.18310546875,0.244140625,0.06103515625,0.450439453125,-44.1650390625,-35.7220458984375
1758528129.349768,0.72509765625,0.0,0.71484375,-3.2958984375,0.1220703125,0.18310546875,0.4339599609375,-44.1650390625,-35.7110595703125
1758528129.3593566,0.72509765625,0.0,0.71484375,-3.2958984375,0.1220703125,0.18310546875,0.4010009765625,-44.1705322265625,-35.70556640625
1758528129.3704014,0.720703125,0.0,0.73388671875,-1.52587890625,0.06103515625,0.06103515625,0.37353515625,-44.1705322265625,-35.694580078125
1758528129.379376,0.720703125,0.0,0.73388671875,-1.52587890625,0.06103515625,0.06103515625,0.362548828125,-44.1705322265625,-35.68359375
1758528129.389699,0.7451171875,-0.0029296875,0.74365234375,-1.03759765625,-0.42724609375,0.18310546875,0.3460693359375,-44.176025390625,-35.672607421875
1758528129.3993864,0.7451171875,-0.0029296875,0.74365234375,-1.03759765625,-0.42724609375,0.18310546875,0.3350830078125,-44.1815185546875,-35.66162109375
1758528129.4104497,0.74072265625,0.0078125,0.744140625,-0.54931640625,-1.15966796875,0.18310546875,0.3240966796875,-44.1925048828125,-35.650634765625
1758528129.419405,0.74072265625,0.0078125,0.744140625,-0.54931640625,-1.15966796875,0.18310546875,0.318603515625,-44.208984375,-35.6396484375
1758528129.429867,0.74462890625,-0.00244140625,0.75048828125,-2.9296875,-2.38037109375,0.6103515625,0.296630859375,-44.23095703125,-35.6231689453125
1758528129.4399903,0.74462890625,-0.00244140625,0.75048828125,-2.9296875,-2.38037109375,0.6103515625,0.263671875,-44.2529296875,-35.606689453125
1758528129.450072,0.72265625,0.013671875,0.71240234375,-5.2490234375,-3.90625,1.220703125,0.2142333984375,-44.2913818359375,-35.584716796875
1758528129.4595087,0.72265625,0.013671875,0.71240234375,-5.2490234375,-3.90625,1.220703125,0.1483154296875,-44.329833984375,-35.5572509765625
1758528129.471023,0.72314453125,-0.0068359375,0.7080078125,-4.69970703125,-4.8828125,1.46484375,0.087890625,-44.3792724609375,-35.52978515625
1758528129.4796457,0.72314453125,-0.0068359375,0.7080078125,-4.69970703125,-4.8828125,1.46484375,0.0274658203125,-44.4287109375,-35.5023193359375
1758528129.490401,0.72265625,-0.00244140625,0.71484375,-2.99072265625,-5.92041015625,1.89208984375,-0.0164794921875,-44.4891357421875,-35.4693603515625
1758528129.4995084,0.72265625,-0.00244140625,0.71484375,-2.99072265625,-5.92041015625,1.89208984375,-0.06591796875,-44.549560546875,-35.430908203125
1758528129.5097573,0.7314453125,0.0009765625,0.7314453125,-4.69970703125,-6.65283203125,2.3193359375,-0.120849609375,-44.615478515625,-35.3924560546875
1758528129.5195136,0.7314453125,0.0009765625,0.7314453125,-4.69970703125,-6.65283203125,2.3193359375,-0.1922607421875,-44.681396484375,-35.35400390625
1758528129.5295556,0.73486328125,0.00146484375,0.708984375,-6.103515625,-7.32421875,2.44140625,-0.2691650390625,-44.75830078125,-35.31005859375
1758528129.5398977,0.73486328125,0.00146484375,0.708984375,-6.103515625,-7.32421875,2.44140625,-0.3515625,-44.8297119140625,-35.2716064453125
1758528129.5502267,0.7236328125,0.0107421875,0.705078125,-5.4931640625,-7.62939453125,2.3193359375,-0.428466796875,-44.9066162109375,-35.2276611328125
1758528129.5595598,0.7236328125,0.0107421875,0.705078125,-5.4931640625,-7.62939453125,2.3193359375,-0.50537109375,-44.9835205078125,-35.1837158203125
1758528129.5696795,0.71728515625,-0.02490234375,0.6982421875,-3.60107421875,-7.62939453125,1.953125,-0.5657958984375,-45.0604248046875,-35.145263671875
1758528129.5798645,0.71728515625,-0.02490234375,0.6982421875,-3.60107421875,-7.62939453125,1.953125,-0.6207275390625,-45.142822265625,-35.1123046875
1758528129.590785,0.72705078125,-0.01611328125,0.701171875,-0.54931640625,-7.6904296875,1.52587890625,-0.6536865234375,-45.2197265625,-35.079345703125
1758528129.5996752,0.72705078125,-0.01611328125,0.701171875,-0.54931640625,-7.6904296875,1.52587890625,-0.6756591796875,-45.296630859375,-35.04638671875
1758528129.6097038,0.7470703125,-0.021484375,0.71044921875,2.01416015625,-7.4462890625,0.91552734375,-0.68115234375,-45.37353515625,-35.0244140625
1758528129.620181,0.7470703125,-0.021484375,0.71044921875,2.01416015625,-7.4462890625,0.91552734375,-0.670166015625,-45.450439453125,-35.00244140625
1758528129.6296813,0.75634765625,-0.00537109375,0.734375,2.50244140625,-7.568359375,0.1220703125,-0.648193359375,-45.5218505859375,-34.9859619140625
1758528129.6405435,0.75634765625,-0.00537109375,0.734375,2.50244140625,-7.568359375,0.1220703125,-0.626220703125,-45.5987548828125,-34.9749755859375
1758528129.650052,0.7197265625,-0.00390625,0.67724609375,0.30517578125,-8.1787109375,0.0,-0.615234375,-45.68115234375,-34.9639892578125
1758528129.6596556,0.7197265625,-0.00390625,0.67724609375,0.30517578125,-8.1787109375,0.0,-0.6097412109375,-45.7635498046875,-34.9530029296875
1758528129.6697032,0.71337890625,-0.03076171875,0.67529296875,4.33349609375,-8.30078125,-0.30517578125,-0.5877685546875,-45.845947265625,-34.947509765625
1758528129.6804671,0.71337890625,-0.03076171875,0.67529296875,4.33349609375,-8.30078125,-0.30517578125,-0.5438232421875,-45.9283447265625,-34.9420166015625
1758528129.6904435,0.73779296875,-0.01025390625,0.6962890625,6.9580078125,-7.99560546875,-1.0986328125,-0.4833984375,-46.0107421875,-34.9420166015625
1758528129.6996958,0.73779296875,-0.01025390625,0.6962890625,6.9580078125,-7.99560546875,-1.0986328125,-0.406494140625,-46.0931396484375,-34.947509765625
1758528129.7102592,0.75537109375,0.015625,0.72314453125,4.94384765625,-7.87353515625,-1.220703125,-0.3350830078125,-46.1700439453125,-34.9530029296875
1758528129.719755,0.75537109375,0.015625,0.72314453125,4.94384765625,-7.87353515625,-1.220703125,-0.2801513671875,-46.2469482421875,-34.9639892578125
1758528129.7298334,0.74365234375,0.0009765625,0.685546875,1.5869140625,-8.23974609375,-1.220703125,-0.2362060546875,-46.329345703125,-34.9749755859375
1758528129.7408884,0.74365234375,0.0009765625,0.685546875,1.5869140625,-8.23974609375,-1.220703125,-0.208740234375,-46.4117431640625,-34.98046875
1758528129.7500682,0.6982421875,-0.03955078125,0.65234375,3.90625,-8.85009765625,-1.220703125,-0.1702880859375,-46.494140625,-34.991455078125
1758528129.7598386,0.6982421875,-0.03955078125,0.65234375,3.90625,-8.85009765625,-1.220703125,-0.120849609375,-46.58203125,-34.9969482421875
1758528129.7703934,0.693359375,-0.03857421875,0.6337890625,11.04736328125,-9.09423828125,-1.46484375,-0.0384521484375,-46.669921875,-35.0079345703125
1758528129.780103,0.693359375,-0.03857421875,0.6337890625,11.04736328125,-9.09423828125,-1.46484375,0.076904296875,-46.7633056640625,-35.0189208984375
1758528129.790197,0.72314453125,0.00244140625,0.6552734375,12.8173828125,-8.9111328125,-1.64794921875,0.2142333984375,-46.8511962890625,-35.0299072265625
1758528129.8009999,0.72314453125,0.00244140625,0.6552734375,12.8173828125,-8.9111328125,-1.64794921875,0.3515625,-46.9390869140625,-35.04638671875
1758528129.8098783,0.7470703125,0.0517578125,0.68603515625,7.080078125,-8.60595703125,-1.28173828125,0.428466796875,-47.0269775390625,-35.057373046875
1758528129.820243,0.7470703125,0.0517578125,0.68603515625,7.080078125,-8.60595703125,-1.28173828125,0.5108642578125,-47.109375,-35.068359375
1758528129.8302865,0.7421875,0.02099609375,0.68359375,3.47900390625,-8.60595703125,-0.79345703125,0.5548095703125,-47.1917724609375,-35.0738525390625
1758528129.8413744,0.7421875,0.02099609375,0.68359375,3.47900390625,-8.60595703125,-0.79345703125,0.5987548828125,-47.2796630859375,-35.079345703125
1758528129.8499784,0.7158203125,-0.009765625,0.64501953125,3.7841796875,-8.36181640625,-1.0986328125,0.6427001953125,-47.362060546875,-35.0848388671875
1758528129.860529,0.7158203125,-0.009765625,0.64501953125,3.7841796875,-8.36181640625,-1.0986328125,0.692138671875,-47.4444580078125,-35.0958251953125
1758528129.870527,0.73828125,-0.01220703125,0.6552734375,7.01904296875,-7.9345703125,-1.89208984375,0.780029296875,-47.5213623046875,-35.1123046875
1758528129.8803694,0.73828125,-0.01220703125,0.6552734375,7.01904296875,-7.9345703125,-1.89208984375,0.867919921875,-47.5982666015625,-35.13427734375
1758528129.8905385,0.75146484375,0.04248046875,0.6796875,3.90625,-7.080078125,-2.44140625,0.9283447265625,-47.669677734375,-35.1617431640625
1758528129.9011772,0.75146484375,0.04248046875,0.6796875,3.90625,-7.080078125,-2.44140625,0.9942626953125,-47.735595703125,-35.189208984375
1758528129.9100907,0.7666015625,0.05615234375,0.6787109375,-0.06103515625,-6.65283203125,-2.38037109375,1.021728515625,-47.801513671875,-35.2166748046875
1758528129.9206088,0.7666015625,0.05615234375,0.6787109375,-0.06103515625,-6.65283203125,-2.38037109375,1.0491943359375,-47.867431640625,-35.244140625
1758528129.9300642,0.771484375,0.0302734375,0.67138671875,-4.82177734375,-6.65283203125,-2.25830078125,1.0272216796875,-47.933349609375,-35.2716064453125
1758528129.9415498,0.771484375,0.0302734375,0.67138671875,-4.82177734375,-6.65283203125,-2.25830078125,1.0107421875,-47.999267578125,-35.2935791015625
1758528129.9500399,0.751953125,-0.0068359375,0.66015625,-7.26318359375,-6.9580078125,-1.89208984375,0.9613037109375,-48.065185546875,-35.3155517578125
1758528129.9600651,0.751953125,-0.0068359375,0.66015625,-7.26318359375,-6.9580078125,-1.89208984375,0.911865234375,-48.1365966796875,-35.3375244140625
1758528129.9704492,0.7763671875,0.00634765625,0.66162109375,-6.40869140625,-7.32421875,-1.28173828125,0.867919921875,-48.2080078125,-35.3485107421875
1758528129.980128,0.7763671875,0.00634765625,0.66162109375,-6.40869140625,-7.32421875,-1.28173828125,0.8184814453125,-48.2794189453125,-35.35400390625
1758528129.9906516,0.82177734375,0.03173828125,0.70166015625,-7.87353515625,-7.50732421875,-0.732421875,0.7525634765625,-48.3563232421875,-35.3594970703125
1758528130.0003462,0.82177734375,0.03173828125,0.70166015625,-7.87353515625,-7.50732421875,-0.732421875,0.6866455078125,-48.4332275390625,-35.3594970703125
1758528130.0104806,0.791015625,0.00830078125,0.7080078125,-7.75146484375,-6.89697265625,-0.67138671875,0.6207275390625,-48.504638671875,-35.3594970703125
1758528130.0200725,0.791015625,0.00830078125,0.7080078125,-7.75146484375,-6.89697265625,-0.67138671875,0.5548095703125,-48.570556640625,-35.364990234375
1758528130.0302365,0.77685546875,-0.05859375,0.66357421875,-0.91552734375,-6.7138671875,-0.79345703125,0.560302734375,-48.636474609375,-35.364990234375
1758528130.04031,0.77685546875,-0.05859375,0.66357421875,-0.91552734375,-6.7138671875,-0.79345703125,0.560302734375,-48.702392578125,-35.364990234375
1758528130.0501525,0.7744140625,-0.029296875,0.6455078125,7.14111328125,-7.01904296875,-1.0986328125,0.63720703125,-48.7738037109375,-35.3704833984375
1758528130.0601525,0.7744140625,-0.029296875,0.6455078125,7.14111328125,-7.01904296875,-1.0986328125,0.7196044921875,-48.84521484375,-35.3759765625
1758528130.0704215,0.76416015625,0.01171875,0.65576171875,10.19287109375,-7.50732421875,-0.6103515625,0.8184814453125,-48.922119140625,-35.3759765625
1758528130.080145,0.76416015625,0.01171875,0.65576171875,10.19287109375,-7.50732421875,-0.6103515625,0.9228515625,-48.9990234375,-35.3704833984375
1758528130.090192,0.76416015625,0.01171875,0.65576171875,3.7841796875,-7.99560546875,-0.3662109375,0.9613037109375,-49.075927734375,-35.364990234375
1758528130.100633,0.7880859375,0.0283203125,0.65576171875,3.7841796875,-7.99560546875,-0.3662109375,0.999755859375,-49.1583251953125,-35.3594970703125
1758528130.110191,0.79443359375,0.01220703125,0.65576171875,2.197265625,-8.11767578125,-0.30517578125,1.0272216796875,-49.24072265625,-35.35400390625
1758528130.1203198,0.79443359375,0.01220703125,0.65576171875,2.197265625,-8.11767578125,-0.30517578125,1.0491943359375,-49.3231201171875,-35.3485107421875
1758528130.1307843,0.7841796875,0.01025390625,0.67041015625,5.126953125,-8.48388671875,-0.6103515625,1.1041259765625,-49.405517578125,-35.3485107421875
1758528130.140242,0.7841796875,0.01025390625,0.67041015625,5.126953125,-8.48388671875,-0.6103515625,1.16455078125,-49.493408203125,-35.3485107421875
1758528130.1502862,0.73974609375,0.0166015625,0.6171875,6.65283203125,-8.544921875,-0.79345703125,1.2359619140625,-49.5758056640625,-35.35400390625
1758528130.160658,0.73974609375,0.0166015625,0.6171875,6.65283203125,-8.544921875,-0.79345703125,1.3128662109375,-49.6636962890625,-35.35400390625
1758528130.1703184,0.72607421875,0.02001953125,0.58349609375,3.11279296875,-8.85009765625,-0.48828125,1.3458251953125,-49.7515869140625,-35.35400390625
1758528130.180276,0.72607421875,0.02001953125,0.58349609375,3.11279296875,-8.85009765625,-0.48828125,1.38427734375,-49.8394775390625,-35.35400390625
1758528130.1914666,0.74169921875,0.041015625,0.6044921875,0.0,-8.544921875,-0.06103515625,1.38427734375,-49.921875,-35.3485107421875
1758528130.2005103,0.74169921875,0.041015625,0.6044921875,0.0,-8.544921875,-0.06103515625,1.3897705078125,-50.009765625,-35.343017578125
1758528130.210713,0.77978515625,0.029296875,0.6591796875,-2.685546875,-7.38525390625,-0.42724609375,1.373291015625,-50.0811767578125,-35.3375244140625
1758528130.2203588,0.77978515625,0.029296875,0.6591796875,-2.685546875,-7.38525390625,-0.42724609375,1.351318359375,-50.1580810546875,-35.3375244140625
1758528130.2311115,0.7705078125,-0.005859375,0.6494140625,-1.46484375,-6.53076171875,-0.54931640625,1.3458251953125,-50.218505859375,-35.3375244140625
1758528130.24053,0.7705078125,-0.005859375,0.6494140625,-1.46484375,-6.53076171875,-0.54931640625,1.34033203125,-50.284423828125,-35.343017578125
1758528130.2511764,0.75244140625,0.00830078125,0.6142578125,4.5166015625,-6.103515625,-1.15966796875,1.4007568359375,-50.33935546875,-35.3485107421875
1758528130.2603571,0.75244140625,0.00830078125,0.6142578125,4.5166015625,-6.103515625,-1.15966796875,1.461181640625,-50.3997802734375,-35.3594970703125
1758528130.2714589,0.74072265625,0.03173828125,0.580078125,4.21142578125,-5.79833984375,-1.03759765625,1.51611328125,-50.4547119140625,-35.3704833984375
1758528130.2803943,0.74072265625,0.03173828125,0.580078125,4.21142578125,-5.79833984375,-1.03759765625,1.571044921875,-50.51513671875,-35.3759765625
1758528130.2907467,0.77783203125,0.0224609375,0.62109375,-2.685546875,-5.79833984375,-0.732421875,1.5545654296875,-50.570068359375,-35.3814697265625
1758528130.3008375,0.77783203125,0.0224609375,0.62109375,-2.685546875,-5.79833984375,-0.732421875,1.5380859375,-50.6304931640625,-35.3814697265625
1758528130.3109014,0.76416015625,0.0029296875,0.64404296875,-5.2490234375,-5.37109375,-0.54931640625,1.494140625,-50.679931640625,-35.3814697265625
1758528130.3204033,0.76416015625,0.0029296875,0.64404296875,-5.2490234375,-5.37109375,-0.54931640625,1.4501953125,-50.73486328125,-35.386962890625
1758528130.3311243,0.74609375,-0.0068359375,0.60107421875,0.244140625,-4.57763671875,-0.79345703125,1.461181640625,-50.77880859375,-35.386962890625
1758528130.34085,0.74609375,-0.0068359375,0.60107421875,0.244140625,-4.57763671875,-0.79345703125,1.47216796875,-50.82275390625,-35.3924560546875
1758528130.3510404,0.73974609375,0.041015625,0.59716796875,1.708984375,-4.150390625,-0.42724609375,1.494140625,-50.8612060546875,-35.3924560546875
1758528130.3605344,0.73974609375,0.041015625,0.59716796875,1.708984375,-4.150390625,-0.42724609375,1.51611328125,-50.9051513671875,-35.3924560546875
1758528130.3722203,0.76806640625,0.0576171875,0.56689453125,-7.568359375,-4.82177734375,1.64794921875,1.42822265625,-50.9490966796875,-35.3594970703125
1758528130.3807127,0.76806640625,0.0576171875,0.56689453125,-7.568359375,-4.82177734375,1.64794921875,1.3348388671875,-50.99853515625,-35.321044921875
1758528130.3905344,0.76318359375,0.00146484375,0.60595703125,-14.0380859375,-5.06591796875,2.9296875,1.16455078125,-51.053466796875,-35.26611328125
1758528130.400551,0.76318359375,0.00146484375,0.60595703125,-14.0380859375,-5.06591796875,2.9296875,0.9942626953125,-51.1029052734375,-35.211181640625
1758528130.4110227,0.76171875,-0.01318359375,0.61865234375,-11.962890625,-3.47900390625,2.99072265625,0.845947265625,-51.141357421875,-35.15625
1758528130.4205253,0.76171875,-0.01318359375,0.61865234375,-11.962890625,-3.47900390625,2.99072265625,0.692138671875,-51.17431640625,-35.101318359375
1758528130.4305563,0.7841796875,0.009765625,0.6298828125,-1.40380859375,-1.89208984375,2.8076171875,0.648193359375,-51.1962890625,-35.04638671875
1758528130.440864,0.7841796875,0.009765625,0.6298828125,-1.40380859375,-1.89208984375,2.8076171875,0.604248046875,-51.2127685546875,-34.991455078125
1758528130.4506319,0.765625,0.01806640625,0.58935546875,-5.18798828125,-1.708984375,3.5400390625,0.5108642578125,-51.2347412109375,-34.925537109375
1758528130.4605477,0.765625,0.01806640625,0.58935546875,-5.18798828125,-1.708984375,3.5400390625,0.4229736328125,-51.251220703125,-34.8541259765625
1758528130.470694,0.77001953125,0.0029296875,0.59521484375,-10.498046875,-1.46484375,3.60107421875,0.274658203125,-51.2677001953125,-34.7882080078125
1758528130.4809403,0.77001953125,0.0029296875,0.59521484375,-10.498046875,-1.46484375,3.60107421875,0.1318359375,-51.2841796875,-34.7222900390625
1758528130.4911127,0.7900390625,-0.00634765625,0.6318359375,-9.27734375,0.30517578125,2.9296875,0.010986328125,-51.2841796875,-34.6673583984375
1758528130.502145,0.7900390625,-0.00634765625,0.6318359375,-9.27734375,0.30517578125,2.9296875,-0.10986328125,-51.2786865234375,-34.60693359375
1758528130.5106103,0.8203125,0.01123046875,0.6669921875,-5.79833984375,1.5869140625,2.50244140625,-0.1922607421875,-51.2677001953125,-34.5574951171875
1758528130.5205936,0.8203125,0.01123046875,0.6669921875,-5.79833984375,1.5869140625,2.50244140625,-0.274658203125,-51.251220703125,-34.508056640625
1758528130.5306447,0.83642578125,0.0068359375,0.64794921875,-3.7841796875,1.64794921875,2.685546875,-0.340576171875,-51.2347412109375,-34.4586181640625
1758528130.5410888,0.83642578125,0.0068359375,0.64794921875,-3.7841796875,1.64794921875,2.685546875,-0.4010009765625,-51.21826171875,-34.4036865234375
1758528130.5506163,0.814453125,-0.02001953125,0.62158203125,-9.21630859375,0.8544921875,2.9296875,-0.52734375,-51.2127685546875,-34.3487548828125
1758528130.5606325,0.814453125,-0.02001953125,0.62158203125,-9.21630859375,0.8544921875,2.9296875,-0.648193359375,-51.207275390625,-34.2938232421875
1758528130.5708234,0.80517578125,-0.05224609375,0.6201171875,-6.65283203125,0.79345703125,2.9296875,-0.7470703125,-51.2017822265625,-34.2333984375
1758528130.5806842,0.80517578125,-0.05224609375,0.6201171875,-6.65283203125,0.79345703125,2.9296875,-0.845947265625,-51.2017822265625,-34.178466796875
1758528130.5907025,0.8232421875,-0.03125,0.66259765625,1.5869140625,0.91552734375,2.44140625,-0.8624267578125,-51.1962890625,-34.1290283203125
1758528130.6006956,0.8232421875,-0.03125,0.66259765625,1.5869140625,0.91552734375,2.44140625,-0.87890625,-51.1907958984375,-34.0740966796875
1758528130.6107757,0.833984375,0.02001953125,0.6513671875,-0.48828125,0.3662109375,3.11279296875,-0.9173583984375,-51.185302734375,-34.013671875
1758528130.6206913,0.833984375,0.02001953125,0.6513671875,-0.48828125,0.3662109375,3.11279296875,-0.9613037109375,-51.185302734375,-33.9532470703125
1758528130.6307251,0.81982421875,0.0126953125,0.6298828125,-8.544921875,-0.48828125,4.45556640625,-1.0986328125,-51.1962890625,-33.870849609375
1758528130.6415777,0.81982421875,0.0126953125,0.6298828125,-8.544921875,-0.48828125,4.45556640625,-1.23046875,-51.2017822265625,-33.7939453125
1758528130.6508098,0.8173828125,-0.04443359375,0.63623046875,-10.1318359375,-0.79345703125,5.2490234375,-1.395263671875,-51.2127685546875,-33.695068359375
1758528130.6610613,0.8173828125,-0.04443359375,0.63623046875,-10.1318359375,-0.79345703125,5.2490234375,-1.5545654296875,-51.2237548828125,-33.6016845703125
1758528130.670799,0.7998046875,-0.06103515625,0.64208984375,-1.708984375,-0.732421875,5.126953125,-1.636962890625,-51.2347412109375,-33.50830078125
1758528130.6818047,0.7998046875,-0.06103515625,0.64208984375,-1.708984375,-0.732421875,5.126953125,-1.7138671875,-51.2457275390625,-33.4149169921875
1758528130.690702,0.80078125,-0.01904296875,0.61083984375,4.39453125,-1.52587890625,5.37109375,-1.7413330078125,-51.26220703125,-33.3160400390625
1758528130.70114,0.80078125,-0.01904296875,0.61083984375,4.39453125,-1.52587890625,5.37109375,-1.7633056640625,-51.2786865234375,-33.22265625
1758528130.7111318,0.81689453125,0.03076171875,0.63037109375,-0.42724609375,-2.01416015625,5.9814453125,-1.8402099609375,-51.3006591796875,-33.11279296875
1758528130.7215388,0.81689453125,0.03076171875,0.63037109375,-0.42724609375,-2.01416015625,5.9814453125,-1.9171142578125,-51.3226318359375,-33.0084228515625
1758528130.7307692,0.8056640625,0.0078125,0.66845703125,-15.2587890625,-1.708984375,6.8359375,-2.1478271484375,-51.3446044921875,-32.8875732421875
1758528130.7412684,0.8056640625,0.0078125,0.66845703125,-15.2587890625,-1.708984375,6.8359375,-2.373046875,-51.361083984375,-32.772216796875
1758528130.7512064,0.7490234375,-0.02783203125,0.59326171875,-17.08984375,-1.64794921875,7.01904296875,-2.625732421875,-51.3720703125,-32.6568603515625
1758528130.7612898,0.7490234375,-0.02783203125,0.59326171875,-17.08984375,-1.64794921875,7.01904296875,-2.8729248046875,-51.3885498046875,-32.5360107421875
1758528130.770801,0.748046875,-0.0556640625,0.55224609375,-9.70458984375,-2.44140625,6.16455078125,-3.0377197265625,-51.4105224609375,-32.431640625
1758528130.7816558,0.748046875,-0.0556640625,0.55224609375,-9.70458984375,-2.44140625,6.16455078125,-3.2025146484375,-51.43798828125,-32.32177734375
1758528130.7908123,0.759765625,0.00732421875,0.58154296875,-9.46044921875,-3.60107421875,6.34765625,-3.372802734375,-51.470947265625,-32.2119140625
1758528130.8014166,0.759765625,0.00732421875,0.58154296875,-9.46044921875,-3.60107421875,6.34765625,-3.53759765625,-51.5093994140625,-32.0965576171875
1758528130.8110414,0.7890625,-0.025390625,0.61328125,-17.2119140625,-3.2958984375,6.77490234375,-3.779296875,-51.5423583984375,-31.981201171875
1758528130.8208194,0.7890625,-0.025390625,0.61328125,-17.2119140625,-3.2958984375,6.77490234375,-4.0264892578125,-51.56982421875,-31.8603515625
1758528130.8308775,0.751953125,-0.060546875,0.59912109375,-13.97705078125,-2.99072265625,6.28662109375,-4.2352294921875,-51.5972900390625,-31.75048828125
1758528130.841154,0.74560546875,-0.095703125,0.56982421875,-3.662109375,-2.86865234375,5.2490234375,-4.383544921875,-51.624755859375,-31.651611328125
1758528130.8510983,0.74560546875,-0.095703125,0.56982421875,-3.662109375,-2.86865234375,5.2490234375,-4.482421875,-51.6522216796875,-31.552734375
1758528130.860884,0.78857421875,-0.0244140625,0.57861328125,0.18310546875,-2.86865234375,4.2724609375,-4.5538330078125,-51.6796875,-31.46484375
1758528130.8711967,0.78857421875,-0.0244140625,0.57861328125,0.18310546875,-2.86865234375,4.2724609375,-4.603271484375,-51.712646484375,-31.387939453125
1758528130.8811831,0.7890625,-0.0205078125,0.62890625,-5.615234375,-2.62451171875,3.96728515625,-4.6746826171875,-51.7401123046875,-31.3055419921875
1758528130.890874,0.7890625,-0.0205078125,0.62890625,-5.615234375,-2.62451171875,3.96728515625,-4.7735595703125,-51.7620849609375,-31.234130859375
1758528130.9018977,0.787109375,-0.08740234375,0.599609375,-2.74658203125,-2.01416015625,2.38037109375,-4.8504638671875,-51.78955078125,-31.1737060546875
1758528130.9109592,0.787109375,-0.08740234375,0.599609375,-2.74658203125,-2.01416015625,2.38037109375,-4.89990234375,-51.8060302734375,-31.124267578125
1758528130.9209144,0.78857421875,-0.07470703125,0.60400390625,6.591796875,-1.40380859375,-0.06103515625,-4.8944091796875,-51.8280029296875,-31.0968017578125
1758528130.9312956,0.78857421875,-0.07470703125,0.60400390625,6.591796875,-1.40380859375,-0.06103515625,-4.822998046875,-51.844482421875,-31.0858154296875
1758528130.9409115,0.7998046875,-0.0546875,0.6201171875,12.20703125,-1.220703125,-2.197265625,-4.7186279296875,-51.8609619140625,-31.0968017578125
1758528130.9510775,0.7998046875,-0.0546875,0.6201171875,12.20703125,-1.220703125,-2.197265625,-4.5703125,-51.87744140625,-31.1187744140625
1758528130.960945,0.806640625,-0.01806640625,0.60546875,8.85009765625,-1.46484375,-3.173828125,-4.4329833984375,-51.8939208984375,-31.1517333984375
1758528130.9713097,0.806640625,-0.01806640625,0.60546875,8.85009765625,-1.46484375,-3.173828125,-4.3011474609375,-51.910400390625,-31.190185546875
1758528130.9809961,0.7978515625,-0.03564453125,0.62939453125,6.28662109375,-1.46484375,-3.96728515625,-4.1802978515625,-51.932373046875,-31.2396240234375
1758528130.990953,0.7978515625,-0.03564453125,0.62939453125,6.28662109375,-1.46484375,-3.96728515625,-4.0704345703125,-51.954345703125,-31.2890625
1758528131.0018187,0.806640625,-0.06884765625,0.6025390625,8.4228515625,-0.91552734375,-5.2490234375,-3.9385986328125,-51.9708251953125,-31.35498046875
1758528131.0110118,0.806640625,-0.06884765625,0.6025390625,8.4228515625,-0.91552734375,-5.2490234375,-3.790283203125,-51.9873046875,-31.4263916015625
1758528131.0209684,0.80029296875,-0.0517578125,0.638671875,14.0380859375,-0.6103515625,-6.4697265625,-3.6090087890625,-51.998291015625,-31.5087890625
1758528131.0312693,0.80029296875,-0.0517578125,0.638671875,14.0380859375,-0.6103515625,-6.4697265625,-3.3892822265625,-52.00927734375,-31.6021728515625
1758528131.0412762,0.78271484375,-0.0126953125,0.578125,13.85498046875,-0.3662109375,-6.8359375,-3.175048828125,-52.020263671875,-31.7010498046875
1758528131.0512416,0.78271484375,-0.0126953125,0.578125,13.85498046875,-0.3662109375,-6.8359375,-2.955322265625,-52.03125,-31.7999267578125
1758528131.0609953,0.77001953125,-0.00244140625,0.599609375,3.23486328125,-0.1220703125,-5.79833984375,-2.7960205078125,-52.0367431640625,-31.8878173828125
1758528131.0711315,0.77001953125,-0.00244140625,0.599609375,3.23486328125,-0.1220703125,-5.79833984375,-2.691650390625,-52.042236328125,-31.9757080078125
1758528131.0810099,0.7626953125,-0.0458984375,0.595703125,1.953125,0.06103515625,-4.57763671875,-2.603759765625,-52.0477294921875,-32.047119140625
1758528131.0922842,0.7626953125,-0.0458984375,0.595703125,1.953125,0.06103515625,-4.57763671875,-2.5323486328125,-52.05322265625,-32.113037109375
1758528131.1021767,0.775390625,-0.06005859375,0.59716796875,6.8359375,0.3662109375,-4.39453125,-2.4334716796875,-52.05322265625,-32.1734619140625
1758528131.112063,0.775390625,-0.06005859375,0.59716796875,6.8359375,0.3662109375,-4.39453125,-2.318115234375,-52.05322265625,-32.23388671875
1758528131.1210191,0.77197265625,-0.01416015625,0.6025390625,4.8828125,0.67138671875,-3.5400390625,-2.21923828125,-52.05322265625,-32.2833251953125
1758528131.131468,0.77197265625,-0.01416015625,0.6025390625,4.8828125,0.67138671875,-3.5400390625,-2.13134765625,-52.0477294921875,-32.332763671875
1758528131.1412945,0.79931640625,0.00830078125,0.60791015625,-0.3662109375,0.91552734375,-2.0751953125,-2.0819091796875,-52.042236328125,-32.36572265625
1758528131.1518059,0.79931640625,0.00830078125,0.60791015625,-0.3662109375,0.91552734375,-2.0751953125,-2.0599365234375,-52.0367431640625,-32.3876953125
1758528131.1611114,0.771484375,-0.0087890625,0.60302734375,-5.67626953125,1.46484375,-0.91552734375,-2.076416015625,-52.0257568359375,-32.4041748046875
1758528131.1718018,0.771484375,-0.0087890625,0.60302734375,-5.67626953125,1.46484375,-0.91552734375,-2.120361328125,-52.0147705078125,-32.40966796875
1758528131.1814725,0.77490234375,-0.07470703125,0.580078125,-5.859375,2.50244140625,-0.3662109375,-2.1697998046875,-51.998291015625,-32.4151611328125
1758528131.191489,0.77490234375,-0.07470703125,0.580078125,-5.859375,2.50244140625,-0.3662109375,-2.2247314453125,-51.976318359375,-32.40966796875
1758528131.201519,0.78564453125,-0.0458984375,0.6337890625,-0.6103515625,3.41796875,-0.54931640625,-2.2576904296875,-51.9488525390625,-32.40966796875
1758528131.2120533,0.78564453125,-0.0458984375,0.6337890625,-0.6103515625,3.41796875,-0.54931640625,-2.26318359375,-51.9158935546875,-32.40966796875
1758528131.2215676,0.8115234375,-0.01513671875,0.611328125,0.244140625,3.84521484375,-0.42724609375,-2.26318359375,-51.8829345703125,-32.40966796875
1758528131.2317908,0.8115234375,-0.01513671875,0.611328125,0.244140625,3.84521484375,-0.42724609375,-2.2576904296875,-51.844482421875,-32.40966796875
1758528131.2411842,0.80859375,-0.01123046875,0.62939453125,-3.7841796875,4.150390625,0.0,-2.274169921875,-51.8060302734375,-32.4041748046875
1758528131.2528176,0.80859375,-0.01123046875,0.62939453125,-3.7841796875,4.150390625,0.0,-2.3126220703125,-51.7730712890625,-32.3931884765625
1758528131.2611387,0.8037109375,-0.0380859375,0.619140625,-3.11279296875,4.82177734375,-0.1220703125,-2.3455810546875,-51.7291259765625,-32.3876953125
1758528131.2711654,0.8037109375,-0.0380859375,0.619140625,-3.11279296875,4.82177734375,-0.1220703125,-2.373046875,-51.6851806640625,-32.3822021484375
1758528131.28137,0.798828125,-0.0673828125,0.63427734375,-2.3193359375,5.2490234375,-0.1220703125,-2.4005126953125,-51.6357421875,-32.376708984375
1758528131.29152,0.798828125,-0.0673828125,0.63427734375,-2.3193359375,5.2490234375,-0.1220703125,-2.4224853515625,-51.591796875,-32.376708984375
1758528131.301694,0.82421875,-0.0166015625,0.6484375,3.47900390625,5.55419921875,-0.79345703125,-2.4169921875,-51.536865234375,-32.376708984375
1758528131.3113718,0.82421875,-0.0166015625,0.6484375,3.47900390625,5.55419921875,-0.79345703125,-2.373046875,-51.4874267578125,-32.3822021484375
1758528131.321272,0.826171875,-0.02294921875,0.6455078125,4.57763671875,5.18798828125,-0.79345703125,-2.3236083984375,-51.43798828125,-32.3876953125
1758528131.3312602,0.826171875,-0.02294921875,0.6455078125,4.57763671875,5.18798828125,-0.79345703125,-2.2686767578125,-51.3885498046875,-32.398681640625
1758528131.3412893,0.81201171875,-0.0146484375,0.6279296875,0.732421875,5.18798828125,-0.8544921875,-2.2357177734375,-51.3446044921875,-32.4041748046875
1758528131.3525958,0.81201171875,-0.0146484375,0.6279296875,0.732421875,5.18798828125,-0.8544921875,-2.2137451171875,-51.295166015625,-32.40966796875
1758528131.3612726,0.76708984375,-0.04443359375,0.65380859375,0.0,5.31005859375,-0.732421875,-2.2027587890625,-51.251220703125,-32.4151611328125
1758528131.371309,0.76708984375,-0.04443359375,0.65380859375,0.0,5.31005859375,-0.732421875,-2.1917724609375,-51.2017822265625,-32.420654296875
1758528131.381768,0.78857421875,-0.01416015625,0.60009765625,1.0986328125,5.126953125,-0.67138671875,-2.1807861328125,-51.15234375,-32.4261474609375
1758528131.3923492,0.78857421875,-0.01416015625,0.60009765625,1.0986328125,5.126953125,-0.67138671875,-2.1588134765625,-51.1029052734375,-32.431640625
1758528131.4013827,0.7880859375,-0.00048828125,0.6328125,0.6103515625,5.2490234375,-0.732421875,-2.142333984375,-51.053466796875,-32.4371337890625
1758528131.4114337,0.7880859375,-0.00048828125,0.6328125,0.6103515625,5.2490234375,-0.732421875,-2.1258544921875,-51.009521484375,-32.4371337890625
1758528131.4217439,0.779296875,-0.01806640625,0.6142578125,-2.38037109375,4.69970703125,-0.18310546875,-2.1258544921875,-50.965576171875,-32.442626953125
1758528131.4313023,0.779296875,-0.01806640625,0.6142578125,-2.38037109375,4.69970703125,-0.18310546875,-2.1478271484375,-50.921630859375,-32.4371337890625
1758528131.4413493,0.75830078125,-0.0478515625,0.60498046875,-3.5400390625,3.47900390625,0.244140625,-2.17529296875,-50.8831787109375,-32.431640625
1758528131.4516053,0.75830078125,-0.0478515625,0.60498046875,-3.5400390625,3.47900390625,0.244140625,-2.208251953125,-50.855712890625,-32.4151611328125
1758528131.4613175,0.77783203125,-0.07080078125,0.6162109375,-1.64794921875,2.01416015625,0.732421875,-2.2412109375,-50.833740234375,-32.398681640625
1758528131.4713998,0.77783203125,-0.07080078125,0.6162109375,-1.64794921875,2.01416015625,0.732421875,-2.2686767578125,-50.8172607421875,-32.3822021484375
1758528131.4816866,0.81005859375,-0.0439453125,0.61767578125,7.8125,1.953125,0.1220703125,-2.252197265625,-50.80078125,-32.3602294921875
1758528131.4917405,0.81005859375,-0.0439453125,0.61767578125,7.8125,1.953125,0.1220703125,-2.1807861328125,-50.789794921875,-32.3492431640625
1758528131.501333,0.8134765625,-0.00732421875,0.658203125,7.32421875,1.5869140625,0.0,-2.109375,-50.77880859375,-32.3382568359375
1758528131.5114515,0.8134765625,-0.00732421875,0.658203125,7.32421875,1.5869140625,0.0,-2.04345703125,-50.767822265625,-32.32177734375
1758528131.5218906,0.806640625,-0.01904296875,0.6640625,6.103515625,1.3427734375,-0.6103515625,-1.9775390625,-50.7568359375,-32.3162841796875
1758528131.531484,0.806640625,-0.01904296875,0.6640625,6.103515625,1.3427734375,-0.6103515625,-1.91162109375,-50.7513427734375,-32.3162841796875
1758528131.5416663,0.79248046875,-0.04052734375,0.62744140625,8.11767578125,0.8544921875,-2.0751953125,-1.8292236328125,-50.7403564453125,-32.3272705078125
1758528131.5519154,0.79248046875,-0.04052734375,0.62744140625,8.11767578125,0.8544921875,-2.0751953125,-1.724853515625,-50.7403564453125,-32.3492431640625
1758528131.5617979,0.80712890625,-0.05224609375,0.63427734375,16.4794921875,1.708984375,-5.126953125,-1.5655517578125,-50.7293701171875,-32.3931884765625
1758528131.571538,0.80712890625,-0.05224609375,0.63427734375,16.4794921875,1.708984375,-5.126953125,-1.3458251953125,-50.7183837890625,-32.464599609375
1758528131.5824423,0.8115234375,0.01220703125,0.6767578125,17.7001953125,2.0751953125,-7.2021484375,-1.109619140625,-50.7073974609375,-32.5469970703125
1758528131.5914948,0.8115234375,0.01220703125,0.6767578125,17.7001953125,2.0751953125,-7.2021484375,-0.85693359375,-50.69091796875,-32.6513671875
1758528131.6018016,0.783203125,0.021484375,0.62939453125,10.80322265625,2.01416015625,-8.11767578125,-0.6317138671875,-50.6744384765625,-32.76123046875
1758528131.6117024,0.783203125,0.021484375,0.62939453125,10.80322265625,2.01416015625,-8.11767578125,-0.428466796875,-50.6634521484375,-32.882080078125
1758528131.6219842,0.791015625,-0.06494140625,0.62939453125,6.103515625,2.0751953125,-8.6669921875,-0.252685546875,-50.64697265625,-33.0029296875
1758528131.6315079,0.791015625,-0.06494140625,0.62939453125,6.103515625,2.0751953125,-8.6669921875,-0.0933837890625,-50.6304931640625,-33.123779296875
1758528131.6425254,0.74560546875,-0.12060546875,0.6513671875,10.6201171875,1.5869140625,-10.68115234375,0.0823974609375,-50.614013671875,-33.2611083984375
1758528131.651499,0.74560546875,-0.12060546875,0.6513671875,10.6201171875,1.5869140625,-10.68115234375,0.296630859375,-50.60302734375,-33.4149169921875
1758528131.6619682,0.74365234375,-0.10009765625,0.56787109375,15.80810546875,1.77001953125,-12.87841796875,0.54931640625,-50.5865478515625,-33.585205078125
1758528131.6718247,0.74365234375,-0.10009765625,0.56787109375,15.80810546875,1.77001953125,-12.87841796875,0.8294677734375,-50.570068359375,-33.77197265625
1758528131.6821837,0.76123046875,-0.0419921875,0.64111328125,20.08056640625,2.74658203125,-14.404296875,1.1370849609375,-50.548095703125,-33.9642333984375
1758528131.6915357,0.76123046875,-0.0419921875,0.64111328125,20.08056640625,2.74658203125,-14.404296875,1.4776611328125,-50.5206298828125,-34.16748046875
1758528131.702708,0.740234375,0.0322265625,0.62060546875,15.0146484375,3.72314453125,-14.0380859375,1.7852783203125,-50.4876708984375,-34.3707275390625
1758528131.711659,0.740234375,0.0322265625,0.62060546875,15.0146484375,3.72314453125,-14.0380859375,2.0709228515625,-50.44921875,-34.5684814453125
1758528131.721596,0.75146484375,0.0087890625,0.59619140625,9.94873046875,4.2724609375,-12.26806640625,2.318115234375,-50.4052734375,-34.7552490234375
1758528131.7321572,0.75146484375,0.0087890625,0.59619140625,9.94873046875,4.2724609375,-12.26806640625,2.5323486328125,-50.361328125,-34.925537109375
1758528131.7417054,0.765625,-0.001953125,0.63232421875,6.28662109375,2.62451171875,-11.29150390625,2.724609375,-50.3228759765625,-35.09033203125
1758528131.7517014,0.765625,-0.001953125,0.63232421875,6.28662109375,2.62451171875,-11.29150390625,2.889404296875,-50.29541015625,-35.244140625
1758528131.7617264,0.751953125,0.09326171875,0.62744140625,2.50244140625,2.25830078125,-8.4228515625,3.021240234375,-50.2679443359375,-35.3759765625
1758528131.7716691,0.751953125,0.09326171875,0.62744140625,2.50244140625,2.25830078125,-8.4228515625,3.1256103515625,-50.2459716796875,-35.4913330078125
1758528131.781691,0.74560546875,0.1513671875,0.61083984375,5.43212890625,3.23486328125,-4.2724609375,3.218994140625,-50.218505859375,-35.5682373046875
1758528131.791879,0.74560546875,0.1513671875,0.61083984375,5.43212890625,3.23486328125,-4.2724609375,3.3123779296875,-50.185546875,-35.6231689453125
1758528131.8017511,0.74951171875,0.13671875,0.6103515625,-5.06591796875,3.662109375,0.06103515625,3.3343505859375,-50.152587890625,-35.6396484375
1758528131.8116767,0.74951171875,0.13671875,0.6103515625,-5.06591796875,3.662109375,0.06103515625,3.284912109375,-50.11962890625,-35.628662109375
1758528131.8217528,0.71240234375,0.12353515625,0.62255859375,-13.36669921875,4.0283203125,2.74658203125,3.1805419921875,-50.086669921875,-35.595703125
1758528131.8320928,0.71240234375,0.12353515625,0.62255859375,-13.36669921875,4.0283203125,2.74658203125,3.021240234375,-50.0482177734375,-35.5462646484375
1758528131.8416858,0.708984375,0.0908203125,0.53564453125,-12.451171875,3.5400390625,5.4931640625,2.8619384765625,-50.0152587890625,-35.4803466796875
1758528131.8516984,0.708984375,0.0908203125,0.53564453125,-12.451171875,3.5400390625,5.4931640625,2.6861572265625,-49.98779296875,-35.386962890625
1758528131.861864,0.76513671875,0.02490234375,0.63330078125,-14.83154296875,1.708984375,8.11767578125,2.4884033203125,-49.9658203125,-35.2825927734375
1758528131.8716896,0.76513671875,0.02490234375,0.63330078125,-14.83154296875,1.708984375,8.11767578125,2.26318359375,-49.954833984375,-35.1507568359375
1758528131.8817255,0.748046875,-0.015625,0.62646484375,-13.5498046875,1.708984375,9.1552734375,2.0379638671875,-49.9493408203125,-35.0189208984375
1758528131.8918977,0.748046875,-0.015625,0.62646484375,-13.5498046875,1.708984375,9.1552734375,1.812744140625,-49.9383544921875,-34.87060546875
1758528131.9017446,0.7158203125,-0.017578125,0.64208984375,-6.2255859375,2.5634765625,8.056640625,1.6259765625,-49.921875,-34.73876953125
1758528131.9117186,0.7158203125,-0.017578125,0.64208984375,-6.2255859375,2.5634765625,8.056640625,1.4776611328125,-49.89990234375,-34.6124267578125
1758528131.9219384,0.79736328125,0.03857421875,0.63427734375,-1.40380859375,2.74658203125,7.50732421875,1.3568115234375,-49.8779296875,-34.486083984375
1758528131.9321764,0.79736328125,0.03857421875,0.63427734375,-1.40380859375,2.74658203125,7.50732421875,1.263427734375,-49.85595703125,-34.3707275390625
1758528131.941757,0.81298828125,0.0537109375,0.70751953125,-1.46484375,3.60107421875,6.89697265625,1.1810302734375,-49.822998046875,-34.2608642578125
1758528131.9517674,0.81298828125,0.0537109375,0.70751953125,-1.46484375,3.60107421875,6.89697265625,1.0931396484375,-49.7900390625,-34.156494140625
1758528131.9618785,0.77978515625,0.04052734375,0.65966796875,-6.53076171875,3.7841796875,6.04248046875,0.9722900390625,-49.7515869140625,-34.0631103515625
1758528131.9718726,0.77978515625,0.04052734375,0.65966796875,-6.53076171875,3.7841796875,6.04248046875,0.8514404296875,-49.7186279296875,-33.9697265625
1758528131.9818518,0.73779296875,0.01220703125,0.6123046875,-13.18359375,2.99072265625,6.16455078125,0.6591796875,-49.691162109375,-33.8763427734375
1758528131.9939268,0.73779296875,0.01220703125,0.6123046875,-13.18359375,2.99072265625,6.16455078125,0.472412109375,-49.6636962890625,-33.7774658203125
1758528132.002747,0.7451171875,0.005859375,0.6259765625,-14.2822265625,1.89208984375,6.40869140625,0.2691650390625,-49.647216796875,-33.6785888671875
1758528132.0121117,0.7451171875,0.005859375,0.6259765625,-14.2822265625,1.89208984375,6.40869140625,0.06591796875,-49.6307373046875,-33.5797119140625
1758528132.0219054,0.77490234375,0.00439453125,0.640625,-5.55419921875,2.38037109375,6.16455078125,-0.0439453125,-49.6087646484375,-33.486328125
1758528132.0329072,0.77490234375,0.00439453125,0.640625,-5.55419921875,2.38037109375,6.16455078125,-0.1593017578125,-49.5867919921875,-33.3929443359375
1758528132.0418818,0.728515625,-0.00634765625,0.63525390625,-1.03759765625,3.173828125,5.7373046875,-0.2252197265625,-49.559326171875,-33.3050537109375
1758528132.0522525,0.728515625,-0.00634765625,0.63525390625,-1.03759765625,3.173828125,5.7373046875,-0.2911376953125,-49.5318603515625,-33.2171630859375
1758528132.0624552,0.7373046875,0.0126953125,0.60205078125,-7.50732421875,3.41796875,5.67626953125,-0.41748046875,-49.4989013671875,-33.1292724609375
1758528132.072865,0.7373046875,0.0126953125,0.60205078125,-7.50732421875,3.41796875,5.67626953125,-0.5438232421875,-49.4659423828125,-33.0413818359375
1758528132.0818875,0.75341796875,-0.00732421875,0.61767578125,-8.72802734375,4.5166015625,5.615234375,-0.6866455078125,-49.4219970703125,-32.958984375
1758528132.0925264,0.75341796875,-0.00732421875,0.61767578125,-8.72802734375,4.5166015625,5.615234375,-0.823974609375,-49.383544921875,-32.87109375
1758528132.1019917,0.77392578125,-0.02978515625,0.67333984375,-6.40869140625,3.96728515625,6.04248046875,-0.9503173828125,-49.3450927734375,-32.7777099609375
1758528132.1122348,0.77392578125,-0.02978515625,0.67333984375,-6.40869140625,3.96728515625,6.04248046875,-1.0711669921875,-49.3121337890625,-32.6788330078125
1758528132.1220214,0.8056640625,0.0166015625,0.64697265625,-9.09423828125,1.28173828125,7.8125,-1.2469482421875,-49.3011474609375,-32.5579833984375
1758528132.1330812,0.8056640625,0.0166015625,0.64697265625,-9.09423828125,1.28173828125,7.8125,-1.417236328125,-49.2901611328125,-32.4371337890625
1758528132.141962,0.767578125,-0.02294921875,0.63818359375,-15.56396484375,-0.8544921875,8.60595703125,-1.658935546875,-49.3011474609375,-32.2998046875
1758528132.1526196,0.767578125,-0.02294921875,0.63818359375,-15.56396484375,-0.8544921875,8.60595703125,-1.900634765625,-49.3121337890625,-32.16796875
1758528132.162121,0.77490234375,-0.07275390625,0.6689453125,-15.31982421875,-1.28173828125,8.1787109375,-2.142333984375,-49.32861328125,-32.0361328125
1758528132.1726165,0.77490234375,-0.07275390625,0.6689453125,-15.31982421875,-1.28173828125,8.1787109375,-2.384033203125,-49.339599609375,-31.9097900390625
1758528132.1820257,0.78515625,-0.0361328125,0.673828125,-6.89697265625,-0.79345703125,6.8359375,-2.5213623046875,-49.3505859375,-31.7999267578125
1758528132.192286,0.78515625,-0.0361328125,0.673828125,-6.89697265625,-0.79345703125,6.8359375,-2.6641845703125,-49.3560791015625,-31.695556640625
1758528132.2024539,0.796875,0.00634765625,0.6865234375,-6.7138671875,-0.48828125,6.04248046875,-2.7960205078125,-49.361572265625,-31.5966796875
1758528132.212016,0.796875,0.00634765625,0.6865234375,-6.7138671875,-0.48828125,6.04248046875,-2.92236328125,-49.3670654296875,-31.5032958984375
1758528132.2220507,0.7998046875,-0.01025390625,0.67578125,-11.53564453125,-1.220703125,6.103515625,-3.09814453125,-49.3780517578125,-31.409912109375
1758528132.2320375,0.7998046875,-0.01025390625,0.67578125,-11.53564453125,-1.220703125,6.103515625,-3.2684326171875,-49.3890380859375,-31.3165283203125
1758528132.2420495,0.7607421875,-0.05419921875,0.66064453125,-9.46044921875,-1.03759765625,5.126953125,-3.4112548828125,-49.4000244140625,-31.2396240234375
1758528132.252048,0.7607421875,-0.05419921875,0.66064453125,-9.46044921875,-1.03759765625,5.126953125,-3.5540771484375,-49.405517578125,-31.1627197265625
1758528132.2622342,0.76416015625,-0.0517578125,0.64208984375,-3.35693359375,-0.3662109375,3.7841796875,-3.62548828125,-49.4110107421875,-31.102294921875
1758528132.2721026,0.76416015625,-0.0517578125,0.64208984375,-3.35693359375,-0.3662109375,3.7841796875,-3.69140625,-49.4110107421875,-31.04736328125
1758528132.282123,0.75732421875,-0.03564453125,0.646484375,-3.2958984375,0.0,3.2958984375,-3.75732421875,-49.4110107421875,-30.9979248046875
1758528132.2941494,0.75732421875,-0.03564453125,0.646484375,-3.2958984375,0.0,3.2958984375,-3.8177490234375,-49.4110107421875,-30.9429931640625
1758528132.3030765,0.7509765625,-0.05859375,0.65673828125,-2.8076171875,0.0,3.11279296875,-3.878173828125,-49.4110107421875,-30.8990478515625
1758528132.3121314,0.7509765625,-0.05859375,0.65673828125,-2.8076171875,0.0,3.11279296875,-3.93310546875,-49.4110107421875,-30.849609375
1758528132.3222184,0.76025390625,-0.04150390625,0.642578125,-1.77001953125,-0.30517578125,3.35693359375,-3.9825439453125,-49.4110107421875,-30.8001708984375
1758528132.3322017,0.76025390625,-0.04150390625,0.642578125,-1.77001953125,-0.30517578125,3.35693359375,-4.0374755859375,-49.4110107421875,-30.750732421875
1758528132.3421812,0.7509765625,-0.03271484375,0.6259765625,-5.92041015625,-0.8544921875,4.21142578125,-4.1363525390625,-49.41650390625,-30.684814453125
1758528132.352185,0.7509765625,-0.03271484375,0.6259765625,-5.92041015625,-0.8544921875,4.21142578125,-4.24072265625,-49.4219970703125,-30.618896484375
1758528132.3629048,0.74169921875,-0.04345703125,0.6416015625,-8.9111328125,-0.9765625,4.638671875,-4.3780517578125,-49.4329833984375,-30.5474853515625
1758528132.3721688,0.74169921875,-0.04345703125,0.6416015625,-8.9111328125,-0.9765625,4.638671875,-4.515380859375,-49.4384765625,-30.47607421875
1758528132.3822045,0.7626953125,-0.06982421875,0.64013671875,-4.57763671875,-0.732421875,4.69970703125,-4.6087646484375,-49.4439697265625,-30.4046630859375
1758528132.3924208,0.7626953125,-0.06982421875,0.64013671875,-4.57763671875,-0.732421875,4.69970703125,-4.7021484375,-49.4439697265625,-30.3277587890625
1758528132.4026155,0.76123046875,-0.0771484375,0.6591796875,-2.0751953125,-1.0986328125,4.2724609375,-4.76806640625,-49.4549560546875,-30.2618408203125
1758528132.4124854,0.76123046875,-0.0771484375,0.6591796875,-2.0751953125,-1.0986328125,4.2724609375,-4.8394775390625,-49.46044921875,-30.1959228515625
1758528132.4223042,0.76953125,-0.04296875,0.646484375,-2.0751953125,-1.28173828125,4.0283203125,-4.9053955078125,-49.471435546875,-30.135498046875
1758528132.432309,0.76953125,-0.04296875,0.646484375,-2.0751953125,-1.28173828125,4.0283203125,-4.9658203125,-49.482421875,-30.0750732421875
1758528132.4423027,0.76123046875,-0.04296875,0.64306640625,-5.859375,-1.77001953125,3.84521484375,-5.0701904296875,-49.493408203125,-30.0146484375
1758528132.4523444,0.76123046875,-0.04296875,0.64306640625,-5.859375,-1.77001953125,3.84521484375,-5.1690673828125,-49.5098876953125,-29.9542236328125
1758528132.4635775,0.76904296875,-0.05224609375,0.658203125,-7.01904296875,-2.44140625,3.60107421875,-5.2734375,-49.5318603515625,-29.893798828125
1758528132.4723084,0.76904296875,-0.05224609375,0.658203125,-7.01904296875,-2.44140625,3.60107421875,-5.38330078125,-49.5538330078125,-29.8388671875
1758528132.4827604,0.76513671875,-0.0859375,0.62939453125,-1.46484375,-2.685546875,2.9296875,-5.42724609375,-49.5758056640625,-29.7894287109375
1758528132.4926848,0.76513671875,-0.0859375,0.62939453125,-1.46484375,-2.685546875,2.9296875,-5.4766845703125,-49.603271484375,-29.7454833984375
1758528132.503035,0.7578125,-0.0771484375,0.623046875,-2.197265625,-2.99072265625,2.99072265625,-5.537109375,-49.6307373046875,-29.696044921875
1758528132.5126386,0.7578125,-0.0771484375,0.623046875,-2.197265625,-2.99072265625,2.99072265625,-5.592041015625,-49.658203125,-29.64111328125
1758528132.5228736,0.75634765625,-0.0478515625,0.65673828125,-2.685546875,-3.60107421875,3.173828125,-5.657958984375,-49.691162109375,-29.5916748046875
1758528132.5323374,0.75634765625,-0.0478515625,0.65673828125,-2.685546875,-3.60107421875,3.173828125,-5.723876953125,-49.72412109375,-29.5367431640625
1758528132.5427928,0.7685546875,-0.04345703125,0.62646484375,-4.08935546875,-4.21142578125,3.11279296875,-5.80078125,-49.7625732421875,-29.4818115234375
1758528132.5524096,0.7685546875,-0.04345703125,0.62646484375,-4.08935546875,-4.21142578125,3.11279296875,-5.877685546875,-49.801025390625,-29.4268798828125
1758528132.5641294,0.76904296875,-0.06640625,0.6328125,-4.7607421875,-4.2724609375,2.62451171875,-5.95458984375,-49.8394775390625,-29.3829345703125
1758528132.5724351,0.76904296875,-0.06640625,0.6328125,-4.7607421875,-4.2724609375,2.62451171875,-6.031494140625,-49.8779296875,-29.33349609375
1758528132.5830023,0.77490234375,-0.07470703125,0.66357421875,-4.21142578125,-4.33349609375,2.01416015625,-6.097412109375,-49.921875,-29.300537109375
1758528132.5924716,0.77490234375,-0.07470703125,0.66357421875,-4.21142578125,-4.33349609375,2.01416015625,-6.163330078125,-49.9603271484375,-29.2620849609375
1758528132.6035385,0.78173828125,-0.0634765625,0.66015625,-2.86865234375,-4.39453125,2.0751953125,-6.21826171875,-50.0042724609375,-29.2236328125
1758528132.6126742,0.78173828125,-0.0634765625,0.66015625,-2.86865234375,-4.39453125,2.0751953125,-6.273193359375,-50.042724609375,-29.190673828125
1758528132.6231797,0.78369140625,-0.08984375,0.62939453125,-5.2490234375,-4.8828125,2.44140625,-6.3555908203125,-50.086669921875,-29.146728515625
1758528132.6327837,0.78369140625,-0.08984375,0.62939453125,-5.2490234375,-4.8828125,2.44140625,-6.43798828125,-50.130615234375,-29.0972900390625
1758528132.6424804,0.79296875,-0.083984375,0.662109375,-3.2958984375,-5.18798828125,2.3193359375,-6.50390625,-50.1800537109375,-29.0533447265625
1758528132.652461,0.79296875,-0.083984375,0.662109375,-3.2958984375,-5.18798828125,2.3193359375,-6.56982421875,-50.2294921875,-29.0093994140625
1758528132.663179,0.78466796875,-0.05810546875,0.630859375,-1.46484375,-5.37109375,2.25830078125,-6.61376953125,-50.2789306640625,-28.9654541015625
1758528132.6727135,0.78466796875,-0.05810546875,0.630859375,-1.46484375,-5.37109375,2.25830078125,-6.65771484375,-50.328369140625,-28.9215087890625
1758528132.6824818,0.7978515625,-0.1201171875,0.6396484375,-2.62451171875,-6.04248046875,2.685546875,-6.7236328125,-50.38330078125,-28.8665771484375
1758528132.6924999,0.7978515625,-0.1201171875,0.6396484375,-2.62451171875,-6.04248046875,2.685546875,-6.78955078125,-50.438232421875,-28.8116455078125
1758528132.7025604,0.82958984375,-0.123046875,0.6630859375,1.708984375,-6.8359375,2.86865234375,-6.822509765625,-50.504150390625,-28.751220703125
1758528132.712946,0.82958984375,-0.123046875,0.6630859375,1.708984375,-6.8359375,2.86865234375,-6.8499755859375,-50.5645751953125,-28.6907958984375
1758528132.7225873,0.82568359375,-0.08056640625,0.673828125,5.4931640625,-7.32421875,2.685546875,-6.844482421875,-50.635986328125,-28.6358642578125
1758528132.732724,0.82568359375,-0.08056640625,0.673828125,5.4931640625,-7.32421875,2.685546875,-6.83349609375,-50.701904296875,-28.575439453125
1758528132.7427845,0.81103515625,-0.0322265625,0.64892578125,3.7841796875,-7.6904296875,2.86865234375,-6.844482421875,-50.7733154296875,-28.5150146484375
1758528132.7526016,0.81103515625,-0.0322265625,0.64892578125,3.7841796875,-7.6904296875,2.86865234375,-6.8499755859375,-50.8447265625,-28.45458984375
1758528132.7628596,0.79443359375,-0.03515625,0.62109375,-4.8828125,-8.1787109375,3.47900390625,-6.954345703125,-50.921630859375,-28.3831787109375
1758528132.7727454,0.79443359375,-0.03515625,0.62109375,-4.8828125,-8.1787109375,3.47900390625,-7.0477294921875,-50.99853515625,-28.3172607421875
1758528132.7826896,0.76904296875,-0.0947265625,0.63330078125,-11.5966796875,-8.23974609375,3.47900390625,-7.2125244140625,-51.075439453125,-28.245849609375
1758528132.792592,0.76904296875,-0.0947265625,0.63330078125,-11.5966796875,-8.23974609375,3.47900390625,-7.3828125,-51.15234375,-28.179931640625
1758528132.802652,0.76904296875,-0.0947265625,0.63330078125,-4.82177734375,-7.6904296875,2.50244140625,-7.4652099609375,-51.21826171875,-28.125
1758528132.8137546,0.771484375,-0.0947265625,0.61669921875,-4.82177734375,-7.6904296875,2.50244140625,-7.5531005859375,-51.2896728515625,-28.070068359375
1758528132.8226395,0.7685546875,-0.07080078125,0.59228515625,0.0,-6.65283203125,2.01416015625,-7.5860595703125,-51.35009765625,-28.026123046875
1758528132.8326297,0.7685546875,-0.07080078125,0.59228515625,0.0,-6.65283203125,2.01416015625,-7.6190185546875,-51.4105224609375,-27.982177734375
1758528132.8430517,0.755859375,-0.0703125,0.607421875,-5.859375,-5.859375,2.25830078125,-7.7069091796875,-51.4654541015625,-27.9327392578125
1758528132.852727,0.755859375,-0.0703125,0.607421875,-5.859375,-5.859375,2.25830078125,-7.80029296875,-51.5203857421875,-27.88330078125
1758528132.8632925,0.755859375,-0.09423828125,0.57763671875,-9.765625,-5.126953125,2.25830078125,-7.9266357421875,-51.5643310546875,-27.83935546875
1758528132.8727486,0.755859375,-0.09423828125,0.57763671875,-9.765625,-5.126953125,2.25830078125,-8.0584716796875,-51.6082763671875,-27.7899169921875
1758528132.883122,0.75732421875,-0.0849609375,0.60498046875,-7.99560546875,-4.57763671875,2.50244140625,-8.173828125,-51.646728515625,-27.740478515625
1758528132.8938963,0.75732421875,-0.0849609375,0.60498046875,-7.99560546875,-4.57763671875,2.50244140625,-8.28369140625,-51.6851806640625,-27.6910400390625
1758528132.9034178,0.7705078125,-0.095703125,0.595703125,-7.6904296875,-3.84521484375,2.685546875,-8.3990478515625,-51.7181396484375,-27.6416015625
1758528132.9142432,0.7705078125,-0.095703125,0.595703125,-7.6904296875,-3.84521484375,2.685546875,-8.5089111328125,-51.7510986328125,-27.5921630859375
1758528132.9227617,0.7890625,-0.12939453125,0.61376953125,-3.2958984375,-2.50244140625,1.89208984375,-8.5693359375,-51.767578125,-27.5537109375
1758528132.9331985,0.7890625,-0.12939453125,0.61376953125,-3.2958984375,-2.50244140625,1.89208984375,-8.6297607421875,-51.78955078125,-27.5152587890625
1758528132.9431753,0.79296875,-0.10498046875,0.6142578125,-3.7841796875,-1.77001953125,1.3427734375,-8.6846923828125,-51.800537109375,-27.48779296875
1758528132.9534645,0.79296875,-0.10498046875,0.6142578125,-3.7841796875,-1.77001953125,1.3427734375,-8.7451171875,-51.8170166015625,-27.4603271484375
1758528132.9633343,0.79833984375,-0.0830078125,0.62451171875,-4.8828125,-1.708984375,1.89208984375,-8.822021484375,-51.8280029296875,-27.4273681640625
1758528132.9732876,0.80615234375,-0.1142578125,0.61669921875,-3.72314453125,-1.89208984375,2.5634765625,-8.8934326171875,-51.8389892578125,-27.3834228515625
1758528132.982924,0.80615234375,-0.1142578125,0.61669921875,-3.72314453125,-1.89208984375,2.5634765625,-8.96484375,-51.85546875,-27.333984375
1758528132.9932303,0.8125,-0.1181640625,0.61865234375,-2.685546875,-2.13623046875,3.0517578125,-9.0362548828125,-51.866455078125,-27.2845458984375
1758528133.0028725,0.8125,-0.1181640625,0.61865234375,-2.685546875,-2.13623046875,3.0517578125,-9.107666015625,-51.8829345703125,-27.2296142578125
1758528133.01479,0.80712890625,-0.1005859375,0.6240234375,-1.708984375,-1.89208984375,2.8076171875,-9.1680908203125,-51.8994140625,-27.1746826171875
1758528133.0229545,0.80712890625,-0.1005859375,0.6240234375,-1.708984375,-1.89208984375,2.8076171875,-9.228515625,-51.910400390625,-27.1197509765625
1758528133.0334518,0.80322265625,-0.07958984375,0.62109375,-5.859375,-1.40380859375,2.685546875,-9.2999267578125,-51.92138671875,-27.0703125
1758528133.0428808,0.80322265625,-0.07958984375,0.62109375,-5.859375,-1.40380859375,2.685546875,-9.393310546875,-51.932373046875,-27.0263671875
1758528133.0537837,0.79833984375,-0.08984375,0.62646484375,-5.79833984375,-0.732421875,2.74658203125,-9.4866943359375,-51.9378662109375,-26.9769287109375
1758528133.0629182,0.79833984375,-0.08984375,0.62646484375,-5.79833984375,-0.732421875,2.74658203125,-9.5745849609375,-51.9378662109375,-26.9329833984375
1758528133.0734544,0.78515625,-0.10302734375,0.6015625,-1.8310546875,0.1220703125,2.62451171875,-9.6405029296875,-51.9378662109375,-26.8890380859375
1758528133.0832577,0.78515625,-0.10302734375,0.6015625,-1.8310546875,0.1220703125,2.62451171875,-9.68994140625,-51.932373046875,-26.8450927734375
1758528133.0928998,0.7841796875,-0.13671875,0.56982421875,-1.0986328125,0.6103515625,2.197265625,-9.7283935546875,-51.92138671875,-26.806640625
1758528133.1029422,0.7841796875,-0.13671875,0.56982421875,-1.0986328125,0.6103515625,2.197265625,-9.766845703125,-51.9158935546875,-26.773681640625
1758528133.1132145,0.78662109375,-0.12255859375,0.62890625,-2.197265625,0.732421875,1.89208984375,-9.8052978515625,-51.9049072265625,-26.7352294921875
1758528133.1232069,0.78662109375,-0.12255859375,0.62890625,-2.197265625,0.732421875,1.89208984375,-9.8492431640625,-51.8939208984375,-26.7022705078125
1758528133.1329238,0.796875,-0.09814453125,0.59619140625,-5.9814453125,0.1220703125,2.3193359375,-9.9151611328125,-51.888427734375,-26.6693115234375
1758528133.1430283,0.796875,-0.09814453125,0.59619140625,-5.9814453125,0.1220703125,2.3193359375,-10.0030517578125,-51.8829345703125,-26.6253662109375
1758528133.1533747,0.787109375,-0.0751953125,0.6123046875,-11.3525390625,-0.48828125,3.35693359375,-10.1239013671875,-51.87744140625,-26.575927734375
1758528133.1629825,0.787109375,-0.0751953125,0.6123046875,-11.3525390625,-0.48828125,3.35693359375,-10.2777099609375,-51.87744140625,-26.52099609375
1758528133.1730394,0.76318359375,-0.1123046875,0.6171875,-11.5966796875,0.244140625,3.72314453125,-10.4315185546875,-51.87744140625,-26.4605712890625
1758528133.1832743,0.76318359375,-0.1123046875,0.6171875,-11.5966796875,0.244140625,3.72314453125,-10.5853271484375,-51.866455078125,-26.400146484375
1758528133.194242,0.77392578125,-0.16796875,0.56689453125,-7.99560546875,1.8310546875,2.99072265625,-10.7171630859375,-51.8499755859375,-26.3507080078125
1758528133.2030632,0.77392578125,-0.16796875,0.56689453125,-7.99560546875,1.8310546875,2.99072265625,-10.8270263671875,-51.8280029296875,-26.3067626953125
1758528133.2133336,0.7646484375,-0.10302734375,0.6220703125,-5.37109375,2.62451171875,2.38037109375,-10.92041015625,-51.800537109375,-26.268310546875
1758528133.2233422,0.7646484375,-0.10302734375,0.6220703125,-5.37109375,2.62451171875,2.38037109375,-10.997314453125,-51.767578125,-26.2408447265625
1758528133.2330196,0.7607421875,-0.10546875,0.57861328125,-8.85009765625,3.11279296875,2.01416015625,-11.085205078125,-51.734619140625,-26.21337890625
1758528133.2430983,0.7607421875,-0.10546875,0.57861328125,-8.85009765625,3.11279296875,2.01416015625,-11.18408203125,-51.70166015625,-26.1859130859375
1758528133.2534246,0.763671875,-0.1201171875,0.5830078125,-8.72802734375,3.7841796875,2.197265625,-11.2884521484375,-51.6632080078125,-26.1639404296875
1758528133.2630937,0.763671875,-0.1201171875,0.5830078125,-8.72802734375,3.7841796875,2.197265625,-11.3873291015625,-51.624755859375,-26.136474609375
1758528133.27315,0.76220703125,-0.142578125,0.603515625,-5.67626953125,4.7607421875,2.197265625,-11.4697265625,-51.580810546875,-26.114501953125
1758528133.2832289,0.76220703125,-0.142578125,0.603515625,-5.67626953125,4.7607421875,2.197265625,-11.5411376953125,-51.5313720703125,-26.092529296875
1758528133.2931683,0.7607421875,-0.14306640625,0.58642578125,-4.45556640625,5.2490234375,2.38037109375,-11.6070556640625,-51.4764404296875,-26.070556640625
1758528133.3034306,0.7607421875,-0.14306640625,0.58642578125,-4.45556640625,5.2490234375,2.38037109375,-11.6619873046875,-51.4215087890625,-26.048583984375
1758528133.3134735,0.77880859375,-0.1494140625,0.59521484375,-4.08935546875,5.31005859375,2.86865234375,-11.7279052734375,-51.3665771484375,-26.0211181640625
1758528133.3232267,0.77880859375,-0.1494140625,0.59521484375,-4.08935546875,5.31005859375,2.86865234375,-11.788330078125,-51.3116455078125,-25.9881591796875
1758528133.3331914,0.7822265625,-0.14599609375,0.609375,-5.37109375,4.8828125,3.5400390625,-11.865234375,-51.2567138671875,-25.94970703125
1758528133.3440592,0.7822265625,-0.14599609375,0.609375,-5.37109375,4.8828125,3.5400390625,-11.953125,-51.207275390625,-25.90576171875
1758528133.3531892,0.78955078125,-0.1318359375,0.623046875,-2.38037109375,4.33349609375,4.21142578125,-12.0245361328125,-51.15234375,-25.8563232421875
1758528133.363486,0.78955078125,-0.1318359375,0.623046875,-2.38037109375,4.33349609375,4.21142578125,-12.0904541015625,-51.1083984375,-25.8013916015625
1758528133.3732057,0.796875,-0.13525390625,0.58203125,-2.01416015625,3.11279296875,4.82177734375,-12.161865234375,-51.064453125,-25.7354736328125
1758528133.3843799,0.796875,-0.13525390625,0.58203125,-2.01416015625,3.11279296875,4.82177734375,-12.2332763671875,-51.0260009765625,-25.6695556640625
1758528133.3932407,0.79296875,-0.162109375,0.640625,-4.7607421875,1.46484375,5.0048828125,-12.3211669921875,-50.99853515625,-25.5926513671875
1758528133.40358,0.79296875,-0.162109375,0.640625,-4.7607421875,1.46484375,5.0048828125,-12.425537109375,-50.9765625,-25.5157470703125
1758528133.4136,0.78515625,-0.1357421875,0.578125,-2.86865234375,0.0,4.57763671875,-12.5189208984375,-50.965576171875,-25.4388427734375
1758528133.4235084,0.78515625,-0.1357421875,0.578125,-2.86865234375,0.0,4.57763671875,-12.6068115234375,-50.95458984375,-25.367431640625
1758528133.4332917,0.78564453125,-0.15185546875,0.61572265625,-1.220703125,-0.54931640625,4.2724609375,-12.6837158203125,-50.95458984375,-25.29052734375
1758528133.4445353,0.78564453125,-0.15185546875,0.61572265625,-1.220703125,-0.54931640625,4.2724609375,-12.7496337890625,-50.95458984375,-25.2191162109375
1758528133.453379,0.78076171875,-0.15478515625,0.63623046875,6.103515625,-0.06103515625,3.2958984375,-12.7716064453125,-50.95458984375,-25.1531982421875
1758528133.4639041,0.78076171875,-0.15478515625,0.63623046875,6.103515625,-0.06103515625,3.2958984375,-12.7496337890625,-50.9490966796875,-25.0982666015625
1758528133.4733307,0.73876953125,-0.11181640625,0.56494140625,9.033203125,0.732421875,2.685546875,-12.711181640625,-50.943603515625,-25.048828125
1758528133.4843106,0.73876953125,-0.11181640625,0.56494140625,9.033203125,0.732421875,2.685546875,-12.65625,-50.9326171875,-25.0048828125
1758528133.4933634,0.73779296875,-0.14306640625,0.60009765625,0.79345703125,0.9765625,2.197265625,-12.63427734375,-50.921630859375,-24.9664306640625
1758528133.5033746,0.73779296875,-0.14306640625,0.60009765625,0.79345703125,0.9765625,2.197265625,-12.6507568359375,-50.91064453125,-24.9334716796875
1758528133.5135787,0.73193359375,-0.1884765625,0.5673828125,4.2724609375,1.8310546875,2.3193359375,-12.6507568359375,-50.8941650390625,-24.9005126953125
1758528133.5235145,0.73193359375,-0.1884765625,0.5673828125,4.2724609375,1.8310546875,2.3193359375,-12.6397705078125,-50.8721923828125,-24.8675537109375
1758528133.533321,0.76513671875,-0.1689453125,0.587890625,8.4228515625,1.46484375,2.50244140625,-12.6068115234375,-50.8502197265625,-24.8291015625
1758528133.5434117,0.76513671875,-0.1689453125,0.587890625,8.4228515625,1.46484375,2.50244140625,-12.557373046875,-50.833740234375,-24.7906494140625
1758528133.5534408,0.7763671875,-0.09033203125,0.607421875,9.33837890625,-0.79345703125,1.708984375,-12.50244140625,-50.8282470703125,-24.752197265625
1758528133.5633528,0.7763671875,-0.09033203125,0.607421875,9.33837890625,-0.79345703125,1.708984375,-12.4420166015625,-50.833740234375,-24.7137451171875
1758528133.5733612,0.771484375,-0.0830078125,0.60595703125,3.7841796875,-0.91552734375,2.0751953125,-12.403564453125,-50.8447265625,-24.67529296875
1758528133.583813,0.771484375,-0.0830078125,0.60595703125,3.7841796875,-0.91552734375,2.0751953125,-12.392578125,-50.8502197265625,-24.6368408203125
1758528133.593475,0.7763671875,-0.1611328125,0.6005859375,-4.33349609375,-1.15966796875,2.13623046875,-12.425537109375,-50.8612060546875,-24.598388671875
1758528133.6034467,0.7763671875,-0.1611328125,0.6005859375,-4.33349609375,-1.15966796875,2.13623046875,-12.4969482421875,-50.86669921875,-24.5599365234375
1758528133.613465,0.771484375,-0.2294921875,0.62890625,-1.64794921875,-1.89208984375,2.3193359375,-12.557373046875,-50.8831787109375,-24.5159912109375
1758528133.6238122,0.771484375,-0.2294921875,0.62890625,-1.64794921875,-1.89208984375,2.3193359375,-12.6177978515625,-50.8941650390625,-24.4720458984375
1758528133.6334603,0.783203125,-0.087890625,0.61767578125,7.99560546875,-3.11279296875,2.38037109375,-12.6287841796875,-50.9161376953125,-24.422607421875
1758528133.643516,0.783203125,-0.087890625,0.61767578125,7.99560546875,-3.11279296875,2.38037109375,-12.59033203125,-50.943603515625,-24.3731689453125
1758528133.6535578,0.79345703125,-0.09814453125,0.5966796875,-3.35693359375,-4.33349609375,4.08935546875,-12.6177978515625,-50.9710693359375,-24.3072509765625
1758528133.6634853,0.79345703125,-0.09814453125,0.5966796875,-3.35693359375,-4.33349609375,4.08935546875,-12.711181640625,-51.009521484375,-24.224853515625
1758528133.6734705,0.7763671875,-0.1943359375,0.6220703125,-6.7138671875,-3.72314453125,3.60107421875,-12.8155517578125,-51.04248046875,-24.14794921875
1758528133.6840274,0.7763671875,-0.1943359375,0.6220703125,-6.7138671875,-3.72314453125,3.60107421875,-12.9364013671875,-51.0699462890625,-24.08203125
1758528133.6935024,0.7900390625,-0.16796875,0.60693359375,1.953125,-1.708984375,1.64794921875,-13.0023193359375,-51.0919189453125,-24.027099609375
1758528133.7034926,0.7900390625,-0.16796875,0.60693359375,1.953125,-1.708984375,1.64794921875,-13.0133056640625,-51.1029052734375,-23.994140625
1758528133.7139714,0.79052734375,-0.10888671875,0.63623046875,2.74658203125,-2.5634765625,0.9765625,-13.0133056640625,-51.119384765625,-23.9666748046875
1758528133.72361,0.79052734375,-0.10888671875,0.63623046875,2.74658203125,-2.5634765625,0.9765625,-13.0078125,-51.1468505859375,-23.9447021484375
1758528133.7336092,0.77197265625,-0.12451171875,0.5771484375,-1.40380859375,-4.21142578125,1.8310546875,-13.02978515625,-51.17431640625,-23.9117431640625
1758528133.743721,0.77197265625,-0.12451171875,0.5771484375,-1.40380859375,-4.21142578125,1.8310546875,-13.07373046875,-51.2127685546875,-23.8677978515625
1758528133.7538285,0.74267578125,-0.20166015625,0.5634765625,0.30517578125,-5.2490234375,2.5634765625,-13.11767578125,-51.251220703125,-23.8128662109375
1758528133.7637517,0.74267578125,-0.20166015625,0.5634765625,0.30517578125,-5.2490234375,2.5634765625,-13.1671142578125,-51.3006591796875,-23.75244140625
1758528133.7745283,0.78515625,-0.15380859375,0.61474609375,6.28662109375,-4.45556640625,1.40380859375,-13.172607421875,-51.3446044921875,-23.7030029296875
1758528133.7837608,0.78515625,-0.15380859375,0.61474609375,6.28662109375,-4.45556640625,1.40380859375,-13.1451416015625,-51.383056640625,-23.66455078125
1758528133.79486,0.78271484375,-0.06689453125,0.60791015625,4.57763671875,-4.638671875,0.67138671875,-13.1231689453125,-51.4215087890625,-23.6260986328125
1758528133.8043842,0.78271484375,-0.06689453125,0.60791015625,4.57763671875,-4.638671875,0.67138671875,-13.1011962890625,-51.4654541015625,-23.5986328125
1758528133.814765,0.81201171875,-0.140625,0.62646484375,-3.60107421875,-6.04248046875,1.64794921875,-13.1231689453125,-51.514892578125,-23.5601806640625
1758528133.8237405,0.81201171875,-0.140625,0.62646484375,-3.60107421875,-6.04248046875,1.64794921875,-13.1890869140625,-51.56982421875,-23.5162353515625
1758528133.8341238,0.79248046875,-0.2119140625,0.5966796875,-1.15966796875,-7.50732421875,1.46484375,-13.24951171875,-51.6357421875,-23.466796875
1758528133.8438675,0.79248046875,-0.2119140625,0.5966796875,-1.15966796875,-7.50732421875,1.46484375,-13.304443359375,-51.70166015625,-23.411865234375
1758528133.8541179,0.79248046875,-0.2119140625,0.5966796875,3.72314453125,-7.4462890625,0.1220703125,-13.326416015625,-51.7730712890625,-23.3734130859375
1758528133.8637743,0.79541015625,-0.1513671875,0.59423828125,3.72314453125,-7.4462890625,0.1220703125,-13.3154296875,-51.844482421875,-23.3404541015625
1758528133.8751736,0.80126953125,-0.08642578125,0.61376953125,0.244140625,-6.28662109375,0.42724609375,-13.3209228515625,-51.910400390625,-23.3074951171875
1758528133.8839555,0.80126953125,-0.08642578125,0.61376953125,0.244140625,-6.28662109375,0.42724609375,-13.3428955078125,-51.96533203125,-23.280029296875
1758528133.8941796,0.7998046875,-0.1259765625,0.6328125,-5.615234375,-4.21142578125,0.9765625,-13.392333984375,-52.0147705078125,-23.2525634765625
1758528133.9038439,0.7998046875,-0.1259765625,0.6328125,-5.615234375,-4.21142578125,0.9765625,-13.46923828125,-52.05322265625,-23.22509765625
