timestamp,acc_x,acc_y,acc_z,gyro_x,gyro_y,gyro_z,angle_x,angle_y,angle_z
1759066496.431579,-0.66259765625,-0.0107421875,0.75341796875,0.244140625,0.0,0.1220703125,-0.7305908203125,40.80322265625,63.929443359375
1759066496.4406965,-0.658203125,-0.01171875,0.75537109375,0.48828125,0.30517578125,0.18310546875,-0.72509765625,40.80322265625,63.929443359375
1759066496.4532335,-0.658203125,-0.01171875,0.75537109375,0.48828125,0.30517578125,0.18310546875,-0.7196044921875,40.8087158203125,63.929443359375
1759066496.4630344,-0.654296875,-0.0087890625,0.75439453125,0.732421875,0.42724609375,0.18310546875,-0.714111328125,40.8197021484375,63.929443359375
1759066496.4724123,-0.654296875,-0.0087890625,0.75439453125,0.732421875,0.42724609375,0.18310546875,-0.703125,40.8251953125,63.929443359375
1759066496.4806995,-0.654296875,-0.0078125,0.75830078125,1.03759765625,0.42724609375,0.1220703125,-0.692138671875,40.8306884765625,63.9349365234375
1759066496.4900289,-0.654296875,-0.0078125,0.75830078125,1.03759765625,0.42724609375,0.1220703125,-0.68115234375,40.836181640625,63.9349365234375
1759066496.5002282,-0.650390625,-0.00732421875,0.75830078125,0.732421875,0.244140625,0.18310546875,-0.6756591796875,40.8416748046875,63.9349365234375
1759066496.5100808,-0.650390625,-0.00732421875,0.75830078125,0.732421875,0.244140625,0.18310546875,-0.6646728515625,40.84716796875,63.9349365234375
1759066496.5201735,-0.64794921875,-0.00732421875,0.7578125,0.42724609375,0.06103515625,0.30517578125,-0.6591796875,40.84716796875,63.9404296875
1759066496.5301182,-0.64794921875,-0.00732421875,0.7578125,0.42724609375,0.06103515625,0.30517578125,-0.648193359375,40.84716796875,63.9459228515625
1759066496.5401523,-0.64990234375,-0.009765625,0.759765625,-0.06103515625,0.0,0.48828125,-0.648193359375,40.8526611328125,63.9459228515625
1759066496.550259,-0.64990234375,-0.009765625,0.759765625,-0.06103515625,0.0,0.48828125,-0.6427001953125,40.8526611328125,63.951416015625
1759066496.5601475,-0.64990234375,-0.01123046875,0.76025390625,-0.6103515625,-0.06103515625,0.79345703125,-0.6427001953125,40.8526611328125,63.96240234375
1759066496.5710936,-0.64990234375,-0.01123046875,0.76025390625,-0.6103515625,-0.06103515625,0.79345703125,-0.63720703125,40.84716796875,63.973388671875
1759066496.5799344,-0.64697265625,-0.01025390625,0.76123046875,-0.6103515625,-0.1220703125,0.9765625,-0.63720703125,40.84716796875,63.984375
1759066496.5899234,-0.64697265625,-0.01025390625,0.76123046875,-0.6103515625,-0.1220703125,0.9765625,-0.63720703125,40.84716796875,63.995361328125
1759066496.6008308,-0.64306640625,-0.0087890625,0.765625,-0.67138671875,-0.244140625,1.15966796875,-0.63720703125,40.8416748046875,64.00634765625
1759066496.610461,-0.64306640625,-0.0087890625,0.765625,-0.67138671875,-0.244140625,1.15966796875,-0.6317138671875,40.8416748046875,64.0228271484375
1759066496.62005,-0.6416015625,-0.0078125,0.765625,-1.52587890625,-0.3662109375,1.40380859375,-0.6317138671875,40.836181640625,64.039306640625
1759066496.6298797,-0.6416015625,-0.0078125,0.765625,-1.52587890625,-0.3662109375,1.40380859375,-0.63720703125,40.8306884765625,64.0557861328125
1759066496.63995,-0.6435546875,-0.009765625,0.76953125,-2.0751953125,-0.30517578125,1.64794921875,-0.6427001953125,40.8251953125,64.0777587890625
1759066496.6499343,-0.6435546875,-0.009765625,0.76953125,-2.0751953125,-0.30517578125,1.64794921875,-0.648193359375,40.8197021484375,64.0997314453125
1759066496.6600928,-0.6435546875,-0.009765625,0.76953125,-2.13623046875,-0.06103515625,1.89208984375,-0.6536865234375,40.814208984375,64.1217041015625
1759066496.6699383,-0.64404296875,-0.0126953125,0.7666015625,-2.13623046875,-0.06103515625,1.89208984375,-0.6591796875,40.814208984375,64.149169921875
1759066496.6799734,-0.64404296875,-0.01123046875,0.76611328125,-1.40380859375,0.0,1.8310546875,-0.6591796875,40.8087158203125,64.171142578125
1759066496.6899264,-0.64404296875,-0.01123046875,0.76611328125,-1.40380859375,0.0,1.8310546875,-0.6591796875,40.80322265625,64.193115234375
1759066496.6999476,-0.6455078125,-0.0087890625,0.765625,-1.15966796875,0.06103515625,1.8310546875,-0.6591796875,40.80322265625,64.2205810546875
1759066496.7099462,-0.6455078125,-0.0087890625,0.765625,-1.15966796875,0.06103515625,1.8310546875,-0.6536865234375,40.7977294921875,64.2425537109375
1759066496.7199783,-0.65283203125,-0.005859375,0.76123046875,-1.28173828125,0.3662109375,1.77001953125,-0.648193359375,40.7977294921875,64.2645263671875
1759066496.7299752,-0.65283203125,-0.005859375,0.76123046875,-1.28173828125,0.3662109375,1.77001953125,-0.648193359375,40.7977294921875,64.2864990234375
1759066496.7399826,-0.658203125,-0.00830078125,0.76025390625,-1.3427734375,0.8544921875,1.708984375,-0.648193359375,40.80322265625,64.3084716796875
1759066496.7500107,-0.658203125,-0.00830078125,0.76025390625,-1.3427734375,0.8544921875,1.708984375,-0.648193359375,40.8087158203125,64.3304443359375
1759066496.760003,-0.65673828125,-0.00830078125,0.75244140625,-0.91552734375,1.15966796875,1.64794921875,-0.6427001953125,40.8197021484375,64.3524169921875
1759066496.7700164,-0.65673828125,-0.00830078125,0.75244140625,-0.91552734375,1.15966796875,1.64794921875,-0.63720703125,40.8251953125,64.3743896484375
1759066496.7800355,-0.654296875,-0.00634765625,0.759765625,-0.3662109375,1.15966796875,1.40380859375,-0.6317138671875,40.836181640625,64.3963623046875
1759066496.7900364,-0.654296875,-0.00634765625,0.759765625,-0.3662109375,1.15966796875,1.40380859375,-0.626220703125,40.84716796875,64.412841796875
1759066496.8000484,-0.65283203125,-0.00341796875,0.75537109375,-0.67138671875,0.91552734375,1.28173828125,-0.615234375,40.858154296875,64.4293212890625
1759066496.8100648,-0.65283203125,-0.00341796875,0.75537109375,-0.67138671875,0.91552734375,1.28173828125,-0.615234375,40.8636474609375,64.44580078125
1759066496.8200724,-0.65283203125,-0.0029296875,0.75439453125,-1.220703125,0.67138671875,1.220703125,-0.6097412109375,40.869140625,64.4622802734375
1759066496.8300922,-0.65283203125,-0.0029296875,0.75439453125,-1.220703125,0.67138671875,1.220703125,-0.6097412109375,40.8746337890625,64.478759765625
1759066496.8401067,-0.65478515625,-0.0087890625,0.751953125,-1.89208984375,0.48828125,1.3427734375,-0.615234375,40.880126953125,64.4952392578125
1759066496.8501318,-0.65478515625,-0.0087890625,0.751953125,-1.89208984375,0.48828125,1.3427734375,-0.6207275390625,40.8856201171875,64.51171875
1759066496.8601215,-0.65576171875,-0.01123046875,0.75341796875,-2.197265625,0.30517578125,1.52587890625,-0.6317138671875,40.8856201171875,64.53369140625
1759066496.8701296,-0.65576171875,-0.01123046875,0.75341796875,-2.197265625,0.30517578125,1.52587890625,-0.63720703125,40.89111328125,64.5501708984375
1759066496.8801503,-0.6572265625,-0.01025390625,0.75341796875,-1.5869140625,0.244140625,1.52587890625,-0.6427001953125,40.89111328125,64.5721435546875
1759066496.890187,-0.6572265625,-0.01025390625,0.75341796875,-1.5869140625,0.244140625,1.52587890625,-0.648193359375,40.8966064453125,64.5941162109375
1759066496.900196,-0.65869140625,-0.0078125,0.75634765625,-0.9765625,0.42724609375,1.40380859375,-0.648193359375,40.8966064453125,64.610595703125
1759066496.9101858,-0.65869140625,-0.0078125,0.75634765625,-0.9765625,0.42724609375,1.40380859375,-0.6427001953125,40.902099609375,64.632568359375
1759066496.9203072,-0.65966796875,-0.005859375,0.751953125,-0.8544921875,0.6103515625,1.28173828125,-0.6427001953125,40.9075927734375,64.6490478515625
1759066496.9302952,-0.65966796875,-0.005859375,0.751953125,-0.8544921875,0.6103515625,1.28173828125,-0.63720703125,40.9130859375,64.66552734375
1759066496.9402885,-0.6630859375,-0.00439453125,0.75244140625,-1.0986328125,0.91552734375,1.15966796875,-0.63720703125,40.924072265625,64.6820068359375
1759066496.950288,-0.6630859375,-0.00439453125,0.75244140625,-1.0986328125,0.91552734375,1.15966796875,-0.63720703125,40.9295654296875,64.6929931640625
1759066496.960317,-0.66357421875,-0.005859375,0.7548828125,-1.220703125,1.3427734375,1.0986328125,-0.63720703125,40.946044921875,64.70947265625
1759066496.9702952,-0.66357421875,-0.005859375,0.7548828125,-1.220703125,1.3427734375,1.0986328125,-0.6427001953125,40.95703125,64.720458984375
1759066496.9804792,-0.65771484375,-0.00732421875,0.7509765625,-1.40380859375,1.46484375,1.03759765625,-0.6427001953125,40.9735107421875,64.7369384765625
1759066496.9903564,-0.65771484375,-0.00732421875,0.7509765625,-1.40380859375,1.46484375,1.03759765625,-0.648193359375,40.989990234375,64.7479248046875
1759066497.0003388,-0.658203125,-0.00732421875,0.75341796875,-1.40380859375,1.46484375,0.9765625,-0.6536865234375,41.0064697265625,64.764404296875
1759066497.0103374,-0.658203125,-0.00732421875,0.75341796875,-1.40380859375,1.46484375,0.9765625,-0.6591796875,41.0174560546875,64.775390625
1759066497.0208614,-0.65771484375,-0.0078125,0.75390625,-1.708984375,1.5869140625,1.03759765625,-0.6646728515625,41.033935546875,64.7918701171875
1759066497.0304313,-0.65771484375,-0.0078125,0.75390625,-1.708984375,1.5869140625,1.03759765625,-0.670166015625,41.0504150390625,64.8028564453125
1759066497.040432,-0.65771484375,-0.00732421875,0.755859375,-2.685546875,1.89208984375,1.28173828125,-0.68115234375,41.06689453125,64.8193359375
1759066497.0504591,-0.65771484375,-0.00732421875,0.755859375,-2.685546875,1.89208984375,1.28173828125,-0.6976318359375,41.0888671875,64.8358154296875
1759066497.0605035,-0.64990234375,-0.0087890625,0.767578125,-3.47900390625,2.5634765625,1.40380859375,-0.7196044921875,41.11083984375,64.852294921875
1759066497.0707374,-0.64990234375,-0.0087890625,0.767578125,-3.47900390625,2.5634765625,1.40380859375,-0.7415771484375,41.1383056640625,64.874267578125
1759066497.0805085,-0.64111328125,-0.01171875,0.7734375,-3.173828125,3.11279296875,1.46484375,-0.758056640625,41.165771484375,64.8907470703125
1759066497.0905375,-0.64111328125,-0.01171875,0.7734375,-3.173828125,3.11279296875,1.46484375,-0.7745361328125,41.1932373046875,64.9127197265625
1759066497.100575,-0.64111328125,-0.01171875,0.7734375,-1.953125,3.2958984375,1.28173828125,-0.791015625,41.220703125,64.92919921875
1759066497.1105475,-0.63916015625,-0.01513671875,0.7705078125,-1.953125,3.2958984375,1.28173828125,-0.7965087890625,41.2481689453125,64.951171875
1759066497.1205091,-0.6455078125,-0.01025390625,0.76611328125,-1.40380859375,3.41796875,1.15966796875,-0.802001953125,41.2811279296875,64.9676513671875
1759066497.1305678,-0.6455078125,-0.01025390625,0.76611328125,-1.40380859375,3.41796875,1.15966796875,-0.8074951171875,41.30859375,64.984130859375
1759066497.140823,-0.66064453125,-0.0087890625,0.75048828125,-1.03759765625,3.41796875,0.9765625,-0.81298828125,41.3360595703125,65.0006103515625
1759066497.150535,-0.66064453125,-0.0087890625,0.75048828125,-1.03759765625,3.41796875,0.9765625,-0.81298828125,41.3690185546875,65.0115966796875
1759066497.1605537,-0.666015625,-0.00634765625,0.73974609375,-0.9765625,3.23486328125,0.79345703125,-0.81298828125,41.396484375,65.028076171875
1759066497.170801,-0.666015625,-0.00634765625,0.73974609375,-0.9765625,3.23486328125,0.79345703125,-0.8184814453125,41.4239501953125,65.0390625
1759066497.1806214,-0.6689453125,-0.009765625,0.7451171875,-1.8310546875,3.0517578125,0.79345703125,-0.823974609375,41.451416015625,65.050048828125
1759066497.1906486,-0.6689453125,-0.009765625,0.7451171875,-1.8310546875,3.0517578125,0.79345703125,-0.8349609375,41.4788818359375,65.06103515625
1759066497.200848,-0.66552734375,-0.00927734375,0.74462890625,-2.38037109375,2.9296875,0.8544921875,-0.845947265625,41.50634765625,65.072021484375
1759066497.210934,-0.66552734375,-0.00927734375,0.74462890625,-2.38037109375,2.9296875,0.8544921875,-0.8624267578125,41.5338134765625,65.0885009765625
1759066497.2206793,-0.669921875,-0.01220703125,0.7431640625,-1.8310546875,2.86865234375,0.732421875,-0.8734130859375,41.561279296875,65.0994873046875
1759066497.230895,-0.669921875,-0.01220703125,0.7431640625,-1.8310546875,2.86865234375,0.732421875,-0.889892578125,41.5887451171875,65.1104736328125
1759066497.2406385,-0.66748046875,-0.01806640625,0.7392578125,-0.6103515625,2.99072265625,0.67138671875,-0.8953857421875,41.6162109375,65.115966796875
1759066497.2509124,-0.66748046875,-0.01806640625,0.7392578125,-0.6103515625,2.99072265625,0.67138671875,-0.8953857421875,41.6436767578125,65.126953125
1759066497.2607489,-0.6728515625,-0.01220703125,0.748046875,-1.03759765625,3.23486328125,0.732421875,-0.8953857421875,41.6766357421875,65.137939453125
1759066497.2706509,-0.6728515625,-0.01220703125,0.748046875,-1.03759765625,3.23486328125,0.732421875,-0.90087890625,41.7095947265625,65.14892578125
1759066497.2809522,-0.67431640625,-0.00341796875,0.740234375,0.0,3.47900390625,0.48828125,-0.90087890625,41.7425537109375,65.1544189453125
1759066497.2911263,-0.67431640625,-0.00341796875,0.740234375,0.0,3.47900390625,0.48828125,-0.8953857421875,41.7755126953125,65.159912109375
1759066497.3007658,-0.6806640625,-0.015625,0.734375,-0.30517578125,3.60107421875,0.732421875,-0.889892578125,41.8084716796875,65.1708984375
1759066497.31077,-0.6806640625,-0.015625,0.734375,-0.30517578125,3.60107421875,0.732421875,-0.8843994140625,41.846923828125,65.181884765625
1759066497.3208537,-0.67626953125,-0.0166015625,0.732421875,-0.91552734375,3.35693359375,1.220703125,-0.8843994140625,41.8798828125,65.19287109375
1759066497.3307595,-0.67626953125,-0.0166015625,0.732421875,-0.91552734375,3.35693359375,1.220703125,-0.8843994140625,41.912841796875,65.2093505859375
1759066497.3408341,-0.67138671875,-0.0146484375,0.73486328125,-0.48828125,2.8076171875,1.40380859375,-0.87890625,41.94580078125,65.225830078125
1759066497.3510718,-0.67138671875,-0.0146484375,0.73486328125,-0.48828125,2.8076171875,1.40380859375,-0.8734130859375,41.978759765625,65.247802734375
1759066497.3608882,-0.67138671875,-0.01025390625,0.73681640625,-0.1220703125,2.25830078125,1.46484375,-0.8624267578125,42.000732421875,65.2642822265625
1759066497.3707876,-0.67138671875,-0.01025390625,0.73681640625,-0.1220703125,2.25830078125,1.46484375,-0.8514404296875,42.0281982421875,65.2862548828125
1759066497.3808146,-0.67822265625,-0.0107421875,0.73291015625,-0.1220703125,1.708984375,1.52587890625,-0.8404541015625,42.044677734375,65.302734375
1759066497.3912787,-0.67822265625,-0.0107421875,0.73291015625,-0.1220703125,1.708984375,1.52587890625,-0.8294677734375,42.066650390625,65.32470703125
1759066497.400888,-0.67626953125,-0.0087890625,0.7333984375,-0.30517578125,1.15966796875,1.5869140625,-0.8184814453125,42.07763671875,65.3466796875
1759066497.4108956,-0.67626953125,-0.0087890625,0.7333984375,-0.30517578125,1.15966796875,1.5869140625,-0.8074951171875,42.0941162109375,65.36865234375
1759066497.4211419,-0.6669921875,-0.00732421875,0.736328125,-0.67138671875,0.48828125,1.64794921875,-0.802001953125,42.099609375,65.390625
1759066497.4309344,-0.6669921875,-0.00732421875,0.736328125,-0.67138671875,0.48828125,1.64794921875,-0.791015625,42.1051025390625,65.4180908203125
1759066497.4409177,-0.66015625,-0.00927734375,0.744140625,-1.15966796875,-0.1220703125,1.708984375,-0.791015625,42.1051025390625,65.4400634765625
1759066497.4510355,-0.66015625,-0.00927734375,0.744140625,-1.15966796875,-0.1220703125,1.708984375,-0.7855224609375,42.1051025390625,65.467529296875
1759066497.4609919,-0.65869140625,-0.01025390625,0.7509765625,-2.13623046875,-0.6103515625,1.89208984375,-0.791015625,42.099609375,65.4949951171875
1759066497.4709291,-0.65869140625,-0.01025390625,0.7509765625,-2.13623046875,-0.6103515625,1.89208984375,-0.791015625,42.0941162109375,65.5224609375
1759066497.4809337,-0.66162109375,-0.01171875,0.7529296875,-2.44140625,-0.6103515625,2.01416015625,-0.802001953125,42.0831298828125,65.5499267578125
1759066497.4913816,-0.66162109375,-0.01171875,0.7529296875,-2.44140625,-0.6103515625,2.01416015625,-0.8074951171875,42.07763671875,65.5828857421875
1759066497.5010047,-0.662109375,-0.01318359375,0.7529296875,-1.708984375,-0.42724609375,1.953125,-0.8074951171875,42.0721435546875,65.6103515625
1759066497.511008,-0.662109375,-0.01318359375,0.7529296875,-1.708984375,-0.42724609375,1.953125,-0.802001953125,42.066650390625,65.6378173828125
1759066497.5210993,-0.65966796875,-0.009765625,0.75537109375,-0.67138671875,0.0,1.77001953125,-0.7965087890625,42.066650390625,65.665283203125
1759066497.531036,-0.65966796875,-0.009765625,0.75537109375,-0.67138671875,0.0,1.77001953125,-0.7855224609375,42.0611572265625,65.687255859375
1759066497.5410686,-0.6591796875,-0.00634765625,0.751953125,-0.67138671875,0.30517578125,1.5869140625,-0.780029296875,42.0611572265625,65.7147216796875
1759066497.5511765,-0.6591796875,-0.00634765625,0.751953125,-0.67138671875,0.30517578125,1.5869140625,-0.76904296875,42.0611572265625,65.7366943359375
1759066497.561102,-0.66455078125,-0.00341796875,0.751953125,-0.79345703125,0.48828125,1.220703125,-0.76904296875,42.066650390625,65.7586669921875
1759066497.5711107,-0.66455078125,-0.00341796875,0.751953125,-0.79345703125,0.48828125,1.220703125,-0.7635498046875,42.066650390625,65.775146484375
1759066497.5810695,-0.6630859375,-0.009765625,0.74951171875,0.1220703125,0.79345703125,0.9765625,-0.7525634765625,42.0721435546875,65.7916259765625
1759066497.5914862,-0.6630859375,-0.009765625,0.74951171875,0.1220703125,0.79345703125,0.9765625,-0.7415771484375,42.07763671875,65.80810546875
1759066497.6011207,-0.6591796875,-0.0126953125,0.7509765625,0.6103515625,0.8544921875,0.9765625,-0.7305908203125,42.0831298828125,65.819091796875
1759066497.6110759,-0.6591796875,-0.0126953125,0.7509765625,0.6103515625,0.8544921875,0.9765625,-0.714111328125,42.088623046875,65.8355712890625
1759066497.6215587,-0.65869140625,-0.01123046875,0.7548828125,0.30517578125,0.79345703125,1.15966796875,-0.703125,42.0941162109375,65.8575439453125
1759066497.6311574,-0.65869140625,-0.01123046875,0.7548828125,0.30517578125,0.79345703125,1.15966796875,-0.6866455078125,42.0941162109375,65.8740234375
1759066497.641422,-0.66015625,-0.0078125,0.75,-0.48828125,0.6103515625,1.3427734375,-0.68115234375,42.099609375,65.89599609375
1759066497.651254,-0.66015625,-0.0078125,0.75,-0.48828125,0.6103515625,1.3427734375,-0.6756591796875,42.099609375,65.9124755859375
1759066497.6613092,-0.66259765625,-0.005859375,0.748046875,-0.9765625,0.54931640625,1.40380859375,-0.670166015625,42.099609375,65.9344482421875
1759066497.6714969,-0.66259765625,-0.005859375,0.748046875,-0.9765625,0.54931640625,1.40380859375,-0.670166015625,42.1051025390625,65.9564208984375
1759066497.6811888,-0.66357421875,-0.0068359375,0.74853515625,-1.77001953125,0.48828125,1.46484375,-0.6756591796875,42.1051025390625,65.9783935546875
1759066497.6915987,-0.66357421875,-0.0068359375,0.74853515625,-1.77001953125,0.48828125,1.46484375,-0.6756591796875,42.1051025390625,66.0003662109375
1759066497.701215,-0.6669921875,-0.00732421875,0.74609375,-2.13623046875,0.48828125,1.52587890625,-0.6866455078125,42.1051025390625,66.0223388671875
1759066497.711179,-0.6669921875,-0.00732421875,0.74609375,-2.13623046875,0.48828125,1.52587890625,-0.692138671875,42.110595703125,66.0443115234375
1759066497.7214108,-0.6689453125,-0.0078125,0.74755859375,-1.77001953125,0.6103515625,1.40380859375,-0.6976318359375,42.110595703125,66.0662841796875
1759066497.7312443,-0.6689453125,-0.0078125,0.74755859375,-1.77001953125,0.6103515625,1.40380859375,-0.703125,42.1160888671875,66.0882568359375
1759066497.7413542,-0.666015625,-0.00927734375,0.7451171875,-1.0986328125,0.732421875,1.28173828125,-0.6976318359375,42.1160888671875,66.1102294921875
1759066497.751306,-0.666015625,-0.00927734375,0.7451171875,-1.0986328125,0.732421875,1.28173828125,-0.6976318359375,42.12158203125,66.126708984375
1759066497.7614758,-0.666015625,-0.00732421875,0.7451171875,-0.8544921875,0.79345703125,1.0986328125,-0.6976318359375,42.1270751953125,66.1431884765625
1759066497.7713454,-0.666015625,-0.00732421875,0.7451171875,-0.8544921875,0.79345703125,1.0986328125,-0.6976318359375,42.132568359375,66.15966796875
1759066497.7814126,-0.6669921875,-0.005859375,0.74658203125,-1.15966796875,0.79345703125,0.91552734375,-0.6976318359375,42.1380615234375,66.1761474609375
1759066497.7921772,-0.6669921875,-0.005859375,0.74658203125,-1.15966796875,0.79345703125,0.91552734375,-0.703125,42.1435546875,66.1871337890625
1759066497.8015225,-0.66748046875,-0.00341796875,0.74658203125,-1.40380859375,0.8544921875,0.79345703125,-0.7086181640625,42.1490478515625,66.20361328125
1759066497.8120737,-0.66748046875,-0.00341796875,0.74658203125,-1.40380859375,0.8544921875,0.79345703125,-0.714111328125,42.154541015625,66.214599609375
1759066497.8225403,-0.66552734375,-0.0048828125,0.748046875,-1.3427734375,0.79345703125,0.54931640625,-0.7196044921875,42.1600341796875,66.2200927734375
1759066497.8314543,-0.66552734375,-0.0048828125,0.748046875,-1.3427734375,0.79345703125,0.54931640625,-0.7305908203125,42.16552734375,66.2310791015625
1759066497.84143,-0.6640625,-0.00634765625,0.74609375,-1.8310546875,0.6103515625,0.48828125,-0.7415771484375,42.1710205078125,66.2420654296875
1759066497.8514223,-0.6640625,-0.00634765625,0.74609375,-1.8310546875,0.6103515625,0.48828125,-0.7525634765625,42.1710205078125,66.24755859375
1759066497.8616889,-0.666015625,-0.0068359375,0.744140625,-1.89208984375,0.3662109375,0.30517578125,-0.76904296875,42.1710205078125,66.2530517578125
1759066497.8714619,-0.666015625,-0.0068359375,0.744140625,-1.89208984375,0.3662109375,0.30517578125,-0.780029296875,42.1710205078125,66.2640380859375
1759066497.8814666,-0.67138671875,-0.0087890625,0.7431640625,-1.46484375,0.244140625,0.1220703125,-0.7965087890625,42.1710205078125,66.2640380859375
1759066497.8918922,-0.67138671875,-0.0087890625,0.7431640625,-1.46484375,0.244140625,0.1220703125,-0.8074951171875,42.1710205078125,66.26953125
1759066497.9014454,-0.6865234375,-0.025390625,0.728515625,1.3427734375,0.30517578125,-0.79345703125,-0.7965087890625,42.176513671875,66.258544921875
1759066497.9115415,-0.6865234375,-0.025390625,0.728515625,1.3427734375,0.30517578125,-0.79345703125,-0.791015625,42.176513671875,66.24755859375
1759066497.9216635,-0.68701171875,-0.03125,0.716796875,4.150390625,0.1220703125,-0.67138671875,-0.758056640625,42.176513671875,66.2420654296875
1759066497.9315488,-0.68701171875,-0.03125,0.716796875,4.150390625,0.1220703125,-0.67138671875,-0.72509765625,42.1820068359375,66.236572265625
1759066497.9415262,-0.69189453125,-0.02587890625,0.7255859375,5.2490234375,0.0,-1.3427734375,-0.6866455078125,42.1820068359375,66.214599609375
1759066497.951502,-0.69189453125,-0.02587890625,0.7255859375,5.2490234375,0.0,-1.3427734375,-0.648193359375,42.1820068359375,66.1981201171875
1759066497.961652,-0.6875,-0.025390625,0.7255859375,0.48828125,-0.244140625,-1.28173828125,-0.6591796875,42.1820068359375,66.181640625
1759066497.9716115,-0.6875,-0.025390625,0.7255859375,0.48828125,-0.244140625,-1.28173828125,-0.670166015625,42.1875,66.1651611328125
1759066497.9815974,-0.68603515625,-0.02685546875,0.7197265625,0.30517578125,-0.6103515625,-1.40380859375,-0.6866455078125,42.1820068359375,66.1431884765625
1759066497.9920156,-0.68603515625,-0.02685546875,0.7197265625,0.30517578125,-0.6103515625,-1.40380859375,-0.703125,42.1820068359375,66.126708984375
1759066498.0016205,-0.68603515625,-0.013671875,0.7353515625,0.67138671875,-0.79345703125,-1.220703125,-0.7086181640625,42.176513671875,66.1102294921875
1759066498.011669,-0.68603515625,-0.013671875,0.7353515625,0.67138671875,-0.79345703125,-1.220703125,-0.7196044921875,42.1710205078125,66.09375
1759066498.0217087,-0.6669921875,0.046875,0.7421875,-1.708984375,-1.0986328125,0.0,-0.736083984375,42.16552734375,66.09375
1759066498.0316536,-0.6669921875,0.046875,0.7421875,-1.708984375,-1.0986328125,0.0,-0.7525634765625,42.1600341796875,66.09375
1759066498.041646,-0.67626953125,0.0234375,0.744140625,0.3662109375,-0.9765625,-0.732421875,-0.7525634765625,42.154541015625,66.082763671875
1759066498.0516531,-0.67626953125,0.0234375,0.744140625,0.3662109375,-0.9765625,-0.732421875,-0.7525634765625,42.1435546875,66.0772705078125
1759066498.061863,-0.66748046875,0.009765625,0.744140625,-0.1220703125,-0.79345703125,-0.244140625,-0.7525634765625,42.1435546875,66.07177734375
1759066498.0717223,-0.66748046875,0.009765625,0.744140625,-0.1220703125,-0.79345703125,-0.244140625,-0.7525634765625,42.1380615234375,66.07177734375
1759066498.081941,-0.66650390625,-0.00634765625,0.748046875,-1.28173828125,-0.67138671875,0.30517578125,-0.758056640625,42.132568359375,66.0772705078125
1759066498.092521,-0.66650390625,-0.00634765625,0.748046875,-1.28173828125,-0.67138671875,0.30517578125,-0.7635498046875,42.1270751953125,66.082763671875
1759066498.1038709,-0.66650390625,-0.00634765625,0.748046875,-0.91552734375,-0.54931640625,0.30517578125,-0.7635498046875,42.12158203125,66.0882568359375
1759066498.1118462,-0.66748046875,-0.00732421875,0.7470703125,-0.91552734375,-0.54931640625,0.30517578125,-0.7635498046875,42.1160888671875,66.09375
1759066498.121804,-0.67041015625,-0.013671875,0.744140625,-1.03759765625,-0.3662109375,0.6103515625,-0.76904296875,42.1160888671875,66.0992431640625
1759066498.1317737,-0.67041015625,-0.013671875,0.744140625,-1.03759765625,-0.3662109375,0.6103515625,-0.76904296875,42.110595703125,66.1102294921875
1759066498.141789,-0.6728515625,-0.00830078125,0.7421875,0.3662109375,-0.1220703125,0.6103515625,-0.758056640625,42.110595703125,66.11572265625
1759066498.1517816,-0.6728515625,-0.00830078125,0.7421875,0.3662109375,-0.1220703125,0.6103515625,-0.7470703125,42.110595703125,66.126708984375
1759066498.161932,-0.671875,-0.005859375,0.74169921875,1.220703125,0.06103515625,0.67138671875,-0.72509765625,42.110595703125,66.1376953125
1759066498.1717968,-0.671875,-0.005859375,0.74169921875,1.220703125,0.06103515625,0.67138671875,-0.703125,42.110595703125,66.148681640625
1759066498.181851,-0.66845703125,-0.00439453125,0.7421875,0.67138671875,0.06103515625,0.9765625,-0.6866455078125,42.1160888671875,66.15966796875
1759066498.192218,-0.66845703125,-0.00439453125,0.7421875,0.67138671875,0.06103515625,0.9765625,-0.670166015625,42.1160888671875,66.1761474609375
1759066498.2018585,-0.6708984375,-0.00390625,0.744140625,-0.91552734375,0.06103515625,1.0986328125,-0.6646728515625,42.1160888671875,66.192626953125
1759066498.2119853,-0.6708984375,-0.00390625,0.744140625,-0.91552734375,0.06103515625,1.0986328125,-0.6646728515625,42.1160888671875,66.20361328125
1759066498.221898,-0.67138671875,-0.00634765625,0.74072265625,-1.5869140625,0.0,1.3427734375,-0.6646728515625,42.1160888671875,66.2255859375
1759066498.2318947,-0.67138671875,-0.00634765625,0.74072265625,-1.5869140625,0.0,1.3427734375,-0.670166015625,42.1160888671875,66.2420654296875
1759066498.2418818,-0.67236328125,-0.00927734375,0.73583984375,-1.28173828125,-0.18310546875,1.3427734375,-0.670166015625,42.1160888671875,66.2640380859375
1759066498.2519145,-0.67236328125,-0.00927734375,0.73583984375,-1.28173828125,-0.18310546875,1.3427734375,-0.6646728515625,42.1160888671875,66.280517578125
1759066498.2620747,-0.67626953125,-0.0107421875,0.73828125,-1.46484375,-0.244140625,1.3427734375,-0.670166015625,42.110595703125,66.302490234375
1759066498.2719321,-0.67626953125,-0.0107421875,0.73828125,-1.46484375,-0.244140625,1.3427734375,-0.670166015625,42.110595703125,66.3189697265625
1759066498.2819436,-0.67724609375,-0.009765625,0.7373046875,-1.46484375,-0.1220703125,1.3427734375,-0.670166015625,42.110595703125,66.33544921875
1759066498.2923653,-0.67724609375,-0.009765625,0.7373046875,-1.46484375,-0.1220703125,1.3427734375,-0.6756591796875,42.110595703125,66.357421875
1759066498.3019803,-0.67724609375,-0.0107421875,0.7353515625,-0.91552734375,-0.06103515625,1.0986328125,-0.670166015625,42.110595703125,66.3739013671875
1759066498.3122432,-0.67724609375,-0.0107421875,0.7353515625,-0.91552734375,-0.06103515625,1.0986328125,-0.670166015625,42.1160888671875,66.3848876953125
1759066498.3220434,-0.6748046875,-0.0107421875,0.73779296875,-0.42724609375,-0.06103515625,0.91552734375,-0.6646728515625,42.1160888671875,66.4013671875
1759066498.3320682,-0.6748046875,-0.0107421875,0.73779296875,-0.42724609375,-0.06103515625,0.91552734375,-0.6646728515625,42.1160888671875,66.412353515625
1759066498.3422492,-0.67333984375,-0.0087890625,0.7392578125,-0.1220703125,-0.1220703125,0.8544921875,-0.6536865234375,42.1160888671875,66.42333984375
1759066498.3520405,-0.67333984375,-0.0087890625,0.7392578125,-0.1220703125,-0.1220703125,0.8544921875,-0.648193359375,42.1160888671875,66.4398193359375
1759066498.3622413,-0.67578125,-0.00830078125,0.73828125,-0.48828125,-0.18310546875,0.79345703125,-0.648193359375,42.1160888671875,66.4508056640625
1759066498.3721323,-0.67578125,-0.00830078125,0.73828125,-0.48828125,-0.18310546875,0.79345703125,-0.6427001953125,42.1160888671875,66.4617919921875
1759066498.3821223,-0.67724609375,-0.00830078125,0.73486328125,-0.48828125,-0.244140625,0.67138671875,-0.6427001953125,42.1160888671875,66.46728515625
1759066498.3926358,-0.67724609375,-0.00830078125,0.73486328125,-0.48828125,-0.244140625,0.67138671875,-0.6427001953125,42.1160888671875,66.478271484375
1759066498.4021313,-0.6806640625,-0.0087890625,0.7333984375,-0.3662109375,-0.1220703125,0.48828125,-0.6427001953125,42.1160888671875,66.4892578125
1759066498.4121947,-0.6806640625,-0.0087890625,0.7333984375,-0.3662109375,-0.1220703125,0.48828125,-0.6427001953125,42.1160888671875,66.4947509765625
1759066498.4221618,-0.68115234375,-0.0087890625,0.73388671875,0.244140625,0.0,0.30517578125,-0.63720703125,42.12158203125,66.500244140625
1759066498.432172,-0.6796875,-0.00830078125,0.734375,0.79345703125,0.0,0.244140625,-0.626220703125,42.12158203125,66.5057373046875
1759066498.4422688,-0.6796875,-0.00830078125,0.734375,0.79345703125,0.0,0.244140625,-0.6207275390625,42.1270751953125,66.5057373046875
1759066498.4521654,-0.6767578125,-0.005859375,0.73681640625,0.54931640625,0.0,0.244140625,-0.6097412109375,42.1270751953125,66.51123046875
1759066498.4625614,-0.6767578125,-0.005859375,0.73681640625,0.54931640625,0.0,0.244140625,-0.604248046875,42.132568359375,66.5167236328125
1759066498.47228,-0.67626953125,-0.00537109375,0.73828125,-0.18310546875,0.0,0.30517578125,-0.5987548828125,42.132568359375,66.522216796875
1759066498.482187,-0.67626953125,-0.00537109375,0.73828125,-0.18310546875,0.0,0.30517578125,-0.5987548828125,42.1380615234375,66.5277099609375
1759066498.4925554,-0.67626953125,-0.0048828125,0.736328125,-0.6103515625,0.0,0.3662109375,-0.5987548828125,42.1380615234375,66.5277099609375
1759066498.5022452,-0.67626953125,-0.0048828125,0.736328125,-0.6103515625,0.0,0.3662109375,-0.5987548828125,42.1435546875,66.5386962890625
1759066498.5128436,-0.67724609375,-0.0068359375,0.73291015625,-0.48828125,-0.06103515625,0.3662109375,-0.604248046875,42.1435546875,66.5386962890625
1759066498.5223567,-0.67724609375,-0.0068359375,0.73291015625,-0.48828125,-0.06103515625,0.3662109375,-0.604248046875,42.1490478515625,66.544189453125
1759066498.5323055,-0.6767578125,-0.00732421875,0.7373046875,-0.732421875,-0.18310546875,0.42724609375,-0.604248046875,42.1490478515625,66.5496826171875
1759066498.5423808,-0.6767578125,-0.00732421875,0.7373046875,-0.732421875,-0.18310546875,0.42724609375,-0.6097412109375,42.1490478515625,66.5606689453125
1759066498.5523088,-0.67431640625,-0.0087890625,0.73974609375,-0.67138671875,-0.18310546875,0.48828125,-0.6097412109375,42.1490478515625,66.566162109375
1759066498.5625393,-0.67431640625,-0.0087890625,0.73974609375,-0.67138671875,-0.18310546875,0.48828125,-0.615234375,42.1490478515625,66.5716552734375
1759066498.5723608,-0.67333984375,-0.00927734375,0.73974609375,-0.42724609375,-0.244140625,0.48828125,-0.615234375,42.1490478515625,66.5771484375
1759066498.5824442,-0.67333984375,-0.00927734375,0.73974609375,-0.42724609375,-0.244140625,0.48828125,-0.615234375,42.1490478515625,66.5826416015625
1759066498.592642,-0.67431640625,-0.009765625,0.73974609375,-0.732421875,-0.30517578125,0.48828125,-0.615234375,42.1490478515625,66.5936279296875
1759066498.6024425,-0.67431640625,-0.009765625,0.73974609375,-0.732421875,-0.30517578125,0.48828125,-0.615234375,42.1490478515625,66.59912109375
1759066498.6125693,-0.671875,-0.00927734375,0.7412109375,-1.15966796875,-0.30517578125,0.48828125,-0.6207275390625,42.1490478515625,66.6046142578125
1759066498.6224103,-0.671875,-0.00927734375,0.7412109375,-1.15966796875,-0.30517578125,0.48828125,-0.6317138671875,42.1490478515625,66.610107421875
1759066498.63258,-0.669921875,-0.009765625,0.74462890625,-1.0986328125,-0.3662109375,0.48828125,-0.63720703125,42.1435546875,66.6156005859375
1759066498.642453,-0.669921875,-0.009765625,0.74462890625,-1.0986328125,-0.3662109375,0.48828125,-0.6427001953125,42.1435546875,66.6265869140625
1759066498.6525404,-0.67138671875,-0.00927734375,0.7431640625,-0.8544921875,-0.3662109375,0.42724609375,-0.648193359375,42.1380615234375,66.632080078125
1759066498.6626334,-0.67138671875,-0.00927734375,0.7431640625,-0.8544921875,-0.3662109375,0.42724609375,-0.6536865234375,42.1380615234375,66.6375732421875
1759066498.6725807,-0.67138671875,-0.0087890625,0.740234375,-0.79345703125,-0.244140625,0.30517578125,-0.6591796875,42.1380615234375,66.64306640625
1759066498.6825671,-0.67138671875,-0.0087890625,0.740234375,-0.79345703125,-0.244140625,0.30517578125,-0.6646728515625,42.132568359375,66.64306640625
1759066498.6943915,-0.67138671875,-0.0087890625,0.7421875,-0.48828125,-0.18310546875,0.244140625,-0.670166015625,42.132568359375,66.6485595703125
1759066498.7025883,-0.67138671875,-0.0087890625,0.7421875,-0.48828125,-0.18310546875,0.244140625,-0.670166015625,42.132568359375,66.654052734375
1759066498.712945,-0.6669921875,-0.009765625,0.744140625,0.0,-0.1220703125,0.18310546875,-0.670166015625,42.132568359375,66.654052734375
1759066498.7225387,-0.6669921875,-0.009765625,0.744140625,0.0,-0.1220703125,0.18310546875,-0.670166015625,42.132568359375,66.6595458984375
1759066498.7325976,-0.6650390625,-0.00732421875,0.74658203125,0.30517578125,-0.1220703125,0.18310546875,-0.6646728515625,42.1270751953125,66.6595458984375
1759066498.7426221,-0.6650390625,-0.00732421875,0.74658203125,0.30517578125,-0.1220703125,0.18310546875,-0.6646728515625,42.1270751953125,66.6595458984375
1759066498.7526054,-0.6650390625,-0.0068359375,0.748046875,-0.06103515625,-0.18310546875,0.244140625,-0.6591796875,42.1270751953125,66.6650390625
1759066498.7627628,-0.6650390625,-0.0068359375,0.748046875,-0.06103515625,-0.18310546875,0.244140625,-0.6591796875,42.12158203125,66.6705322265625
1759066498.7726233,-0.66650390625,-0.00634765625,0.74755859375,-0.67138671875,-0.18310546875,0.30517578125,-0.6591796875,42.12158203125,66.676025390625
1759066498.7825994,-0.66650390625,-0.00634765625,0.74755859375,-0.67138671875,-0.18310546875,0.30517578125,-0.6591796875,42.1160888671875,66.676025390625
1759066498.793127,-0.66845703125,-0.00732421875,0.74365234375,-0.79345703125,-0.1220703125,0.3662109375,-0.6646728515625,42.1160888671875,66.6815185546875
1759066498.8027189,-0.66845703125,-0.00732421875,0.74365234375,-0.79345703125,-0.1220703125,0.3662109375,-0.670166015625,42.1160888671875,66.6925048828125
1759066498.812736,-0.6669921875,-0.00830078125,0.74365234375,-0.30517578125,-0.18310546875,0.30517578125,-0.670166015625,42.110595703125,66.697998046875
1759066498.8227127,-0.6669921875,-0.00830078125,0.74365234375,-0.30517578125,-0.18310546875,0.30517578125,-0.670166015625,42.110595703125,66.697998046875
1759066498.832747,-0.6708984375,-0.0087890625,0.74462890625,-0.6103515625,-0.1220703125,0.42724609375,-0.670166015625,42.1051025390625,66.708984375
1759066498.8429365,-0.6708984375,-0.0087890625,0.74462890625,-0.6103515625,-0.1220703125,0.42724609375,-0.6756591796875,42.1051025390625,66.7144775390625
1759066498.8527105,-0.67041015625,-0.0087890625,0.7431640625,-0.79345703125,0.0,0.42724609375,-0.6756591796875,42.1051025390625,66.719970703125
1759066498.8653922,-0.67041015625,-0.0087890625,0.7431640625,-0.79345703125,0.0,0.42724609375,-0.68115234375,42.099609375,66.7254638671875
1759066498.8727531,-0.6689453125,-0.0087890625,0.744140625,-0.67138671875,-0.06103515625,0.42724609375,-0.6866455078125,42.099609375,66.7364501953125
1759066498.8827624,-0.6689453125,-0.0087890625,0.744140625,-0.67138671875,-0.06103515625,0.42724609375,-0.6866455078125,42.099609375,66.741943359375
1759066498.8947196,-0.671875,-0.01025390625,0.7431640625,-1.03759765625,-0.06103515625,0.48828125,-0.692138671875,42.099609375,66.7474365234375
1759066498.90275,-0.671875,-0.01025390625,0.7431640625,-1.03759765625,-0.06103515625,0.48828125,-0.6976318359375,42.099609375,66.7529296875
1759066498.9128017,-0.67333984375,-0.00927734375,0.73779296875,-1.0986328125,0.0,0.42724609375,-0.703125,42.0941162109375,66.763916015625
1759066498.9228756,-0.67333984375,-0.00927734375,0.73779296875,-1.0986328125,0.0,0.42724609375,-0.7086181640625,42.0941162109375,66.7694091796875
1759066498.9331331,-0.67626953125,-0.01171875,0.73974609375,-0.732421875,0.0,0.30517578125,-0.714111328125,42.0941162109375,66.77490234375
1759066498.9436457,-0.67626953125,-0.01171875,0.73974609375,-0.732421875,0.0,0.30517578125,-0.7196044921875,42.0941162109375,66.7803955078125
1759066498.9530447,-0.67333984375,-0.01025390625,0.73779296875,-0.18310546875,-0.06103515625,0.30517578125,-0.7196044921875,42.0941162109375,66.785888671875
1759066498.9630694,-0.67333984375,-0.01025390625,0.73779296875,-0.18310546875,-0.06103515625,0.30517578125,-0.7196044921875,42.0941162109375,66.7913818359375
1759066498.973172,-0.67333984375,-0.00927734375,0.73974609375,0.1220703125,0.0,0.18310546875,-0.7196044921875,42.0941162109375,66.7913818359375
1759066498.9828906,-0.67333984375,-0.00927734375,0.73974609375,0.1220703125,0.0,0.18310546875,-0.714111328125,42.0941162109375,66.796875
1759066498.9958827,-0.67431640625,-0.01171875,0.7412109375,-0.1220703125,0.0,0.244140625,-0.714111328125,42.099609375,66.796875
1759066499.0032575,-0.67431640625,-0.01171875,0.7412109375,-0.1220703125,0.0,0.244140625,-0.714111328125,42.099609375,66.8023681640625
1759066499.0140479,-0.67626953125,-0.02001953125,0.734375,-0.79345703125,0.0,0.18310546875,-0.714111328125,42.099609375,66.8023681640625
1759066499.0240438,-0.67626953125,-0.02001953125,0.734375,-0.79345703125,0.0,0.18310546875,-0.72509765625,42.099609375,66.8023681640625
1759066499.0329995,-0.67919921875,-0.013671875,0.7333984375,-1.03759765625,-0.06103515625,0.18310546875,-0.7305908203125,42.099609375,66.807861328125
1759066499.043171,-0.67919921875,-0.013671875,0.7333984375,-1.03759765625,-0.06103515625,0.18310546875,-0.7415771484375,42.099609375,66.807861328125
1759066499.053025,-0.67822265625,-0.0087890625,0.73583984375,-0.54931640625,-0.1220703125,0.18310546875,-0.7470703125,42.1051025390625,66.807861328125
1759066499.0631325,-0.67822265625,-0.0087890625,0.73583984375,-0.54931640625,-0.1220703125,0.18310546875,-0.7525634765625,42.1051025390625,66.807861328125
1759066499.0730033,-0.6787109375,-0.01708984375,0.73486328125,-2.25830078125,-0.06103515625,0.1220703125,-0.76904296875,42.1051025390625,66.807861328125
1759066499.0832224,-0.6787109375,-0.01708984375,0.73486328125,-2.25830078125,-0.06103515625,0.1220703125,-0.791015625,42.1051025390625,66.8133544921875
1759066499.0931225,-0.673828125,-0.01806640625,0.7392578125,-3.41796875,-0.1220703125,0.1220703125,-0.8184814453125,42.1051025390625,66.8133544921875
1759066499.1030185,-0.673828125,-0.01806640625,0.7392578125,-3.41796875,-0.1220703125,0.1220703125,-0.8514404296875,42.110595703125,66.8133544921875
1759066499.113069,-0.67138671875,-0.0283203125,0.740234375,-0.18310546875,-0.18310546875,-0.244140625,-0.8734130859375,42.110595703125,66.807861328125
1759066499.1230786,-0.67138671875,-0.0283203125,0.740234375,-0.18310546875,-0.18310546875,-0.244140625,-0.87890625,42.110595703125,66.807861328125
1759066499.133125,-0.669921875,-0.021484375,0.74560546875,1.46484375,-0.1220703125,-0.06103515625,-0.8734130859375,42.110595703125,66.8023681640625
1759066499.1433492,-0.669921875,-0.021484375,0.74560546875,1.46484375,-0.1220703125,-0.06103515625,-0.8624267578125,42.110595703125,66.8023681640625
1759066499.1531532,-0.66845703125,-0.0068359375,0.74365234375,2.44140625,0.0,-0.1220703125,-0.845947265625,42.110595703125,66.796875
1759066499.1632218,-0.66845703125,-0.0068359375,0.74365234375,2.44140625,0.0,-0.1220703125,-0.8294677734375,42.110595703125,66.796875
1759066499.1731615,-0.6708984375,0.01123046875,0.74365234375,0.18310546875,0.0,0.0,-0.8184814453125,42.110595703125,66.7913818359375
1759066499.1831481,-0.6708984375,0.01123046875,0.74365234375,0.18310546875,0.0,0.0,-0.81298828125,42.110595703125,66.7913818359375
1759066499.1933296,-0.67138671875,0.01416015625,0.74462890625,-2.86865234375,0.0,0.1220703125,-0.8294677734375,42.110595703125,66.796875
1759066499.203196,-0.67138671875,0.01416015625,0.74462890625,-2.86865234375,0.0,0.1220703125,-0.8514404296875,42.1160888671875,66.796875
1759066499.213183,-0.6630859375,-0.009765625,0.7490234375,-4.21142578125,-0.1220703125,0.1220703125,-0.8843994140625,42.1160888671875,66.8023681640625
1759066499.223207,-0.6630859375,-0.009765625,0.7490234375,-4.21142578125,-0.1220703125,0.1220703125,-0.9228515625,42.110595703125,66.8023681640625
1759066499.2332556,-0.66357421875,-0.03759765625,0.74853515625,-2.01416015625,0.0,0.1220703125,-0.9503173828125,42.110595703125,66.807861328125
1759066499.243442,-0.66357421875,-0.03759765625,0.74853515625,-2.01416015625,0.0,0.1220703125,-0.9722900390625,42.110595703125,66.807861328125
1759066499.2532473,-0.6572265625,-0.0322265625,0.74462890625,2.197265625,0.0,-0.1220703125,-0.966796875,42.110595703125,66.807861328125
1759066499.2633076,-0.6572265625,-0.0322265625,0.74462890625,2.197265625,0.0,-0.1220703125,-0.9503173828125,42.110595703125,66.807861328125
1759066499.2732584,-0.6689453125,-0.0087890625,0.74951171875,2.13623046875,0.06103515625,0.0,-0.9283447265625,42.1051025390625,66.807861328125
1759066499.2832046,-0.6689453125,-0.0087890625,0.74951171875,2.13623046875,0.06103515625,0.0,-0.911865234375,42.1051025390625,66.807861328125
1759066499.2940607,-0.6728515625,0.013671875,0.74169921875,-1.708984375,0.0,0.0,-0.9063720703125,42.1051025390625,66.807861328125
1759066499.3033004,-0.6728515625,0.013671875,0.74169921875,-1.708984375,0.0,0.0,-0.9228515625,42.1051025390625,66.807861328125
1759066499.3135302,-0.6787109375,0.00732421875,0.73681640625,-4.33349609375,0.06103515625,0.18310546875,-0.955810546875,42.1051025390625,66.807861328125
1759066499.3234963,-0.6787109375,0.00732421875,0.73681640625,-4.33349609375,0.06103515625,0.18310546875,-0.9942626953125,42.1051025390625,66.8133544921875
1759066499.3333676,-0.68115234375,-0.0146484375,0.7333984375,-4.638671875,0.1220703125,0.18310546875,-1.03271484375,42.1051025390625,66.8133544921875
1759066499.3436134,-0.68115234375,-0.0146484375,0.7333984375,-4.638671875,0.1220703125,0.18310546875,-1.07666015625,42.1051025390625,66.81884765625
1759066499.3534038,-0.68408203125,-0.0234375,0.72802734375,-3.60107421875,0.244140625,0.244140625,-1.109619140625,42.1051025390625,66.81884765625
1759066499.3634672,-0.68408203125,-0.0234375,0.72802734375,-3.60107421875,0.244140625,0.244140625,-1.142578125,42.110595703125,66.8243408203125
1759066499.3734126,-0.681640625,-0.025390625,0.7314453125,-2.5634765625,0.30517578125,0.1220703125,-1.1700439453125,42.1160888671875,66.8243408203125
1759066499.3834128,-0.681640625,-0.025390625,0.7314453125,-2.5634765625,0.30517578125,0.1220703125,-1.1920166015625,42.12158203125,66.8243408203125
1759066499.3935685,-0.68115234375,-0.02099609375,0.73876953125,-1.89208984375,0.3662109375,0.18310546875,-1.2139892578125,42.1270751953125,66.8243408203125
1759066499.4034667,-0.68115234375,-0.02099609375,0.73876953125,-1.89208984375,0.3662109375,0.18310546875,-1.23046875,42.132568359375,66.8243408203125
1759066499.4134226,-0.67822265625,-0.0126953125,0.72998046875,0.67138671875,0.48828125,0.1220703125,-1.2359619140625,42.1380615234375,66.829833984375
1759066499.423801,-0.67822265625,-0.0126953125,0.72998046875,0.67138671875,0.48828125,0.1220703125,-1.2249755859375,42.1490478515625,66.829833984375
1759066499.4334784,-0.6806640625,-0.009765625,0.7294921875,2.62451171875,0.42724609375,-0.1220703125,-1.20849609375,42.154541015625,66.829833984375
1759066499.4436398,-0.6806640625,-0.009765625,0.7294921875,2.62451171875,0.42724609375,-0.1220703125,-1.1810302734375,42.1600341796875,66.8243408203125
1759066499.4535103,-0.6787109375,-0.01513671875,0.734375,3.35693359375,0.3662109375,-0.244140625,-1.153564453125,42.16552734375,66.81884765625
1759066499.46353,-0.6787109375,-0.01513671875,0.734375,3.35693359375,0.3662109375,-0.244140625,-1.12060546875,42.176513671875,66.81884765625
1759066499.4735596,-0.6787109375,-0.0185546875,0.73583984375,2.5634765625,0.18310546875,0.0,-1.0931396484375,42.1820068359375,66.81884765625
1759066499.4835806,-0.6787109375,-0.0185546875,0.73583984375,2.5634765625,0.18310546875,0.0,-1.0711669921875,42.1820068359375,66.81884765625
1759066499.4938412,-0.67626953125,-0.01220703125,0.7392578125,2.38037109375,0.06103515625,-0.3662109375,-1.0491943359375,42.1875,66.8133544921875
1759066499.5036888,-0.67626953125,-0.01220703125,0.7392578125,2.38037109375,0.06103515625,-0.3662109375,-1.0272216796875,42.1929931640625,66.807861328125
1759066499.513629,-0.671875,-0.00927734375,0.7412109375,2.197265625,0.0,-0.6103515625,-1.0107421875,42.1929931640625,66.796875
1759066499.523696,-0.671875,-0.00927734375,0.7412109375,2.197265625,0.0,-0.6103515625,-0.999755859375,42.1929931640625,66.7913818359375
1759066499.5336215,-0.6689453125,-0.01171875,0.740234375,2.50244140625,0.0,-0.79345703125,-0.977783203125,42.198486328125,66.7803955078125
1759066499.543864,-0.6689453125,-0.01171875,0.740234375,2.50244140625,0.0,-0.79345703125,-0.9613037109375,42.198486328125,66.7694091796875
1759066499.5537047,-0.67138671875,-0.0107421875,0.7421875,2.50244140625,-0.06103515625,-0.91552734375,-0.94482421875,42.198486328125,66.7584228515625
1759066499.563812,-0.67138671875,-0.0107421875,0.7421875,2.50244140625,-0.06103515625,-0.91552734375,-0.9283447265625,42.198486328125,66.7474365234375
1759066499.5736513,-0.671875,-0.0078125,0.7431640625,2.197265625,-0.1220703125,-0.8544921875,-0.9173583984375,42.198486328125,66.7364501953125
1759066499.5836546,-0.671875,-0.0078125,0.7431640625,2.197265625,-0.1220703125,-0.8544921875,-0.90087890625,42.198486328125,66.7254638671875
1759066499.5953956,-0.673828125,-0.005859375,0.7421875,0.6103515625,-0.18310546875,-0.79345703125,-0.90087890625,42.198486328125,66.7144775390625
1759066499.6042638,-0.673828125,-0.005859375,0.7421875,0.6103515625,-0.18310546875,-0.79345703125,-0.90087890625,42.198486328125,66.7034912109375
1759066499.6140501,-0.673828125,-0.01123046875,0.73828125,-0.3662109375,-0.30517578125,-0.8544921875,-0.911865234375,42.1929931640625,66.6925048828125
1759066499.6257799,-0.673828125,-0.01123046875,0.73828125,-0.3662109375,-0.30517578125,-0.8544921875,-0.9228515625,42.1929931640625,66.6815185546875
1759066499.633694,-0.67431640625,-0.015625,0.73974609375,0.0,-0.244140625,-0.732421875,-0.9283447265625,42.1929931640625,66.6705322265625
1759066499.6439893,-0.67431640625,-0.015625,0.73974609375,0.0,-0.244140625,-0.732421875,-0.9393310546875,42.1875,66.6595458984375
1759066499.6552315,-0.67236328125,-0.01513671875,0.736328125,0.67138671875,-0.30517578125,-0.6103515625,-0.933837890625,42.1875,66.654052734375
1759066499.663953,-0.67236328125,-0.01513671875,0.736328125,0.67138671875,-0.30517578125,-0.6103515625,-0.933837890625,42.1820068359375,66.64306640625
1759066499.6737454,-0.67578125,-0.0126953125,0.73828125,0.79345703125,-0.30517578125,-0.54931640625,-0.933837890625,42.1820068359375,66.6375732421875
1759066499.6837318,-0.67578125,-0.0126953125,0.73828125,0.79345703125,-0.30517578125,-0.54931640625,-0.9283447265625,42.1820068359375,66.632080078125
1759066499.6939976,-0.6787109375,-0.013671875,0.73583984375,1.52587890625,-0.244140625,-0.42724609375,-0.9173583984375,42.176513671875,66.6265869140625
1759066499.703832,-0.6787109375,-0.013671875,0.73583984375,1.52587890625,-0.244140625,-0.42724609375,-0.9063720703125,42.176513671875,66.62109375
1759066499.713799,-0.6826171875,-0.013671875,0.73193359375,2.3193359375,-0.18310546875,-0.18310546875,-0.8843994140625,42.176513671875,66.6156005859375
1759066499.724006,-0.6826171875,-0.013671875,0.73193359375,2.3193359375,-0.18310546875,-0.18310546875,-0.8624267578125,42.176513671875,66.6156005859375
1759066499.733855,-0.68505859375,-0.0107421875,0.728515625,2.3193359375,-0.18310546875,0.06103515625,-0.8404541015625,42.176513671875,66.6156005859375
1759066499.743865,-0.68505859375,-0.0107421875,0.728515625,2.3193359375,-0.18310546875,0.06103515625,-0.8184814453125,42.1820068359375,66.6156005859375
1759066499.7539458,-0.6865234375,0.0,0.7255859375,1.40380859375,-0.18310546875,0.3662109375,-0.802001953125,42.1820068359375,66.6156005859375
1759066499.7638927,-0.6865234375,0.0,0.7255859375,1.40380859375,-0.18310546875,0.3662109375,-0.7855224609375,42.1820068359375,66.62109375
1759066499.7738676,-0.685546875,-0.00146484375,0.72802734375,-0.42724609375,-0.06103515625,0.54931640625,-0.7855224609375,42.1875,66.6265869140625
1759066499.7838674,-0.685546875,-0.00146484375,0.72802734375,-0.42724609375,-0.06103515625,0.54931640625,-0.780029296875,42.1875,66.632080078125
1759066499.7940946,-0.68017578125,-0.013671875,0.73388671875,-1.3427734375,0.0,0.79345703125,-0.7855224609375,42.1929931640625,66.64306640625
1759066499.803898,-0.68017578125,-0.013671875,0.73388671875,-1.3427734375,0.0,0.79345703125,-0.791015625,42.198486328125,66.654052734375
1759066499.8142333,-0.67626953125,-0.021484375,0.73681640625,-0.30517578125,0.0,0.8544921875,-0.791015625,42.2039794921875,66.6650390625
1759066499.8241715,-0.67626953125,-0.021484375,0.73681640625,-0.30517578125,0.0,0.8544921875,-0.7855224609375,42.2039794921875,66.6705322265625
1759066499.8339999,-0.67724609375,-0.01611328125,0.7353515625,1.15966796875,0.1220703125,0.732421875,-0.76904296875,42.20947265625,66.6815185546875
1759066499.844081,-0.67724609375,-0.01611328125,0.7353515625,1.15966796875,0.1220703125,0.732421875,-0.7525634765625,42.2149658203125,66.68701171875
1759066499.8541415,-0.67626953125,-0.00927734375,0.7392578125,1.89208984375,0.244140625,0.67138671875,-0.72509765625,42.220458984375,66.6925048828125
1759066499.864019,-0.67626953125,-0.00927734375,0.7392578125,1.89208984375,0.244140625,0.67138671875,-0.703125,42.2259521484375,66.7034912109375
1759066499.8739862,-0.67431640625,-0.00634765625,0.74169921875,1.3427734375,0.3662109375,0.67138671875,-0.6866455078125,42.2314453125,66.708984375
1759066499.884255,-0.67431640625,-0.00634765625,0.74169921875,1.3427734375,0.3662109375,0.67138671875,-0.6646728515625,42.242431640625,66.7144775390625
1759066499.8967967,-0.67333984375,-0.00927734375,0.7392578125,0.244140625,0.30517578125,0.732421875,-0.6591796875,42.2479248046875,66.7254638671875
1759066499.9057066,-0.67333984375,-0.00927734375,0.7392578125,0.244140625,0.30517578125,0.732421875,-0.648193359375,42.2479248046875,66.7364501953125
1759066499.914758,-0.67041015625,-0.013671875,0.74365234375,-0.6103515625,0.3662109375,0.79345703125,-0.648193359375,42.25341796875,66.741943359375
1759066499.9242163,-0.67041015625,-0.013671875,0.74365234375,-0.6103515625,0.3662109375,0.79345703125,-0.6536865234375,42.2589111328125,66.7529296875
1759066499.9341645,-0.66357421875,-0.013671875,0.751953125,-1.220703125,0.3662109375,0.8544921875,-0.6591796875,42.264404296875,66.763916015625
1759066499.9443612,-0.66357421875,-0.013671875,0.751953125,-1.220703125,0.3662109375,0.8544921875,-0.6646728515625,42.2698974609375,66.77490234375
1759066499.9544435,-0.66259765625,-0.00634765625,0.7490234375,-0.79345703125,0.18310546875,0.8544921875,-0.6646728515625,42.2698974609375,66.785888671875
1759066499.9641845,-0.66259765625,-0.00634765625,0.7490234375,-0.79345703125,0.18310546875,0.8544921875,-0.6646728515625,42.2698974609375,66.796875
1759066499.974157,-0.6640625,-0.00634765625,0.74609375,-1.0986328125,0.0,0.8544921875,-0.670166015625,42.2698974609375,66.807861328125
1759066499.9841359,-0.6640625,-0.00634765625,0.74609375,-1.0986328125,0.0,0.8544921875,-0.6756591796875,42.2698974609375,66.81884765625
1759066499.9943664,-0.6650390625,-0.0048828125,0.75146484375,-2.0751953125,0.06103515625,0.9765625,-0.6866455078125,42.2698974609375,66.8353271484375
1759066500.0041723,-0.6650390625,-0.0048828125,0.75146484375,-2.0751953125,0.06103515625,0.9765625,-0.6976318359375,42.2698974609375,66.8463134765625
1759066500.01421,-0.662109375,-0.0029296875,0.75390625,-1.953125,0.18310546875,0.8544921875,-0.7086181640625,42.2698974609375,66.8572998046875
1759066500.024439,-0.662109375,-0.0029296875,0.75390625,-1.953125,0.18310546875,0.8544921875,-0.7196044921875,42.2698974609375,66.8682861328125
1759066500.0342343,-0.6650390625,-0.01025390625,0.751953125,-1.46484375,0.3662109375,0.79345703125,-0.72509765625,42.2698974609375,66.8792724609375
1759066500.04432,-0.6650390625,-0.01025390625,0.751953125,-1.46484375,0.3662109375,0.79345703125,-0.7305908203125,42.2698974609375,66.8902587890625
1759066500.0546098,-0.6689453125,-0.01611328125,0.7451171875,-0.06103515625,0.3662109375,0.67138671875,-0.72509765625,42.2698974609375,66.9012451171875
1759066500.0645363,-0.6689453125,-0.01611328125,0.7451171875,-0.06103515625,0.3662109375,0.67138671875,-0.7196044921875,42.2698974609375,66.9122314453125
1759066500.0742595,-0.669921875,-0.02099609375,0.7412109375,1.28173828125,0.30517578125,0.54931640625,-0.703125,42.2698974609375,66.917724609375
1759066500.0842779,-0.669921875,-0.02099609375,0.7412109375,1.28173828125,0.30517578125,0.54931640625,-0.6866455078125,42.2698974609375,66.9287109375
1759066500.0945263,-0.67333984375,-0.0146484375,0.7421875,1.28173828125,0.42724609375,0.732421875,-0.670166015625,42.275390625,66.939697265625
1759066500.104354,-0.67333984375,-0.0146484375,0.7421875,1.28173828125,0.42724609375,0.732421875,-0.6536865234375,42.275390625,66.9451904296875
1759066500.1142607,-0.67529296875,-0.00439453125,0.7373046875,0.3662109375,0.42724609375,0.79345703125,-0.6427001953125,42.275390625,66.9561767578125
1759066500.1245637,-0.67529296875,-0.00439453125,0.7373046875,0.3662109375,0.42724609375,0.79345703125,-0.6317138671875,42.2808837890625,66.9671630859375
1759066500.1343486,-0.68017578125,-0.0078125,0.73193359375,-0.8544921875,0.244140625,0.9765625,-0.63720703125,42.2808837890625,66.983642578125
1759066500.1443968,-0.68017578125,-0.0078125,0.73193359375,-0.8544921875,0.244140625,0.9765625,-0.63720703125,42.286376953125,66.99462890625
1759066500.154599,-0.68603515625,-0.005859375,0.728515625,-1.708984375,0.18310546875,0.9765625,-0.6427001953125,42.286376953125,67.0111083984375
1759066500.1647727,-0.68603515625,-0.005859375,0.728515625,-1.708984375,0.18310546875,0.9765625,-0.6536865234375,42.286376953125,67.0220947265625
1759066500.1743937,-0.6875,-0.009765625,0.7255859375,-1.28173828125,0.244140625,0.8544921875,-0.6591796875,42.2918701171875,67.0330810546875
1759066500.18458,-0.6875,-0.009765625,0.7255859375,-1.28173828125,0.244140625,0.8544921875,-0.6646728515625,42.29736328125,67.0440673828125
1759066500.1947339,-0.6845703125,-0.0107421875,0.7255859375,-0.3662109375,0.3662109375,0.79345703125,-0.6591796875,42.3028564453125,67.0550537109375
1759066500.2044444,-0.6845703125,-0.0107421875,0.7255859375,-0.3662109375,0.3662109375,0.79345703125,-0.6591796875,42.308349609375,67.0660400390625
1759066500.214732,-0.68212890625,-0.00732421875,0.732421875,0.9765625,0.6103515625,0.6103515625,-0.6427001953125,42.3138427734375,67.071533203125
1759066500.224737,-0.68212890625,-0.00732421875,0.732421875,0.9765625,0.6103515625,0.6103515625,-0.626220703125,42.3248291015625,67.0770263671875
1759066500.2344391,-0.6787109375,-0.00341796875,0.7353515625,1.64794921875,0.732421875,0.42724609375,-0.6097412109375,42.3358154296875,67.08251953125
1759066500.2446756,-0.6787109375,-0.00341796875,0.7353515625,1.64794921875,0.732421875,0.42724609375,-0.5877685546875,42.3468017578125,67.0880126953125
1759066500.2546594,-0.67822265625,0.001953125,0.734375,1.52587890625,0.8544921875,0.3662109375,-0.5712890625,42.3577880859375,67.093505859375
1759066500.264669,-0.67822265625,0.001953125,0.734375,1.52587890625,0.8544921875,0.3662109375,-0.54931640625,42.3687744140625,67.0989990234375
1759066500.2745328,-0.68212890625,-0.00048828125,0.732421875,0.8544921875,0.732421875,0.3662109375,-0.538330078125,42.374267578125,67.1044921875
1759066500.2845383,-0.68212890625,-0.00048828125,0.732421875,0.8544921875,0.732421875,0.3662109375,-0.52734375,42.38525390625,67.1044921875
1759066500.2947378,-0.68505859375,-0.0048828125,0.72265625,0.0,0.48828125,0.3662109375,-0.5218505859375,42.396240234375,67.1099853515625
1759066500.3045583,-0.68505859375,-0.0048828125,0.72265625,0.0,0.48828125,0.3662109375,-0.516357421875,42.4017333984375,67.115478515625
1759066500.3145075,-0.681640625,-0.01123046875,0.7275390625,0.3662109375,0.30517578125,0.30517578125,-0.5108642578125,42.4072265625,67.1209716796875
1759066500.3307083,-0.681640625,-0.01123046875,0.7275390625,0.3662109375,0.30517578125,0.30517578125,-0.50537109375,42.4127197265625,67.12646484375
1759066500.3371737,-0.67724609375,-0.01025390625,0.73583984375,0.67138671875,0.18310546875,0.30517578125,-0.494384765625,42.418212890625,67.12646484375
1759066500.3446078,-0.67724609375,-0.01025390625,0.73583984375,0.67138671875,0.18310546875,0.30517578125,-0.4888916015625,42.4237060546875,67.1319580078125
1759066500.3609698,-0.673828125,-0.00634765625,0.7392578125,0.48828125,-0.06103515625,0.3662109375,-0.4779052734375,42.4237060546875,67.137451171875
1759066500.3676324,-0.673828125,-0.00634765625,0.7392578125,0.48828125,-0.06103515625,0.3662109375,-0.472412109375,42.42919921875,67.1429443359375
1759066500.3746343,-0.67138671875,-0.00390625,0.740234375,0.0,-0.30517578125,0.30517578125,-0.4669189453125,42.42919921875,67.1429443359375
1759066500.3847241,-0.67138671875,-0.00390625,0.740234375,0.0,-0.30517578125,0.30517578125,-0.4669189453125,42.4237060546875,67.1484375
1759066500.3973548,-0.67041015625,-0.00341796875,0.7451171875,-0.3662109375,-0.42724609375,0.30517578125,-0.4669189453125,42.4237060546875,67.1539306640625
1759066500.404716,-0.67041015625,-0.00341796875,0.7451171875,-0.3662109375,-0.42724609375,0.30517578125,-0.4669189453125,42.418212890625,67.159423828125
1759066500.414846,-0.66845703125,-0.00732421875,0.744140625,-0.67138671875,-0.48828125,0.42724609375,-0.472412109375,42.4127197265625,67.1649169921875
1759066500.4309123,-0.66845703125,-0.00732421875,0.744140625,-0.67138671875,-0.48828125,0.42724609375,-0.472412109375,42.4072265625,67.17041015625
1759066500.436982,-0.66650390625,-0.005859375,0.74462890625,-0.9765625,-0.6103515625,0.48828125,-0.4779052734375,42.4017333984375,67.181396484375
1759066500.4448493,-0.66650390625,-0.005859375,0.74462890625,-0.9765625,-0.6103515625,0.48828125,-0.4833984375,42.396240234375,67.1868896484375
1759066500.4605765,-0.66796875,-0.0048828125,0.751953125,-0.8544921875,-0.6103515625,0.67138671875,-0.4833984375,42.3907470703125,67.1978759765625
1759066500.4671109,-0.6708984375,-0.009765625,0.74560546875,-0.79345703125,-0.42724609375,0.9765625,-0.4833984375,42.38525390625,67.2088623046875
1759066500.4747834,-0.6708984375,-0.009765625,0.74560546875,-0.79345703125,-0.42724609375,0.9765625,-0.4833984375,42.3797607421875,67.225341796875
1759066500.4848158,-0.67431640625,-0.00927734375,0.744140625,-1.03759765625,-0.244140625,1.15966796875,-0.4833984375,42.374267578125,67.2418212890625
1759066500.4983022,-0.67431640625,-0.00927734375,0.744140625,-1.03759765625,-0.244140625,1.15966796875,-0.4833984375,42.3687744140625,67.25830078125
1759066500.5061474,-0.673828125,-0.00830078125,0.74169921875,-1.03759765625,0.0,1.28173828125,-0.4833984375,42.3687744140625,67.2747802734375
1759066500.5147796,-0.673828125,-0.00830078125,0.74169921875,-1.03759765625,0.0,1.28173828125,-0.4833984375,42.3687744140625,67.291259765625
1759066500.531017,-0.6748046875,-0.00732421875,0.7421875,-1.03759765625,0.30517578125,1.28173828125,-0.4833984375,42.3687744140625,67.3077392578125
1759066500.5374494,-0.6748046875,-0.00732421875,0.7421875,-1.03759765625,0.30517578125,1.28173828125,-0.4833984375,42.3687744140625,67.32421875
1759066500.5448668,-0.67431640625,-0.00732421875,0.7421875,-0.91552734375,0.54931640625,1.40380859375,-0.4779052734375,42.374267578125,67.34619140625
1759066500.561332,-0.67431640625,-0.00732421875,0.7421875,-0.91552734375,0.54931640625,1.40380859375,-0.4779052734375,42.3797607421875,67.3626708984375
1759066500.5678165,-0.671875,-0.005859375,0.7392578125,-1.03759765625,0.6103515625,1.46484375,-0.472412109375,42.38525390625,67.3846435546875
1759066500.5748436,-0.671875,-0.005859375,0.7392578125,-1.03759765625,0.6103515625,1.46484375,-0.472412109375,42.3907470703125,67.4066162109375
1759066500.5849383,-0.6728515625,-0.0078125,0.7412109375,-0.54931640625,0.48828125,1.46484375,-0.4669189453125,42.3907470703125,67.423095703125
1759066500.5979161,-0.6728515625,-0.0078125,0.7412109375,-0.54931640625,0.48828125,1.46484375,-0.46142578125,42.396240234375,67.445068359375
1759066500.6049743,-0.67431640625,-0.00537109375,0.7392578125,-0.91552734375,0.244140625,1.5869140625,-0.450439453125,42.4017333984375,67.467041015625
1759066500.6149173,-0.67431640625,-0.00537109375,0.7392578125,-0.91552734375,0.244140625,1.5869140625,-0.450439453125,42.4017333984375,67.489013671875
1759066500.6250818,-0.67431640625,-0.00439453125,0.7412109375,-0.67138671875,0.1220703125,1.40380859375,-0.4449462890625,42.4017333984375,67.5054931640625
1759066500.6349366,-0.67431640625,-0.00439453125,0.7412109375,-0.67138671875,0.1220703125,1.40380859375,-0.439453125,42.4017333984375,67.5274658203125
1759066500.6449673,-0.67529296875,-0.00634765625,0.7392578125,-0.30517578125,0.06103515625,1.3427734375,-0.428466796875,42.4017333984375,67.5439453125
1759066500.655322,-0.67529296875,-0.00634765625,0.7392578125,-0.30517578125,0.06103515625,1.3427734375,-0.4229736328125,42.4017333984375,67.56591796875
1759066500.6650257,-0.67822265625,-0.00634765625,0.73388671875,1.28173828125,0.0,1.0986328125,-0.406494140625,42.4017333984375,67.5823974609375
1759066500.6749716,-0.67822265625,-0.00634765625,0.73388671875,1.28173828125,0.0,1.0986328125,-0.384521484375,42.4017333984375,67.5933837890625
1759066500.6849887,-0.67822265625,-0.00537109375,0.73193359375,2.50244140625,0.0,0.8544921875,-0.3570556640625,42.4017333984375,67.60986328125
1759066500.6951945,-0.67822265625,-0.00537109375,0.73193359375,2.50244140625,0.0,0.8544921875,-0.3240966796875,42.4017333984375,67.620849609375
1759066500.7050643,-0.67578125,0.0,0.73486328125,2.99072265625,-0.1220703125,0.48828125,-0.2911376953125,42.4017333984375,67.6263427734375
1759066500.7150962,-0.67578125,0.0,0.73486328125,2.99072265625,-0.1220703125,0.48828125,-0.2581787109375,42.4017333984375,67.6373291015625
1759066500.7251306,-0.677734375,0.005859375,0.7431640625,2.5634765625,0.0,0.18310546875,-0.230712890625,42.4017333984375,67.642822265625
1759066500.7351077,-0.677734375,0.005859375,0.7431640625,2.5634765625,0.0,0.18310546875,-0.2032470703125,42.4017333984375,67.642822265625
1759066500.7451751,-0.67529296875,0.00390625,0.73486328125,2.8076171875,0.0,-0.1220703125,-0.17578125,42.4017333984375,67.642822265625
1759066500.7554755,-0.67529296875,0.00390625,0.73486328125,2.8076171875,0.0,-0.1220703125,-0.1483154296875,42.4017333984375,67.642822265625
1759066500.7651384,-0.67578125,0.00244140625,0.73583984375,2.50244140625,0.0,-0.3662109375,-0.120849609375,42.4017333984375,67.642822265625
1759066500.775107,-0.67578125,0.00244140625,0.73583984375,2.50244140625,0.0,-0.3662109375,-0.1043701171875,42.4017333984375,67.6373291015625
1759066500.785128,-0.67333984375,0.00390625,0.74072265625,1.52587890625,0.0,-0.54931640625,-0.087890625,42.4017333984375,67.6318359375
1759066500.7952368,-0.67333984375,0.00390625,0.74072265625,1.52587890625,0.0,-0.54931640625,-0.076904296875,42.4072265625,67.6263427734375
1759066500.8063495,-0.66796875,-0.0009765625,0.74609375,1.64794921875,0.0,-0.6103515625,-0.06591796875,42.4072265625,67.6153564453125
1759066500.8155007,-0.66796875,-0.0009765625,0.74609375,1.64794921875,0.0,-0.6103515625,-0.054931640625,42.4072265625,67.60986328125
1759066500.825316,-0.6689453125,-0.0048828125,0.75,2.62451171875,-0.06103515625,-0.54931640625,-0.0384521484375,42.4017333984375,67.6043701171875
1759066500.8352263,-0.6689453125,-0.0048828125,0.75,2.62451171875,-0.06103515625,-0.54931640625,-0.0164794921875,42.4017333984375,67.598876953125
1759066500.8452685,-0.67431640625,-0.00537109375,0.73828125,4.08935546875,-0.18310546875,-0.30517578125,0.0054931640625,42.4017333984375,67.5933837890625
1759066500.8556347,-0.67431640625,-0.00537109375,0.73828125,4.08935546875,-0.18310546875,-0.30517578125,0.0439453125,42.396240234375,67.587890625
1759066500.8652391,-0.67919921875,-0.00390625,0.73046875,4.39453125,-0.42724609375,0.0,0.0823974609375,42.396240234375,67.587890625
1759066500.8752666,-0.67919921875,-0.00390625,0.73046875,4.39453125,-0.42724609375,0.0,0.1263427734375,42.3907470703125,67.587890625
1759066500.8852508,-0.681640625,0.00146484375,0.728515625,3.173828125,-0.48828125,0.48828125,0.164794921875,42.38525390625,67.5933837890625
1759066500.8952894,-0.681640625,0.00146484375,0.728515625,3.173828125,-0.48828125,0.48828125,0.19775390625,42.3797607421875,67.598876953125
1759066500.9052808,-0.6787109375,0.00390625,0.732421875,1.953125,-0.54931640625,0.8544921875,0.230712890625,42.374267578125,67.60986328125
1759066500.9154382,-0.6787109375,0.00390625,0.732421875,1.953125,-0.54931640625,0.8544921875,0.252685546875,42.3687744140625,67.620849609375
1759066500.9254632,-0.67822265625,0.00048828125,0.740234375,0.8544921875,-0.3662109375,1.15966796875,0.274658203125,42.3687744140625,67.6318359375
1759066500.9354725,-0.67822265625,0.00048828125,0.740234375,0.8544921875,-0.3662109375,1.15966796875,0.2911376953125,42.36328125,67.6483154296875
1759066500.9454188,-0.673828125,0.001953125,0.73681640625,0.30517578125,-0.244140625,1.28173828125,0.3076171875,42.36328125,67.664794921875
1759066500.9556386,-0.673828125,0.001953125,0.73681640625,0.30517578125,-0.244140625,1.28173828125,0.318603515625,42.36328125,67.6812744140625
1759066500.9654717,-0.6728515625,0.00341796875,0.74462890625,0.18310546875,-0.1220703125,1.220703125,0.3350830078125,42.36328125,67.69775390625
1759066500.9759674,-0.6728515625,0.00341796875,0.74462890625,0.18310546875,-0.1220703125,1.220703125,0.3460693359375,42.3577880859375,67.7142333984375
1759066500.98538,-0.6708984375,0.001953125,0.74755859375,0.06103515625,0.0,1.28173828125,0.3570556640625,42.3577880859375,67.730712890625
1759066500.9964,-0.6708984375,0.001953125,0.74755859375,0.06103515625,0.0,1.28173828125,0.362548828125,42.3577880859375,67.752685546875
1759066501.0056434,-0.6708984375,0.0029296875,0.7421875,0.42724609375,0.1220703125,1.40380859375,0.3790283203125,42.36328125,67.7691650390625
1759066501.0154579,-0.6708984375,0.0029296875,0.7421875,0.42724609375,0.1220703125,1.40380859375,0.3955078125,42.36328125,67.7911376953125
1759066501.0262406,-0.6689453125,0.00537109375,0.744140625,0.6103515625,0.06103515625,1.40380859375,0.406494140625,42.36328125,67.8076171875
1759066501.0354643,-0.6689453125,0.00537109375,0.744140625,0.6103515625,0.06103515625,1.40380859375,0.428466796875,42.36328125,67.82958984375
1759066501.0456944,-0.6708984375,0.00927734375,0.7470703125,1.52587890625,0.06103515625,1.28173828125,0.4449462890625,42.36328125,67.8460693359375
1759066501.0555668,-0.6708984375,0.00927734375,0.7470703125,1.52587890625,0.06103515625,1.28173828125,0.472412109375,42.36328125,67.862548828125
1759066501.065526,-0.67138671875,0.0107421875,0.7412109375,2.5634765625,0.06103515625,1.0986328125,0.50537109375,42.36328125,67.8790283203125
1759066501.0755286,-0.67138671875,0.0107421875,0.7412109375,2.5634765625,0.06103515625,1.0986328125,0.538330078125,42.3577880859375,67.8955078125
1759066501.0855196,-0.67431640625,0.00732421875,0.7392578125,3.173828125,0.0,0.8544921875,0.5712890625,42.3577880859375,67.9119873046875
1759066501.0959125,-0.67431640625,0.00732421875,0.7392578125,3.173828125,0.0,0.8544921875,0.6097412109375,42.3577880859375,67.9229736328125
1759066501.1055427,-0.67431640625,0.00732421875,0.7392578125,4.0283203125,0.0,0.732421875,0.6536865234375,42.3577880859375,67.9339599609375
1759066501.1155689,-0.67333984375,0.0107421875,0.73828125,4.0283203125,0.0,0.732421875,0.6976318359375,42.3577880859375,67.9449462890625
1759066501.125984,-0.67138671875,0.015625,0.74755859375,4.33349609375,-0.06103515625,0.54931640625,0.7470703125,42.3577880859375,67.9559326171875
1759066501.135558,-0.67138671875,0.015625,0.74755859375,4.33349609375,-0.06103515625,0.54931640625,0.791015625,42.352294921875,67.9669189453125
1759066501.1456866,-0.67431640625,0.015625,0.7412109375,3.96728515625,-0.06103515625,0.3662109375,0.8349609375,42.352294921875,67.972412109375
1759066501.1556506,-0.67431640625,0.015625,0.7412109375,3.96728515625,-0.06103515625,0.3662109375,0.87890625,42.352294921875,67.9779052734375
1759066501.1656551,-0.671875,0.0166015625,0.73583984375,3.5400390625,-0.3662109375,0.1220703125,0.9173583984375,42.3468017578125,67.9833984375
1759066501.175693,-0.671875,0.0166015625,0.73583984375,3.5400390625,-0.3662109375,0.1220703125,0.955810546875,42.34130859375,67.9888916015625
1759066501.1857126,-0.67236328125,0.0185546875,0.74169921875,3.23486328125,-0.48828125,-0.1220703125,0.98876953125,42.3358154296875,67.9888916015625
1759066501.1960878,-0.67236328125,0.0185546875,0.74169921875,3.23486328125,-0.48828125,-0.1220703125,1.0162353515625,42.330322265625,67.9888916015625
1759066501.2056544,-0.6708984375,0.0166015625,0.73828125,2.86865234375,-0.6103515625,-0.18310546875,1.043701171875,42.3248291015625,67.9888916015625
1759066501.2158897,-0.6708984375,0.0166015625,0.73828125,2.86865234375,-0.6103515625,-0.18310546875,1.0711669921875,42.3193359375,67.9833984375
1759066501.2261436,-0.6728515625,0.01513671875,0.74462890625,2.197265625,-0.732421875,-0.18310546875,1.0931396484375,42.3138427734375,67.9833984375
1759066501.2356956,-0.6728515625,0.01513671875,0.74462890625,2.197265625,-0.732421875,-0.18310546875,1.1151123046875,42.3028564453125,67.9833984375
1759066501.2457862,-0.6748046875,0.015625,0.73974609375,1.8310546875,-0.732421875,-0.1220703125,1.131591796875,42.29736328125,67.9833984375
1759066501.2558243,-0.6748046875,0.015625,0.73974609375,1.8310546875,-0.732421875,-0.1220703125,1.1480712890625,42.2918701171875,67.9833984375
1759066501.2662334,-0.677734375,0.01513671875,0.732421875,1.708984375,-0.67138671875,-0.1220703125,1.16455078125,42.2808837890625,67.9833984375
1759066501.275761,-0.677734375,0.01513671875,0.732421875,1.708984375,-0.67138671875,-0.1220703125,1.1810302734375,42.275390625,67.9833984375
1759066501.2860265,-0.6787109375,0.01416015625,0.72998046875,1.8310546875,-0.67138671875,-0.1220703125,1.197509765625,42.2698974609375,67.9833984375
1759066501.296168,-0.6787109375,0.01416015625,0.72998046875,1.8310546875,-0.67138671875,-0.1220703125,1.2139892578125,42.264404296875,67.9833984375
1759066501.3060505,-0.677734375,0.01513671875,0.73046875,2.13623046875,-0.67138671875,0.0,1.23046875,42.2589111328125,67.9833984375
1759066501.3159323,-0.677734375,0.01513671875,0.73046875,2.13623046875,-0.67138671875,0.0,1.25244140625,42.25341796875,67.9833984375
1759066501.3267186,-0.6728515625,0.0205078125,0.73779296875,1.8310546875,-0.732421875,0.1220703125,1.2689208984375,42.2479248046875,67.9833984375
1759066501.335895,-0.6728515625,0.0205078125,0.73779296875,1.8310546875,-0.732421875,0.1220703125,1.2908935546875,42.242431640625,67.9888916015625
1759066501.3461504,-0.671875,0.0244140625,0.7431640625,1.28173828125,-0.732421875,0.244140625,1.307373046875,42.2369384765625,67.9888916015625
1759066501.355951,-0.671875,0.0244140625,0.7431640625,1.28173828125,-0.732421875,0.244140625,1.318359375,42.2314453125,67.994384765625
1759066501.3665817,-0.673828125,0.0205078125,0.73974609375,1.5869140625,-0.67138671875,0.1220703125,1.3348388671875,42.2259521484375,67.9998779296875
1759066501.3759356,-0.673828125,0.0205078125,0.73974609375,1.5869140625,-0.67138671875,0.1220703125,1.351318359375,42.2149658203125,67.9998779296875
1759066501.3863366,-0.669921875,0.01611328125,0.7421875,2.01416015625,-0.732421875,0.06103515625,1.373291015625,42.20947265625,67.9998779296875
1759066501.3973522,-0.669921875,0.01611328125,0.7421875,2.01416015625,-0.732421875,0.06103515625,1.3897705078125,42.2039794921875,68.00537109375
1759066501.4062116,-0.669921875,0.01611328125,0.7421875,2.25830078125,-0.732421875,0.1220703125,1.4117431640625,42.198486328125,68.00537109375
1759066501.4161177,-0.66552734375,0.01904296875,0.7490234375,2.25830078125,-0.732421875,0.1220703125,1.439208984375,42.1929931640625,68.00537109375
1759066501.4267652,-0.66552734375,0.02001953125,0.7470703125,2.0751953125,-0.79345703125,0.18310546875,1.461181640625,42.1820068359375,68.0108642578125
1759066501.436373,-0.66552734375,0.02001953125,0.7470703125,2.0751953125,-0.79345703125,0.18310546875,1.483154296875,42.176513671875,68.016357421875
1759066501.4461768,-0.66162109375,0.0234375,0.740234375,1.89208984375,-0.91552734375,0.244140625,1.4996337890625,42.16552734375,68.016357421875
1759066501.456401,-0.66162109375,0.0234375,0.740234375,1.89208984375,-0.91552734375,0.244140625,1.5216064453125,42.154541015625,68.0218505859375
1759066501.4662585,-0.6728515625,0.021484375,0.74560546875,1.46484375,-0.9765625,0.18310546875,1.5435791015625,42.1490478515625,68.02734375
1759066501.4760745,-0.6728515625,0.021484375,0.74560546875,1.46484375,-0.9765625,0.18310546875,1.5545654296875,42.1380615234375,68.0328369140625
1759066501.4863436,-0.66650390625,0.0244140625,0.7529296875,1.15966796875,-0.9765625,0.18310546875,1.571044921875,42.1270751953125,68.0328369140625
1759066501.4967358,-0.66650390625,0.0244140625,0.7529296875,1.15966796875,-0.9765625,0.18310546875,1.58203125,42.1160888671875,68.038330078125
1759066501.5061483,-0.6640625,0.0224609375,0.7451171875,0.732421875,-0.8544921875,0.1220703125,1.593017578125,42.1051025390625,68.038330078125
1759066501.5162294,-0.6640625,0.0224609375,0.7451171875,0.732421875,-0.8544921875,0.1220703125,1.5985107421875,42.0941162109375,68.0438232421875
1759066501.5266101,-0.666015625,0.0224609375,0.7451171875,1.15966796875,-0.8544921875,0.0,1.6094970703125,42.088623046875,68.0438232421875
1759066501.5361485,-0.666015625,0.0224609375,0.7451171875,1.15966796875,-0.8544921875,0.0,1.6204833984375,42.07763671875,68.0438232421875
1759066501.5462244,-0.666015625,0.02099609375,0.7490234375,2.0751953125,-0.79345703125,0.0,1.6424560546875,42.066650390625,68.04931640625
1759066501.5564253,-0.666015625,0.02099609375,0.7490234375,2.0751953125,-0.79345703125,0.0,1.6644287109375,42.0556640625,68.04931640625
1759066501.566456,-0.66552734375,0.02294921875,0.74072265625,2.8076171875,-0.732421875,0.06103515625,1.69189453125,42.0501708984375,68.04931640625
1759066501.576244,-0.66552734375,0.02294921875,0.74072265625,2.8076171875,-0.732421875,0.06103515625,1.7193603515625,42.0391845703125,68.04931640625
1759066501.5862076,-0.6669921875,0.02294921875,0.74365234375,2.8076171875,-0.79345703125,0.0,1.746826171875,42.03369140625,68.0548095703125
1759066501.5973644,-0.6669921875,0.02294921875,0.74365234375,2.8076171875,-0.79345703125,0.0,1.7742919921875,42.022705078125,68.0548095703125
1759066501.6061864,-0.66357421875,0.02294921875,0.7470703125,3.0517578125,-0.8544921875,0.1220703125,1.8017578125,42.01171875,68.060302734375
1759066501.6163018,-0.66357421875,0.02294921875,0.7470703125,3.0517578125,-0.8544921875,0.1220703125,1.834716796875,42.0062255859375,68.060302734375
1759066501.6266422,-0.6611328125,0.0185546875,0.75244140625,3.0517578125,-0.91552734375,0.1220703125,1.86767578125,41.9952392578125,68.0657958984375
1759066501.636295,-0.6611328125,0.0185546875,0.75244140625,3.0517578125,-0.91552734375,0.1220703125,1.8951416015625,41.9842529296875,68.0657958984375
1759066501.6463687,-0.66015625,0.01953125,0.75390625,2.86865234375,-0.8544921875,0.18310546875,1.922607421875,41.9732666015625,68.0712890625
1759066501.6566718,-0.66015625,0.01953125,0.75390625,2.86865234375,-0.8544921875,0.18310546875,1.9500732421875,41.9622802734375,68.0767822265625
1759066501.6665325,-0.658203125,0.025390625,0.75,2.685546875,-0.91552734375,0.0,1.9775390625,41.9512939453125,68.0767822265625
1759066501.6763387,-0.658203125,0.025390625,0.75,2.685546875,-0.91552734375,0.0,1.99951171875,41.9403076171875,68.0767822265625
1759066501.6865542,-0.66015625,0.02783203125,0.74951171875,3.35693359375,-0.8544921875,0.0,2.032470703125,41.9293212890625,68.0767822265625
1759066501.6977818,-0.66015625,0.02783203125,0.74951171875,3.35693359375,-0.8544921875,0.0,2.0654296875,41.9183349609375,68.082275390625
1759066501.7066417,-0.66455078125,0.03125,0.7451171875,4.0283203125,-0.8544921875,0.0,2.1038818359375,41.9073486328125,68.082275390625
1759066501.7164795,-0.66455078125,0.03125,0.7451171875,4.0283203125,-0.8544921875,0.0,2.142333984375,41.8963623046875,68.082275390625
1759066501.7267303,-0.66357421875,0.029296875,0.74365234375,5.55419921875,-0.79345703125,0.0,2.1917724609375,41.8853759765625,68.082275390625
1759066501.7365382,-0.66357421875,0.029296875,0.74365234375,5.55419921875,-0.79345703125,0.0,2.2467041015625,41.8743896484375,68.082275390625
1759066501.746446,-0.6640625,0.029296875,0.73828125,6.28662109375,-0.79345703125,0.0,2.30712890625,41.868896484375,68.082275390625
1759066501.756734,-0.6640625,0.029296875,0.73828125,6.28662109375,-0.79345703125,0.0,2.3675537109375,41.85791015625,68.082275390625
1759066501.766618,-0.6591796875,0.03564453125,0.748046875,6.89697265625,-0.91552734375,0.0,2.4334716796875,41.846923828125,68.082275390625
1759066501.776406,-0.6591796875,0.03564453125,0.748046875,6.89697265625,-0.91552734375,0.0,2.4993896484375,41.8359375,68.082275390625
1759066501.7864475,-0.6611328125,0.037109375,0.7529296875,6.9580078125,-0.67138671875,0.0,2.5653076171875,41.8304443359375,68.082275390625
1759066501.7979307,-0.6611328125,0.037109375,0.7529296875,6.9580078125,-0.67138671875,0.0,2.63671875,41.8194580078125,68.082275390625
1759066501.8063917,-0.66796875,0.04150390625,0.7431640625,5.43212890625,-0.732421875,0.0,2.6861572265625,41.8084716796875,68.0877685546875
1759066501.81659,-0.66796875,0.04150390625,0.7431640625,5.43212890625,-0.732421875,0.0,2.7410888671875,41.802978515625,68.0877685546875
1759066501.8268356,-0.6728515625,0.0458984375,0.744140625,3.5400390625,-0.54931640625,0.0,2.7740478515625,41.7974853515625,68.0877685546875
1759066501.83662,-0.6728515625,0.0458984375,0.744140625,3.5400390625,-0.54931640625,0.0,2.8070068359375,41.7919921875,68.0877685546875
1759066501.8467727,-0.669921875,0.0478515625,0.7333984375,1.5869140625,-0.42724609375,0.0,2.823486328125,41.7864990234375,68.0877685546875
1759066501.8572533,-0.669921875,0.0478515625,0.7333984375,1.5869140625,-0.42724609375,0.0,2.8399658203125,41.781005859375,68.0877685546875
1759066501.866714,-0.6689453125,0.0419921875,0.74658203125,0.9765625,-0.54931640625,-0.48828125,2.8399658203125,41.7755126953125,68.082275390625
1759066501.8765447,-0.6689453125,0.0419921875,0.74658203125,0.9765625,-0.54931640625,-0.48828125,2.845458984375,41.77001953125,68.0767822265625
1759066501.8865225,-0.67822265625,0.03662109375,0.728515625,0.42724609375,-0.42724609375,-0.18310546875,2.8509521484375,41.7645263671875,68.0712890625
1759066501.8969388,-0.67822265625,0.03662109375,0.728515625,0.42724609375,-0.42724609375,-0.18310546875,2.8564453125,41.7645263671875,68.0712890625
1759066501.9064538,-0.6806640625,0.0361328125,0.72705078125,0.3662109375,-0.54931640625,0.0,2.8564453125,41.759033203125,68.0712890625
1759066501.9165604,-0.6806640625,0.0361328125,0.72705078125,0.3662109375,-0.54931640625,0.0,2.8619384765625,41.759033203125,68.0712890625
1759066501.9265382,-0.68505859375,0.03955078125,0.724609375,0.244140625,-0.48828125,0.42724609375,2.867431640625,41.7535400390625,68.0767822265625
1759066501.9365158,-0.68505859375,0.03955078125,0.724609375,0.244140625,-0.48828125,0.42724609375,2.8729248046875,41.7535400390625,68.082275390625
1759066501.9465199,-0.6884765625,0.04150390625,0.72314453125,-0.18310546875,-0.54931640625,0.54931640625,2.87841796875,41.7535400390625,68.0877685546875
1759066501.956717,-0.6884765625,0.04150390625,0.72314453125,-0.18310546875,-0.54931640625,0.54931640625,2.87841796875,41.7535400390625,68.09326171875
1759066501.9665604,-0.6923828125,0.04150390625,0.7255859375,-1.15966796875,-0.30517578125,0.6103515625,2.8729248046875,41.7535400390625,68.0987548828125
1759066501.9766288,-0.6923828125,0.04150390625,0.7255859375,-1.15966796875,-0.30517578125,0.6103515625,2.867431640625,41.759033203125,68.1097412109375
1759066501.9866092,-0.68896484375,0.0439453125,0.7236328125,-2.01416015625,-0.1220703125,0.67138671875,2.8564453125,41.7645263671875,68.115234375
1759066501.9970715,-0.68896484375,0.0439453125,0.7236328125,-2.01416015625,-0.1220703125,0.67138671875,2.845458984375,41.77001953125,68.1207275390625
1759066502.0066123,-0.68310546875,0.0380859375,0.7314453125,-2.25830078125,0.0,0.67138671875,2.8289794921875,41.7755126953125,68.1317138671875
1759066502.0167282,-0.68310546875,0.0380859375,0.7314453125,-2.25830078125,0.0,0.67138671875,2.8125,41.781005859375,68.13720703125
1759066502.0266654,-0.673828125,0.03125,0.7373046875,-1.89208984375,0.06103515625,0.79345703125,2.801513671875,41.7864990234375,68.148193359375
1759066502.036637,-0.673828125,0.03125,0.7373046875,-1.89208984375,0.06103515625,0.79345703125,2.7960205078125,41.7974853515625,68.1536865234375
1759066502.0466518,-0.669921875,0.03125,0.73779296875,-1.46484375,0.1220703125,0.8544921875,2.7850341796875,41.802978515625,68.1646728515625
1759066502.0567684,-0.669921875,0.03125,0.73779296875,-1.46484375,0.1220703125,0.8544921875,2.779541015625,41.8084716796875,68.1756591796875
1759066502.0666604,-0.6669921875,0.03564453125,0.74365234375,-0.79345703125,0.244140625,0.732421875,2.779541015625,41.81396484375,68.1866455078125
1759066502.0766854,-0.6669921875,0.03564453125,0.74365234375,-0.79345703125,0.244140625,0.732421875,2.779541015625,41.824951171875,68.1976318359375
1759066502.0867288,-0.66650390625,0.03564453125,0.74658203125,0.30517578125,0.3662109375,0.6103515625,2.79052734375,41.8304443359375,68.203125
1759066502.0971422,-0.66650390625,0.03564453125,0.74658203125,0.30517578125,0.3662109375,0.6103515625,2.7960205078125,41.8359375,68.2086181640625
1759066502.106716,-0.66650390625,0.03564453125,0.74658203125,1.40380859375,0.30517578125,0.48828125,2.8179931640625,41.8414306640625,68.2196044921875
1759066502.1168714,-0.666015625,0.0322265625,0.7431640625,1.40380859375,0.30517578125,0.48828125,2.83447265625,41.846923828125,68.22509765625
1759066502.1268153,-0.66552734375,0.0341796875,0.744140625,1.8310546875,0.30517578125,0.54931640625,2.8564453125,41.8524169921875,68.2305908203125
1759066502.1368089,-0.66552734375,0.0341796875,0.744140625,1.8310546875,0.30517578125,0.54931640625,2.87841796875,41.85791015625,68.236083984375
1759066502.1468015,-0.66748046875,0.0341796875,0.7431640625,2.25830078125,0.244140625,0.6103515625,2.9058837890625,41.8634033203125,68.2470703125
1759066502.1568224,-0.66748046875,0.0341796875,0.7431640625,2.25830078125,0.244140625,0.6103515625,2.933349609375,41.868896484375,68.2525634765625
1759066502.1667774,-0.666015625,0.0400390625,0.74267578125,2.13623046875,0.06103515625,0.67138671875,2.9608154296875,41.868896484375,68.2635498046875
1759066502.1768358,-0.666015625,0.0400390625,0.74267578125,2.13623046875,0.06103515625,0.67138671875,2.98828125,41.868896484375,68.26904296875
1759066502.1867836,-0.666015625,0.0361328125,0.744140625,2.86865234375,0.0,0.67138671875,3.021240234375,41.8743896484375,68.280029296875
1759066502.1970837,-0.666015625,0.0361328125,0.744140625,2.86865234375,0.0,0.67138671875,3.05419921875,41.8743896484375,68.2855224609375
1759066502.2068927,-0.6630859375,0.0732421875,0.74609375,1.77001953125,-0.06103515625,0.8544921875,3.076171875,41.8743896484375,68.302001953125
1759066502.2168891,-0.6630859375,0.0732421875,0.74609375,1.77001953125,-0.06103515625,0.8544921875,3.1036376953125,41.868896484375,68.31298828125
1759066502.2269213,-0.671875,0.0244140625,0.75146484375,0.54931640625,0.18310546875,1.15966796875,3.1201171875,41.8743896484375,68.3294677734375
1759066502.2370255,-0.671875,0.0244140625,0.75146484375,0.54931640625,0.18310546875,1.15966796875,3.1365966796875,41.8743896484375,68.345947265625
1759066502.2469969,-0.66796875,0.03759765625,0.73388671875,1.953125,0.18310546875,0.6103515625,3.1585693359375,41.8743896484375,68.3514404296875
1759066502.256902,-0.66796875,0.03759765625,0.73388671875,1.953125,0.18310546875,0.6103515625,3.18603515625,41.8798828125,68.3624267578125
1759066502.2671664,-0.6689453125,0.05078125,0.7412109375,2.3193359375,0.18310546875,0.54931640625,3.2135009765625,41.8798828125,68.367919921875
1759066502.2770143,-0.6689453125,0.05078125,0.7412109375,2.3193359375,0.18310546875,0.54931640625,3.240966796875,41.8853759765625,68.37890625
1759066502.287044,-0.6650390625,0.05615234375,0.75048828125,0.67138671875,0.30517578125,0.3662109375,3.251953125,41.8853759765625,68.3843994140625
1759066502.3006587,-0.6650390625,0.05615234375,0.75048828125,0.67138671875,0.30517578125,0.3662109375,3.2574462890625,41.890869140625,68.389892578125
1759066502.3075738,-0.6650390625,0.04736328125,0.74658203125,-0.67138671875,0.244140625,0.30517578125,3.2574462890625,41.890869140625,68.3953857421875
1759066502.317048,-0.6650390625,0.04736328125,0.74658203125,-0.67138671875,0.244140625,0.30517578125,3.251953125,41.890869140625,68.40087890625
1759066502.3318741,-0.6630859375,0.0380859375,0.74169921875,-0.06103515625,0.18310546875,0.30517578125,3.2574462890625,41.8963623046875,68.4063720703125
1759066502.3387434,-0.6630859375,0.0380859375,0.74169921875,-0.06103515625,0.18310546875,0.30517578125,3.262939453125,41.8963623046875,68.411865234375
1759066502.3470514,-0.666015625,0.03857421875,0.7421875,0.8544921875,0.1220703125,0.3662109375,3.27392578125,41.8963623046875,68.4173583984375
1759066502.357384,-0.666015625,0.03857421875,0.7421875,0.8544921875,0.1220703125,0.3662109375,3.284912109375,41.8963623046875,68.4228515625
1759066502.3675182,-0.666015625,0.04443359375,0.74365234375,1.64794921875,0.0,0.244140625,3.3013916015625,41.8963623046875,68.4228515625
1759066502.3773658,-0.666015625,0.04443359375,0.74365234375,1.64794921875,0.0,0.244140625,3.3233642578125,41.8963623046875,68.4283447265625
1759066502.3872697,-0.66796875,0.0458984375,0.74365234375,1.40380859375,-0.06103515625,0.244140625,3.33984375,41.8963623046875,68.433837890625
1759066502.3977294,-0.66796875,0.0458984375,0.74365234375,1.40380859375,-0.06103515625,0.244140625,3.3563232421875,41.890869140625,68.433837890625
1759066502.407067,-0.66943359375,0.0458984375,0.74072265625,1.8310546875,0.0,0.1220703125,3.372802734375,41.890869140625,68.4393310546875
1759066502.4176004,-0.66943359375,0.0458984375,0.74072265625,1.8310546875,0.0,0.1220703125,3.394775390625,41.890869140625,68.4393310546875
1759066502.4273598,-0.66650390625,0.03955078125,0.740234375,3.0517578125,0.0,-0.06103515625,3.4222412109375,41.890869140625,68.4393310546875
1759066502.4374983,-0.66650390625,0.03955078125,0.740234375,3.0517578125,0.0,-0.06103515625,3.44970703125,41.890869140625,68.4393310546875
1759066502.447187,-0.66455078125,0.0400390625,0.74560546875,4.150390625,0.06103515625,-0.18310546875,3.4881591796875,41.890869140625,68.4393310546875
1759066502.4575427,-0.66455078125,0.0400390625,0.74560546875,4.150390625,0.06103515625,-0.18310546875,3.526611328125,41.8963623046875,68.4393310546875
1759066502.4676237,-0.6650390625,0.04638671875,0.74365234375,4.45556640625,0.18310546875,-0.30517578125,3.570556640625,41.8963623046875,68.433837890625
1759066502.4775326,-0.6650390625,0.04638671875,0.74365234375,4.45556640625,0.18310546875,-0.30517578125,3.6090087890625,41.8963623046875,68.433837890625
1759066502.4877508,-0.66259765625,0.05029296875,0.74560546875,4.5166015625,0.244140625,-0.3662109375,3.6474609375,41.90185546875,68.4283447265625
1759066502.4977124,-0.66259765625,0.05029296875,0.74560546875,4.5166015625,0.244140625,-0.3662109375,3.69140625,41.90185546875,68.4228515625
1759066502.507207,-0.66064453125,0.0498046875,0.74755859375,5.18798828125,0.18310546875,-0.6103515625,3.7353515625,41.90185546875,68.4173583984375
1759066502.517821,-0.66064453125,0.0498046875,0.74755859375,5.18798828125,0.18310546875,-0.6103515625,3.779296875,41.90185546875,68.411865234375
1759066502.5278804,-0.662109375,0.044921875,0.7421875,7.01904296875,0.30517578125,-0.79345703125,3.8397216796875,41.9073486328125,68.40087890625
1759066502.5375605,-0.669921875,0.044921875,0.7353515625,9.33837890625,0.42724609375,-1.03759765625,3.9111328125,41.9073486328125,68.389892578125
1759066502.5473952,-0.669921875,0.044921875,0.7353515625,9.33837890625,0.42724609375,-1.03759765625,3.9935302734375,41.912841796875,68.37890625
1759066502.557628,-0.66943359375,0.04931640625,0.73486328125,11.29150390625,0.3662109375,-1.3427734375,4.0814208984375,41.9183349609375,68.3624267578125
1759066502.5678344,-0.66943359375,0.04931640625,0.73486328125,11.29150390625,0.3662109375,-1.3427734375,4.1802978515625,41.923828125,68.345947265625
1759066502.5776358,-0.66943359375,0.0546875,0.7373046875,12.87841796875,0.30517578125,-1.52587890625,4.28466796875,41.923828125,68.3294677734375
1759066502.5876758,-0.66943359375,0.0546875,0.7373046875,12.87841796875,0.30517578125,-1.52587890625,4.39453125,41.9293212890625,68.31298828125
1759066502.598535,-0.66796875,0.05908203125,0.7392578125,13.36669921875,0.18310546875,-1.46484375,4.5098876953125,41.934814453125,68.291015625
1759066502.6086328,-0.66796875,0.05908203125,0.7392578125,13.36669921875,0.18310546875,-1.46484375,4.625244140625,41.934814453125,68.2745361328125
1759066502.618541,-0.67138671875,0.0634765625,0.73681640625,13.12255859375,0.06103515625,-1.220703125,4.7406005859375,41.9403076171875,68.258056640625
1759066502.6278014,-0.67138671875,0.0634765625,0.73681640625,13.12255859375,0.06103515625,-1.220703125,4.85595703125,41.9403076171875,68.2415771484375
1759066502.637893,-0.67333984375,0.06689453125,0.73779296875,13.18359375,0.0,-1.220703125,4.9713134765625,41.94580078125,68.2305908203125
1759066502.6475728,-0.67333984375,0.06689453125,0.73779296875,13.18359375,0.0,-1.220703125,5.086669921875,41.94580078125,68.214111328125
1759066502.6578836,-0.6728515625,0.068359375,0.73486328125,13.0615234375,0.0,-1.220703125,5.2020263671875,41.94580078125,68.1976318359375
1759066502.6677608,-0.6728515625,0.068359375,0.73486328125,13.0615234375,0.0,-1.220703125,5.3173828125,41.9512939453125,68.18115234375
1759066502.6779072,-0.67431640625,0.07177734375,0.73681640625,12.20703125,0.0,-1.220703125,5.42724609375,41.9512939453125,68.1646728515625
1759066502.6877902,-0.67431640625,0.07177734375,0.73681640625,12.20703125,0.0,-1.220703125,5.5316162109375,41.9512939453125,68.1536865234375
1759066502.6983514,-0.6748046875,0.07568359375,0.740234375,10.31494140625,0.0,-1.0986328125,5.6304931640625,41.956787109375,68.13720703125
1759066502.7075336,-0.6748046875,0.07568359375,0.740234375,10.31494140625,0.0,-1.0986328125,5.7183837890625,41.956787109375,68.126220703125
1759066502.7182925,-0.677734375,0.07958984375,0.7333984375,8.11767578125,-0.1220703125,-0.91552734375,5.7952880859375,41.956787109375,68.1097412109375
1759066502.7281353,-0.677734375,0.07958984375,0.7333984375,8.11767578125,-0.1220703125,-0.91552734375,5.8612060546875,41.9622802734375,68.0987548828125
1759066502.7383482,-0.68408203125,0.08447265625,0.72802734375,5.9814453125,-0.244140625,-0.732421875,5.921630859375,41.9622802734375,68.0877685546875
1759066502.7476196,-0.68408203125,0.08447265625,0.72802734375,5.9814453125,-0.244140625,-0.732421875,5.9710693359375,41.9622802734375,68.082275390625
1759066502.7590628,-0.68212890625,0.08447265625,0.73095703125,4.638671875,-0.3662109375,-0.67138671875,6.009521484375,41.9622802734375,68.0712890625
1759066502.7679746,-0.68212890625,0.08447265625,0.73095703125,4.638671875,-0.3662109375,-0.67138671875,6.0479736328125,41.9622802734375,68.060302734375
1759066502.7779214,-0.67919921875,0.08203125,0.73095703125,3.96728515625,-0.42724609375,-0.67138671875,6.0809326171875,41.9622802734375,68.0548095703125
1759066502.787944,-0.67919921875,0.08203125,0.73095703125,3.96728515625,-0.42724609375,-0.67138671875,6.1138916015625,41.9622802734375,68.0438232421875
1759066502.798231,-0.67578125,0.0810546875,0.73193359375,3.72314453125,-0.48828125,-0.732421875,6.141357421875,41.9622802734375,68.0328369140625
1759066502.8075995,-0.67578125,0.0810546875,0.73193359375,3.72314453125,-0.48828125,-0.732421875,6.17431640625,41.9622802734375,68.02734375
1759066502.8179743,-0.6728515625,0.083984375,0.73388671875,3.60107421875,-0.54931640625,-0.79345703125,6.2017822265625,41.9622802734375,68.016357421875
1759066502.828384,-0.6728515625,0.083984375,0.73388671875,3.60107421875,-0.54931640625,-0.79345703125,6.2237548828125,41.956787109375,68.00537109375
1759066502.83794,-0.671875,0.08544921875,0.734375,3.5400390625,-0.67138671875,-0.9765625,6.251220703125,41.956787109375,67.9888916015625
1759066502.8477485,-0.671875,0.08544921875,0.734375,3.5400390625,-0.67138671875,-0.9765625,6.2786865234375,41.9512939453125,67.9779052734375
1759066502.8580363,-0.67578125,0.08984375,0.7353515625,4.08935546875,-0.6103515625,-1.15966796875,6.30615234375,41.9512939453125,67.96142578125
1759066502.8680754,-0.67578125,0.08984375,0.7353515625,4.08935546875,-0.6103515625,-1.15966796875,6.3336181640625,41.9512939453125,67.9449462890625
1759066502.8781002,-0.67333984375,0.0888671875,0.73583984375,4.45556640625,-0.48828125,-1.3427734375,6.361083984375,41.9512939453125,67.928466796875
1759066502.8878884,-0.67333984375,0.0888671875,0.73583984375,4.45556640625,-0.48828125,-1.3427734375,6.39404296875,41.94580078125,67.9119873046875
1759066502.8983078,-0.6708984375,0.08740234375,0.73828125,4.39453125,-0.3662109375,-1.40380859375,6.427001953125,41.94580078125,67.8955078125
1759066502.9077957,-0.6708984375,0.08740234375,0.73828125,4.39453125,-0.3662109375,-1.40380859375,6.4599609375,41.94580078125,67.87353515625
1759066502.918084,-0.6689453125,0.087890625,0.7392578125,4.33349609375,-0.3662109375,-1.5869140625,6.4874267578125,41.9512939453125,67.8570556640625
1759066502.928824,-0.6689453125,0.087890625,0.7392578125,4.33349609375,-0.3662109375,-1.5869140625,6.514892578125,41.9512939453125,67.8350830078125
1759066502.938066,-0.67041015625,0.0888671875,0.7373046875,3.60107421875,-0.42724609375,-1.5869140625,6.5423583984375,41.9512939453125,67.8131103515625
1759066502.9480476,-0.67041015625,0.0888671875,0.7373046875,3.60107421875,-0.42724609375,-1.5869140625,6.5643310546875,41.94580078125,67.7911376953125
1759066502.958154,-0.673828125,0.09326171875,0.73828125,2.74658203125,-0.42724609375,-1.5869140625,6.580810546875,41.94580078125,67.7691650390625
1759066502.9682205,-0.673828125,0.09326171875,0.73828125,2.74658203125,-0.42724609375,-1.5869140625,6.591796875,41.94580078125,67.7471923828125
1759066502.9782252,-0.673828125,0.099609375,0.73828125,0.79345703125,-0.42724609375,-1.46484375,6.5972900390625,41.94580078125,67.7252197265625
1759066502.9883068,-0.673828125,0.099609375,0.73828125,0.79345703125,-0.42724609375,-1.46484375,6.591796875,41.94580078125,67.708740234375
1759066502.9984252,-0.67626953125,0.0947265625,0.73583984375,-0.42724609375,-0.54931640625,-1.3427734375,6.580810546875,41.9403076171875,67.6922607421875
1759066503.0084934,-0.67626953125,0.0947265625,0.73583984375,-0.42724609375,-0.54931640625,-1.3427734375,6.56982421875,41.9403076171875,67.6702880859375
1759066503.0182076,-0.6767578125,0.08642578125,0.73291015625,-0.6103515625,-0.6103515625,-1.3427734375,6.5533447265625,41.9403076171875,67.65380859375
1759066503.0296881,-0.6767578125,0.08642578125,0.73291015625,-0.6103515625,-0.6103515625,-1.3427734375,6.536865234375,41.934814453125,67.6373291015625
1759066503.0382109,-0.67529296875,0.08251953125,0.7333984375,0.0,-0.54931640625,-1.28173828125,6.52587890625,41.934814453125,67.620849609375
1759066503.0490155,-0.67529296875,0.08251953125,0.7333984375,0.0,-0.54931640625,-1.28173828125,6.514892578125,41.9293212890625,67.6043701171875
1759066503.058276,-0.673828125,0.08837890625,0.7353515625,0.18310546875,-0.3662109375,-1.220703125,6.50390625,41.9293212890625,67.587890625
1759066503.068897,-0.673828125,0.08837890625,0.7353515625,0.18310546875,-0.3662109375,-1.220703125,6.4984130859375,41.9293212890625,67.5714111328125
1759066503.0783477,-0.673828125,0.087890625,0.73681640625,-0.30517578125,-0.244140625,-0.9765625,6.4874267578125,41.9293212890625,67.554931640625
1759066503.089429,-0.673828125,0.087890625,0.73681640625,-0.30517578125,-0.244140625,-0.9765625,6.4764404296875,41.934814453125,67.5439453125
1759066503.098516,-0.67578125,0.0888671875,0.73583984375,-0.8544921875,-0.18310546875,-0.79345703125,6.4654541015625,41.934814453125,67.532958984375
1759066503.1087234,-0.67578125,0.0888671875,0.73583984375,-0.8544921875,-0.18310546875,-0.79345703125,6.4544677734375,41.934814453125,67.52197265625
1759066503.1183698,-0.67919921875,0.0859375,0.732421875,-0.9765625,-0.18310546875,-0.67138671875,6.43798828125,41.934814453125,67.510986328125
1759066503.1303747,-0.67919921875,0.0859375,0.732421875,-0.9765625,-0.18310546875,-0.67138671875,6.427001953125,41.934814453125,67.5054931640625
1759066503.1383865,-0.67724609375,0.083984375,0.7333984375,-0.67138671875,-0.06103515625,-0.42724609375,6.416015625,41.9403076171875,67.4945068359375
1759066503.148196,-0.67724609375,0.083984375,0.7333984375,-0.67138671875,-0.06103515625,-0.42724609375,6.405029296875,41.9403076171875,67.489013671875
1759066503.1584523,-0.6748046875,0.083984375,0.734375,-0.1220703125,0.0,-0.30517578125,6.3995361328125,41.94580078125,67.4835205078125
1759066503.1683214,-0.6748046875,0.083984375,0.734375,-0.1220703125,0.0,-0.30517578125,6.3995361328125,41.94580078125,67.47802734375
1759066503.178502,-0.6748046875,0.08447265625,0.73291015625,0.3662109375,0.06103515625,-0.244140625,6.3995361328125,41.9512939453125,67.47802734375
1759066503.1881394,-0.6748046875,0.08447265625,0.73291015625,0.3662109375,0.06103515625,-0.244140625,6.405029296875,41.956787109375,67.4725341796875
1759066503.1988626,-0.67626953125,0.08447265625,0.73486328125,0.3662109375,0.244140625,-0.1220703125,6.4105224609375,41.956787109375,67.4725341796875
1759066503.2085612,-0.67626953125,0.08447265625,0.73486328125,0.3662109375,0.244140625,-0.1220703125,6.4105224609375,41.9622802734375,67.467041015625
1759066503.2181358,-0.67626953125,0.08447265625,0.7353515625,0.42724609375,0.3662109375,-0.06103515625,6.416015625,41.9677734375,67.467041015625
1759066503.2303646,-0.67626953125,0.08447265625,0.7353515625,0.42724609375,0.3662109375,-0.06103515625,6.4215087890625,41.978759765625,67.467041015625
1759066503.2383606,-0.673828125,0.0849609375,0.73681640625,0.8544921875,0.54931640625,-0.06103515625,6.4324951171875,41.9842529296875,67.467041015625
1759066503.248295,-0.673828125,0.0849609375,0.73681640625,0.8544921875,0.54931640625,-0.06103515625,6.43798828125,41.98974609375,67.467041015625
1759066503.2584279,-0.67041015625,0.087890625,0.7353515625,1.03759765625,0.54931640625,0.0,6.448974609375,42.000732421875,67.467041015625
1759066503.2683363,-0.67041015625,0.087890625,0.7353515625,1.03759765625,0.54931640625,0.0,6.4654541015625,42.0062255859375,67.467041015625
1759066503.2788763,-0.67138671875,0.08203125,0.732421875,1.77001953125,0.42724609375,0.0,6.4764404296875,42.01171875,67.467041015625
1759066503.2881842,-0.67138671875,0.08203125,0.732421875,1.77001953125,0.42724609375,0.0,6.4984130859375,42.022705078125,67.4725341796875
1759066503.2987254,-0.67138671875,0.0810546875,0.7353515625,2.685546875,0.3662109375,0.0,6.5203857421875,42.0281982421875,67.4725341796875
1759066503.3082974,-0.67138671875,0.0810546875,0.7353515625,2.685546875,0.3662109375,0.0,6.5478515625,42.03369140625,67.4725341796875
1759066503.3183188,-0.67138671875,0.0859375,0.736328125,3.2958984375,0.42724609375,0.06103515625,6.580810546875,42.0391845703125,67.4725341796875
1759066503.3299894,-0.67138671875,0.0859375,0.736328125,3.2958984375,0.42724609375,0.06103515625,6.61376953125,42.044677734375,67.47802734375
1759066503.3383348,-0.673828125,0.091796875,0.7333984375,3.2958984375,0.42724609375,0.0,6.646728515625,42.0501708984375,67.47802734375
1759066503.3482888,-0.673828125,0.091796875,0.7333984375,3.2958984375,0.42724609375,0.0,6.6796875,42.0556640625,67.4835205078125
1759066503.3586454,-0.67431640625,0.091796875,0.732421875,2.86865234375,0.30517578125,0.0,6.712646484375,42.0611572265625,67.4835205078125
1759066503.3684516,-0.67431640625,0.091796875,0.732421875,2.86865234375,0.30517578125,0.0,6.7401123046875,42.0611572265625,67.4835205078125
1759066503.3793836,-0.67138671875,0.08984375,0.73388671875,2.99072265625,0.18310546875,-0.18310546875,6.767578125,42.066650390625,67.4835205078125
1759066503.3884077,-0.67138671875,0.08984375,0.73388671875,2.99072265625,0.18310546875,-0.18310546875,6.7950439453125,42.0721435546875,67.47802734375
1759066503.3994641,-0.671875,0.08984375,0.73583984375,3.47900390625,0.1220703125,-0.30517578125,6.8280029296875,42.0721435546875,67.47802734375
1759066503.408437,-0.671875,0.08984375,0.73583984375,3.47900390625,0.1220703125,-0.30517578125,6.8609619140625,42.07763671875,67.4725341796875
1759066503.4191723,-0.6669921875,0.091796875,0.73583984375,3.72314453125,0.0,-0.30517578125,6.8939208984375,42.07763671875,67.467041015625
1759066503.4299817,-0.6669921875,0.091796875,0.73583984375,3.72314453125,0.0,-0.30517578125,6.9268798828125,42.0831298828125,67.467041015625
1759066503.4389086,-0.66748046875,0.0966796875,0.74072265625,3.0517578125,0.0,-0.42724609375,6.954345703125,42.0831298828125,67.4615478515625
1759066503.448588,-0.66748046875,0.0966796875,0.74072265625,3.0517578125,0.0,-0.42724609375,6.9818115234375,42.0831298828125,67.4560546875
1759066503.4591854,-0.66796875,0.09716796875,0.74169921875,2.0751953125,-0.1220703125,-0.42724609375,7.0037841796875,42.0831298828125,67.4505615234375
1759066503.4686189,-0.66796875,0.09716796875,0.74169921875,2.0751953125,-0.1220703125,-0.42724609375,7.020263671875,42.0831298828125,67.445068359375
1759066503.4787827,-0.66845703125,0.0986328125,0.740234375,0.79345703125,-0.18310546875,-0.48828125,7.03125,42.0831298828125,67.4395751953125
1759066503.4888663,-0.66845703125,0.0986328125,0.740234375,0.79345703125,-0.18310546875,-0.48828125,7.0367431640625,42.07763671875,67.43408203125
1759066503.5007236,-0.669921875,0.09814453125,0.736328125,-0.18310546875,-0.244140625,-0.6103515625,7.0367431640625,42.07763671875,67.4285888671875
1759066503.5097923,-0.669921875,0.09814453125,0.736328125,-0.18310546875,-0.244140625,-0.6103515625,7.0257568359375,42.07763671875,67.4176025390625
1759066503.5185943,-0.66943359375,0.09228515625,0.73681640625,-0.18310546875,-0.30517578125,-0.67138671875,7.020263671875,42.0721435546875,67.412109375
1759066503.5298405,-0.66943359375,0.09228515625,0.73681640625,-0.18310546875,-0.30517578125,-0.67138671875,7.0147705078125,42.0721435546875,67.401123046875
1759066503.5385885,-0.66943359375,0.08837890625,0.7373046875,0.30517578125,-0.30517578125,-0.732421875,7.00927734375,42.066650390625,67.39013671875
1759066503.549472,-0.66943359375,0.08837890625,0.7373046875,0.30517578125,-0.30517578125,-0.732421875,7.00927734375,42.066650390625,67.379150390625
1759066503.559,-0.66796875,0.0869140625,0.73583984375,0.67138671875,-0.244140625,-0.732421875,7.00927734375,42.066650390625,67.3736572265625
1759066503.568747,-0.66796875,0.0869140625,0.73583984375,0.67138671875,-0.244140625,-0.732421875,7.00927734375,42.0611572265625,67.3626708984375
1759066503.5785894,-0.669921875,0.091796875,0.7373046875,0.732421875,-0.244140625,-0.67138671875,7.00927734375,42.0611572265625,67.3516845703125
1759066503.5885851,-0.669921875,0.091796875,0.7373046875,0.732421875,-0.244140625,-0.67138671875,7.00927734375,42.0611572265625,67.3406982421875
1759066503.5992448,-0.6728515625,0.095703125,0.732421875,0.18310546875,-0.30517578125,-0.6103515625,7.00927734375,42.0556640625,67.335205078125
1759066503.6087167,-0.6728515625,0.095703125,0.732421875,0.18310546875,-0.30517578125,-0.6103515625,7.0037841796875,42.0556640625,67.32421875
1759066503.6186917,-0.67529296875,0.091796875,0.7353515625,0.18310546875,-0.30517578125,-0.6103515625,7.0037841796875,42.0556640625,67.313232421875
1759066503.6294909,-0.67529296875,0.091796875,0.7353515625,0.18310546875,-0.30517578125,-0.6103515625,6.998291015625,42.0501708984375,67.3077392578125
1759066503.638717,-0.67431640625,0.08740234375,0.734375,0.6103515625,-0.244140625,-0.54931640625,6.998291015625,42.0501708984375,67.2967529296875
1759066503.6487408,-0.67431640625,0.08740234375,0.734375,0.6103515625,-0.244140625,-0.54931640625,7.0037841796875,42.0501708984375,67.291259765625
1759066503.6590078,-0.67236328125,0.08984375,0.73388671875,1.5869140625,-0.06103515625,-0.48828125,7.0147705078125,42.0501708984375,67.2857666015625
1759066503.6703608,-0.67236328125,0.08984375,0.73388671875,1.5869140625,-0.06103515625,-0.48828125,7.0257568359375,42.0501708984375,67.2747802734375
1759066503.6787064,-0.669921875,0.09326171875,0.7392578125,2.3193359375,0.0,-0.48828125,7.042236328125,42.0501708984375,67.269287109375
1759066503.6897824,-0.669921875,0.09326171875,0.7392578125,2.3193359375,0.0,-0.48828125,7.064208984375,42.0556640625,67.2637939453125
1759066503.6995096,-0.67138671875,0.09619140625,0.7373046875,2.62451171875,0.06103515625,-0.48828125,7.086181640625,42.0556640625,67.25830078125
1759066503.708795,-0.67138671875,0.09619140625,0.7373046875,2.62451171875,0.06103515625,-0.48828125,7.108154296875,42.0556640625,67.2528076171875
1759066503.7191384,-0.66943359375,0.09765625,0.7373046875,2.685546875,0.1220703125,-0.6103515625,7.130126953125,42.0611572265625,67.2418212890625
1759066503.7296317,-0.66943359375,0.09765625,0.7373046875,2.685546875,0.1220703125,-0.6103515625,7.152099609375,42.0611572265625,67.236328125
1759066503.7388468,-0.66650390625,0.10107421875,0.7392578125,1.77001953125,0.18310546875,-0.67138671875,7.1630859375,42.066650390625,67.225341796875
1759066503.7490864,-0.66650390625,0.10107421875,0.7392578125,1.77001953125,0.18310546875,-0.67138671875,7.174072265625,42.066650390625,67.2198486328125
1759066503.7592146,-0.66357421875,0.099609375,0.7431640625,0.8544921875,0.18310546875,-0.6103515625,7.1795654296875,42.0721435546875,67.21435546875
1759066503.7721882,-0.66357421875,0.099609375,0.7431640625,0.8544921875,0.18310546875,-0.6103515625,7.18505859375,42.0721435546875,67.203369140625
1759066503.7793314,-0.6650390625,0.0927734375,0.73974609375,0.0,0.06103515625,-0.42724609375,7.18505859375,42.0721435546875,67.1978759765625
1759066503.7960136,-0.6650390625,0.0927734375,0.73974609375,0.0,0.06103515625,-0.42724609375,7.1795654296875,42.0721435546875,67.1923828125
1759066503.8025935,-0.67041015625,0.08984375,0.734375,0.1220703125,0.06103515625,-0.48828125,7.1795654296875,42.0721435546875,67.1868896484375
1759066503.8089974,-0.67041015625,0.08984375,0.734375,0.1220703125,0.06103515625,-0.48828125,7.174072265625,42.0721435546875,67.181396484375
1759066503.818917,-0.66650390625,0.09375,0.73291015625,1.15966796875,0.0,-0.6103515625,7.1795654296875,42.0721435546875,67.1759033203125
1759066503.832685,-0.66650390625,0.09375,0.73291015625,1.15966796875,0.0,-0.6103515625,7.1905517578125,42.0721435546875,67.1649169921875
1759066503.8393147,-0.66796875,0.09521484375,0.7392578125,1.953125,0.06103515625,-0.732421875,7.2015380859375,42.0721435546875,67.159423828125
1759066503.8490877,-0.66796875,0.09521484375,0.7392578125,1.953125,0.06103515625,-0.732421875,7.218017578125,42.0721435546875,67.1484375
1759066503.8597806,-0.669921875,0.09375,0.73681640625,2.197265625,0.06103515625,-0.67138671875,7.2344970703125,42.07763671875,67.1429443359375
1759066503.8691194,-0.669921875,0.09375,0.73681640625,2.197265625,0.06103515625,-0.67138671875,7.2454833984375,42.07763671875,67.1319580078125
1759066503.8790393,-0.6767578125,0.0947265625,0.73193359375,2.50244140625,0.06103515625,-0.54931640625,7.2674560546875,42.07763671875,67.12646484375
1759066503.889105,-0.6767578125,0.0947265625,0.73193359375,2.50244140625,0.06103515625,-0.54931640625,7.2894287109375,42.07763671875,67.1209716796875
1759066503.8992267,-0.6787109375,0.0947265625,0.732421875,3.11279296875,0.1220703125,-0.6103515625,7.31689453125,42.0831298828125,67.1099853515625
1759066503.9091132,-0.6787109375,0.0947265625,0.732421875,3.11279296875,0.1220703125,-0.6103515625,7.3388671875,42.0831298828125,67.1044921875
1759066503.9190588,-0.6767578125,0.09814453125,0.73095703125,3.23486328125,0.18310546875,-0.67138671875,7.3663330078125,42.088623046875,67.093505859375
1759066503.929179,-0.6767578125,0.09814453125,0.73095703125,3.23486328125,0.18310546875,-0.67138671875,7.393798828125,42.088623046875,67.0880126953125
1759066503.9391503,-0.6748046875,0.1015625,0.734375,2.86865234375,0.18310546875,-0.732421875,7.415771484375,42.0941162109375,67.0770263671875
1759066503.9492288,-0.6748046875,0.1015625,0.734375,2.86865234375,0.18310546875,-0.732421875,7.437744140625,42.099609375,67.0660400390625
1759066503.959695,-0.67529296875,0.09814453125,0.7353515625,1.89208984375,0.18310546875,-0.67138671875,7.44873046875,42.099609375,67.060546875
1759066503.969291,-0.67529296875,0.09814453125,0.7353515625,1.89208984375,0.18310546875,-0.67138671875,7.4652099609375,42.1051025390625,67.049560546875
1759066503.979178,-0.67431640625,0.09912109375,0.73046875,0.67138671875,0.18310546875,-0.732421875,7.4652099609375,42.110595703125,67.03857421875
1759066503.9891925,-0.67431640625,0.09912109375,0.73046875,0.67138671875,0.18310546875,-0.732421875,7.4652099609375,42.110595703125,67.027587890625
1759066503.999377,-0.67578125,0.1015625,0.73583984375,-0.1220703125,0.06103515625,-0.732421875,7.459716796875,42.1160888671875,67.0220947265625
1759066504.00932,-0.67578125,0.1015625,0.73583984375,-0.1220703125,0.06103515625,-0.732421875,7.4542236328125,42.1160888671875,67.0111083984375
1759066504.0192842,-0.67041015625,0.1025390625,0.73779296875,-3.11279296875,0.0,-0.6103515625,7.415771484375,42.12158203125,67.0001220703125
1759066504.0293868,-0.67041015625,0.1025390625,0.73779296875,-3.11279296875,0.0,-0.6103515625,7.3828125,42.12158203125,66.99462890625
1759066504.0393126,-0.67138671875,0.09619140625,0.7255859375,-1.5869140625,-0.18310546875,-0.42724609375,7.36083984375,42.12158203125,66.9891357421875
1759066504.0493586,-0.67138671875,0.09619140625,0.7255859375,-1.5869140625,-0.18310546875,-0.42724609375,7.3443603515625,42.12158203125,66.983642578125
1759066504.059859,-0.67431640625,0.0927734375,0.73779296875,-1.77001953125,-0.244140625,-0.30517578125,7.327880859375,42.1160888671875,66.9781494140625
1759066504.0693302,-0.67431640625,0.0927734375,0.73779296875,-1.77001953125,-0.244140625,-0.30517578125,7.305908203125,42.1160888671875,66.97265625
1759066504.0792763,-0.6748046875,0.0947265625,0.7373046875,-1.8310546875,-0.1220703125,-0.30517578125,7.283935546875,42.1160888671875,66.9671630859375
1759066504.0893154,-0.6748046875,0.0947265625,0.7373046875,-1.8310546875,-0.1220703125,-0.30517578125,7.2674560546875,42.1160888671875,66.961669921875
1759066504.1008978,-0.67041015625,0.09521484375,0.73291015625,-1.77001953125,-0.1220703125,-0.3662109375,7.2454833984375,42.1160888671875,66.9561767578125
1759066504.1094415,-0.67041015625,0.09521484375,0.73291015625,-1.77001953125,-0.1220703125,-0.3662109375,7.22900390625,42.1160888671875,66.95068359375
1759066504.1194732,-0.6708984375,0.09521484375,0.73583984375,-2.13623046875,-0.1220703125,-0.30517578125,7.20703125,42.1160888671875,66.95068359375
1759066504.13006,-0.6708984375,0.09521484375,0.73583984375,-2.13623046875,-0.1220703125,-0.30517578125,7.1795654296875,42.1160888671875,66.9451904296875
1759066504.1393564,-0.67529296875,0.09375,0.732421875,-2.0751953125,-0.18310546875,-0.244140625,7.1630859375,42.1160888671875,66.939697265625
1759066504.1494012,-0.67529296875,0.09375,0.732421875,-2.0751953125,-0.18310546875,-0.244140625,7.14111328125,42.1160888671875,66.939697265625
1759066504.159777,-0.67822265625,0.0927734375,0.73046875,-0.8544921875,0.0,-0.3662109375,7.130126953125,42.1160888671875,66.9342041015625
1759066504.1694949,-0.67822265625,0.0927734375,0.73046875,-0.8544921875,0.0,-0.3662109375,7.119140625,42.12158203125,66.9287109375
1759066504.1795104,-0.67724609375,0.09326171875,0.732421875,-0.06103515625,0.0,-0.42724609375,7.1136474609375,42.12158203125,66.9232177734375
1759066504.189409,-0.67724609375,0.09326171875,0.732421875,-0.06103515625,0.0,-0.42724609375,7.1136474609375,42.12158203125,66.917724609375
1759066504.1996179,-0.671875,0.09521484375,0.73486328125,-0.732421875,0.0,-0.42724609375,7.1026611328125,42.1270751953125,66.9122314453125
1759066504.2094784,-0.671875,0.09521484375,0.73486328125,-0.732421875,0.0,-0.42724609375,7.0916748046875,42.1270751953125,66.90673828125
1759066504.2195113,-0.67236328125,0.09326171875,0.7353515625,-1.52587890625,0.0,-0.30517578125,7.0806884765625,42.1270751953125,66.90673828125
1759066504.2295518,-0.67236328125,0.09326171875,0.7353515625,-1.52587890625,0.0,-0.30517578125,7.064208984375,42.132568359375,66.9012451171875
1759066504.2394588,-0.67236328125,0.0927734375,0.73388671875,-1.953125,-0.1220703125,-0.1220703125,7.042236328125,42.132568359375,66.895751953125
1759066504.249495,-0.67236328125,0.0927734375,0.73388671875,-1.953125,-0.1220703125,-0.1220703125,7.0257568359375,42.132568359375,66.895751953125
1759066504.2598763,-0.67138671875,0.09228515625,0.7353515625,-2.62451171875,-0.244140625,0.0,6.998291015625,42.1270751953125,66.895751953125
1759066504.2695165,-0.67138671875,0.09228515625,0.7353515625,-2.62451171875,-0.244140625,0.0,6.976318359375,42.1270751953125,66.895751953125
1759066504.2794828,-0.66748046875,0.08935546875,0.734375,-2.13623046875,-0.3662109375,0.0,6.954345703125,42.1270751953125,66.895751953125
1759066504.289509,-0.66748046875,0.08935546875,0.734375,-2.13623046875,-0.3662109375,0.0,6.932373046875,42.12158203125,66.895751953125
1759066504.299607,-0.67138671875,0.08642578125,0.73583984375,-1.28173828125,-0.42724609375,0.0,6.92138671875,42.1160888671875,66.895751953125
1759066504.309559,-0.67138671875,0.08642578125,0.73583984375,-1.28173828125,-0.42724609375,0.0,6.910400390625,42.1160888671875,66.895751953125
1759066504.319669,-0.669921875,0.0888671875,0.73583984375,-0.1220703125,-0.30517578125,-0.06103515625,6.910400390625,42.110595703125,66.895751953125
1759066504.3296785,-0.669921875,0.0888671875,0.73583984375,-0.1220703125,-0.30517578125,-0.06103515625,6.910400390625,42.110595703125,66.895751953125
1759066504.3396492,-0.669921875,0.08984375,0.73876953125,-0.6103515625,-0.244140625,-0.18310546875,6.8994140625,42.110595703125,66.8902587890625
1759066504.349684,-0.669921875,0.08984375,0.73876953125,-0.6103515625,-0.244140625,-0.18310546875,6.8939208984375,42.1051025390625,66.884765625
1759066504.36,-0.66943359375,0.091796875,0.73291015625,-0.8544921875,-0.1220703125,-0.30517578125,6.8829345703125,42.1051025390625,66.884765625
1759066504.3696804,-0.66943359375,0.091796875,0.73291015625,-0.8544921875,-0.1220703125,-0.30517578125,6.8719482421875,42.1051025390625,66.8792724609375
1759066504.3795993,-0.669921875,0.0908203125,0.732421875,-0.732421875,-0.1220703125,-0.42724609375,6.866455078125,42.1051025390625,66.873779296875
1759066504.389663,-0.669921875,0.0908203125,0.732421875,-0.732421875,-0.1220703125,-0.42724609375,6.85546875,42.1051025390625,66.8682861328125
1759066504.40094,-0.67041015625,0.08740234375,0.73779296875,-0.54931640625,-0.1220703125,-0.42724609375,6.844482421875,42.1051025390625,66.86279296875
1759066504.4096737,-0.67041015625,0.08740234375,0.73779296875,-0.54931640625,-0.1220703125,-0.42724609375,6.8389892578125,42.1051025390625,66.851806640625
1759066504.4198115,-0.6728515625,0.08740234375,0.7353515625,-0.67138671875,-0.18310546875,-0.30517578125,6.8280029296875,42.1051025390625,66.8463134765625
1759066504.4298007,-0.6728515625,0.08740234375,0.7353515625,-0.67138671875,-0.18310546875,-0.30517578125,6.8170166015625,42.1051025390625,66.8463134765625
1759066504.4397585,-0.67529296875,0.08642578125,0.73486328125,-1.0986328125,-0.18310546875,-0.244140625,6.8060302734375,42.099609375,66.8408203125
1759066504.4497797,-0.67529296875,0.08642578125,0.73486328125,-1.0986328125,-0.18310546875,-0.244140625,6.7950439453125,42.099609375,66.8353271484375
1759066504.4600234,-0.6748046875,0.09130859375,0.732421875,-1.708984375,-0.18310546875,-0.244140625,6.778564453125,42.099609375,66.829833984375
1759066504.469791,-0.6748046875,0.09130859375,0.732421875,-1.708984375,-0.18310546875,-0.244140625,6.756591796875,42.099609375,66.829833984375
1759066504.4797554,-0.67333984375,0.08984375,0.7333984375,-1.953125,-0.18310546875,-0.244140625,6.734619140625,42.099609375,66.8243408203125
1759066504.489773,-0.67333984375,0.08984375,0.7333984375,-1.953125,-0.18310546875,-0.244140625,6.7181396484375,42.099609375,66.81884765625
1759066504.5000992,-0.669921875,0.08642578125,0.73583984375,-1.953125,-0.244140625,-0.18310546875,6.6961669921875,42.099609375,66.8133544921875
1759066504.5098002,-0.669921875,0.08642578125,0.73583984375,-1.953125,-0.244140625,-0.18310546875,6.6741943359375,42.0941162109375,66.8133544921875
1759066504.519819,-0.66552734375,0.08251953125,0.7392578125,-2.13623046875,-0.3662109375,-0.06103515625,6.65771484375,42.0941162109375,66.807861328125
1759066504.5298426,-0.66552734375,0.08251953125,0.7392578125,-2.13623046875,-0.3662109375,-0.06103515625,6.6357421875,42.088623046875,66.807861328125
1759066504.5397794,-0.6650390625,0.08154296875,0.74267578125,-2.13623046875,-0.3662109375,0.0,6.61376953125,42.088623046875,66.807861328125
1759066504.5498397,-0.6650390625,0.08154296875,0.74267578125,-2.13623046875,-0.3662109375,0.0,6.591796875,42.0831298828125,66.8023681640625
1759066504.5600622,-0.671875,0.0810546875,0.73779296875,-1.52587890625,-0.30517578125,0.1220703125,6.580810546875,42.07763671875,66.8023681640625
1759066504.5698867,-0.671875,0.0810546875,0.73779296875,-1.52587890625,-0.30517578125,0.1220703125,6.5643310546875,42.07763671875,66.8023681640625
1759066504.5798695,-0.6728515625,0.08349609375,0.73046875,-0.67138671875,-0.244140625,0.0,6.558837890625,42.0721435546875,66.8023681640625
1759066504.5898883,-0.666015625,0.08251953125,0.7412109375,-0.244140625,-0.18310546875,0.0,6.5533447265625,42.0721435546875,66.8023681640625
1759066504.5999339,-0.666015625,0.08251953125,0.7412109375,-0.244140625,-0.18310546875,0.0,6.5533447265625,42.0721435546875,66.8023681640625
1759066504.609894,-0.66552734375,0.08642578125,0.744140625,-0.1220703125,0.0,-0.06103515625,6.5478515625,42.0721435546875,66.796875
1759066504.6198902,-0.66552734375,0.08642578125,0.744140625,-0.1220703125,0.0,-0.06103515625,6.5478515625,42.0721435546875,66.796875
1759066504.6299925,-0.66259765625,0.08349609375,0.73876953125,-0.30517578125,-0.1220703125,0.0,6.5423583984375,42.066650390625,66.796875
