timestamp,acc_x,acc_y,acc_z,gyro_x,gyro_y,gyro_z,angle_x,angle_y,angle_z
1758876695.3565476,-0.75439453125,-0.01318359375,0.64111328125,5.4931640625,1.89208984375,-1.89208984375,0.6591796875,48.878173828125,-174.561767578125
1758876695.3667893,-0.74658203125,-0.0009765625,0.6552734375,4.08935546875,2.01416015625,-1.46484375,0.6866455078125,48.900146484375,-174.5892333984375
1758876695.3767953,-0.74658203125,-0.0009765625,0.6552734375,4.08935546875,2.01416015625,-1.46484375,0.703125,48.922119140625,-174.6112060546875
1758876695.3876414,-0.7451171875,0.02099609375,0.67333984375,1.5869140625,2.197265625,-1.0986328125,0.714111328125,48.944091796875,-174.638671875
1758876695.396538,-0.7451171875,0.02099609375,0.67333984375,1.5869140625,2.197265625,-1.0986328125,0.714111328125,48.966064453125,-174.66064453125
1758876695.4062607,-0.74853515625,0.02392578125,0.6728515625,-1.3427734375,2.25830078125,-0.91552734375,0.703125,48.988037109375,-174.6826171875
1758876695.4162457,-0.74853515625,0.02392578125,0.6728515625,-1.3427734375,2.25830078125,-0.91552734375,0.68115234375,49.010009765625,-174.70458984375
1758876695.4267786,-0.75634765625,0.01318359375,0.6611328125,-3.173828125,2.38037109375,-1.03759765625,0.648193359375,49.031982421875,-174.7265625
1758876695.4359508,-0.75634765625,0.01318359375,0.6611328125,-3.173828125,2.38037109375,-1.03759765625,0.604248046875,49.053955078125,-174.7430419921875
1758876695.445968,-0.75634765625,0.01318359375,0.6611328125,-2.01416015625,2.38037109375,-1.40380859375,0.5657958984375,49.075927734375,-174.7705078125
1758876695.4559999,-0.7626953125,0.0009765625,0.64453125,-2.01416015625,2.38037109375,-1.40380859375,0.52734375,49.097900390625,-174.7979736328125
1758876695.4659986,-0.75830078125,-0.00390625,0.63525390625,-0.1220703125,2.3193359375,-1.8310546875,0.4998779296875,49.119873046875,-174.825439453125
1758876695.4761448,-0.75830078125,-0.00390625,0.63525390625,-0.1220703125,2.3193359375,-1.8310546875,0.4779052734375,49.141845703125,-174.8583984375
1758876695.4860702,-0.75244140625,0.0009765625,0.64794921875,1.40380859375,2.13623046875,-2.25830078125,0.46142578125,49.163818359375,-174.8968505859375
1758876695.4961333,-0.75244140625,0.0009765625,0.64794921875,1.40380859375,2.13623046875,-2.25830078125,0.450439453125,49.185791015625,-174.935302734375
1758876695.5061352,-0.7509765625,0.00732421875,0.66455078125,2.13623046875,1.8310546875,-2.50244140625,0.439453125,49.2022705078125,-174.9737548828125
1758876695.5161083,-0.7509765625,0.00732421875,0.66455078125,2.13623046875,1.8310546875,-2.50244140625,0.4339599609375,49.2242431640625,-175.0177001953125
1758876695.5261555,-0.7490234375,0.00927734375,0.66357421875,1.708984375,1.46484375,-2.62451171875,0.4229736328125,49.2352294921875,-175.0616455078125
1758876695.5361786,-0.7490234375,0.00927734375,0.66357421875,1.708984375,1.46484375,-2.62451171875,0.406494140625,49.251708984375,-175.111083984375
1758876695.5461295,-0.75,0.00439453125,0.65625,0.732421875,1.15966796875,-2.74658203125,0.3900146484375,49.2626953125,-175.155029296875
1758876695.5561495,-0.75,0.00439453125,0.65625,0.732421875,1.15966796875,-2.74658203125,0.3680419921875,49.273681640625,-175.2044677734375
1758876695.5661795,-0.76025390625,0.00390625,0.6484375,-0.06103515625,0.732421875,-2.86865234375,0.340576171875,49.2791748046875,-175.2484130859375
1758876695.5761814,-0.76025390625,0.00390625,0.6484375,-0.06103515625,0.732421875,-2.86865234375,0.3076171875,49.28466796875,-175.2978515625
1758876695.5861793,-0.767578125,0.00244140625,0.6376953125,0.48828125,0.3662109375,-3.0517578125,0.274658203125,49.2901611328125,-175.352783203125
1758876695.596211,-0.767578125,0.00244140625,0.6376953125,0.48828125,0.3662109375,-3.0517578125,0.2471923828125,49.2901611328125,-175.4022216796875
1758876695.60621,-0.765625,0.0,0.63232421875,0.79345703125,0.0,-3.2958984375,0.2142333984375,49.295654296875,-175.45166015625
1758876695.6162205,-0.765625,0.0,0.63232421875,0.79345703125,0.0,-3.2958984375,0.186767578125,49.295654296875,-175.506591796875
1758876695.6262424,-0.7626953125,0.00146484375,0.64306640625,0.3662109375,-0.06103515625,-3.47900390625,0.15380859375,49.295654296875,-175.5615234375
1758876695.63627,-0.7626953125,0.00146484375,0.64306640625,0.3662109375,-0.06103515625,-3.47900390625,0.1153564453125,49.295654296875,-175.616455078125
1758876695.6462793,-0.755859375,0.0009765625,0.658203125,-0.3662109375,-0.06103515625,-3.7841796875,0.076904296875,49.295654296875,-175.6768798828125
1758876695.6563306,-0.755859375,0.0009765625,0.658203125,-0.3662109375,-0.06103515625,-3.7841796875,0.032958984375,49.295654296875,-175.7373046875
1758876695.6662853,-0.75244140625,0.00634765625,0.66259765625,0.0,0.0,-3.96728515625,-0.010986328125,49.295654296875,-175.7977294921875
1758876695.6763153,-0.75244140625,0.00634765625,0.66259765625,0.0,0.0,-3.96728515625,-0.054931640625,49.295654296875,-175.8636474609375
1758876695.6863494,-0.76220703125,-0.0009765625,0.65966796875,1.15966796875,0.1220703125,-4.0283203125,-0.0933837890625,49.3011474609375,-175.924072265625
1758876695.696357,-0.76220703125,-0.0009765625,0.65966796875,1.15966796875,0.1220703125,-4.0283203125,-0.1263427734375,49.3011474609375,-175.989990234375
1758876695.7063544,-0.7578125,-0.015625,0.63134765625,1.953125,0.1220703125,-4.0283203125,-0.15380859375,49.3011474609375,-176.055908203125
1758876695.7163782,-0.7578125,-0.015625,0.63134765625,1.953125,0.1220703125,-4.0283203125,-0.1812744140625,49.3011474609375,-176.121826171875
1758876695.726392,-0.7490234375,-0.01513671875,0.64794921875,3.2958984375,0.3662109375,-3.96728515625,-0.19775390625,49.306640625,-176.187744140625
1758876695.7364078,-0.7490234375,-0.01513671875,0.64794921875,3.2958984375,0.3662109375,-3.96728515625,-0.2142333984375,49.306640625,-176.253662109375
1758876695.7464304,-0.7294921875,-0.01318359375,0.68603515625,4.7607421875,0.3662109375,-3.7841796875,-0.2197265625,49.3121337890625,-176.319580078125
1758876695.7564347,-0.7294921875,-0.01318359375,0.68603515625,4.7607421875,0.3662109375,-3.7841796875,-0.2142333984375,49.3121337890625,-176.3800048828125
1758876695.7664459,-0.71923828125,-0.001953125,0.69189453125,4.39453125,-0.30517578125,-3.35693359375,-0.2142333984375,49.3121337890625,-176.4404296875
1758876695.7764628,-0.71923828125,-0.001953125,0.69189453125,4.39453125,-0.30517578125,-3.35693359375,-0.208740234375,49.306640625,-176.5008544921875
1758876695.7864742,-0.70556640625,0.01220703125,0.701171875,-6.40869140625,-0.732421875,-2.38037109375,-0.252685546875,49.2901611328125,-176.5557861328125
1758876695.7964957,-0.70556640625,0.01220703125,0.701171875,-6.40869140625,-0.732421875,-2.38037109375,-0.3460693359375,49.2791748046875,-176.605224609375
1758876695.8064966,-0.70458984375,0.05029296875,0.7685546875,-20.81298828125,-1.03759765625,-1.708984375,-0.4998779296875,49.2572021484375,-176.6546630859375
1758876695.8165104,-0.70458984375,0.05029296875,0.7685546875,-20.81298828125,-1.03759765625,-1.708984375,-0.72509765625,49.2352294921875,-176.693115234375
1758876695.826531,-0.681640625,0.06103515625,0.806640625,-25.0244140625,-2.01416015625,-2.0751953125,-0.966796875,49.2022705078125,-176.737060546875
1758876695.8365378,-0.681640625,0.06103515625,0.806640625,-25.0244140625,-2.01416015625,-2.0751953125,-1.2249755859375,49.163818359375,-176.7864990234375
1758876695.8465776,-0.6416015625,0.01318359375,0.7822265625,-26.79443359375,-3.5400390625,-2.3193359375,-1.494140625,49.1143798828125,-176.8414306640625
1758876695.856768,-0.6416015625,0.01318359375,0.7822265625,-26.79443359375,-3.5400390625,-2.3193359375,-1.768798828125,49.0484619140625,-176.8963623046875
1758876695.8669548,-0.5791015625,-0.01806640625,0.83349609375,-38.39111328125,-4.5166015625,-2.44140625,-2.098388671875,48.97705078125,-176.956787109375
1758876695.876772,-0.5791015625,-0.01806640625,0.83349609375,-38.39111328125,-4.5166015625,-2.44140625,-2.4884033203125,48.900146484375,-177.022705078125
1758876695.8866634,-0.5634765625,-0.0126953125,0.849609375,-47.79052734375,-4.8828125,-2.62451171875,-2.9278564453125,48.812255859375,-177.099609375
1758876695.8968284,-0.5634765625,-0.0126953125,0.849609375,-47.79052734375,-4.8828125,-2.62451171875,-3.4112548828125,48.71337890625,-177.176513671875
1758876695.9067218,-0.5302734375,-0.02001953125,0.74755859375,-51.6357421875,-4.69970703125,-2.8076171875,-3.9166259765625,48.6199951171875,-177.2589111328125
1758876695.916803,-0.5302734375,-0.02001953125,0.74755859375,-51.6357421875,-4.69970703125,-2.8076171875,-4.4329833984375,48.515625,-177.3468017578125
1758876695.9266832,-0.52783203125,-0.04541015625,0.630859375,-44.921875,-3.41796875,-3.60107421875,-4.8944091796875,48.427734375,-177.4456787109375
1758876695.9368277,-0.52783203125,-0.04541015625,0.630859375,-44.921875,-3.41796875,-3.60107421875,-5.3558349609375,48.33984375,-177.5445556640625
1758876695.9467292,-0.6455078125,-0.1123046875,0.681640625,-17.08984375,-2.50244140625,-4.39453125,-5.548095703125,48.262939453125,-177.64892578125
1758876695.9572496,-0.6455078125,-0.1123046875,0.681640625,-17.08984375,-2.50244140625,-4.39453125,-5.745849609375,48.18603515625,-177.7587890625
1758876695.966864,-1.01708984375,-0.185546875,0.97705078125,17.51708984375,-5.0048828125,-6.28662109375,-5.6195068359375,48.0926513671875,-177.8851318359375
1758876695.9770682,-1.01708984375,-0.185546875,0.97705078125,17.51708984375,-5.0048828125,-6.28662109375,-5.504150390625,47.999267578125,-178.0059814453125
1758876695.9868557,-0.8798828125,-0.1845703125,0.7978515625,33.75244140625,-7.4462890625,-5.615234375,-5.218505859375,47.8839111328125,-178.1158447265625
1758876696.0038087,-0.8798828125,-0.1845703125,0.7978515625,33.75244140625,-7.4462890625,-5.615234375,-4.94384765625,47.779541015625,-178.2257080078125
1758876696.0108993,-0.71435546875,-0.11279296875,0.501953125,28.62548828125,-7.080078125,-3.96728515625,-4.7021484375,47.6806640625,-178.30810546875
1758876696.0174375,-0.71435546875,-0.11279296875,0.501953125,28.62548828125,-7.080078125,-3.96728515625,-4.4659423828125,47.5872802734375,-178.385009765625
1758876696.0268562,-0.65869140625,-0.03076171875,0.4169921875,4.638671875,-5.18798828125,-3.96728515625,-4.471435546875,47.5213623046875,-178.4564208984375
1758876696.036977,-0.65869140625,-0.03076171875,0.4169921875,4.638671875,-5.18798828125,-3.96728515625,-4.4769287109375,47.4609375,-178.516845703125
1758876696.0474398,-0.7294921875,0.001953125,0.478515625,-14.09912109375,-3.60107421875,-2.38037109375,-4.6527099609375,47.4224853515625,-178.5498046875
1758876696.0571842,-0.7294921875,0.001953125,0.478515625,-14.09912109375,-3.60107421875,-2.38037109375,-4.8175048828125,47.3895263671875,-178.57177734375
1758876696.0669675,-0.7763671875,-0.04248046875,0.59619140625,-7.4462890625,-2.3193359375,-0.42724609375,-4.89990234375,47.3785400390625,-178.560791015625
1758876696.077097,-0.7763671875,-0.04248046875,0.59619140625,-7.4462890625,-2.3193359375,-0.42724609375,-4.976806640625,47.362060546875,-178.5498046875
1758876696.087478,-0.77880859375,-0.15771484375,0.724609375,4.2724609375,-3.173828125,0.48828125,-4.932861328125,47.340087890625,-178.5223388671875
1758876696.0972307,-0.77880859375,-0.15771484375,0.724609375,4.2724609375,-3.173828125,0.48828125,-4.8944091796875,47.318115234375,-178.505859375
1758876696.1070783,-0.77001953125,-0.1591796875,0.6611328125,15.56396484375,-1.40380859375,0.79345703125,-4.7406005859375,47.3126220703125,-178.48388671875
1758876696.1172652,-0.77001953125,-0.1591796875,0.6611328125,15.56396484375,-1.40380859375,0.79345703125,-4.5977783203125,47.30712890625,-178.472900390625
1758876696.1276195,-0.8212890625,-0.17236328125,0.6123046875,17.822265625,-2.13623046875,0.8544921875,-4.4329833984375,47.296142578125,-178.4564208984375
1758876696.1372104,-0.8212890625,-0.17236328125,0.6123046875,17.822265625,-2.13623046875,0.8544921875,-4.273681640625,47.2906494140625,-178.4344482421875
1758876696.1471014,-0.93310546875,-0.0634765625,0.7138671875,36.1328125,-3.35693359375,1.46484375,-3.922119140625,47.2686767578125,-178.406982421875
1758876696.1572437,-0.93310546875,-0.0634765625,0.7138671875,36.1328125,-3.35693359375,1.46484375,-3.570556640625,47.252197265625,-178.3740234375
1758876696.1677566,-0.75634765625,-0.044921875,0.51220703125,28.3203125,-3.0517578125,0.30517578125,-3.3123779296875,47.2412109375,-178.3575439453125
1758876696.1772194,-0.75634765625,-0.044921875,0.51220703125,28.3203125,-3.0517578125,0.30517578125,-3.05419921875,47.2357177734375,-178.330078125
1758876696.187112,-0.86962890625,0.0615234375,0.51611328125,-4.7607421875,-2.74658203125,2.3193359375,-3.09814453125,47.2357177734375,-178.2696533203125
1758876696.1976376,-0.86962890625,0.0615234375,0.51611328125,-4.7607421875,-2.74658203125,2.3193359375,-3.14208984375,47.2412109375,-178.1982421875
1758876696.2072334,-0.9130859375,0.06640625,0.67578125,-6.8359375,-2.3193359375,4.21142578125,-3.175048828125,47.252197265625,-178.0938720703125
1758876696.2172396,-0.9130859375,0.06640625,0.67578125,-6.8359375,-2.3193359375,4.21142578125,-3.2025146484375,47.26318359375,-177.9840087890625
1758876696.2271366,-0.8037109375,-0.041015625,0.58056640625,-5.31005859375,-2.13623046875,5.06591796875,-3.2025146484375,47.2796630859375,-177.857666015625
1758876696.2377222,-0.8037109375,-0.041015625,0.58056640625,-5.31005859375,-2.13623046875,5.06591796875,-3.2080078125,47.296142578125,-177.7313232421875
1758876696.247255,-0.73876953125,-0.09716796875,0.54833984375,-13.48876953125,-2.38037109375,5.55419921875,-3.284912109375,47.30712890625,-177.5994873046875
1758876696.2573316,-0.73876953125,-0.09716796875,0.54833984375,-13.48876953125,-2.38037109375,5.55419921875,-3.372802734375,47.3236083984375,-177.47314453125
1758876696.2672493,-0.748046875,-0.1005859375,0.63427734375,-4.45556640625,-1.40380859375,5.2490234375,-3.372802734375,47.3455810546875,-177.352294921875
1758876696.2780704,-0.748046875,-0.1005859375,0.63427734375,-4.45556640625,-1.40380859375,5.2490234375,-3.372802734375,47.362060546875,-177.2369384765625
1758876696.2872288,-0.7412109375,-0.09765625,0.66455078125,14.58740234375,-0.79345703125,4.69970703125,-3.1915283203125,47.3895263671875,-177.132568359375
1758876696.297389,-0.7412109375,-0.09765625,0.66455078125,14.58740234375,-0.79345703125,4.69970703125,-3.01025390625,47.406005859375,-177.03369140625
1758876696.3075619,-0.71826171875,-0.06787109375,0.6806640625,24.47509765625,-0.3662109375,3.96728515625,-2.7410888671875,47.427978515625,-176.9512939453125
1758876696.3179374,-0.71826171875,-0.06787109375,0.6806640625,24.47509765625,-0.3662109375,3.96728515625,-2.4774169921875,47.4444580078125,-176.8743896484375
1758876696.3272848,-0.68896484375,-0.025390625,0.6806640625,27.34375,0.30517578125,3.23486328125,-2.186279296875,47.4664306640625,-176.8084716796875
1758876696.3375,-0.68896484375,-0.025390625,0.6806640625,27.34375,0.30517578125,3.23486328125,-1.900634765625,47.48291015625,-176.748046875
1758876696.347915,-0.66748046875,-0.0166015625,0.720703125,30.029296875,0.9765625,2.685546875,-1.5875244140625,47.5048828125,-176.6986083984375
1758876696.3575482,-0.66748046875,-0.0166015625,0.720703125,30.029296875,0.9765625,2.685546875,-1.2799072265625,47.5213623046875,-176.649169921875
1758876696.3674471,-0.6474609375,-0.00341796875,0.751953125,29.96826171875,1.46484375,2.25830078125,-0.9722900390625,47.537841796875,-176.6107177734375
1758876696.3775313,-0.6474609375,-0.00341796875,0.751953125,29.96826171875,1.46484375,2.25830078125,-0.6646728515625,47.548828125,-176.5777587890625
1758876696.388082,-0.64501953125,0.005859375,0.755859375,23.3154296875,1.15966796875,2.01416015625,-0.428466796875,47.5543212890625,-176.55029296875
1758876696.3975444,-0.64501953125,0.005859375,0.755859375,23.3154296875,1.15966796875,2.01416015625,-0.1922607421875,47.559814453125,-176.5283203125
1758876696.4074066,-0.64501953125,0.06591796875,0.7548828125,6.9580078125,0.91552734375,2.44140625,-0.1043701171875,47.5543212890625,-176.5008544921875
1758876696.4180565,-0.64501953125,0.06591796875,0.7548828125,6.9580078125,0.91552734375,2.44140625,-0.0164794921875,47.548828125,-176.473388671875
1758876696.4275305,-0.64990234375,0.08544921875,0.73291015625,-13.24462890625,1.0986328125,2.99072265625,-0.120849609375,47.5433349609375,-176.4404296875
1758876696.437591,-0.64990234375,0.08544921875,0.73291015625,-13.24462890625,1.0986328125,2.99072265625,-0.2197265625,47.5323486328125,-176.4019775390625
1758876696.447542,-0.64990234375,0.08544921875,0.73291015625,-20.99609375,0.3662109375,3.2958984375,-0.3900146484375,47.515869140625,-176.363525390625
1758876696.4581199,-0.71484375,0.0361328125,0.748046875,-20.99609375,0.3662109375,3.2958984375,-0.5548095703125,47.4993896484375,-176.319580078125
1758876696.4677339,-0.81640625,-0.0126953125,0.73193359375,-18.798828125,-0.42724609375,5.06591796875,-0.68115234375,47.4774169921875,-176.2481689453125
1758876696.4776428,-0.81640625,-0.0126953125,0.73193359375,-18.798828125,-0.42724609375,5.06591796875,-0.8074951171875,47.4609375,-176.1712646484375
1758876696.4881995,-0.8740234375,-0.009765625,0.62841796875,-17.822265625,-0.67138671875,6.40869140625,-0.9063720703125,47.4444580078125,-176.0723876953125
1758876696.4976664,-0.8740234375,-0.009765625,0.62841796875,-17.822265625,-0.67138671875,6.40869140625,-1.0052490234375,47.4334716796875,-175.9625244140625
1758876696.507557,-0.90380859375,-0.04736328125,0.6435546875,-18.798828125,-1.0986328125,6.2255859375,-1.12060546875,47.4224853515625,-175.8526611328125
1758876696.5181718,-0.90380859375,-0.04736328125,0.6435546875,-18.798828125,-1.0986328125,6.2255859375,-1.2359619140625,47.4169921875,-175.7427978515625
1758876696.5276847,-0.84423828125,-0.0966796875,0.55078125,-9.21630859375,-0.244140625,7.50732421875,-1.2469482421875,47.4224853515625,-175.60546875
1758876696.5377593,-0.84423828125,-0.0966796875,0.55078125,-9.21630859375,-0.244140625,7.50732421875,-1.2579345703125,47.43896484375,-175.4681396484375
1758876696.5476413,-0.78662109375,-0.0634765625,0.47802734375,-8.544921875,0.1220703125,8.544921875,-1.2579345703125,47.4554443359375,-175.3143310546875
1758876696.5583303,-0.78662109375,-0.0634765625,0.47802734375,-8.544921875,0.1220703125,8.544921875,-1.263427734375,47.48291015625,-175.155029296875
1758876696.5676842,-0.7900390625,-0.01708984375,0.4765625,-10.3759765625,1.0986328125,9.6435546875,-1.2689208984375,47.5213623046875,-174.979248046875
1758876696.5778825,-0.7900390625,-0.01708984375,0.4765625,-10.3759765625,1.0986328125,9.6435546875,-1.2799072265625,47.5653076171875,-174.7979736328125
1758876696.5882235,-0.81591796875,-0.0146484375,0.56396484375,-4.39453125,2.01416015625,11.29150390625,-1.2139892578125,47.61474609375,-174.5892333984375
1758876696.597792,-0.81591796875,-0.0146484375,0.56396484375,-4.39453125,2.01416015625,11.29150390625,-1.142578125,47.669677734375,-174.3804931640625
1758876696.6076803,-0.80859375,-0.0546875,0.62353515625,-3.0517578125,3.11279296875,12.451171875,-1.0491943359375,47.735595703125,-174.1552734375
1758876696.6179266,-0.80859375,-0.0546875,0.62353515625,-3.0517578125,3.11279296875,12.451171875,-0.955810546875,47.801513671875,-173.9300537109375
1758876696.6283514,-0.779296875,-0.03515625,0.63623046875,-4.69970703125,3.84521484375,13.00048828125,-0.8734130859375,47.8729248046875,-173.6993408203125
1758876696.6379201,-0.779296875,-0.03515625,0.63623046875,-4.69970703125,3.84521484375,13.00048828125,-0.7965087890625,47.9388427734375,-173.47412109375
1758876696.64776,-0.76318359375,0.0,0.634765625,-2.01416015625,4.39453125,13.24462890625,-0.68115234375,48.01025390625,-173.243408203125
1758876696.658393,-0.76318359375,0.0,0.634765625,-2.01416015625,4.39453125,13.24462890625,-0.5657958984375,48.0816650390625,-173.0126953125
1758876696.6680827,-0.7412109375,0.0,0.64892578125,-0.06103515625,4.45556640625,13.0615234375,-0.4339599609375,48.1475830078125,-172.781982421875
1758876696.6778998,-0.7412109375,0.0,0.64892578125,-0.06103515625,4.45556640625,13.0615234375,-0.3021240234375,48.2135009765625,-172.5567626953125
1758876696.6878066,-0.73876953125,-0.00537109375,0.67626953125,0.0,4.2724609375,13.36669921875,-0.164794921875,48.27392578125,-172.3260498046875
1758876696.69838,-0.73876953125,-0.00537109375,0.67626953125,0.0,4.2724609375,13.36669921875,-0.02197265625,48.3343505859375,-172.100830078125
1758876696.7078345,-0.7333984375,-0.01171875,0.70263671875,-0.06103515625,4.150390625,13.916015625,0.1153564453125,48.3837890625,-171.8646240234375
1758876696.717994,-0.7333984375,-0.01171875,0.70263671875,-0.06103515625,4.150390625,13.916015625,0.263671875,48.438720703125,-171.639404296875
1758876696.7283518,-0.724609375,0.0146484375,0.69140625,-4.7607421875,3.7841796875,14.2822265625,0.3680419921875,48.482666015625,-171.4031982421875
1758876696.7380373,-0.724609375,0.0146484375,0.69140625,-4.7607421875,3.7841796875,14.2822265625,0.472412109375,48.5211181640625,-171.1724853515625
1758876696.74794,-0.70458984375,0.01220703125,0.68798828125,-16.357421875,3.60107421875,14.7705078125,0.4669189453125,48.5595703125,-170.936279296875
1758876696.7585464,-0.70458984375,0.01220703125,0.68798828125,-16.357421875,3.60107421875,14.7705078125,0.4669189453125,48.592529296875,-170.7000732421875
1758876696.769051,-0.71630859375,0.02783203125,0.755859375,-12.6953125,3.5400390625,15.13671875,0.50537109375,48.62548828125,-170.4638671875
1758876696.778082,-0.71630859375,0.02783203125,0.755859375,-12.6953125,3.5400390625,15.13671875,0.5438232421875,48.6529541015625,-170.2276611328125
1758876696.788969,-0.6884765625,-0.0029296875,0.7275390625,-13.36669921875,2.5634765625,15.7470703125,0.5877685546875,48.66943359375,-169.9859619140625
1758876696.798898,-0.6884765625,-0.0029296875,0.7275390625,-13.36669921875,2.5634765625,15.7470703125,0.6317138671875,48.6859130859375,-169.7442626953125
1758876696.8079808,-0.67333984375,0.0205078125,0.7529296875,-24.47509765625,2.0751953125,16.7236328125,0.5712890625,48.69140625,-169.4915771484375
1758876696.8181853,-0.67333984375,0.0205078125,0.7529296875,-24.47509765625,2.0751953125,16.7236328125,0.516357421875,48.69140625,-169.244384765625
1758876696.8282175,-0.65380859375,0.0263671875,0.75390625,-30.1513671875,1.3427734375,16.90673828125,0.406494140625,48.6859130859375,-168.9971923828125
1758876696.838169,-0.65380859375,0.0263671875,0.75390625,-30.1513671875,1.3427734375,16.90673828125,0.296630859375,48.6749267578125,-168.75
1758876696.8480887,-0.63671875,0.04345703125,0.79296875,-31.18896484375,0.6103515625,16.7236328125,0.1812744140625,48.658447265625,-168.50830078125
1758876696.858429,-0.63671875,0.04345703125,0.79296875,-31.18896484375,0.6103515625,16.7236328125,0.06591796875,48.636474609375,-168.2666015625
1758876696.8689756,-0.57421875,0.0595703125,0.7412109375,-36.7431640625,1.15966796875,17.27294921875,-0.0933837890625,48.614501953125,-168.0194091796875
1758876696.8781846,-0.57421875,0.0595703125,0.7412109375,-36.7431640625,1.15966796875,17.27294921875,-0.252685546875,48.592529296875,-167.772216796875
1758876696.8885093,-0.5947265625,0.0869140625,0.7900390625,-45.47119140625,0.18310546875,16.90673828125,-0.50537109375,48.5540771484375,-167.5360107421875
1758876696.8982744,-0.6328125,0.05126953125,0.7998046875,-51.6357421875,0.0,16.78466796875,-0.780029296875,48.5211181640625,-167.2943115234375
1758876696.9081993,-0.6328125,0.05126953125,0.7998046875,-51.6357421875,0.0,16.78466796875,-1.0821533203125,48.4771728515625,-167.05810546875
1758876696.9189036,-0.7119140625,0.01123046875,0.765625,-68.2373046875,-2.3193359375,18.310546875,-1.461181640625,48.427734375,-166.805419921875
1758876696.928394,-0.7119140625,0.01123046875,0.765625,-68.2373046875,-2.3193359375,18.310546875,-1.91162109375,48.3673095703125,-166.5362548828125
1758876696.9382775,-0.806640625,-0.0927734375,0.84326171875,-59.26513671875,-4.57763671875,18.73779296875,-2.3126220703125,48.3013916015625,-166.26708984375
1758876696.9482293,-0.806640625,-0.0927734375,0.84326171875,-59.26513671875,-4.57763671875,18.73779296875,-2.669677734375,48.2244873046875,-165.992431640625
1758876696.9587474,-0.72998046875,-0.19091796875,0.73974609375,-12.51220703125,-4.39453125,17.63916015625,-2.801513671875,48.153076171875,-165.7232666015625
1758876696.9683838,-0.72998046875,-0.19091796875,0.73974609375,-12.51220703125,-4.39453125,17.63916015625,-2.7191162109375,48.0816650390625,-165.4705810546875
1758876696.9783568,-0.61767578125,-0.0654296875,0.49267578125,-3.662109375,-3.0517578125,16.41845703125,-2.6092529296875,48.021240234375,-165.2288818359375
1758876696.9882452,-0.61767578125,-0.0654296875,0.49267578125,-3.662109375,-3.0517578125,16.41845703125,-2.4609375,47.96630859375,-164.99267578125
1758876696.9989662,-0.6083984375,0.044921875,0.484375,-0.8544921875,-0.8544921875,14.2822265625,-2.318115234375,47.933349609375,-164.7674560546875
1758876697.0084023,-0.6083984375,0.044921875,0.484375,-0.8544921875,-0.8544921875,14.2822265625,-2.164306640625,47.9058837890625,-164.55322265625
1758876697.0184402,-0.703125,0.06640625,0.60498046875,-8.36181640625,0.244140625,14.16015625,-2.0489501953125,47.8948974609375,-164.33349609375
1758876697.02869,-0.703125,0.06640625,0.60498046875,-8.36181640625,0.244140625,14.16015625,-1.9720458984375,47.8839111328125,-164.1082763671875
1758876697.038697,-0.82080078125,0.13427734375,0.78125,-45.8984375,-1.15966796875,15.13671875,-2.0654296875,47.8729248046875,-163.861083984375
1758876697.0483825,-0.82080078125,0.13427734375,0.78125,-45.8984375,-1.15966796875,15.13671875,-2.340087890625,47.8564453125,-163.6029052734375
1758876697.058491,-1.02587890625,0.0185546875,0.8662109375,-49.98779296875,-4.94384765625,18.1884765625,-2.603759765625,47.823486328125,-163.311767578125
1758876697.0688136,-1.02587890625,0.0185546875,0.8662109375,-49.98779296875,-4.94384765625,18.1884765625,-2.8729248046875,47.7740478515625,-162.9931640625
1758876697.0785673,-0.8037109375,-0.20166015625,0.64306640625,4.0283203125,-3.41796875,13.12255859375,-2.9058837890625,47.7410888671875,-162.7130126953125
1758876697.0883906,-0.8037109375,-0.20166015625,0.64306640625,4.0283203125,-3.41796875,13.12255859375,-2.70263671875,47.7081298828125,-162.4822998046875
1758876697.0985744,-0.66357421875,-0.14794921875,0.3994140625,6.16455078125,-6.04248046875,12.02392578125,-2.5103759765625,47.669677734375,-162.2625732421875
1758876697.1090455,-0.66357421875,-0.14794921875,0.3994140625,6.16455078125,-6.04248046875,12.02392578125,-2.318115234375,47.6202392578125,-162.0538330078125
1758876697.1185577,-0.802734375,-0.01953125,0.54931640625,11.5966796875,-3.173828125,9.70458984375,-2.120361328125,47.5872802734375,-161.861572265625
1758876697.1284962,-0.802734375,-0.01953125,0.54931640625,11.5966796875,-3.173828125,9.70458984375,-1.9061279296875,47.5762939453125,-161.685791015625
1758876697.13902,-0.84619140625,-0.013671875,0.67138671875,28.13720703125,-2.25830078125,8.9111328125,-1.614990234375,47.5653076171875,-161.510009765625
1758876697.1485302,-0.84619140625,-0.013671875,0.67138671875,28.13720703125,-2.25830078125,8.9111328125,-1.2469482421875,47.5653076171875,-161.34521484375
1758876697.1585898,-0.9375,-0.01416015625,0.55712890625,7.8125,-3.173828125,9.27734375,-0.9832763671875,47.559814453125,-161.1749267578125
1758876697.1688054,-0.9375,-0.01416015625,0.55712890625,7.8125,-3.173828125,9.27734375,-0.8184814453125,47.5543212890625,-160.99365234375
1758876697.1790702,-0.97607421875,0.07373046875,0.607421875,10.43701171875,-4.150390625,8.85009765625,-0.6427001953125,47.548828125,-160.81787109375
1758876697.1890733,-0.97607421875,0.07373046875,0.607421875,10.43701171875,-4.150390625,8.85009765625,-0.450439453125,47.537841796875,-160.631103515625
1758876697.198604,-0.7890625,0.01025390625,0.4560546875,12.8173828125,-1.220703125,6.2255859375,-0.2581787109375,47.548828125,-160.46630859375
1758876697.209248,-0.7890625,0.01025390625,0.4560546875,12.8173828125,-1.220703125,6.2255859375,-0.0714111328125,47.5762939453125,-160.3125
1758876697.2185993,-0.8037109375,0.00927734375,0.4921875,0.30517578125,-0.6103515625,6.4697265625,0.0494384765625,47.6092529296875,-160.15869140625
1758876697.228669,-0.8037109375,0.00927734375,0.4921875,0.30517578125,-0.6103515625,6.4697265625,0.10986328125,47.647705078125,-160.0048828125
1758876697.239262,-0.85986328125,-0.013671875,0.5546875,9.09423828125,0.91552734375,5.126953125,0.208740234375,47.6971435546875,-159.8565673828125
1758876697.24875,-0.85986328125,-0.013671875,0.5546875,9.09423828125,0.91552734375,5.126953125,0.3460693359375,47.7520751953125,-159.71923828125
1758876697.2586117,-0.822265625,0.00341796875,0.51171875,3.96728515625,0.79345703125,5.31005859375,0.4559326171875,47.8070068359375,-159.5819091796875
1758876697.2686746,-0.822265625,0.00341796875,0.51171875,3.96728515625,0.79345703125,5.31005859375,0.5438232421875,47.8619384765625,-159.444580078125
1758876697.278992,-0.814453125,0.01611328125,0.59326171875,10.7421875,1.708984375,4.45556640625,0.6591796875,47.92236328125,-159.312744140625
1758876697.288755,-0.814453125,0.01611328125,0.59326171875,10.7421875,1.708984375,4.45556640625,0.8074951171875,47.9827880859375,-159.19189453125
1758876697.298913,-0.77490234375,-0.00244140625,0.59326171875,14.6484375,2.0751953125,4.08935546875,0.966796875,48.0487060546875,-159.071044921875
1758876697.3096132,-0.77490234375,-0.00244140625,0.59326171875,14.6484375,2.0751953125,4.08935546875,1.1480712890625,48.109130859375,-158.9556884765625
1758876697.3187504,-0.75830078125,0.02490234375,0.6650390625,15.68603515625,2.13623046875,3.90625,1.3348388671875,48.1695556640625,-158.84033203125
1758876697.328832,-0.75830078125,0.02490234375,0.6650390625,15.68603515625,2.13623046875,3.90625,1.5216064453125,48.22998046875,-158.73046875
1758876697.3393466,-0.7373046875,0.02099609375,0.69775390625,13.12255859375,2.197265625,3.96728515625,1.702880859375,48.2794189453125,-158.6260986328125
1758876697.3490233,-0.7373046875,0.02099609375,0.69775390625,13.12255859375,2.197265625,3.96728515625,1.86767578125,48.328857421875,-158.521728515625
1758876697.3587806,-0.71875,0.04150390625,0.69287109375,10.25390625,1.77001953125,3.35693359375,2.0159912109375,48.372802734375,-158.4228515625
1758876697.3691838,-0.71875,0.04150390625,0.69287109375,10.25390625,1.77001953125,3.35693359375,2.1478271484375,48.40576171875,-158.3294677734375
1758876697.3794377,-0.7138671875,0.03076171875,0.708984375,14.2822265625,2.0751953125,1.953125,2.296142578125,48.4442138671875,-158.2525634765625
1758876697.389044,-0.7138671875,0.03076171875,0.708984375,14.2822265625,2.0751953125,1.953125,2.4554443359375,48.4771728515625,-158.192138671875
1758876697.3988478,-0.7099609375,0.037109375,0.71533203125,14.95361328125,2.44140625,0.9765625,2.61474609375,48.504638671875,-158.13720703125
1758876697.4090862,-0.7099609375,0.037109375,0.71533203125,14.95361328125,2.44140625,0.9765625,2.7685546875,48.53759765625,-158.09326171875
1758876697.4197645,-0.7021484375,0.048828125,0.72607421875,13.3056640625,2.3193359375,0.42724609375,2.911376953125,48.5595703125,-158.060302734375
1758876697.4290478,-0.7021484375,0.048828125,0.72607421875,13.3056640625,2.3193359375,0.42724609375,3.043212890625,48.5870361328125,-158.02734375
1758876697.439017,-0.7021484375,0.048828125,0.72607421875,13.85498046875,1.89208984375,-0.42724609375,3.175048828125,48.603515625,-158.0108642578125
1758876697.4501224,-0.7021484375,0.048828125,0.72607421875,13.85498046875,1.89208984375,-0.42724609375,3.306884765625,48.614501953125,-157.9998779296875
1758876697.4589372,-0.6318359375,0.0205078125,0.74169921875,22.15576171875,1.46484375,-2.197265625,3.4661865234375,48.62548828125,-158.0108642578125
1758876697.4691472,-0.6318359375,0.0205078125,0.74169921875,22.15576171875,1.46484375,-2.197265625,3.6529541015625,48.62548828125,-158.038330078125
1758876697.4792428,-0.59326171875,0.0107421875,0.806640625,35.70556640625,0.91552734375,-4.0283203125,3.900146484375,48.6199951171875,-158.082275390625
1758876697.4897625,-0.59326171875,0.0107421875,0.806640625,35.70556640625,0.91552734375,-4.0283203125,4.19677734375,48.614501953125,-158.1536865234375
1758876697.4990354,-0.560546875,0.03076171875,0.84912109375,45.166015625,-0.1220703125,-5.859375,4.5318603515625,48.592529296875,-158.2415771484375
1758876697.5094888,-0.560546875,0.03076171875,0.84912109375,45.166015625,-0.1220703125,-5.859375,4.8944091796875,48.5595703125,-158.35693359375
1758876697.5192885,-0.509765625,0.0966796875,0.8662109375,45.0439453125,-1.28173828125,-6.65283203125,5.25146484375,48.5211181640625,-158.4832763671875
1758876697.5291817,-0.509765625,0.0966796875,0.8662109375,45.0439453125,-1.28173828125,-6.65283203125,5.60302734375,48.4661865234375,-158.6260986328125
1758876697.5390415,-0.59130859375,0.13037109375,0.79541015625,40.52734375,-1.64794921875,-7.50732421875,5.9271240234375,48.4112548828125,-158.7744140625
1758876697.5497253,-0.59130859375,0.13037109375,0.79541015625,40.52734375,-1.64794921875,-7.50732421875,6.229248046875,48.350830078125,-158.9337158203125
1758876697.5591474,-0.59326171875,0.13232421875,0.921875,25.93994140625,-4.94384765625,-8.7890625,6.4434814453125,48.27392578125,-159.10400390625
1758876697.5692778,-0.59326171875,0.13232421875,0.921875,25.93994140625,-4.94384765625,-8.7890625,6.580810546875,48.175048828125,-159.290771484375
1758876697.5791447,-0.611328125,0.138671875,0.7529296875,-1.8310546875,-4.0283203125,-8.23974609375,6.5863037109375,48.0816650390625,-159.4775390625
1758876697.5898685,-0.611328125,0.138671875,0.7529296875,-1.8310546875,-4.0283203125,-8.23974609375,6.4599609375,47.98828125,-159.6478271484375
1758876697.5992036,-0.72998046875,0.04248046875,0.6669921875,12.51220703125,-6.28662109375,-8.23974609375,6.4105224609375,47.889404296875,-159.8236083984375
1758876697.609319,-0.72998046875,0.04248046875,0.6669921875,12.51220703125,-6.28662109375,-8.23974609375,6.427001953125,47.7850341796875,-159.9884033203125
1758876697.6197007,-0.7607421875,-0.021484375,0.7021484375,43.9453125,-5.31005859375,-9.6435546875,6.5972900390625,47.691650390625,-160.1641845703125
1758876697.6294515,-0.7607421875,-0.021484375,0.7021484375,43.9453125,-5.31005859375,-9.6435546875,6.910400390625,47.6092529296875,-160.345458984375
1758876697.639276,-0.77685546875,0.1083984375,0.62109375,23.193359375,-5.31005859375,-10.009765625,7.1136474609375,47.5323486328125,-160.5322265625
1758876697.6494458,-0.77685546875,0.1083984375,0.62109375,23.193359375,-5.31005859375,-10.009765625,7.2125244140625,47.4609375,-160.7080078125
1758876697.659842,-0.80419921875,0.30859375,0.662109375,-49.62158203125,-6.591796875,-6.40869140625,6.976318359375,47.3895263671875,-160.850830078125
1758876697.6696036,-0.80419921875,0.30859375,0.662109375,-49.62158203125,-6.591796875,-6.40869140625,6.405029296875,47.30712890625,-160.94970703125
1758876697.67929,-0.759765625,0.228515625,0.525390625,-70.4345703125,-3.84521484375,-2.8076171875,5.7733154296875,47.2467041015625,-161.004638671875
1758876697.6894128,-0.759765625,0.228515625,0.525390625,-70.4345703125,-3.84521484375,-2.8076171875,5.064697265625,47.197265625,-161.015625
1758876697.700225,-0.80712890625,-0.03369140625,0.45849609375,-45.5322265625,-2.8076171875,-1.28173828125,4.4989013671875,47.164306640625,-161.004638671875
1758876697.7094743,-0.80712890625,-0.03369140625,0.45849609375,-45.5322265625,-2.8076171875,-1.28173828125,4.0594482421875,47.142333984375,-160.982666015625
1758876697.719781,-0.90673828125,-0.109375,0.638671875,-21.728515625,-2.8076171875,-0.30517578125,3.7408447265625,47.1258544921875,-160.94970703125
1758876697.729495,-0.90673828125,-0.109375,0.638671875,-21.728515625,-2.8076171875,-0.30517578125,3.53759765625,47.1148681640625,-160.9112548828125
1758876697.7394183,-0.92529296875,-0.09716796875,0.6787109375,8.9111328125,-1.953125,-0.3662109375,3.4771728515625,47.109375,-160.8837890625
1758876697.749576,-0.92529296875,-0.09716796875,0.6787109375,8.9111328125,-1.953125,-0.3662109375,3.5595703125,47.109375,-160.8563232421875
1758876697.7600381,-0.8916015625,-0.04541015625,0.52880859375,16.7236328125,-2.62451171875,1.220703125,3.6859130859375,47.109375,-160.8233642578125
1758876697.7696126,-0.8916015625,-0.04541015625,0.52880859375,16.7236328125,-2.62451171875,1.220703125,3.8507080078125,47.109375,-160.7794189453125
1758876697.779471,-0.857421875,0.0361328125,0.49609375,0.732421875,-1.46484375,2.3193359375,3.944091796875,47.120361328125,-160.72998046875
1758876697.7895963,-0.857421875,0.0361328125,0.49609375,0.732421875,-1.46484375,2.3193359375,3.9605712890625,47.142333984375,-160.6640625
1758876697.799974,-0.85791015625,0.087890625,0.51318359375,-14.404296875,-0.48828125,3.90625,3.9111328125,47.1697998046875,-160.5816650390625
1758876697.8096128,-0.85791015625,0.087890625,0.51318359375,-14.404296875,-0.48828125,3.90625,3.80126953125,47.2027587890625,-160.4827880859375
1758876697.8194723,-0.8740234375,0.09228515625,0.5341796875,-20.20263671875,0.48828125,4.8828125,3.66943359375,47.2467041015625,-160.3729248046875
1758876697.829718,-0.8740234375,0.09228515625,0.5341796875,-20.20263671875,0.48828125,4.8828125,3.515625,47.296142578125,-160.24658203125
1758876697.8398514,-0.86767578125,0.068359375,0.5625,-14.22119140625,2.01416015625,5.126953125,3.4002685546875,47.3565673828125,-160.1202392578125
1758876697.8497097,-0.86767578125,0.068359375,0.5625,-14.22119140625,2.01416015625,5.126953125,3.3123779296875,47.4224853515625,-159.98291015625
1758876697.8595908,-0.83056640625,0.015625,0.57177734375,-11.77978515625,3.41796875,5.37109375,3.2464599609375,47.493896484375,-159.8455810546875
1758876697.869766,-0.83056640625,0.015625,0.57177734375,-11.77978515625,3.41796875,5.37109375,3.18603515625,47.5762939453125,-159.708251953125
1758876697.8802052,-0.7880859375,0.01953125,0.55224609375,-18.5546875,4.2724609375,5.2490234375,3.065185546875,47.6641845703125,-159.576416015625
1758876697.8897223,-0.7880859375,0.01953125,0.55224609375,-18.5546875,4.2724609375,5.2490234375,2.9388427734375,47.7520751953125,-159.4390869140625
1758876697.8996203,-0.77001953125,0.0419921875,0.609375,-21.05712890625,4.94384765625,4.7607421875,2.7850341796875,47.8399658203125,-159.312744140625
1758876697.9100938,-0.77001953125,0.0419921875,0.609375,-21.05712890625,4.94384765625,4.7607421875,2.6312255859375,47.933349609375,-159.1864013671875
1758876697.9197602,-0.740234375,0.03466796875,0.65869140625,-14.6484375,5.859375,4.39453125,2.537841796875,48.0267333984375,-159.071044921875
1758876697.9298635,-0.740234375,0.03466796875,0.65869140625,-14.6484375,5.859375,4.39453125,2.449951171875,48.1146240234375,-158.9501953125
1758876697.9398642,-0.7197265625,0.02099609375,0.70361328125,-5.9814453125,6.16455078125,3.72314453125,2.4334716796875,48.2080078125,-158.851318359375
1758876697.9503164,-0.7197265625,0.02099609375,0.70361328125,-5.9814453125,6.16455078125,3.72314453125,2.4224853515625,48.2904052734375,-158.75244140625
1758876697.9596903,-0.71484375,0.01513671875,0.724609375,2.9296875,6.34765625,2.74658203125,2.4884033203125,48.372802734375,-158.675537109375
1758876697.9699287,-0.71484375,0.01513671875,0.724609375,2.9296875,6.34765625,2.74658203125,2.5543212890625,48.44970703125,-158.6041259765625
1758876697.9803407,-0.71630859375,0.03173828125,0.7080078125,7.4462890625,6.16455078125,1.708984375,2.6531982421875,48.5211181640625,-158.5491943359375
1758876697.989865,-0.71630859375,0.03173828125,0.7080078125,7.4462890625,6.16455078125,1.708984375,2.7520751953125,48.592529296875,-158.499755859375
1758876697.9997373,-0.7265625,0.0478515625,0.6884765625,6.7138671875,6.04248046875,0.79345703125,2.8289794921875,48.6529541015625,-158.466796875
1758876698.009897,-0.7265625,0.0478515625,0.6884765625,6.7138671875,6.04248046875,0.79345703125,2.911376953125,48.7188720703125,-158.433837890625
1758876698.0205286,-0.72900390625,0.05029296875,0.68359375,9.765625,6.103515625,-0.30517578125,3.01025390625,48.779296875,-158.4173583984375
1758876698.0299513,-0.72900390625,0.05029296875,0.68359375,9.765625,6.103515625,-0.30517578125,3.109130859375,48.8397216796875,-158.40087890625
1758876698.0398135,-0.71142578125,0.064453125,0.6630859375,15.68603515625,5.92041015625,-1.3427734375,3.251953125,48.900146484375,-158.4063720703125
1758876698.0503244,-0.71142578125,0.064453125,0.6630859375,15.68603515625,5.92041015625,-1.3427734375,3.4002685546875,48.955078125,-158.4063720703125
1758876698.0598843,-0.73291015625,0.03125,0.677734375,23.4375,4.5166015625,-2.74658203125,3.6090087890625,48.9990234375,-158.433837890625
1758876698.0700028,-0.73291015625,0.03125,0.677734375,23.4375,4.5166015625,-2.74658203125,3.812255859375,49.0374755859375,-158.4613037109375
1758876698.080252,-0.7041015625,0.0185546875,0.72119140625,33.8134765625,3.72314453125,-3.11279296875,4.1143798828125,49.0704345703125,-158.499755859375
1758876698.0903835,-0.7041015625,0.0185546875,0.72119140625,33.8134765625,3.72314453125,-3.11279296875,4.4110107421875,49.1033935546875,-158.543701171875
1758876698.099891,-0.669921875,0.0517578125,0.70556640625,30.70068359375,2.86865234375,-2.86865234375,4.68017578125,49.119873046875,-158.587646484375
1758876698.1100266,-0.669921875,0.0517578125,0.70556640625,30.70068359375,2.86865234375,-2.86865234375,4.9493408203125,49.1363525390625,-158.631591796875
1758876698.120317,-0.7333984375,0.072265625,0.798828125,16.41845703125,1.15966796875,-2.86865234375,5.0701904296875,49.1363525390625,-158.6810302734375
1758876698.1303477,-0.7333984375,0.072265625,0.798828125,16.41845703125,1.15966796875,-2.86865234375,5.1910400390625,49.130859375,-158.7359619140625
1758876698.13998,-0.78955078125,0.11181640625,0.77978515625,13.48876953125,0.0,-3.0517578125,5.284423828125,49.1143798828125,-158.79638671875
1758876698.1502392,-0.78955078125,0.11181640625,0.77978515625,13.48876953125,0.0,-3.0517578125,5.3778076171875,49.0924072265625,-158.8568115234375
1758876698.1599956,-0.75390625,0.099609375,0.72216796875,9.58251953125,-0.6103515625,-3.60107421875,5.42724609375,49.0704345703125,-158.9227294921875
1758876698.1701615,-0.75390625,0.099609375,0.72216796875,9.58251953125,-0.6103515625,-3.60107421875,5.4766845703125,49.0484619140625,-158.9886474609375
1758876698.1807272,-0.6923828125,0.072265625,0.6865234375,9.70458984375,-1.03759765625,-3.96728515625,5.526123046875,49.02099609375,-159.0545654296875
1758876698.1901622,-0.6923828125,0.072265625,0.6865234375,9.70458984375,-1.03759765625,-3.96728515625,5.5755615234375,48.9990234375,-159.1314697265625
1758876698.200068,-0.65869140625,0.064453125,0.6875,22.52197265625,-1.0986328125,-4.638671875,5.745849609375,48.9715576171875,-159.2138671875
1758876698.2102284,-0.65869140625,0.064453125,0.6875,22.52197265625,-1.0986328125,-4.638671875,5.91064453125,48.944091796875,-159.2962646484375
1758876698.2206182,-0.63623046875,0.01318359375,0.75,38.51318359375,-1.15966796875,-5.79833984375,6.21826171875,48.9111328125,-159.4061279296875
1758876698.2302282,-0.63623046875,0.01318359375,0.75,38.51318359375,-1.15966796875,-5.79833984375,6.52587890625,48.8836669921875,-159.521484375
1758876698.24017,-0.60888671875,0.02294921875,0.7890625,40.22216796875,-2.44140625,-6.7138671875,6.8280029296875,48.834228515625,-159.6588134765625
1758876698.250719,-0.60888671875,0.02294921875,0.7890625,40.22216796875,-2.44140625,-6.7138671875,7.130126953125,48.7847900390625,-159.80712890625
1758876698.2607474,-0.5341796875,0.05712890625,0.72509765625,32.958984375,-2.62451171875,-7.14111328125,7.349853515625,48.7353515625,-159.9664306640625
1758876698.2705748,-0.5341796875,0.05712890625,0.72509765625,32.958984375,-2.62451171875,-7.14111328125,7.569580078125,48.680419921875,-160.125732421875
1758876698.2801588,-0.552734375,0.10888671875,0.68310546875,18.9208984375,-3.173828125,-7.2021484375,7.646484375,48.6199951171875,-160.2960205078125
1758876698.2905872,-0.552734375,0.10888671875,0.68310546875,18.9208984375,-3.173828125,-7.2021484375,7.7288818359375,48.5540771484375,-160.4608154296875
1758876698.300924,-0.54443359375,0.140625,0.68701171875,16.90673828125,-1.64794921875,-7.8125,7.789306640625,48.504638671875,-160.631103515625
1758876698.3103802,-0.54443359375,0.140625,0.68701171875,16.90673828125,-1.64794921875,-7.8125,7.8497314453125,48.4552001953125,-160.8013916015625
1758876698.3203282,-0.6357421875,0.17041015625,0.712890625,-8.11767578125,-1.8310546875,-7.26318359375,7.6739501953125,48.4002685546875,-160.960693359375
1758876698.3309274,-0.6357421875,0.17041015625,0.712890625,-8.11767578125,-1.8310546875,-7.26318359375,7.503662109375,48.3453369140625,-161.114501953125
1758876698.340413,-0.74755859375,0.23486328125,0.6904296875,-32.2265625,-0.79345703125,-5.92041015625,7.119140625,48.306884765625,-161.2353515625
1758876698.3504133,-0.74755859375,0.23486328125,0.6904296875,-32.2265625,-0.79345703125,-5.92041015625,6.74560546875,48.262939453125,-161.3507080078125
1758876698.360956,-0.8896484375,0.18798828125,0.8037109375,-45.654296875,-3.84521484375,-3.47900390625,6.2677001953125,48.197021484375,-161.422119140625
1758876698.3705268,-0.8896484375,0.18798828125,0.8037109375,-45.654296875,-3.84521484375,-3.47900390625,5.7952880859375,48.131103515625,-161.4825439453125
1758876698.3803804,-0.8603515625,0.10302734375,0.70849609375,-71.044921875,-4.94384765625,-0.18310546875,5.108642578125,48.05419921875,-161.4935302734375
1758876698.3904996,-0.8603515625,0.10302734375,0.70849609375,-71.044921875,-4.94384765625,-0.18310546875,4.4219970703125,47.9827880859375,-161.4935302734375
1758876698.4010081,-0.80419921875,-0.0107421875,0.58544921875,-65.24658203125,-5.55419921875,0.8544921875,3.8067626953125,47.911376953125,-161.47705078125
1758876698.4104981,-0.80419921875,-0.0107421875,0.58544921875,-65.24658203125,-5.55419921875,0.8544921875,3.197021484375,47.845458984375,-161.455078125
1758876698.4204962,-0.81396484375,-0.02685546875,0.54833984375,-41.8701171875,-4.638671875,2.38037109375,2.8289794921875,47.7960205078125,-161.4056396484375
1758876698.4308596,-0.81396484375,-0.02685546875,0.54833984375,-41.8701171875,-4.638671875,2.38037109375,2.4609375,47.74658203125,-161.3507080078125
1758876698.4409146,-0.81396484375,-0.02685546875,0.54833984375,-26.3671875,-3.60107421875,3.35693359375,2.252197265625,47.7191162109375,-161.279296875
1758876698.4505446,-0.81396484375,-0.02685546875,0.54833984375,-26.3671875,-3.60107421875,3.35693359375,2.04345703125,47.691650390625,-161.21337890625
1758876698.4604752,-0.84033203125,0.00634765625,0.46240234375,-19.10400390625,-1.5869140625,2.9296875,1.8951416015625,47.691650390625,-161.1419677734375
1758876698.4710007,-0.84033203125,0.00634765625,0.46240234375,-19.10400390625,-1.5869140625,2.9296875,1.7523193359375,47.6971435546875,-161.0650634765625
1758876698.4810097,-1.07763671875,0.06689453125,0.60693359375,-30.70068359375,-0.91552734375,2.62451171875,1.4886474609375,47.7191162109375,-160.9881591796875
1758876698.490664,-1.07763671875,0.06689453125,0.60693359375,-30.70068359375,-0.91552734375,2.62451171875,1.2249755859375,47.7410888671875,-160.90576171875
1758876698.5005717,-1.2275390625,0.06396484375,0.45166015625,-42.8466796875,-0.18310546875,3.84521484375,0.8514404296875,47.7850341796875,-160.7904052734375
1758876698.5111487,-1.2275390625,0.06396484375,0.45166015625,-42.8466796875,-0.18310546875,3.84521484375,0.4833984375,47.8399658203125,-160.6695556640625
1758876698.5207732,-0.95361328125,-0.037109375,0.24169921875,-43.27392578125,1.953125,5.67626953125,0.1263427734375,47.92236328125,-160.521240234375
1758876698.5306447,-0.95361328125,-0.037109375,0.24169921875,-43.27392578125,1.953125,5.67626953125,-0.230712890625,48.0157470703125,-160.367431640625
1758876698.540608,-0.76416015625,-0.1064453125,0.19970703125,-25.45166015625,6.591796875,4.2724609375,-0.4339599609375,48.1640625,-160.235595703125
1758876698.5512815,-0.76416015625,-0.1064453125,0.19970703125,-25.45166015625,6.591796875,4.2724609375,-0.6427001953125,48.3123779296875,-160.103759765625
1758876698.5606635,-0.77685546875,-0.0947265625,0.4443359375,-5.7373046875,9.765625,3.41796875,-0.670166015625,48.49365234375,-159.993896484375
1758876698.5715845,-0.77685546875,-0.0947265625,0.4443359375,-5.7373046875,9.765625,3.41796875,-0.703125,48.6749267578125,-159.8895263671875
1758876698.5812714,-0.82177734375,-0.0166015625,0.74658203125,5.859375,10.1318359375,3.96728515625,-0.615234375,48.8507080078125,-159.7796630859375
1758876698.5907016,-0.82177734375,-0.0166015625,0.74658203125,5.859375,10.1318359375,3.96728515625,-0.5218505859375,49.0155029296875,-159.67529296875
1758876698.60073,-0.7275390625,0.02001953125,0.96240234375,2.197265625,7.568359375,3.72314453125,-0.4669189453125,49.141845703125,-159.576416015625
1758876698.6110137,-0.7275390625,0.02001953125,0.96240234375,2.197265625,7.568359375,3.72314453125,-0.406494140625,49.251708984375,-159.488525390625
1758876698.6207445,-0.609375,0.06640625,0.79248046875,-5.18798828125,6.28662109375,2.74658203125,-0.4229736328125,49.339599609375,-159.4171142578125
1758876698.630741,-0.609375,0.06640625,0.79248046875,-5.18798828125,6.28662109375,2.74658203125,-0.439453125,49.41650390625,-159.3511962890625
1758876698.641052,-0.6337890625,0.0380859375,0.7548828125,-10.80322265625,5.06591796875,1.46484375,-0.5218505859375,49.4769287109375,-159.3072509765625
1758876698.6511495,-0.6337890625,0.0380859375,0.7548828125,-10.80322265625,5.06591796875,1.46484375,-0.604248046875,49.5263671875,-159.268798828125
1758876698.6608305,-0.744140625,0.0234375,0.736328125,-22.27783203125,5.0048828125,0.91552734375,-0.8074951171875,49.5758056640625,-159.2413330078125
1758876698.6708162,-0.744140625,0.0234375,0.736328125,-22.27783203125,5.0048828125,0.91552734375,-1.0052490234375,49.6197509765625,-159.2138671875
1758876698.681473,-0.791015625,-0.01708984375,0.65869140625,-27.28271484375,4.94384765625,0.54931640625,-1.2579345703125,49.6636962890625,-159.1973876953125
1758876698.6912634,-0.791015625,-0.01708984375,0.65869140625,-27.28271484375,4.94384765625,0.54931640625,-1.5106201171875,49.7076416015625,-159.1754150390625
1758876698.7008555,-0.77880859375,-0.02294921875,0.58642578125,-31.25,4.69970703125,0.06103515625,-1.812744140625,49.7515869140625,-159.1644287109375
1758876698.711309,-0.77880859375,-0.02294921875,0.58642578125,-31.25,4.69970703125,0.06103515625,-2.109375,49.7955322265625,-159.14794921875
1758876698.7209134,-0.76953125,0.0146484375,0.61767578125,-40.1611328125,4.2724609375,0.54931640625,-2.4884033203125,49.8394775390625,-159.1204833984375
1758876698.7308645,-0.76953125,0.0146484375,0.61767578125,-40.1611328125,4.2724609375,0.54931640625,-2.867431640625,49.8834228515625,-159.093017578125
1758876698.740895,-0.71435546875,0.0400390625,0.646484375,-53.3447265625,4.39453125,2.74658203125,-3.350830078125,49.9273681640625,-159.0325927734375
1758876698.7514637,-0.71435546875,0.0400390625,0.646484375,-53.3447265625,4.39453125,2.74658203125,-3.8232421875,49.9713134765625,-158.961181640625
1758876698.7609391,-0.7236328125,-0.05712890625,0.75830078125,-72.3876953125,2.99072265625,2.01416015625,-4.4989013671875,49.998779296875,-158.9117431640625
1758876698.7709968,-0.7236328125,-0.05712890625,0.75830078125,-72.3876953125,2.99072265625,2.01416015625,-5.1690673828125,50.0262451171875,-158.8623046875
1758876698.7817426,-0.77099609375,-0.0380859375,0.77978515625,-92.28515625,2.50244140625,2.50244140625,-6.031494140625,50.042724609375,-158.8018798828125
1758876698.7909904,-0.77099609375,-0.0380859375,0.77978515625,-92.28515625,2.50244140625,2.50244140625,-6.888427734375,50.0537109375,-158.7469482421875
1758876698.8009968,-0.76611328125,-0.0673828125,0.70263671875,-120.361328125,1.8310546875,3.0517578125,-8.0145263671875,50.064697265625,-158.675537109375
1758876698.811473,-0.76611328125,-0.0673828125,0.70263671875,-120.361328125,1.8310546875,3.0517578125,-9.140625,50.0701904296875,-158.6041259765625
1758876698.8210306,-0.7333984375,-0.0087890625,0.71044921875,-135.25390625,-0.79345703125,2.0751953125,-10.4150390625,50.0537109375,-158.5382080078125
1758876698.831027,-0.7158203125,-0.0810546875,0.640625,-97.2900390625,-0.732421875,0.1220703125,-11.502685546875,50.0372314453125,-158.477783203125
1758876698.8418913,-0.7158203125,-0.0810546875,0.640625,-97.2900390625,-0.732421875,0.1220703125,-12.403564453125,50.0152587890625,-158.4283447265625
1758876698.8511145,-0.72119140625,-0.2373046875,0.611328125,-80.99365234375,-1.52587890625,0.244140625,-13.2275390625,49.9932861328125,-158.3734130859375
1758876698.8610744,-0.72119140625,-0.2373046875,0.611328125,-80.99365234375,-1.52587890625,0.244140625,-13.974609375,49.9658203125,-158.323974609375
1758876698.8715787,-0.69287109375,-0.22265625,0.71337890625,-71.533203125,-2.38037109375,0.0,-14.677734375,49.9383544921875,-158.2745361328125
1758876698.881266,-0.69287109375,-0.22265625,0.71337890625,-71.533203125,-2.38037109375,0.0,-15.3369140625,49.89990234375,-158.236083984375
1758876698.891106,-0.640625,-0.22021484375,0.68408203125,-61.6455078125,-1.77001953125,0.54931640625,-15.941162109375,49.8614501953125,-158.192138671875
1758876698.9012666,-0.640625,-0.22021484375,0.68408203125,-61.6455078125,-1.77001953125,0.54931640625,-16.50146484375,49.8284912109375,-158.148193359375
1758876698.9118164,-0.58642578125,-0.125,0.68310546875,-82.33642578125,-2.86865234375,0.91552734375,-17.16064453125,49.7845458984375,-158.0987548828125
1758876698.9212773,-0.58642578125,-0.125,0.68310546875,-82.33642578125,-2.86865234375,0.91552734375,-17.9132080078125,49.735107421875,-158.0438232421875
1758876698.9312236,-0.58642578125,-0.125,0.68310546875,-82.763671875,-2.38037109375,0.8544921875,-18.665771484375,49.6856689453125,-157.9888916015625
1758876698.94201,-0.5888671875,-0.087890625,0.7158203125,-82.763671875,-2.38037109375,0.8544921875,-19.412841796875,49.63623046875,-157.9229736328125
1758876698.9512503,-0.5966796875,-0.22412109375,0.70263671875,-54.62646484375,-2.86865234375,0.67138671875,-20.0115966796875,49.581298828125,-157.862548828125
1758876698.9616575,-0.5966796875,-0.22412109375,0.70263671875,-54.62646484375,-2.86865234375,0.67138671875,-20.4730224609375,49.5208740234375,-157.8021240234375
1758876698.971843,-0.58251953125,-0.35205078125,0.6513671875,-26.611328125,-2.3193359375,-0.244140625,-20.80810546875,49.46044921875,-157.752685546875
1758876698.9813578,-0.58251953125,-0.35205078125,0.6513671875,-26.611328125,-2.3193359375,-0.244140625,-21.0113525390625,49.4000244140625,-157.7252197265625
1758876698.9912717,-0.66845703125,-0.35888671875,0.712890625,14.404296875,-2.99072265625,-1.3427734375,-21.0333251953125,49.3341064453125,-157.708740234375
1758876699.002048,-0.66845703125,-0.35888671875,0.712890625,14.404296875,-2.99072265625,-1.3427734375,-20.8575439453125,49.2572021484375,-157.7142333984375
1758876699.0113065,-0.82568359375,-0.40771484375,0.6796875,93.8720703125,-3.35693359375,-3.662109375,-20.3082275390625,49.1748046875,-157.7362060546875
1758876699.021439,-0.82568359375,-0.40771484375,0.6796875,93.8720703125,-3.35693359375,-3.662109375,-19.3963623046875,49.0924072265625,-157.78564453125
1758876699.0317852,-0.68994140625,-0.43017578125,0.6279296875,141.7236328125,-2.86865234375,-6.04248046875,-18.270263671875,49.010009765625,-157.862548828125
1758876699.0421557,-0.68994140625,-0.43017578125,0.6279296875,141.7236328125,-2.86865234375,-6.04248046875,-16.9354248046875,48.93310546875,-157.972412109375
1758876699.0514488,-0.60888671875,-0.31640625,0.40625,115.234375,-0.67138671875,-7.14111328125,-15.765380859375,48.8616943359375,-158.104248046875
1758876699.0615761,-0.60888671875,-0.31640625,0.40625,115.234375,-0.67138671875,-7.14111328125,-14.7491455078125,48.812255859375,-158.258056640625
1758876699.0719082,-0.6494140625,-0.185546875,0.36279296875,90.6982421875,1.5869140625,-8.056640625,-13.8702392578125,48.7738037109375,-158.4283447265625
1758876699.0817564,-0.6494140625,-0.185546875,0.36279296875,90.6982421875,1.5869140625,-8.056640625,-13.1341552734375,48.75732421875,-158.609619140625
1758876699.091451,-0.7958984375,-0.09814453125,0.6630859375,101.806640625,1.3427734375,-7.87353515625,-12.337646484375,48.7408447265625,-158.7799072265625
1758876699.1017354,-0.7958984375,-0.09814453125,0.6630859375,101.806640625,1.3427734375,-7.87353515625,-11.480712890625,48.7298583984375,-158.9447021484375
1758876699.1121347,-0.97607421875,-0.09716796875,0.81982421875,96.19140625,-1.15966796875,-7.87353515625,-10.6402587890625,48.7078857421875,-159.0985107421875
1758876699.121718,-0.97607421875,-0.09716796875,0.81982421875,96.19140625,-1.15966796875,-7.87353515625,-9.82177734375,48.680419921875,-159.2413330078125
1758876699.1314988,-0.92724609375,-0.10009765625,0.81591796875,78.61328125,-3.2958984375,-7.080078125,-9.0802001953125,48.6419677734375,-159.36767578125
1758876699.141943,-0.92724609375,-0.10009765625,0.81591796875,78.61328125,-3.2958984375,-7.080078125,-8.4210205078125,48.5980224609375,-159.4830322265625
1758876699.1520965,-1.63623046875,-0.099609375,0.46826171875,59.14306640625,-5.615234375,8.544921875,-7.7618408203125,48.5595703125,-159.4775390625
1758876699.1617732,-1.63623046875,-0.099609375,0.46826171875,59.14306640625,-5.615234375,8.544921875,-7.1136474609375,48.53759765625,-159.334716796875
1758876699.1718185,-1.189453125,0.01416015625,-0.21142578125,-3.173828125,-4.150390625,-1.89208984375,-6.8389892578125,48.53759765625,-159.2578125
1758876699.181727,-1.189453125,0.01416015625,-0.21142578125,-3.173828125,-4.150390625,-1.89208984375,-6.9378662109375,48.5650634765625,-159.246826171875
1758876699.192283,-0.7548828125,-0.13525390625,0.04052734375,-10.07080078125,-1.28173828125,-4.94384765625,-7.09716796875,48.6199951171875,-159.2523193359375
1758876699.2018952,-0.7548828125,-0.13525390625,0.04052734375,-10.07080078125,-1.28173828125,-4.94384765625,-7.3114013671875,48.702392578125,-159.290771484375
1758876699.2117658,-0.67333984375,-0.29248046875,0.24560546875,26.7333984375,6.2255859375,-0.8544921875,-7.327880859375,48.8232421875,-159.3072509765625
1758876699.2220004,-0.67333984375,-0.29248046875,0.24560546875,26.7333984375,6.2255859375,-0.8544921875,-7.152099609375,48.9825439453125,-159.312744140625
1758876699.2323146,-0.87451171875,-0.17431640625,0.81689453125,53.1005859375,5.126953125,-0.79345703125,-6.85546875,49.1363525390625,-159.32373046875
1758876699.2418878,-0.87451171875,-0.17431640625,0.81689453125,53.1005859375,5.126953125,-0.79345703125,-6.416015625,49.2681884765625,-159.3402099609375
1758876699.251731,-0.89013671875,-0.07275390625,1.125,42.236328125,2.38037109375,0.30517578125,-6.0150146484375,49.37255859375,-159.345703125
1758876699.2621806,-0.89013671875,-0.07275390625,1.125,42.236328125,2.38037109375,0.30517578125,-5.64697265625,49.449462890625,-159.345703125
1758876699.2721066,-0.6630859375,0.02978515625,0.79638671875,3.35693359375,0.48828125,1.03759765625,-5.460205078125,49.50439453125,-159.334716796875
1758876699.2818184,-0.6630859375,0.02978515625,0.79638671875,3.35693359375,0.48828125,1.03759765625,-5.4547119140625,49.537353515625,-159.3182373046875
1758876699.2917218,-0.607421875,0.0537109375,0.5849609375,-27.587890625,-1.03759765625,1.52587890625,-5.5865478515625,49.559326171875,-159.290771484375
1758876699.3023562,-0.607421875,0.0537109375,0.5849609375,-27.587890625,-1.03759765625,1.52587890625,-5.86669921875,49.5703125,-159.2578125
1758876699.3122082,-0.6669921875,0.01123046875,0.7158203125,-14.83154296875,-1.220703125,0.79345703125,-6.0699462890625,49.5758056640625,-159.224853515625
1758876699.3219986,-0.6669921875,0.01123046875,0.7158203125,-14.83154296875,-1.220703125,0.79345703125,-6.2127685546875,49.5758056640625,-159.1973876953125
1758876699.3318558,-0.7080078125,-0.150390625,0.798828125,5.7373046875,-1.5869140625,-0.3662109375,-6.2567138671875,49.5703125,-159.180908203125
1758876699.342467,-0.7080078125,-0.150390625,0.798828125,5.7373046875,-1.5869140625,-0.3662109375,-6.2017822265625,49.5538330078125,-159.180908203125
1758876699.3518314,-0.7119140625,-0.1962890625,0.681640625,4.57763671875,-2.3193359375,-2.13623046875,-6.1688232421875,49.5263671875,-159.202880859375
1758876699.3619845,-0.7119140625,-0.1962890625,0.681640625,4.57763671875,-2.3193359375,-2.13623046875,-6.1578369140625,49.493408203125,-159.246826171875
1758876699.3725274,-0.74853515625,-0.13671875,0.6181640625,21.66748046875,-1.708984375,-4.39453125,-6.0809326171875,49.4659423828125,-159.3072509765625
1758876699.3820088,-0.74853515625,-0.13671875,0.6181640625,21.66748046875,-1.708984375,-4.39453125,-5.9326171875,49.4384765625,-159.3951416015625
1758876699.3918643,-0.9208984375,-0.07763671875,0.56494140625,46.38671875,-0.6103515625,-3.90625,-5.6634521484375,49.41650390625,-159.4720458984375
1758876699.4026392,-0.9208984375,-0.07763671875,0.56494140625,46.38671875,-0.6103515625,-3.90625,-5.2679443359375,49.4110107421875,-159.5489501953125
1758876699.4119163,-0.83447265625,0.013671875,0.4140625,49.62158203125,0.06103515625,-6.103515625,-4.866943359375,49.4110107421875,-159.63134765625
1758876699.4220767,-0.83447265625,0.013671875,0.4140625,49.62158203125,0.06103515625,-6.103515625,-4.4659423828125,49.4219970703125,-159.7247314453125
1758876699.4324856,-0.73876953125,-0.0712890625,0.564453125,67.0166015625,0.48828125,-7.75146484375,-3.988037109375,49.4384765625,-159.8236083984375
1758876699.4420862,-0.73876953125,-0.0712890625,0.564453125,67.0166015625,0.48828125,-7.75146484375,-3.4332275390625,49.46044921875,-159.93896484375
1758876699.4520686,-0.73876953125,-0.0712890625,0.564453125,97.412109375,-0.3662109375,-9.70458984375,-2.7410888671875,49.471435546875,-160.07080078125
1758876699.462581,-0.703125,-0.20654296875,0.7998046875,97.412109375,-0.3662109375,-9.70458984375,-1.9171142578125,49.4769287109375,-160.235595703125
1758876699.472239,-0.685546875,-0.13525390625,0.865234375,111.2060546875,-1.28173828125,-9.82666015625,-1.0382080078125,49.471435546875,-160.411376953125
1758876699.4821332,-0.685546875,-0.13525390625,0.865234375,111.2060546875,-1.28173828125,-9.82666015625,-0.0933837890625,49.4549560546875,-160.6036376953125
1758876699.492719,-0.71044921875,0.09765625,0.6474609375,78.30810546875,-1.15966796875,-7.9345703125,0.6866455078125,49.4329833984375,-160.7904052734375
1758876699.502413,-0.71044921875,0.09765625,0.6474609375,78.30810546875,-1.15966796875,-7.9345703125,1.3238525390625,49.41650390625,-160.9552001953125
1758876699.5120752,-0.68017578125,0.1318359375,0.6474609375,67.81005859375,-2.86865234375,-7.99560546875,1.9171142578125,49.39453125,-161.114501953125
1758876699.5227103,-0.68017578125,0.1318359375,0.6474609375,67.81005859375,-2.86865234375,-7.99560546875,2.4609375,49.3560791015625,-161.2738037109375
1758876699.532301,-0.92138671875,0.150390625,0.703125,35.21728515625,-3.60107421875,-3.2958984375,2.8729248046875,49.3231201171875,-161.38916015625
1758876699.5422926,-0.92138671875,0.150390625,0.703125,35.21728515625,-3.60107421875,-3.2958984375,3.1640625,49.28466796875,-161.4605712890625
1758876699.5529191,-0.81103515625,0.16259765625,0.42529296875,18.49365234375,-2.99072265625,-4.150390625,3.3673095703125,49.251708984375,-161.5264892578125
1758876699.5622833,-0.81103515625,0.16259765625,0.42529296875,18.49365234375,-2.99072265625,-4.150390625,3.49365234375,49.229736328125,-161.5924072265625
1758876699.5722437,-0.73046875,-0.02099609375,0.5205078125,13.3056640625,-3.2958984375,-3.72314453125,3.5980224609375,49.2132568359375,-161.6473388671875
1758876699.5826726,-0.73046875,-0.02099609375,0.5205078125,13.3056640625,-3.2958984375,-3.72314453125,3.6749267578125,49.19677734375,-161.69677734375
1758876699.5922148,-0.73388671875,0.02001953125,0.8408203125,12.6953125,-3.0517578125,-2.99072265625,3.75732421875,49.1802978515625,-161.751708984375
1758876699.6023638,-0.73388671875,0.02001953125,0.8408203125,12.6953125,-3.0517578125,-2.99072265625,3.834228515625,49.1583251953125,-161.806640625
1758876699.6127672,-0.72802734375,0.02490234375,0.759765625,17.88330078125,-2.50244140625,-2.8076171875,3.9385986328125,49.130859375,-161.861572265625
1758876699.6223187,-0.72802734375,0.02490234375,0.759765625,17.88330078125,-2.50244140625,-2.8076171875,4.0704345703125,49.10888671875,-161.9219970703125
1758876699.6323235,-0.68505859375,-0.02392578125,0.60791015625,33.447265625,-2.62451171875,-3.96728515625,4.2681884765625,49.0814208984375,-161.993408203125
1758876699.6427808,-0.68505859375,-0.02392578125,0.60791015625,33.447265625,-2.62451171875,-3.96728515625,4.537353515625,49.053955078125,-162.081298828125
1758876699.6522763,-0.6884765625,-0.01513671875,0.76171875,50.84228515625,-2.86865234375,-2.62451171875,4.8944091796875,49.0264892578125,-162.1636962890625
1758876699.6624422,-0.6884765625,-0.01513671875,0.76171875,50.84228515625,-2.86865234375,-2.62451171875,5.3448486328125,48.9935302734375,-162.235107421875
1758876699.6728482,-0.69140625,0.09033203125,0.736328125,26.9775390625,-2.25830078125,-1.15966796875,5.679931640625,48.955078125,-162.3065185546875
1758876699.6824205,-0.69140625,0.09033203125,0.736328125,26.9775390625,-2.25830078125,-1.15966796875,5.9051513671875,48.922119140625,-162.366943359375
1758876699.6923857,-0.734375,0.06640625,0.7509765625,52.55126953125,-2.685546875,-0.6103515625,6.26220703125,48.8836669921875,-162.421875
1758876699.702973,-0.734375,0.06640625,0.7509765625,52.55126953125,-2.685546875,-0.6103515625,6.7510986328125,48.84521484375,-162.4713134765625
1758876699.7124152,-0.7001953125,0.09375,0.68115234375,75.01220703125,-2.8076171875,-2.50244140625,7.3388671875,48.80126953125,-162.542724609375
1758876699.7225006,-0.7001953125,0.09375,0.68115234375,75.01220703125,-2.8076171875,-2.50244140625,8.0255126953125,48.7628173828125,-162.630615234375
1758876699.7329905,-0.77880859375,0.10693359375,0.7421875,119.5068359375,-3.41796875,-2.5634765625,8.931884765625,48.7188720703125,-162.718505859375
1758876699.7424893,-0.77880859375,0.10693359375,0.7421875,119.5068359375,-3.41796875,-2.5634765625,10.052490234375,48.6749267578125,-162.8118896484375
1758876699.7530298,-0.78173828125,0.0927734375,0.666015625,83.43505859375,-3.5400390625,0.18310546875,11.00830078125,48.6309814453125,-162.88330078125
1758876699.7626064,-0.78173828125,0.0927734375,0.666015625,83.43505859375,-3.5400390625,0.18310546875,11.7938232421875,48.5870361328125,-162.938232421875
1758876699.772498,-0.74853515625,0.23583984375,0.474609375,38.4521484375,-3.35693359375,1.5869140625,12.3651123046875,48.53759765625,-162.982177734375
1758876699.7826574,-0.74853515625,0.23583984375,0.474609375,38.4521484375,-3.35693359375,1.5869140625,12.72216796875,48.4991455078125,-163.004150390625
1758876699.7929683,-0.7939453125,0.2392578125,0.49365234375,-1.953125,-2.3193359375,3.23486328125,12.7056884765625,48.4716796875,-162.9876708984375
1758876699.8026884,-0.7939453125,0.2392578125,0.49365234375,-1.953125,-2.3193359375,3.23486328125,12.7001953125,48.4442138671875,-162.960205078125
1758876699.8126435,-0.8046875,0.25439453125,0.54052734375,-28.80859375,-1.03759765625,3.5400390625,12.4420166015625,48.438720703125,-162.916259765625
1758876699.823187,-0.8046875,0.25439453125,0.54052734375,-28.80859375,-1.03759765625,3.5400390625,12.19482421875,48.427734375,-162.8668212890625
1758876699.8326197,-0.7666015625,0.12939453125,0.5654296875,-31.005859375,-1.15966796875,3.7841796875,11.9256591796875,48.4222412109375,-162.806396484375
1758876699.84274,-0.7666015625,0.12939453125,0.5654296875,-31.005859375,-1.15966796875,3.7841796875,11.6619873046875,48.416748046875,-162.7459716796875
1758876699.8531246,-0.76220703125,0.07177734375,0.62841796875,-27.2216796875,-1.28173828125,2.685546875,11.4202880859375,48.4112548828125,-162.70751953125
1758876699.8627698,-0.76220703125,0.07177734375,0.62841796875,-27.2216796875,-1.28173828125,2.685546875,11.1785888671875,48.4112548828125,-162.6690673828125
1758876699.8726113,-0.7451171875,0.09521484375,0.69580078125,-21.42333984375,-1.40380859375,2.197265625,10.986328125,48.4002685546875,-162.6416015625
1758876699.882755,-0.7451171875,0.09521484375,0.69580078125,-21.42333984375,-1.40380859375,2.197265625,10.7940673828125,48.394775390625,-162.6141357421875
1758876699.8931203,-0.720703125,0.11767578125,0.70751953125,-8.544921875,-1.953125,1.3427734375,10.72265625,48.3782958984375,-162.608642578125
1758876699.9027762,-0.720703125,0.11767578125,0.70751953125,-8.544921875,-1.953125,1.3427734375,10.645751953125,48.36181640625,-162.6031494140625
1758876699.9127045,-0.728515625,0.1171875,0.685546875,4.33349609375,-2.44140625,0.67138671875,10.689697265625,48.33984375,-162.6141357421875
1758876699.923092,-0.728515625,0.1171875,0.685546875,4.33349609375,-2.44140625,0.67138671875,10.733642578125,48.31787109375,-162.6251220703125
1758876699.932719,-0.7392578125,0.1240234375,0.64501953125,10.19287109375,-2.99072265625,0.30517578125,10.83251953125,48.2904052734375,-162.6416015625
1758876699.9428952,-0.7392578125,0.1240234375,0.64501953125,10.19287109375,-2.99072265625,0.30517578125,10.931396484375,48.262939453125,-162.6580810546875
1758876699.9533944,-0.74462890625,0.126953125,0.6591796875,14.95361328125,-2.99072265625,0.06103515625,11.0687255859375,48.22998046875,-162.674560546875
1758876699.9629145,-0.74462890625,0.126953125,0.6591796875,14.95361328125,-2.99072265625,0.06103515625,11.2115478515625,48.2025146484375,-162.696533203125
1758876699.9728336,-0.7470703125,0.12841796875,0.66796875,24.23095703125,-2.62451171875,-0.3662109375,11.436767578125,48.1805419921875,-162.7239990234375
1758876699.9833794,-0.7470703125,0.12841796875,0.66796875,24.23095703125,-2.62451171875,-0.3662109375,11.6619873046875,48.1585693359375,-162.7459716796875
1758876699.9928074,-0.74755859375,0.1318359375,0.6845703125,35.888671875,-1.5869140625,-0.732421875,12.0025634765625,48.14208984375,-162.7789306640625
1758876700.0031903,-0.74755859375,0.1318359375,0.6845703125,35.888671875,-1.5869140625,-0.732421875,12.3431396484375,48.1256103515625,-162.806396484375
1758876700.0134804,-0.72900390625,0.15380859375,0.69384765625,36.43798828125,-0.732421875,-0.79345703125,12.6837158203125,48.1201171875,-162.83935546875
1758876700.0229442,-0.72900390625,0.15380859375,0.69384765625,36.43798828125,-0.732421875,-0.79345703125,13.0242919921875,48.1146240234375,-162.8668212890625
1758876700.0331964,-0.7177734375,0.18408203125,0.65771484375,29.1748046875,-0.3662109375,-0.6103515625,13.2989501953125,48.109130859375,-162.894287109375
1758876700.0432498,-0.7177734375,0.18408203125,0.65771484375,29.1748046875,-0.3662109375,-0.6103515625,13.5736083984375,48.1036376953125,-162.9217529296875
1758876700.0529542,-0.73486328125,0.1748046875,0.66455078125,35.2783203125,-0.3662109375,-0.244140625,13.9141845703125,48.0926513671875,-162.9437255859375
1758876700.063428,-0.73486328125,0.1748046875,0.66455078125,35.2783203125,-0.3662109375,-0.244140625,14.249267578125,48.087158203125,-162.9656982421875
1758876700.0742714,-0.73095703125,0.13720703125,0.67626953125,34.5458984375,-0.48828125,0.9765625,14.58984375,48.076171875,-162.9766845703125
1758876700.0830846,-0.73095703125,0.13720703125,0.67626953125,34.5458984375,-0.48828125,0.9765625,14.930419921875,48.065185546875,-162.9876708984375
1758876700.0930214,-0.7236328125,0.15771484375,0.65966796875,32.53173828125,0.0,1.0986328125,15.2490234375,48.05419921875,-162.9986572265625
1758876700.1035264,-0.7236328125,0.15771484375,0.65966796875,32.53173828125,0.0,1.0986328125,15.567626953125,48.0487060546875,-163.0096435546875
1758876700.1131425,-0.73583984375,0.19189453125,0.7099609375,44.12841796875,0.18310546875,0.48828125,15.99609375,48.043212890625,-163.0316162109375
1758876700.123177,-0.73583984375,0.19189453125,0.7099609375,44.12841796875,0.18310546875,0.48828125,16.4190673828125,48.0377197265625,-163.0535888671875
1758876700.1334944,-0.72705078125,0.20361328125,0.68310546875,39.85595703125,-0.30517578125,0.79345703125,16.8035888671875,48.021240234375,-163.0810546875
1758876700.1430125,-0.72705078125,0.20361328125,0.68310546875,39.85595703125,-0.30517578125,0.79345703125,17.1881103515625,48.01025390625,-163.10302734375
1758876700.1534624,-0.68310546875,0.1669921875,0.6455078125,52.3681640625,-0.67138671875,-0.67138671875,17.6824951171875,47.9937744140625,-163.1524658203125
1758876700.1634178,-0.68310546875,0.1669921875,0.6455078125,52.3681640625,-0.67138671875,-0.67138671875,18.1658935546875,47.9827880859375,-163.201904296875
1758876700.1730552,-0.7236328125,0.16162109375,0.71142578125,75.0732421875,-1.40380859375,-1.8310546875,18.863525390625,47.96630859375,-163.2733154296875
1758876700.1830766,-0.7236328125,0.16162109375,0.71142578125,75.0732421875,-1.40380859375,-1.8310546875,19.5556640625,47.9498291015625,-163.355712890625
1758876700.1930943,-0.6953125,0.13916015625,0.76025390625,86.60888671875,-2.5634765625,-4.2724609375,20.32470703125,47.9278564453125,-163.4765625
1758876700.203622,-0.6953125,0.13916015625,0.76025390625,86.60888671875,-2.5634765625,-4.2724609375,21.082763671875,47.9058837890625,-163.6083984375
1758876700.2131546,-0.61279296875,0.2314453125,0.640625,85.205078125,-3.96728515625,-4.57763671875,21.81884765625,47.8729248046875,-163.7567138671875
1758876700.2231276,-0.61279296875,0.2314453125,0.640625,85.205078125,-3.96728515625,-4.57763671875,22.554931640625,47.8399658203125,-163.905029296875
1758876700.2336233,-0.47412109375,0.32275390625,0.5654296875,62.31689453125,-3.47900390625,-6.65283203125,23.0438232421875,47.8125,-164.080810546875
1758876700.2439346,-0.47412109375,0.32275390625,0.5654296875,62.31689453125,-3.47900390625,-6.65283203125,23.5382080078125,47.7850341796875,-164.256591796875
1758876700.2533672,-0.6220703125,0.5234375,0.77685546875,5.2490234375,-7.38525390625,-2.99072265625,23.4942626953125,47.70263671875,-164.3994140625
1758876700.2631896,-0.6220703125,0.5234375,0.77685546875,5.2490234375,-7.38525390625,-2.99072265625,23.4613037109375,47.61474609375,-164.542236328125
1758876700.2750793,-0.61181640625,0.50537109375,0.77099609375,-24.169921875,-7.4462890625,-2.13623046875,23.1536865234375,47.515869140625,-164.6685791015625
1758876700.2831903,-0.61181640625,0.50537109375,0.77099609375,-24.169921875,-7.4462890625,-2.13623046875,22.8570556640625,47.4114990234375,-164.7894287109375
1758876700.2933855,-0.6025390625,0.36865234375,0.82470703125,-37.7197265625,-10.3759765625,-1.28173828125,22.4285888671875,47.274169921875,-164.9212646484375
1758876700.3032827,-0.6025390625,0.36865234375,0.82470703125,-37.7197265625,-10.3759765625,-1.28173828125,22.0001220703125,47.1368408203125,-165.0531005859375
1758876700.3138752,-0.5908203125,0.2919921875,0.7333984375,-64.697265625,-9.6435546875,-0.244140625,21.3189697265625,46.9940185546875,-165.1629638671875
1758876700.3234198,-0.5908203125,0.2919921875,0.7333984375,-64.697265625,-9.6435546875,-0.244140625,20.643310546875,46.856689453125,-165.2728271484375
1758876700.3334446,-0.5634765625,0.25537109375,0.552734375,-91.49169921875,-9.765625,-0.67138671875,19.7039794921875,46.7193603515625,-165.3826904296875
1758876700.343341,-0.5634765625,0.25537109375,0.552734375,-91.49169921875,-9.765625,-0.67138671875,18.775634765625,46.58203125,-165.4815673828125
1758876700.3541117,-0.62060546875,0.28076171875,0.6689453125,-115.66162109375,-9.33837890625,-0.54931640625,17.611083984375,46.4501953125,-165.56396484375
1758876700.363427,-0.62060546875,0.28076171875,0.6689453125,-115.66162109375,-9.33837890625,-0.54931640625,16.4630126953125,46.318359375,-165.6463623046875
1758876700.3738697,-0.7333984375,0.2939453125,0.61865234375,-131.9580078125,-6.89697265625,-0.732421875,15.1666259765625,46.2139892578125,-165.7012939453125
1758876700.3834417,-0.7333984375,0.2939453125,0.61865234375,-131.9580078125,-6.89697265625,-0.732421875,13.8812255859375,46.1151123046875,-165.7452392578125
1758876700.3941345,-0.8310546875,0.20556640625,0.51318359375,-105.40771484375,-5.859375,1.0986328125,12.886962890625,46.03271484375,-165.73974609375
1758876700.4034042,-0.8310546875,0.20556640625,0.51318359375,-105.40771484375,-5.859375,1.0986328125,11.9036865234375,45.9613037109375,-165.7232666015625
1758876700.4135292,-0.8818359375,0.1435546875,0.7060546875,-87.70751953125,-5.9814453125,2.685546875,11.107177734375,45.889892578125,-165.673828125
1758876700.424187,-0.8818359375,0.1435546875,0.7060546875,-87.70751953125,-5.9814453125,2.685546875,10.316162109375,45.823974609375,-165.618896484375
1758876700.4337254,-0.90625,0.05322265625,0.630859375,-58.2275390625,-5.43212890625,2.8076171875,9.810791015625,45.76904296875,-165.5584716796875
1758876700.443431,-0.90625,0.05322265625,0.630859375,-58.2275390625,-5.43212890625,2.8076171875,9.305419921875,45.7196044921875,-165.4925537109375
1758876700.4535978,-0.90625,0.05322265625,0.630859375,-28.3203125,-5.37109375,1.8310546875,9.07470703125,45.68115234375,-165.443115234375
1758876700.4643018,-0.923828125,-0.0244140625,0.64794921875,-28.3203125,-5.37109375,1.8310546875,8.8385009765625,45.648193359375,-165.399169921875
1758876700.4736204,-0.86328125,0.03515625,0.58203125,-32.1044921875,-5.2490234375,2.50244140625,8.5638427734375,45.6207275390625,-165.3387451171875
1758876700.4835474,-0.86328125,0.03515625,0.58203125,-32.1044921875,-5.2490234375,2.50244140625,8.28369140625,45.59326171875,-165.2783203125
1758876700.4944398,-0.767578125,0.09326171875,0.5009765625,-35.888671875,-3.84521484375,2.99072265625,7.97607421875,45.582275390625,-165.201416015625
1758876700.5038364,-0.767578125,0.09326171875,0.5009765625,-35.888671875,-3.84521484375,2.99072265625,7.66845703125,45.5767822265625,-165.12451171875
1758876700.513714,-0.72998046875,0.1474609375,0.50634765625,-36.56005859375,-2.197265625,3.35693359375,7.3553466796875,45.59326171875,-165.03662109375
1758876700.523515,-0.72998046875,0.1474609375,0.50634765625,-36.56005859375,-2.197265625,3.35693359375,7.05322265625,45.604248046875,-164.937744140625
1758876700.5344386,-0.7578125,0.1416015625,0.61376953125,-25.08544921875,-1.03759765625,3.11279296875,6.8609619140625,45.6317138671875,-164.8388671875
1758876700.5436459,-0.7578125,0.1416015625,0.61376953125,-25.08544921875,-1.03759765625,3.11279296875,6.6741943359375,45.6536865234375,-164.739990234375
1758876700.553712,-0.77294921875,0.072265625,0.7119140625,-18.98193359375,-0.732421875,2.86865234375,6.5423583984375,45.68115234375,-164.6466064453125
1758876700.564005,-0.77294921875,0.072265625,0.7119140625,-18.98193359375,-0.732421875,2.86865234375,6.405029296875,45.703125,-164.55322265625
1758876700.574346,-0.75146484375,0.0478515625,0.68505859375,-20.5078125,-0.48828125,3.11279296875,6.2567138671875,45.72509765625,-164.46533203125
1758876700.5837061,-0.75146484375,0.0478515625,0.68505859375,-20.5078125,-0.48828125,3.11279296875,6.1029052734375,45.7470703125,-164.3829345703125
1758876700.593818,-0.70166015625,0.03369140625,0.611328125,-17.08984375,0.06103515625,2.38037109375,5.9765625,45.76904296875,-164.3060302734375
1758876700.604186,-0.70166015625,0.03369140625,0.611328125,-17.08984375,0.06103515625,2.38037109375,5.8447265625,45.7965087890625,-164.234619140625
1758876700.6137564,-0.7109375,0.07080078125,0.6748046875,-12.8173828125,0.3662109375,1.3427734375,5.745849609375,45.823974609375,-164.1796875
1758876700.6236618,-0.7109375,0.07080078125,0.6748046875,-12.8173828125,0.3662109375,1.3427734375,5.64697265625,45.845947265625,-164.124755859375
1758876700.6338694,-0.72216796875,0.0986328125,0.72216796875,-10.80322265625,0.18310546875,0.91552734375,5.5645751953125,45.867919921875,-164.080810546875
1758876700.6442397,-0.72216796875,0.0986328125,0.72216796875,-10.80322265625,0.18310546875,0.91552734375,5.4766845703125,45.8843994140625,-164.036865234375
1758876700.6538465,-0.71044921875,0.10546875,0.73681640625,-7.8125,-0.06103515625,0.48828125,5.4217529296875,45.90087890625,-164.00390625
1758876700.6637452,-0.71044921875,0.10546875,0.73681640625,-7.8125,-0.06103515625,0.48828125,5.361328125,45.9063720703125,-163.970947265625
1758876700.6742275,-0.685546875,0.078125,0.69384765625,-13.12255859375,-0.244140625,0.18310546875,5.25146484375,45.9173583984375,-163.9434814453125
1758876700.6837544,-0.685546875,0.078125,0.69384765625,-13.12255859375,-0.244140625,0.18310546875,5.1361083984375,45.9173583984375,-163.9215087890625
1758876700.693936,-0.66259765625,0.0625,0.69189453125,-20.08056640625,0.18310546875,-0.3662109375,4.9493408203125,45.9283447265625,-163.905029296875
1758876700.7038348,-0.66259765625,0.0625,0.69189453125,-20.08056640625,0.18310546875,-0.3662109375,4.757080078125,45.933837890625,-163.89404296875
1758876700.7145963,-0.6806640625,0.076171875,0.73779296875,-19.71435546875,0.30517578125,-0.1220703125,4.5758056640625,45.9393310546875,-163.883056640625
1758876700.7238016,-0.6806640625,0.076171875,0.73779296875,-19.71435546875,0.30517578125,-0.1220703125,4.39453125,45.9393310546875,-163.8665771484375
1758876700.7344277,-0.6650390625,0.080078125,0.78076171875,-18.98193359375,0.0,-0.42724609375,4.21875,45.933837890625,-163.861083984375
1758876700.7439234,-0.6650390625,0.080078125,0.78076171875,-18.98193359375,0.0,-0.42724609375,4.0374755859375,45.9283447265625,-163.861083984375
1758876700.7539773,-0.638671875,0.0673828125,0.7265625,-28.13720703125,-0.42724609375,0.67138671875,3.779296875,45.9173583984375,-163.8446044921875
1758876700.7638662,-0.62255859375,0.056640625,0.72705078125,-36.62109375,0.06103515625,0.67138671875,3.482666015625,45.90087890625,-163.828125
1758876700.774464,-0.62255859375,0.056640625,0.72705078125,-36.62109375,0.06103515625,0.67138671875,3.14208984375,45.889892578125,-163.8116455078125
1758876700.783888,-0.64453125,0.052734375,0.75537109375,-32.470703125,0.06103515625,0.67138671875,2.823486328125,45.8734130859375,-163.8006591796875
1758876700.794024,-0.64453125,0.052734375,0.75537109375,-32.470703125,0.06103515625,0.67138671875,2.52685546875,45.8624267578125,-163.7841796875
1758876700.8043306,-0.677734375,-0.00439453125,0.75732421875,-22.52197265625,0.0,0.67138671875,2.2796630859375,45.8404541015625,-163.773193359375
1758876700.8140757,-0.677734375,-0.00439453125,0.75732421875,-22.52197265625,0.0,0.67138671875,2.076416015625,45.823974609375,-163.7677001953125
1758876700.8239462,-0.6845703125,-0.0166015625,0.7421875,-13.85498046875,-0.30517578125,0.91552734375,1.9171142578125,45.802001953125,-163.7567138671875
1758876700.834162,-0.6845703125,-0.0166015625,0.7421875,-13.85498046875,-0.30517578125,0.91552734375,1.8017578125,45.780029296875,-163.751220703125
1758876700.8445382,-0.6796875,-0.01904296875,0.7314453125,4.150390625,-0.3662109375,0.8544921875,1.7742919921875,45.758056640625,-163.7457275390625
1758876700.8541338,-0.6796875,-0.01904296875,0.7314453125,4.150390625,-0.3662109375,0.8544921875,1.8292236328125,45.736083984375,-163.7457275390625
1758876700.8639808,-0.64697265625,-0.02880859375,0.6787109375,7.38525390625,0.30517578125,0.67138671875,1.900634765625,45.7196044921875,-163.740234375
1758876700.8745794,-0.64697265625,-0.02880859375,0.6787109375,7.38525390625,0.30517578125,0.67138671875,1.9775390625,45.7086181640625,-163.7457275390625
1758876700.8841946,-0.67724609375,0.01513671875,0.6728515625,0.6103515625,0.8544921875,0.30517578125,2.021484375,45.6976318359375,-163.751220703125
1758876700.8942015,-0.67724609375,0.01513671875,0.6728515625,0.6103515625,0.8544921875,0.30517578125,2.0269775390625,45.6866455078125,-163.76220703125
1758876700.9042845,-0.7802734375,0.06982421875,0.75244140625,0.0,0.6103515625,0.9765625,2.0379638671875,45.68115234375,-163.76220703125
1758876700.9146264,-0.7802734375,0.06982421875,0.75244140625,0.0,0.6103515625,0.9765625,2.04345703125,45.6756591796875,-163.751220703125
1758876700.924105,-0.87744140625,0.03857421875,0.794921875,0.3662109375,-0.54931640625,1.64794921875,2.0654296875,45.6646728515625,-163.740234375
1758876700.9342837,-0.87744140625,0.03857421875,0.794921875,0.3662109375,-0.54931640625,1.64794921875,2.08740234375,45.6536865234375,-163.71826171875
1758876700.944774,-0.810546875,0.0087890625,0.6826171875,-6.04248046875,-1.52587890625,2.685546875,2.0819091796875,45.63720703125,-163.685302734375
1758876700.9542665,-0.810546875,0.0087890625,0.6826171875,-6.04248046875,-1.52587890625,2.685546875,2.0489501953125,45.6207275390625,-163.641357421875
1758876700.9642253,-0.74853515625,-0.0048828125,0.58740234375,-10.6201171875,-1.5869140625,3.11279296875,1.9940185546875,45.604248046875,-163.597412109375
1758876700.97606,-0.74853515625,-0.0048828125,0.58740234375,-10.6201171875,-1.5869140625,3.11279296875,1.9171142578125,45.59326171875,-163.54248046875
1758876700.984679,-0.74951171875,0.00390625,0.58154296875,-16.17431640625,-0.48828125,3.41796875,1.8182373046875,45.5877685546875,-163.487548828125
1758876700.994276,-0.74951171875,0.00390625,0.58154296875,-16.17431640625,-0.48828125,3.41796875,1.6864013671875,45.59326171875,-163.4271240234375
1758876701.004239,-0.77099609375,0.0224609375,0.623046875,-16.90673828125,-0.1220703125,3.662109375,1.56005859375,45.604248046875,-163.3612060546875
1758876701.0148315,-0.77099609375,0.0224609375,0.623046875,-16.90673828125,-0.1220703125,3.662109375,1.42822265625,45.615234375,-163.289794921875
1758876701.0242252,-0.7802734375,0.01416015625,0.66357421875,-14.2822265625,0.3662109375,4.0283203125,1.3128662109375,45.6317138671875,-163.2183837890625
1758876701.0343897,-0.7802734375,0.01416015625,0.66357421875,-14.2822265625,0.3662109375,4.0283203125,1.20849609375,45.6536865234375,-163.135986328125
1758876701.0449777,-0.77685546875,0.0087890625,0.65087890625,-17.76123046875,0.244140625,4.57763671875,1.0931396484375,45.670166015625,-163.0535888671875
1758876701.054426,-0.77685546875,0.0087890625,0.65087890625,-17.76123046875,0.244140625,4.57763671875,0.966796875,45.692138671875,-162.97119140625
1758876701.064306,-0.76123046875,0.0,0.64306640625,-14.892578125,0.48828125,4.82177734375,0.8514404296875,45.714111328125,-162.8778076171875
1758876701.0744355,-0.76123046875,0.0,0.64306640625,-14.892578125,0.48828125,4.82177734375,0.758056640625,45.736083984375,-162.784423828125
1758876701.0849674,-0.75146484375,-0.0087890625,0.64208984375,-9.765625,0.6103515625,4.57763671875,0.68115234375,45.7635498046875,-162.696533203125
1758876701.0945237,-0.75146484375,-0.0087890625,0.64208984375,-9.765625,0.6103515625,4.57763671875,0.6317138671875,45.7855224609375,-162.6031494140625
1758876701.1043656,-0.74365234375,0.00927734375,0.66650390625,-7.62939453125,1.15966796875,4.0283203125,0.5877685546875,45.81298828125,-162.520751953125
1758876701.1148112,-0.74365234375,0.00927734375,0.66650390625,-7.62939453125,1.15966796875,4.0283203125,0.5548095703125,45.845947265625,-162.4383544921875
1758876701.124417,-0.732421875,0.01220703125,0.68359375,-7.32421875,1.5869140625,3.90625,0.5218505859375,45.87890625,-162.35595703125
1758876701.1348386,-0.732421875,0.01220703125,0.68359375,-7.32421875,1.5869140625,3.90625,0.4888916015625,45.9063720703125,-162.279052734375
1758876701.1447098,-0.72412109375,0.00927734375,0.69482421875,-12.20703125,1.64794921875,4.0283203125,0.4339599609375,45.9393310546875,-162.2021484375
1758876701.1545482,-0.72412109375,0.00927734375,0.69482421875,-12.20703125,1.64794921875,4.0283203125,0.3570556640625,45.9722900390625,-162.1197509765625
1758876701.1644309,-0.70654296875,0.01025390625,0.69140625,-16.05224609375,1.52587890625,3.96728515625,0.2581787109375,45.999755859375,-162.0428466796875
1758876701.1751122,-0.70654296875,0.01025390625,0.69140625,-16.05224609375,1.52587890625,3.96728515625,0.142822265625,46.0272216796875,-161.9659423828125
1758876701.1845098,-0.69384765625,0.00146484375,0.69677734375,-16.05224609375,1.40380859375,3.84521484375,0.0274658203125,46.0491943359375,-161.8890380859375
1758876701.1946802,-0.69384765625,0.00146484375,0.69677734375,-16.05224609375,1.40380859375,3.84521484375,-0.0823974609375,46.0711669921875,-161.817626953125
1758876701.2050474,-0.68115234375,-0.0107421875,0.716796875,-15.625,1.28173828125,3.60107421875,-0.19775390625,46.087646484375,-161.7462158203125
1758876701.2146547,-0.68115234375,-0.0107421875,0.716796875,-15.625,1.28173828125,3.60107421875,-0.3131103515625,46.1041259765625,-161.6802978515625
1758876701.224528,-0.6689453125,-0.02294921875,0.74169921875,-8.544921875,1.03759765625,3.35693359375,-0.3955078125,46.12060546875,-161.619873046875
1758876701.2350576,-0.6689453125,-0.02294921875,0.74169921875,-8.544921875,1.03759765625,3.35693359375,-0.439453125,46.131591796875,-161.56494140625
1758876701.2451656,-0.6533203125,-0.0439453125,0.75390625,-0.9765625,0.9765625,2.99072265625,-0.450439453125,46.1370849609375,-161.510009765625
1758876701.2547011,-0.6533203125,-0.0439453125,0.75390625,-0.9765625,0.9765625,2.99072265625,-0.4339599609375,46.142578125,-161.466064453125
1758876701.2646425,-0.63671875,-0.0400390625,0.76513671875,0.18310546875,0.67138671875,2.74658203125,-0.406494140625,46.1370849609375,-161.4276123046875
1758876701.2754288,-0.63671875,-0.0400390625,0.76513671875,0.18310546875,0.67138671875,2.74658203125,-0.3790283203125,46.1370849609375,-161.400146484375
1758876701.2846825,-0.626953125,-0.01953125,0.7587890625,2.01416015625,0.54931640625,2.197265625,-0.3515625,46.1260986328125,-161.378173828125
1758876701.2948396,-0.626953125,-0.01953125,0.7587890625,2.01416015625,0.54931640625,2.197265625,-0.3131103515625,46.1151123046875,-161.356201171875
1758876701.3056045,-0.6318359375,-0.0205078125,0.73291015625,9.521484375,0.732421875,1.46484375,-0.24169921875,46.1041259765625,-161.3507080078125
1758876701.3151186,-0.6318359375,-0.0205078125,0.73291015625,9.521484375,0.732421875,1.46484375,-0.1373291015625,46.0931396484375,-161.34521484375
1758876701.3246453,-0.64208984375,-0.02197265625,0.740234375,19.04296875,1.03759765625,0.6103515625,0.0,46.07666015625,-161.356201171875
1758876701.3352528,-0.64208984375,-0.02197265625,0.740234375,19.04296875,1.03759765625,0.6103515625,0.186767578125,46.065673828125,-161.3671875
1758876701.3451827,-0.66845703125,-0.01708984375,0.74560546875,27.28271484375,1.0986328125,0.1220703125,0.4119873046875,46.0546875,-161.38916015625
1758876701.3549354,-0.66845703125,-0.01708984375,0.74560546875,27.28271484375,1.0986328125,0.1220703125,0.670166015625,46.043701171875,-161.4166259765625
1758876701.3648293,-0.69580078125,0.013671875,0.73779296875,28.1982421875,0.54931640625,-0.1220703125,0.933837890625,46.03271484375,-161.444091796875
1758876701.3754876,-0.69580078125,0.013671875,0.73779296875,28.1982421875,0.54931640625,-0.1220703125,1.197509765625,46.0162353515625,-161.4715576171875
1758876701.384792,-0.71435546875,0.06787109375,0.72607421875,28.076171875,0.0,-0.30517578125,1.4666748046875,45.9942626953125,-161.4990234375
1758876701.3948956,-0.71435546875,0.06787109375,0.72607421875,28.076171875,0.0,-0.30517578125,1.7303466796875,45.977783203125,-161.5264892578125
1758876701.4057524,-0.724609375,0.12548828125,0.7412109375,17.15087890625,-1.03759765625,-0.30517578125,1.944580078125,45.955810546875,-161.5484619140625
1758876701.414911,-0.724609375,0.12548828125,0.7412109375,17.15087890625,-1.03759765625,-0.30517578125,2.109375,45.9283447265625,-161.56494140625
1758876701.4247906,-0.716796875,0.14794921875,0.7646484375,0.42724609375,-1.46484375,0.79345703125,2.197265625,45.8953857421875,-161.5704345703125
1758876701.434962,-0.716796875,0.14794921875,0.7646484375,0.42724609375,-1.46484375,0.79345703125,2.2137451171875,45.8624267578125,-161.56494140625
1758876701.4454064,-0.67041015625,0.13427734375,0.69189453125,-18.37158203125,-2.0751953125,2.3193359375,2.1478271484375,45.8294677734375,-161.54296875
1758876701.454968,-0.67041015625,0.13427734375,0.69189453125,-18.37158203125,-2.0751953125,2.3193359375,2.0050048828125,45.791015625,-161.510009765625
1758876701.4649565,-0.65478515625,0.07666015625,0.6416015625,-27.4658203125,-1.5869140625,2.62451171875,1.82373046875,45.758056640625,-161.466064453125
1758876701.4754848,-0.65478515625,0.07666015625,0.6416015625,-27.4658203125,-1.5869140625,2.62451171875,1.593017578125,45.7305908203125,-161.422119140625
1758876701.48513,-0.65380859375,0.044921875,0.61376953125,-21.66748046875,-0.732421875,3.2958984375,1.4007568359375,45.703125,-161.3616943359375
1758876701.495051,-0.65380859375,0.044921875,0.61376953125,-21.66748046875,-0.732421875,3.2958984375,1.2469482421875,45.6866455078125,-161.30126953125
1758876701.5049424,-0.7216796875,-0.11572265625,0.68017578125,-5.67626953125,0.0,2.197265625,1.1590576171875,45.670166015625,-161.2518310546875
1758876701.515575,-0.7216796875,-0.11572265625,0.68017578125,-5.67626953125,0.0,2.197265625,1.1370849609375,45.6646728515625,-161.2078857421875
1758876701.5249493,-0.7431640625,-0.21875,0.78515625,-3.662109375,-0.6103515625,0.0,1.109619140625,45.6536865234375,-161.19140625
1758876701.5355706,-0.7431640625,-0.21875,0.78515625,-3.662109375,-0.6103515625,0.0,1.065673828125,45.6427001953125,-161.202392578125
1758876701.5451145,-0.7275390625,-0.13232421875,0.6826171875,2.9296875,-0.244140625,-0.06103515625,1.043701171875,45.6317138671875,-161.2188720703125
1758876701.5551617,-0.7275390625,-0.13232421875,0.6826171875,2.9296875,-0.244140625,-0.06103515625,1.0491943359375,45.626220703125,-161.246337890625
1758876701.565058,-0.732421875,-0.02734375,0.58447265625,9.3994140625,-0.06103515625,-1.52587890625,1.07666015625,45.6207275390625,-161.279296875
1758876701.575862,-0.732421875,-0.02734375,0.58447265625,9.3994140625,-0.06103515625,-1.52587890625,1.131591796875,45.6207275390625,-161.3177490234375
1758876701.5850713,-0.76025390625,0.05322265625,0.68603515625,17.39501953125,0.244140625,-0.732421875,1.23046875,45.626220703125,-161.3507080078125
1758876701.5951583,-0.76025390625,0.05322265625,0.68603515625,17.39501953125,0.244140625,-0.732421875,1.3787841796875,45.6317138671875,-161.3726806640625
1758876701.6057196,-0.74609375,0.09130859375,0.76708984375,18.49365234375,-0.244140625,-0.1220703125,1.5325927734375,45.63720703125,-161.3836669921875
1758876701.6152885,-0.74609375,0.09130859375,0.76708984375,18.49365234375,-0.244140625,-0.1220703125,1.702880859375,45.63720703125,-161.38916015625
1758876701.6251054,-0.72802734375,0.1162109375,0.7353515625,-10.68115234375,-0.3662109375,0.9765625,1.7413330078125,45.6317138671875,-161.3836669921875
1758876701.6351857,-0.72802734375,0.1162109375,0.7353515625,-10.68115234375,-0.3662109375,0.9765625,1.6424560546875,45.6317138671875,-161.3671875
1758876701.646139,-0.7744140625,0.1279296875,0.6650390625,-43.212890625,-0.54931640625,2.50244140625,1.3897705078125,45.626220703125,-161.334228515625
1758876701.6551893,-0.7744140625,0.1279296875,0.6650390625,-43.212890625,-0.54931640625,2.50244140625,0.9942626953125,45.626220703125,-161.2847900390625
1758876701.6652064,-0.86962890625,0.04150390625,0.62939453125,-53.16162109375,-1.15966796875,3.72314453125,0.560302734375,45.6207275390625,-161.21337890625
1758876701.6752367,-0.86962890625,0.04150390625,0.62939453125,-53.16162109375,-1.15966796875,3.72314453125,0.087890625,45.6207275390625,-161.1309814453125
1758876701.6861072,-0.90771484375,-0.0361328125,0.6064453125,-52.001953125,-1.40380859375,5.06591796875,-0.3680419921875,45.6207275390625,-161.03759765625
1758876701.6952448,-0.90771484375,-0.0361328125,0.6064453125,-52.001953125,-1.40380859375,5.06591796875,-0.8184814453125,45.6317138671875,-160.927734375
1758876701.7052553,-0.8583984375,-0.04736328125,0.568359375,-45.166015625,-2.01416015625,5.9814453125,-1.23046875,45.63720703125,-160.806884765625
1758876701.7155163,-0.8583984375,-0.04736328125,0.568359375,-45.166015625,-2.01416015625,5.9814453125,-1.60400390625,45.648193359375,-160.6805419921875
1758876701.7259438,-0.8154296875,-0.07958984375,0.52001953125,-33.5693359375,-0.79345703125,5.9814453125,-1.86767578125,45.6756591796875,-160.55419921875
1758876701.7352483,-0.8154296875,-0.07958984375,0.52001953125,-33.5693359375,-0.79345703125,5.9814453125,-2.13134765625,45.7086181640625,-160.4278564453125
1758876701.7453947,-0.76904296875,-0.125,0.560546875,-28.4423828125,0.3662109375,5.859375,-2.35107421875,45.7470703125,-160.3070068359375
1758876701.7558637,-0.76904296875,-0.125,0.560546875,-28.4423828125,0.3662109375,5.859375,-2.5762939453125,45.791015625,-160.1861572265625
1758876701.7658362,-0.775390625,-0.08740234375,0.583984375,-26.123046875,1.77001953125,5.4931640625,-2.7850341796875,45.8514404296875,-160.0762939453125
1758876701.7753417,-0.775390625,-0.08740234375,0.583984375,-26.123046875,1.77001953125,5.4931640625,-2.9937744140625,45.911865234375,-159.9664306640625
1758876701.7854347,-0.75634765625,-0.04296875,0.630859375,-18.9208984375,2.38037109375,5.2490234375,-3.1365966796875,45.9722900390625,-159.862060546875
1758876701.7960095,-0.75634765625,-0.04296875,0.630859375,-18.9208984375,2.38037109375,5.2490234375,-3.27392578125,46.03271484375,-159.7576904296875
1758876701.8054109,-0.72705078125,-0.03076171875,0.67431640625,-17.15087890625,2.5634765625,5.55419921875,-3.394775390625,46.0986328125,-159.6478271484375
1758876701.8153863,-0.72705078125,-0.03076171875,0.67431640625,-17.15087890625,2.5634765625,5.55419921875,-3.5101318359375,46.153564453125,-159.5379638671875
1758876701.8261564,-0.70849609375,-0.0419921875,0.71142578125,-22.39990234375,2.5634765625,5.55419921875,-3.6749267578125,46.20849609375,-159.43359375
1758876701.8355277,-0.70849609375,-0.0419921875,0.71142578125,-22.39990234375,2.5634765625,5.55419921875,-3.84521484375,46.263427734375,-159.3292236328125
1758876701.8454142,-0.69580078125,-0.05029296875,0.73974609375,-32.470703125,2.13623046875,5.7373046875,-4.10888671875,46.307373046875,-159.224853515625
1758876701.8554485,-0.69580078125,-0.05029296875,0.73974609375,-32.470703125,2.13623046875,5.7373046875,-4.3670654296875,46.3458251953125,-159.1259765625
1758876701.8676553,-0.69482421875,-0.04931640625,0.755859375,-34.48486328125,1.89208984375,5.67626953125,-4.647216796875,46.3787841796875,-159.027099609375
1758876701.8756635,-0.69482421875,-0.04931640625,0.755859375,-34.48486328125,1.89208984375,5.67626953125,-4.9273681640625,46.4117431640625,-158.92822265625
1758876701.8856862,-0.68408203125,-0.0703125,0.74365234375,-31.005859375,1.46484375,5.06591796875,-5.1800537109375,46.4337158203125,-158.84033203125
1758876701.8959038,-0.68408203125,-0.0703125,0.74365234375,-31.005859375,1.46484375,5.06591796875,-5.42724609375,46.4556884765625,-158.7579345703125
1758876701.9056542,-0.6884765625,-0.064453125,0.72265625,-33.0810546875,0.8544921875,4.5166015625,-5.701904296875,46.4666748046875,-158.6810302734375
1758876701.9155865,-0.6884765625,-0.064453125,0.72265625,-33.0810546875,0.8544921875,4.5166015625,-5.9765625,46.4776611328125,-158.6041259765625
1758876701.926212,-0.69775390625,-0.056640625,0.720703125,-31.55517578125,0.6103515625,3.60107421875,-6.240234375,46.483154296875,-158.5382080078125
1758876701.9360683,-0.69775390625,-0.056640625,0.720703125,-31.55517578125,0.6103515625,3.60107421875,-6.50390625,46.4886474609375,-158.477783203125
1758876701.9458058,-0.69775390625,-0.07470703125,0.72314453125,-30.517578125,0.0,3.23486328125,-6.7620849609375,46.483154296875,-158.4173583984375
1758876701.9559152,-0.69775390625,-0.07470703125,0.72314453125,-30.517578125,0.0,3.23486328125,-7.020263671875,46.483154296875,-158.35693359375
1758876701.9661424,-0.69873046875,-0.0986328125,0.728515625,-36.9873046875,-0.67138671875,2.86865234375,-7.3443603515625,46.47216796875,-158.302001953125
1758876701.9756389,-0.69873046875,-0.0986328125,0.728515625,-36.9873046875,-0.67138671875,2.86865234375,-7.6629638671875,46.461181640625,-158.2525634765625
1758876701.9866302,-0.6943359375,-0.12109375,0.701171875,-36.31591796875,-1.03759765625,1.89208984375,-7.9925537109375,46.4447021484375,-158.2086181640625
1758876701.9957619,-0.6943359375,-0.12109375,0.701171875,-36.31591796875,-1.03759765625,1.89208984375,-8.3221435546875,46.4227294921875,-158.170166015625
1758876702.0057912,-0.69140625,-0.12939453125,0.70361328125,-23.37646484375,-1.8310546875,1.0986328125,-8.525390625,46.4007568359375,-158.1427001953125
1758876702.016376,-0.69140625,-0.12939453125,0.70361328125,-23.37646484375,-1.8310546875,1.0986328125,-8.734130859375,46.373291015625,-158.115234375
1758876702.0258963,-0.6982421875,-0.13720703125,0.69677734375,-12.8173828125,-1.953125,0.18310546875,-8.843994140625,46.3458251953125,-158.104248046875
1758876702.0356455,-0.6982421875,-0.13720703125,0.69677734375,-12.8173828125,-1.953125,0.18310546875,-8.9593505859375,46.3128662109375,-158.09326171875
1758876702.0464115,-0.71826171875,-0.1328125,0.689453125,-9.46044921875,-2.5634765625,-0.732421875,-9.052734375,46.2799072265625,-158.09326171875
1758876702.0559258,-0.71826171875,-0.1328125,0.689453125,-9.46044921875,-2.5634765625,-0.732421875,-9.140625,46.2469482421875,-158.09326171875
1758876702.0659783,-0.72021484375,-0.1337890625,0.66650390625,2.8076171875,-2.86865234375,-1.0986328125,-9.11865234375,46.20849609375,-158.09326171875
1758876702.0757866,-0.72021484375,-0.1337890625,0.66650390625,2.8076171875,-2.86865234375,-1.0986328125,-9.0911865234375,46.1700439453125,-158.0987548828125
1758876702.086559,-0.70947265625,-0.14892578125,0.67578125,22.27783203125,-3.41796875,-2.3193359375,-8.887939453125,46.1260986328125,-158.1207275390625
1758876702.0958095,-0.70947265625,-0.14892578125,0.67578125,22.27783203125,-3.41796875,-2.3193359375,-8.690185546875,46.087646484375,-158.1427001953125
1758876702.106004,-0.6689453125,-0.15185546875,0.70703125,36.4990234375,-3.35693359375,-3.41796875,-8.360595703125,46.043701171875,-158.1866455078125
1758876702.116434,-0.6689453125,-0.15185546875,0.70703125,36.4990234375,-3.35693359375,-3.41796875,-8.0364990234375,45.999755859375,-158.2305908203125
1758876702.1260922,-0.70458984375,-0.12646484375,0.73876953125,35.82763671875,-3.662109375,-3.90625,-7.7288818359375,45.9503173828125,-158.280029296875
1758876702.1359391,-0.70458984375,-0.12646484375,0.73876953125,35.82763671875,-3.662109375,-3.90625,-7.415771484375,45.90087890625,-158.3404541015625
1758876702.1460667,-0.6826171875,-0.09423828125,0.763671875,38.2080078125,-4.150390625,-4.33349609375,-7.0916748046875,45.845947265625,-158.40087890625
1758876702.1564927,-0.6826171875,-0.09423828125,0.763671875,38.2080078125,-4.150390625,-4.33349609375,-6.7620849609375,45.7855224609375,-158.4613037109375
1758876702.1663823,-0.6669921875,-0.1025390625,0.72607421875,45.71533203125,-4.150390625,-4.8828125,-6.3665771484375,45.7305908203125,-158.5382080078125
1758876702.1761513,-0.6669921875,-0.1025390625,0.72607421875,45.71533203125,-4.150390625,-4.8828125,-5.9765625,45.670166015625,-158.609619140625
1758876702.1860492,-0.6669921875,-0.1025390625,0.72607421875,47.18017578125,-4.39453125,-5.126953125,-5.570068359375,45.6097412109375,-158.6920166015625
1758876702.1966045,-0.6474609375,-0.10107421875,0.724609375,47.18017578125,-4.39453125,-5.126953125,-5.1690673828125,45.54931640625,-158.7799072265625
1758876702.2060533,-0.646484375,-0.0888671875,0.74072265625,50.1708984375,-3.90625,-5.2490234375,-4.7406005859375,45.4888916015625,-158.8677978515625
1758876702.2159433,-0.646484375,-0.0888671875,0.74072265625,50.1708984375,-3.90625,-5.2490234375,-4.317626953125,45.4339599609375,-158.961181640625
1758876702.2263072,-0.62109375,-0.07568359375,0.7421875,53.466796875,-3.84521484375,-5.55419921875,-3.8616943359375,45.37353515625,-159.06005859375
1758876702.2363503,-0.62109375,-0.07568359375,0.7421875,53.466796875,-3.84521484375,-5.55419921875,-3.4112548828125,45.3131103515625,-159.1644287109375
1758876702.2461472,-0.6044921875,-0.0234375,0.779296875,47.2412109375,-3.662109375,-5.126953125,-3.0157470703125,45.2581787109375,-159.2633056640625
1758876702.2560723,-0.6044921875,-0.0234375,0.779296875,47.2412109375,-3.662109375,-5.126953125,-2.6202392578125,45.19775390625,-159.3621826171875
1758876702.266423,-0.58056640625,0.083984375,0.755859375,12.51220703125,-2.86865234375,-4.0283203125,-2.5543212890625,45.142822265625,-159.444580078125
1758876702.2760663,-0.58056640625,0.083984375,0.755859375,12.51220703125,-2.86865234375,-4.0283203125,-2.48291015625,45.087890625,-159.5269775390625
1758876702.2861972,-0.74365234375,0.11865234375,0.708984375,-1.5869140625,-3.72314453125,-2.50244140625,-2.5323486328125,45.0274658203125,-159.576416015625
1758876702.296095,-0.74365234375,0.11865234375,0.708984375,-1.5869140625,-3.72314453125,-2.50244140625,-2.5653076171875,44.967041015625,-159.609375
1758876702.3067925,-0.8076171875,0.1181640625,0.99609375,-16.29638671875,-5.4931640625,-0.3662109375,-2.7191162109375,44.8956298828125,-159.609375
1758876702.3161476,-0.8076171875,0.1181640625,0.99609375,-16.29638671875,-5.4931640625,-0.3662109375,-2.867431640625,44.8187255859375,-159.609375
1758876702.3262665,-0.58935546875,0.00341796875,0.55615234375,-37.109375,-4.57763671875,0.67138671875,-3.2080078125,44.7528076171875,-159.5819091796875
1758876702.3367188,-0.58935546875,0.00341796875,0.55615234375,-37.109375,-4.57763671875,0.67138671875,-3.5430908203125,44.6923828125,-159.5599365234375
1758876702.3463242,-0.59716796875,-0.08984375,0.6005859375,-34.3017578125,-3.72314453125,1.28173828125,-3.8507080078125,44.6429443359375,-159.521484375
1758876702.356198,-0.59716796875,-0.08984375,0.6005859375,-34.3017578125,-3.72314453125,1.28173828125,-4.1583251953125,44.593505859375,-159.4940185546875
1758876702.3667035,-0.61474609375,-0.0966796875,0.7060546875,-21.484375,-1.0986328125,2.38037109375,-4.3341064453125,44.571533203125,-159.4500732421875
1758876702.3761854,-0.61474609375,-0.0966796875,0.7060546875,-21.484375,-1.0986328125,2.38037109375,-4.5098876953125,44.549560546875,-159.41162109375
1758876702.3864026,-0.537109375,-0.1630859375,0.61279296875,-13.36669921875,0.91552734375,2.685546875,-4.6087646484375,44.549560546875,-159.378662109375
1758876702.3966367,-0.537109375,-0.1630859375,0.61279296875,-13.36669921875,0.91552734375,2.685546875,-4.7186279296875,44.5440673828125,-159.345703125
1758876702.4063904,-0.61474609375,-0.146484375,0.6640625,-5.43212890625,1.64794921875,2.01416015625,-4.7515869140625,44.549560546875,-159.3292236328125
1758876702.416298,-0.61474609375,-0.146484375,0.6640625,-5.43212890625,1.64794921875,2.01416015625,-4.7955322265625,44.549560546875,-159.3182373046875
1758876702.426805,-0.830078125,-0.1923828125,0.93701171875,50.72021484375,1.28173828125,1.89208984375,-4.28466796875,44.549560546875,-159.312744140625
1758876702.4370084,-0.830078125,-0.1923828125,0.93701171875,50.72021484375,1.28173828125,1.89208984375,-3.779296875,44.549560546875,-159.3182373046875
1758876702.4464738,-0.8779296875,-0.1787109375,0.97900390625,70.3125,-2.13623046875,0.6103515625,-3.09814453125,44.5111083984375,-159.334716796875
1758876702.4563334,-0.8779296875,-0.1787109375,0.97900390625,70.3125,-2.13623046875,0.6103515625,-2.4224853515625,44.47265625,-159.3621826171875
1758876702.4669285,-0.74462890625,-0.02880859375,0.7978515625,28.25927734375,-5.2490234375,-0.54931640625,-2.17529296875,44.40673828125,-159.400634765625
1758876702.47636,-0.74462890625,-0.02880859375,0.7978515625,28.25927734375,-5.2490234375,-0.54931640625,-1.9281005859375,44.3408203125,-159.4390869140625
1758876702.486481,-0.65771484375,0.14111328125,0.65087890625,-13.7939453125,-5.2490234375,1.15966796875,-2.076416015625,44.2803955078125,-159.444580078125
1758876702.49668,-0.65771484375,0.14111328125,0.65087890625,-13.7939453125,-5.2490234375,1.15966796875,-2.2137451171875,44.2144775390625,-159.4390869140625
1758876702.5068073,-0.6279296875,0.142578125,0.568359375,-36.376953125,-3.90625,2.25830078125,-2.5543212890625,44.1705322265625,-159.4061279296875
1758876702.5164325,-0.6279296875,0.142578125,0.568359375,-36.376953125,-3.90625,2.25830078125,-2.889404296875,44.132080078125,-159.3621826171875
1758876702.526578,-0.63671875,0.1044921875,0.587890625,-56.09130859375,-2.25830078125,4.150390625,-3.3892822265625,44.110107421875,-159.2852783203125
1758876702.5367417,-0.63671875,0.1044921875,0.587890625,-56.09130859375,-2.25830078125,4.150390625,-3.8836669921875,44.088134765625,-159.1973876953125
1758876702.546592,-0.64599609375,0.03466796875,0.6767578125,-63.4765625,-1.5869140625,4.7607421875,-4.4439697265625,44.0771484375,-159.0985107421875
1758876702.5564878,-0.64599609375,0.03466796875,0.6767578125,-63.4765625,-1.5869140625,4.7607421875,-4.9932861328125,44.066162109375,-158.994140625
1758876702.5667272,-0.638671875,-0.0361328125,0.65283203125,-66.10107421875,0.244140625,5.859375,-5.5645751953125,44.0771484375,-158.873291015625
1758876702.5770576,-0.638671875,-0.0361328125,0.65283203125,-66.10107421875,0.244140625,5.859375,-6.13037109375,44.088134765625,-158.7579345703125
1758876702.586649,-0.60107421875,-0.1298828125,0.6318359375,-61.46240234375,1.0986328125,5.06591796875,-6.65771484375,44.1046142578125,-158.653564453125
1758876702.5966506,-0.60107421875,-0.1298828125,0.6318359375,-61.46240234375,1.0986328125,5.06591796875,-7.196044921875,44.12109375,-158.5546875
1758876702.606957,-0.6162109375,-0.21435546875,0.671875,-53.03955078125,1.89208984375,4.0283203125,-7.6629638671875,44.14306640625,-158.477783203125
1758876702.6168282,-0.6162109375,-0.21435546875,0.671875,-53.03955078125,1.89208984375,4.0283203125,-8.1353759765625,44.1650390625,-158.4063720703125
1758876702.6266809,-0.70166015625,-0.20947265625,0.7412109375,-33.14208984375,2.197265625,3.662109375,-8.41552734375,44.1925048828125,-158.345947265625
1758876702.6366217,-0.70166015625,-0.20947265625,0.7412109375,-33.14208984375,2.197265625,3.662109375,-8.7066650390625,44.2144775390625,-158.2965087890625
1758876702.6470425,-1.20166015625,-0.3349609375,1.08447265625,57.92236328125,-3.662109375,1.64794921875,-8.10791015625,44.176025390625,-158.2635498046875
1758876702.6566386,-1.20166015625,-0.3349609375,1.08447265625,57.92236328125,-3.662109375,1.64794921875,-7.5146484375,44.14306640625,-158.236083984375
1758876702.6667187,-0.49267578125,-0.30908203125,0.61083984375,88.9892578125,-0.732421875,-2.74658203125,-6.6741943359375,44.132080078125,-158.2855224609375
1758876702.6767757,-0.49267578125,-0.30908203125,0.61083984375,88.9892578125,-0.732421875,-2.74658203125,-5.8502197265625,44.12109375,-158.3514404296875
1758876702.6871388,-0.80517578125,0.07568359375,0.57421875,41.748046875,-5.9814453125,-0.244140625,-5.4656982421875,44.0606689453125,-158.3624267578125
1758876702.6967077,-0.64306640625,0.13037109375,0.74560546875,-7.568359375,-1.64794921875,0.1220703125,-5.3173828125,44.0277099609375,-158.367919921875
1758876702.706878,-0.64306640625,0.13037109375,0.74560546875,-7.568359375,-1.64794921875,0.1220703125,-5.4052734375,44.0167236328125,-158.3624267578125
1758876702.7172897,-0.67333984375,0.10498046875,0.669921875,-33.99658203125,-1.5869140625,1.708984375,-5.6085205078125,44.0057373046875,-158.3349609375
1758876702.726841,-0.67333984375,0.10498046875,0.669921875,-33.99658203125,-1.5869140625,1.708984375,-5.921630859375,43.9947509765625,-158.291015625
1758876702.7367718,-0.7861328125,-0.04052734375,0.7841796875,-53.89404296875,-2.86865234375,2.44140625,-6.328125,43.978271484375,-158.2305908203125
1758876702.7471821,-0.7861328125,-0.04052734375,0.7841796875,-53.89404296875,-2.86865234375,2.44140625,-6.822509765625,43.956298828125,-158.1591796875
1758876702.7568011,-0.7294921875,-0.14892578125,0.74755859375,-49.25537109375,-3.35693359375,2.9296875,-7.2894287109375,43.934326171875,-158.0877685546875
1758876702.7675,-0.7294921875,-0.14892578125,0.74755859375,-49.25537109375,-3.35693359375,2.9296875,-7.7288818359375,43.912353515625,-158.016357421875
1758876702.7775779,-0.7001953125,-0.21142578125,0.56591796875,-19.47021484375,-2.8076171875,1.953125,-8.031005859375,43.890380859375,-157.950439453125
1758876702.7869818,-0.7001953125,-0.21142578125,0.56591796875,-19.47021484375,-2.8076171875,1.953125,-8.19580078125,43.8739013671875,-157.9010009765625
1758876702.7968266,-0.6240234375,-0.2236328125,0.56201171875,4.21142578125,-1.28173828125,0.732421875,-8.2562255859375,43.8629150390625,-157.862548828125
1758876702.8074331,-0.6240234375,-0.2236328125,0.56201171875,4.21142578125,-1.28173828125,0.732421875,-8.206787109375,43.8629150390625,-157.8350830078125
1758876702.8169906,-0.7099609375,-0.1904296875,0.62158203125,25.08544921875,0.79345703125,0.0,-8.0694580078125,43.8739013671875,-157.8240966796875
1758876702.8270528,-0.7099609375,-0.1904296875,0.62158203125,25.08544921875,0.79345703125,0.0,-7.8387451171875,43.890380859375,-157.8240966796875
1758876702.8369246,-0.79443359375,-0.17236328125,0.697265625,53.22265625,1.52587890625,-1.15966796875,-7.470703125,43.9178466796875,-157.8350830078125
1758876702.8475828,-0.79443359375,-0.17236328125,0.697265625,53.22265625,1.52587890625,-1.15966796875,-6.9818115234375,43.9453125,-157.8515625
1758876702.8572211,-0.890625,-0.07958984375,0.88818359375,53.77197265625,-0.67138671875,-1.64794921875,-6.4874267578125,43.9617919921875,-157.87353515625
1758876702.8671136,-0.890625,-0.07958984375,0.88818359375,53.77197265625,-0.67138671875,-1.64794921875,-5.9930419921875,43.96728515625,-157.8955078125
1758876702.8774407,-0.76953125,0.08447265625,0.76513671875,24.2919921875,-2.38037109375,-1.3427734375,-5.635986328125,43.9617919921875,-157.906494140625
1758876702.8871913,-0.76953125,0.08447265625,0.76513671875,24.2919921875,-2.38037109375,-1.3427734375,-5.4217529296875,43.9508056640625,-157.9119873046875
1758876702.8969975,-0.6474609375,0.02685546875,0.56494140625,-9.70458984375,-3.173828125,-0.30517578125,-5.361328125,43.934326171875,-157.9010009765625
1758876702.9071176,-0.6474609375,0.02685546875,0.56494140625,-9.70458984375,-3.173828125,-0.30517578125,-5.4656982421875,43.9178466796875,-157.8790283203125
1758876702.9176042,-0.69775390625,-0.03955078125,0.52099609375,-26.9775390625,-1.708984375,0.3662109375,-5.64697265625,43.912353515625,-157.8460693359375
1758876702.9271002,-0.69775390625,-0.03955078125,0.52099609375,-26.9775390625,-1.708984375,0.3662109375,-5.91064453125,43.912353515625,-157.8131103515625
1758876702.9370515,-0.71533203125,-0.11669921875,0.6142578125,-20.81298828125,-0.48828125,0.244140625,-6.141357421875,43.9288330078125,-157.774658203125
1758876702.9471474,-0.71533203125,-0.11669921875,0.6142578125,-20.81298828125,-0.48828125,0.244140625,-6.3446044921875,43.9453125,-157.74169921875
1758876702.9578748,-0.72705078125,-0.1591796875,0.708984375,-8.72802734375,-0.30517578125,-0.48828125,-6.4984130859375,43.96728515625,-157.7142333984375
1758876702.967218,-0.72705078125,-0.1591796875,0.708984375,-8.72802734375,-0.30517578125,-0.48828125,-6.591796875,43.9837646484375,-157.69775390625
1758876702.977129,-0.7060546875,-0.15625,0.705078125,6.16455078125,-0.48828125,-0.54931640625,-6.61376953125,44.000244140625,-157.686767578125
1758876702.987679,-0.7060546875,-0.15625,0.705078125,6.16455078125,-0.48828125,-0.54931640625,-6.56982421875,44.01123046875,-157.6812744140625
1758876702.9972212,-0.68505859375,-0.14990234375,0.66943359375,19.04296875,-0.30517578125,-0.91552734375,-6.4599609375,44.022216796875,-157.6812744140625
1758876703.0072703,-0.68505859375,-0.14990234375,0.66943359375,19.04296875,-0.30517578125,-0.91552734375,-6.295166015625,44.033203125,-157.686767578125
1758876703.0171947,-0.70458984375,-0.1064453125,0.69091796875,21.8505859375,-0.48828125,-0.79345703125,-6.119384765625,44.044189453125,-157.6922607421875
1758876703.0277355,-0.70458984375,-0.1064453125,0.69091796875,21.8505859375,-0.48828125,-0.79345703125,-5.9271240234375,44.0496826171875,-157.69775390625
1758876703.0371885,-0.6865234375,-0.02587890625,0.7158203125,17.9443359375,-0.91552734375,-0.3662109375,-5.7513427734375,44.05517578125,-157.7032470703125
1758876703.0472755,-0.6865234375,-0.02587890625,0.7158203125,17.9443359375,-0.91552734375,-0.3662109375,-5.592041015625,44.0606689453125,-157.69775390625
1758876703.0574954,-0.76953125,-0.001953125,0.74609375,12.0849609375,-1.8310546875,0.67138671875,-5.44921875,44.05517578125,-157.686767578125
1758876703.0686202,-0.76953125,-0.001953125,0.74609375,12.0849609375,-1.8310546875,0.67138671875,-5.328369140625,44.0496826171875,-157.664794921875
1758876703.0775151,-0.84521484375,-0.04150390625,0.69189453125,7.9345703125,-1.953125,1.3427734375,-5.2239990234375,44.044189453125,-157.6318359375
1758876703.0876775,-0.84521484375,-0.04150390625,0.69189453125,7.9345703125,-1.953125,1.3427734375,-5.1361083984375,44.0386962890625,-157.5933837890625
1758876703.0979817,-0.8564453125,-0.09521484375,0.5966796875,1.52587890625,-2.197265625,1.28173828125,-5.0811767578125,44.0386962890625,-157.554931640625
1758876703.1073587,-0.8564453125,-0.09521484375,0.5966796875,1.52587890625,-2.197265625,1.28173828125,-5.0592041015625,44.0386962890625,-157.510986328125
1758876703.1172872,-0.84814453125,-0.10546875,0.5361328125,7.9345703125,-2.01416015625,1.3427734375,-5.0042724609375,44.044189453125,-157.467041015625
1758876703.1273508,-0.84814453125,-0.10546875,0.5361328125,7.9345703125,-2.01416015625,1.3427734375,-4.921875,44.0606689453125,-157.4176025390625
1758876703.1381466,-0.8056640625,-0.07177734375,0.54833984375,12.02392578125,-1.40380859375,1.15966796875,-4.822998046875,44.0771484375,-157.3736572265625
1758876703.147396,-0.8056640625,-0.07177734375,0.54833984375,12.02392578125,-1.40380859375,1.15966796875,-4.7076416015625,44.1046142578125,-157.3297119140625
1758876703.1574123,-0.75927734375,-0.0263671875,0.61474609375,5.79833984375,-1.708984375,1.40380859375,-4.6197509765625,44.132080078125,-157.2802734375
1758876703.167877,-0.75927734375,-0.0263671875,0.61474609375,5.79833984375,-1.708984375,1.40380859375,-4.5648193359375,44.154052734375,-157.2308349609375
1758876703.1775405,-0.72119140625,-0.015625,0.7177734375,-3.662109375,-2.25830078125,2.0751953125,-4.5428466796875,44.176025390625,-157.17041015625
1758876703.18744,-0.72119140625,-0.015625,0.7177734375,-3.662109375,-2.25830078125,2.0751953125,-4.5703125,44.1925048828125,-157.1099853515625
1758876703.1981423,-0.6845703125,-0.0361328125,0.73681640625,-11.41357421875,-3.11279296875,2.44140625,-4.625244140625,44.2034912109375,-157.0440673828125
1758876703.2074406,-0.6845703125,-0.0361328125,0.73681640625,-11.41357421875,-3.11279296875,2.44140625,-4.7186279296875,44.2034912109375,-156.9781494140625
1758876703.217445,-0.67724609375,-0.08642578125,0.72412109375,-8.60595703125,-3.662109375,2.685546875,-4.7900390625,44.1925048828125,-156.9122314453125
1758876703.2279828,-0.67724609375,-0.08642578125,0.72412109375,-8.60595703125,-3.662109375,2.685546875,-4.8504638671875,44.1815185546875,-156.8463134765625
1758876703.2378175,-0.6708984375,-0.09375,0.7578125,-3.35693359375,-3.5400390625,2.50244140625,-4.8834228515625,44.1705322265625,-156.785888671875
1758876703.2475333,-0.6708984375,-0.09375,0.7578125,-3.35693359375,-3.5400390625,2.50244140625,-4.8944091796875,44.154052734375,-156.7254638671875
1758876703.257576,-0.6689453125,-0.0771484375,0.76416015625,-0.6103515625,-2.8076171875,2.01416015625,-4.8944091796875,44.132080078125,-156.6815185546875
1758876703.268075,-0.6689453125,-0.0771484375,0.76416015625,-0.6103515625,-2.8076171875,2.01416015625,-4.8834228515625,44.1156005859375,-156.6375732421875
1758876703.2775822,-0.6484375,-0.0517578125,0.7578125,0.42724609375,-2.0751953125,1.52587890625,-4.866943359375,44.1046142578125,-156.6046142578125
1758876703.2875495,-0.6484375,-0.0517578125,0.7578125,0.42724609375,-2.0751953125,1.52587890625,-4.8504638671875,44.088134765625,-156.5716552734375
1758876703.298294,-0.65185546875,-0.0439453125,0.7568359375,0.42724609375,-1.28173828125,0.91552734375,-4.833984375,44.0716552734375,-156.5496826171875
1758876703.3076382,-0.65185546875,-0.0439453125,0.7568359375,0.42724609375,-1.28173828125,0.91552734375,-4.822998046875,44.0606689453125,-156.533203125
