timestamp,acc_x,acc_y,acc_z,gyro_x,gyro_y,gyro_z,angle_x,angle_y,angle_z
1760966936.5406895,-0.56591796875,-0.0263671875,0.86181640625,7.4462890625,-0.48828125,-4.69970703125,0.1812744140625,40.5670166015625,-74.4873046875
1760966936.550006,-0.56591796875,-0.0263671875,0.86181640625,7.4462890625,-0.48828125,-4.69970703125,0.2142333984375,40.5560302734375,-74.55322265625
1760966936.561385,-0.64501953125,0.0126953125,0.71484375,9.8876953125,-0.9765625,-4.57763671875,0.2581787109375,40.53955078125,-74.6136474609375
1760966936.5725455,-0.64501953125,0.0126953125,0.71484375,9.8876953125,-0.9765625,-4.57763671875,0.3131103515625,40.5230712890625,-74.674072265625
1760966936.5832503,-0.67138671875,0.02197265625,0.76611328125,2.3193359375,0.0,-3.72314453125,0.340576171875,40.5120849609375,-74.7344970703125
1760966936.5920253,-0.67138671875,0.02197265625,0.76611328125,2.3193359375,0.0,-3.72314453125,0.32958984375,40.506591796875,-74.7784423828125
1760966936.600319,-0.6708984375,0.0263671875,0.7509765625,-2.01416015625,0.54931640625,-3.41796875,0.3021240234375,40.506591796875,-74.827880859375
1760966936.6086023,-0.6708984375,0.0263671875,0.7509765625,-2.01416015625,0.54931640625,-3.41796875,0.252685546875,40.506591796875,-74.8663330078125
1760966936.6174023,-0.66552734375,-0.02783203125,0.7568359375,-2.9296875,0.79345703125,-2.44140625,0.2032470703125,40.5120849609375,-74.90478515625
1760966936.6274168,-0.66552734375,-0.02783203125,0.7568359375,-2.9296875,0.79345703125,-2.44140625,0.15380859375,40.517578125,-74.937744140625
1760966936.6374397,-0.646484375,-0.02490234375,0.77099609375,0.1220703125,0.67138671875,-1.46484375,0.120849609375,40.528564453125,-74.9652099609375
1760966936.6474469,-0.646484375,-0.02490234375,0.77099609375,0.1220703125,0.67138671875,-1.46484375,0.10986328125,40.5340576171875,-74.981689453125
1760966936.6576488,-0.63818359375,-0.00390625,0.76513671875,0.18310546875,0.54931640625,-0.6103515625,0.098876953125,40.5340576171875,-75.003662109375
1760966936.6674862,-0.63818359375,-0.00390625,0.76513671875,0.18310546875,0.54931640625,-0.6103515625,0.0933837890625,40.53955078125,-75.0146484375
1760966936.6775079,-0.63330078125,0.0029296875,0.77978515625,-0.42724609375,0.48828125,-0.18310546875,0.087890625,40.5450439453125,-75.0201416015625
1760966936.6874819,-0.63330078125,0.0029296875,0.77978515625,-0.42724609375,0.48828125,-0.18310546875,0.0823974609375,40.5450439453125,-75.025634765625
1760966936.6974754,-0.64111328125,-0.01123046875,0.7802734375,0.6103515625,0.48828125,0.06103515625,0.076904296875,40.5450439453125,-75.025634765625
1760966936.7075377,-0.64111328125,-0.01123046875,0.7802734375,0.6103515625,0.48828125,0.06103515625,0.0823974609375,40.550537109375,-75.0311279296875
1760966936.718281,-0.63916015625,-0.01025390625,0.771484375,2.62451171875,0.3662109375,0.244140625,0.098876953125,40.550537109375,-75.0311279296875
1760966936.727522,-0.63916015625,-0.01025390625,0.771484375,2.62451171875,0.3662109375,0.244140625,0.1263427734375,40.5450439453125,-75.025634765625
1760966936.7375245,-0.6318359375,0.0068359375,0.76416015625,2.13623046875,0.3662109375,0.06103515625,0.1483154296875,40.5450439453125,-75.0311279296875
1760966936.7475615,-0.6318359375,0.0068359375,0.76416015625,2.13623046875,0.3662109375,0.06103515625,0.164794921875,40.5450439453125,-75.0311279296875
1760966936.7575421,-0.63232421875,0.01611328125,0.78564453125,-0.30517578125,0.48828125,0.0,0.1702880859375,40.5450439453125,-75.0311279296875
1760966936.767547,-0.63232421875,0.01611328125,0.78564453125,-0.30517578125,0.48828125,0.0,0.1702880859375,40.5450439453125,-75.0311279296875
1760966936.7775695,-0.638671875,-0.0009765625,0.77734375,-1.03759765625,0.48828125,-0.1220703125,0.1593017578125,40.5450439453125,-75.0311279296875
1760966936.7875812,-0.638671875,-0.0009765625,0.77734375,-1.03759765625,0.48828125,-0.1220703125,0.1483154296875,40.5450439453125,-75.03662109375
1760966936.7975914,-0.650390625,-0.00390625,0.7705078125,-0.06103515625,0.67138671875,-0.244140625,0.1373291015625,40.5450439453125,-75.03662109375
1760966936.807617,-0.650390625,-0.00390625,0.7705078125,-0.06103515625,0.67138671875,-0.244140625,0.1373291015625,40.5450439453125,-75.0421142578125
1760966936.8176074,-0.654296875,0.0107421875,0.76318359375,0.18310546875,0.67138671875,-0.244140625,0.1318359375,40.5450439453125,-75.047607421875
1760966936.8276384,-0.654296875,0.0107421875,0.76318359375,0.18310546875,0.67138671875,-0.244140625,0.1318359375,40.550537109375,-75.047607421875
1760966936.8376021,-0.65625,0.00927734375,0.744140625,-1.953125,0.48828125,0.0,0.120849609375,40.550537109375,-75.047607421875
1760966936.8476262,-0.65625,0.00927734375,0.744140625,-1.953125,0.48828125,0.0,0.1043701171875,40.550537109375,-75.047607421875
1760966936.857655,-0.65283203125,-0.005859375,0.763671875,-2.99072265625,0.3662109375,0.18310546875,0.0823974609375,40.5560302734375,-75.047607421875
1760966936.8676705,-0.65283203125,-0.005859375,0.763671875,-2.99072265625,0.3662109375,0.18310546875,0.054931640625,40.5560302734375,-75.0421142578125
1760966936.8776839,-0.65087890625,-0.009765625,0.76953125,-2.5634765625,0.3662109375,0.42724609375,0.0274658203125,40.5560302734375,-75.0421142578125
1760966936.8876967,-0.65087890625,-0.009765625,0.76953125,-2.5634765625,0.3662109375,0.42724609375,0.0054931640625,40.5615234375,-75.03662109375
1760966936.8977008,-0.65087890625,-0.009765625,0.76953125,-0.91552734375,0.42724609375,0.42724609375,0.0,40.5615234375,-75.0311279296875
1760966936.9077284,-0.65380859375,0.0,0.7646484375,-0.91552734375,0.42724609375,0.42724609375,-0.010986328125,40.5615234375,-75.025634765625
1760966936.9177341,-0.65087890625,0.0009765625,0.7587890625,-0.67138671875,0.3662109375,0.48828125,-0.010986328125,40.5670166015625,-75.0201416015625
1760966936.9277673,-0.65087890625,0.0009765625,0.7587890625,-0.67138671875,0.3662109375,0.48828125,-0.0164794921875,40.5670166015625,-75.0146484375
1760966936.937755,-0.6552734375,0.00341796875,0.763671875,-1.953125,0.3662109375,0.67138671875,-0.02197265625,40.572509765625,-75.003662109375
1760966936.9477718,-0.6552734375,0.00341796875,0.763671875,-1.953125,0.3662109375,0.67138671875,-0.0384521484375,40.572509765625,-74.9981689453125
1760966936.9577782,-0.658203125,0.001953125,0.76123046875,-3.7841796875,0.54931640625,0.91552734375,-0.0604248046875,40.5780029296875,-74.9871826171875
1760966936.9677896,-0.658203125,0.001953125,0.76123046875,-3.7841796875,0.54931640625,0.91552734375,-0.087890625,40.58349609375,-74.9761962890625
1760966936.9778,-0.66064453125,-0.0048828125,0.75146484375,-4.39453125,0.67138671875,1.03759765625,-0.120849609375,40.5889892578125,-74.959716796875
1760966936.9878118,-0.66064453125,-0.0048828125,0.75146484375,-4.39453125,0.67138671875,1.03759765625,-0.15380859375,40.594482421875,-74.94873046875
1760966936.9978101,-0.66357421875,-0.009765625,0.755859375,-2.74658203125,0.79345703125,1.03759765625,-0.1812744140625,40.5999755859375,-74.9322509765625
1760966937.0078428,-0.66357421875,-0.009765625,0.755859375,-2.74658203125,0.79345703125,1.03759765625,-0.19775390625,40.6109619140625,-74.9212646484375
1760966937.017839,-0.6630859375,-0.0107421875,0.7587890625,-0.79345703125,0.8544921875,1.03759765625,-0.2032470703125,40.616455078125,-74.9102783203125
1760966937.027894,-0.6630859375,-0.0107421875,0.7587890625,-0.79345703125,0.8544921875,1.03759765625,-0.2032470703125,40.62744140625,-74.8992919921875
1760966937.0380642,-0.66162109375,-0.0009765625,0.7509765625,-1.03759765625,0.732421875,1.220703125,-0.2032470703125,40.638427734375,-74.8828125
1760966937.047898,-0.66162109375,-0.0009765625,0.7509765625,-1.03759765625,0.732421875,1.220703125,-0.2032470703125,40.6439208984375,-74.871826171875
1760966937.0579925,-0.64990234375,0.00439453125,0.7578125,-2.8076171875,0.54931640625,1.28173828125,-0.2142333984375,40.6549072265625,-74.8553466796875
1760966937.0679114,-0.64990234375,0.00439453125,0.7578125,-2.8076171875,0.54931640625,1.28173828125,-0.230712890625,40.660400390625,-74.8388671875
1760966937.0780625,-0.6455078125,0.00341796875,0.76806640625,-5.615234375,0.54931640625,1.52587890625,-0.2581787109375,40.6658935546875,-74.8223876953125
1760966937.0879967,-0.6455078125,0.00341796875,0.76806640625,-5.615234375,0.54931640625,1.52587890625,-0.3021240234375,40.6768798828125,-74.8004150390625
1760966937.0980878,-0.64892578125,-0.00927734375,0.7685546875,-5.67626953125,0.6103515625,1.5869140625,-0.340576171875,40.682373046875,-74.7784423828125
1760966937.108023,-0.64892578125,-0.00927734375,0.7685546875,-5.67626953125,0.6103515625,1.5869140625,-0.384521484375,40.6878662109375,-74.7564697265625
1760966937.118079,-0.642578125,-0.02197265625,0.7705078125,-2.99072265625,0.79345703125,1.5869140625,-0.4119873046875,40.693359375,-74.739990234375
1760966937.1280105,-0.642578125,-0.02197265625,0.7705078125,-2.99072265625,0.79345703125,1.5869140625,-0.428466796875,40.6988525390625,-74.718017578125
1760966937.1385567,-0.634765625,-0.00927734375,0.7861328125,-1.220703125,0.79345703125,1.64794921875,-0.4339599609375,40.704345703125,-74.696044921875
1760966937.1484108,-0.634765625,-0.00927734375,0.7861328125,-1.220703125,0.79345703125,1.64794921875,-0.4339599609375,40.7098388671875,-74.6795654296875
1760966937.1584423,-0.6298828125,0.0,0.78466796875,-1.953125,0.79345703125,1.77001953125,-0.4339599609375,40.71533203125,-74.6575927734375
1760966937.1682615,-0.6298828125,0.0,0.78466796875,-1.953125,0.79345703125,1.77001953125,-0.439453125,40.7208251953125,-74.630126953125
1760966937.178389,-0.63916015625,-0.00341796875,0.7705078125,-3.47900390625,0.8544921875,1.89208984375,-0.450439453125,40.726318359375,-74.608154296875
1760966937.1888466,-0.63916015625,-0.00341796875,0.7705078125,-3.47900390625,0.8544921875,1.89208984375,-0.472412109375,40.726318359375,-74.586181640625
1760966937.1989002,-0.64599609375,-0.01416015625,0.77001953125,-3.2958984375,0.91552734375,1.8310546875,-0.4888916015625,40.7318115234375,-74.5587158203125
1760966937.2082088,-0.64599609375,-0.01416015625,0.77001953125,-3.2958984375,0.91552734375,1.8310546875,-0.50537109375,40.7373046875,-74.5367431640625
1760966937.2184827,-0.6474609375,-0.0048828125,0.7626953125,-2.86865234375,0.8544921875,1.708984375,-0.5218505859375,40.7373046875,-74.5147705078125
1760966937.2283833,-0.6474609375,-0.0048828125,0.7626953125,-2.86865234375,0.8544921875,1.708984375,-0.5328369140625,40.7427978515625,-74.4927978515625
1760966937.2388487,-0.646484375,0.001953125,0.77587890625,-2.8076171875,0.67138671875,1.52587890625,-0.54931640625,40.748291015625,-74.4708251953125
1760966937.2484686,-0.646484375,0.001953125,0.77587890625,-2.8076171875,0.67138671875,1.52587890625,-0.560302734375,40.748291015625,-74.4488525390625
1760966937.258418,-0.6435546875,-0.0068359375,0.77001953125,-3.84521484375,0.6103515625,1.52587890625,-0.582275390625,40.748291015625,-74.4268798828125
1760966937.268418,-0.6435546875,-0.0068359375,0.77001953125,-3.84521484375,0.6103515625,1.52587890625,-0.604248046875,40.7537841796875,-74.410400390625
1760966937.2788284,-0.646484375,-0.01318359375,0.76318359375,-4.5166015625,0.6103515625,1.46484375,-0.6317138671875,40.7537841796875,-74.388427734375
1760966937.2885568,-0.646484375,-0.01318359375,0.76318359375,-4.5166015625,0.6103515625,1.46484375,-0.6646728515625,40.7537841796875,-74.366455078125
1760966937.2984836,-0.65234375,-0.00732421875,0.7587890625,-2.50244140625,0.732421875,1.46484375,-0.6866455078125,40.75927734375,-74.3499755859375
1760966937.3090627,-0.65234375,-0.00732421875,0.7587890625,-2.50244140625,0.732421875,1.46484375,-0.6976318359375,40.75927734375,-74.3280029296875
1760966937.319447,-0.65576171875,-0.01513671875,0.7724609375,-0.91552734375,0.6103515625,1.220703125,-0.703125,40.7647705078125,-74.3115234375
1760966937.3296938,-0.65576171875,-0.01513671875,0.7724609375,-0.91552734375,0.6103515625,1.220703125,-0.6976318359375,40.7647705078125,-74.2950439453125
1760966937.3387046,-0.65771484375,-0.01025390625,0.7587890625,-1.3427734375,0.54931640625,1.15966796875,-0.6976318359375,40.770263671875,-74.278564453125
1760966937.349554,-0.65771484375,-0.01025390625,0.7587890625,-1.3427734375,0.54931640625,1.15966796875,-0.703125,40.770263671875,-74.267578125
1760966937.3589406,-0.662109375,0.00048828125,0.74609375,-2.74658203125,0.42724609375,1.03759765625,-0.714111328125,40.770263671875,-74.2510986328125
1760966937.3683605,-0.662109375,0.00048828125,0.74609375,-2.74658203125,0.42724609375,1.03759765625,-0.7305908203125,40.7757568359375,-74.2401123046875
1760966937.3788455,-0.66259765625,-0.00439453125,0.75927734375,-5.18798828125,0.48828125,0.9765625,-0.758056640625,40.78125,-74.2236328125
1760966937.3889241,-0.66259765625,-0.00439453125,0.75927734375,-5.18798828125,0.48828125,0.9765625,-0.802001953125,40.78125,-74.212646484375
1760966937.3985808,-0.65869140625,-0.0087890625,0.75830078125,-4.69970703125,0.6103515625,0.67138671875,-0.8404541015625,40.7867431640625,-74.20166015625
1760966937.4083428,-0.65869140625,-0.0087890625,0.75830078125,-4.69970703125,0.6103515625,0.67138671875,-0.87890625,40.792236328125,-74.190673828125
1760966937.419226,-0.6611328125,-0.01611328125,0.75927734375,-3.2958984375,0.732421875,0.48828125,-0.9063720703125,40.7977294921875,-74.1851806640625
1760966937.428566,-0.6611328125,-0.01611328125,0.75927734375,-3.2958984375,0.732421875,0.48828125,-0.933837890625,40.8087158203125,-74.1796875
1760966937.4387884,-0.6640625,-0.0244140625,0.7587890625,-1.220703125,0.732421875,0.30517578125,-0.94482421875,40.814208984375,-74.1741943359375
1760966937.4488587,-0.6640625,-0.0244140625,0.7587890625,-1.220703125,0.732421875,0.30517578125,-0.9503173828125,40.8197021484375,-74.1741943359375
1760966937.4591084,-0.6611328125,-0.01416015625,0.74951171875,-0.30517578125,0.79345703125,0.18310546875,-0.955810546875,40.8306884765625,-74.1741943359375
1760966937.468818,-0.6611328125,-0.01416015625,0.74951171875,-0.30517578125,0.79345703125,0.18310546875,-0.955810546875,40.836181640625,-74.168701171875
1760966937.4784677,-0.6533203125,0.0009765625,0.76220703125,-1.3427734375,0.8544921875,0.244140625,-0.966796875,40.84716796875,-74.168701171875
1760966937.490177,-0.6533203125,0.0009765625,0.76220703125,-1.3427734375,0.8544921875,0.244140625,-0.977783203125,40.858154296875,-74.1632080078125
1760966937.4986362,-0.64697265625,-0.0009765625,0.76171875,-4.0283203125,0.91552734375,0.3662109375,-1.0107421875,40.8636474609375,-74.15771484375
1760966937.5095928,-0.64697265625,-0.0009765625,0.76171875,-4.0283203125,0.91552734375,0.3662109375,-1.043701171875,40.8746337890625,-74.1522216796875
1760966937.519152,-0.6572265625,-0.0224609375,0.767578125,-3.662109375,0.91552734375,0.30517578125,-1.07666015625,40.880126953125,-74.1522216796875
1760966937.5303843,-0.6572265625,-0.0224609375,0.767578125,-3.662109375,0.91552734375,0.30517578125,-1.109619140625,40.89111328125,-74.146728515625
1760966937.539597,-0.66064453125,-0.02734375,0.76513671875,-2.685546875,0.8544921875,0.1220703125,-1.131591796875,40.8966064453125,-74.1412353515625
1760966937.5597548,-0.66064453125,-0.02734375,0.76513671875,-2.685546875,0.8544921875,0.1220703125,-1.1590576171875,40.9075927734375,-74.1412353515625
1760966937.5678518,-0.6630859375,-0.0078125,0.74560546875,-1.0986328125,0.67138671875,-0.18310546875,-1.1700439453125,40.9130859375,-74.146728515625
1760966937.578045,-0.6630859375,-0.0078125,0.74560546875,-1.0986328125,0.67138671875,-0.18310546875,-1.1810302734375,40.9185791015625,-74.146728515625
1760966937.5844324,-0.66162109375,-0.00439453125,0.75244140625,-2.5634765625,0.3662109375,-0.42724609375,-1.20849609375,40.924072265625,-74.1522216796875
1760966937.591176,-0.66162109375,-0.00439453125,0.75244140625,-2.5634765625,0.3662109375,-0.42724609375,-1.2359619140625,40.924072265625,-74.15771484375
1760966937.5985234,-0.65771484375,-0.01318359375,0.7529296875,-3.47900390625,0.18310546875,-0.6103515625,-1.2744140625,40.9295654296875,-74.1632080078125
1760966937.6086702,-0.65771484375,-0.01318359375,0.7529296875,-3.47900390625,0.18310546875,-0.6103515625,-1.3128662109375,40.9295654296875,-74.168701171875
1760966937.619534,-0.6572265625,-0.0322265625,0.7646484375,-2.38037109375,0.244140625,-0.54931640625,-1.34033203125,40.93505859375,-74.1741943359375
1760966937.6291435,-0.6572265625,-0.0322265625,0.7646484375,-2.38037109375,0.244140625,-0.54931640625,-1.3677978515625,40.93505859375,-74.1796875
1760966937.6401765,-0.6533203125,-0.02880859375,0.767578125,-1.64794921875,0.3662109375,-0.42724609375,-1.38427734375,40.9405517578125,-74.1851806640625
1760966937.6497731,-0.6533203125,-0.02880859375,0.767578125,-1.64794921875,0.3662109375,-0.42724609375,-1.40625,40.9405517578125,-74.190673828125
1760966937.6590233,-0.6484375,-0.01220703125,0.75927734375,-1.28173828125,0.42724609375,-0.54931640625,-1.4227294921875,40.946044921875,-74.20166015625
1760966937.6702273,-0.6484375,-0.01220703125,0.75927734375,-1.28173828125,0.42724609375,-0.54931640625,-1.439208984375,40.946044921875,-74.2071533203125
1760966937.6797433,-0.64794921875,-0.01123046875,0.767578125,-2.3193359375,0.48828125,-0.6103515625,-1.4666748046875,40.9515380859375,-74.2181396484375
1760966937.6908448,-0.64794921875,-0.01123046875,0.767578125,-2.3193359375,0.48828125,-0.6103515625,-1.494140625,40.95703125,-74.2236328125
1760966937.6993773,-0.6513671875,-0.021484375,0.7734375,-1.89208984375,0.48828125,-0.91552734375,-1.51611328125,40.95703125,-74.234619140625
1760966937.710544,-0.6513671875,-0.021484375,0.7734375,-1.89208984375,0.48828125,-0.91552734375,-1.5435791015625,40.9625244140625,-74.24560546875
1760966937.718686,-0.65478515625,-0.02880859375,0.75439453125,0.18310546875,0.42724609375,-1.15966796875,-1.549072265625,40.9625244140625,-74.256591796875
1760966937.729165,-0.65478515625,-0.02880859375,0.75439453125,0.18310546875,0.42724609375,-1.15966796875,-1.56005859375,40.9625244140625,-74.2730712890625
1760966937.7391074,-0.65234375,-0.02294921875,0.759765625,1.64794921875,0.244140625,-1.40380859375,-1.5545654296875,40.9625244140625,-74.28955078125
1760966937.7489545,-0.65234375,-0.02294921875,0.759765625,1.64794921875,0.244140625,-1.40380859375,-1.549072265625,40.9625244140625,-74.3060302734375
1760966937.7588172,-0.64794921875,-0.0126953125,0.77197265625,0.06103515625,0.18310546875,-1.46484375,-1.56005859375,40.9625244140625,-74.3280029296875
1760966937.7694447,-0.64794921875,-0.0126953125,0.77197265625,0.06103515625,0.18310546875,-1.46484375,-1.571044921875,40.9625244140625,-74.344482421875
1760966937.7791784,-0.64501953125,-0.01806640625,0.77392578125,-1.708984375,0.244140625,-1.28173828125,-1.5985107421875,40.9625244140625,-74.3609619140625
1760966937.7888517,-0.64501953125,-0.01806640625,0.77392578125,-1.708984375,0.244140625,-1.28173828125,-1.6259765625,40.95703125,-74.3719482421875
1760966937.7987359,-0.64990234375,-0.02978515625,0.767578125,-1.3427734375,0.30517578125,-1.220703125,-1.64794921875,40.95703125,-74.388427734375
1760966937.8328981,-0.64990234375,-0.02978515625,0.767578125,-1.3427734375,0.30517578125,-1.220703125,-1.669921875,40.95703125,-74.4049072265625
1760966937.8398576,-0.65625,-0.02783203125,0.75732421875,0.42724609375,0.18310546875,-1.46484375,-1.680908203125,40.95703125,-74.42138671875
1760966937.8490374,-0.65625,-0.02783203125,0.75732421875,0.42724609375,0.18310546875,-1.46484375,-1.6864013671875,40.9515380859375,-74.4378662109375
1760966937.8656235,-0.6572265625,-0.02294921875,0.748046875,1.03759765625,0.0,-1.5869140625,-1.69189453125,40.9515380859375,-74.4598388671875
1760966937.8720942,-0.6572265625,-0.02294921875,0.748046875,1.03759765625,0.0,-1.5869140625,-1.69189453125,40.946044921875,-74.4818115234375
1760966937.8791423,-0.66015625,-0.01513671875,0.7666015625,0.6103515625,0.0,-1.3427734375,-1.6973876953125,40.946044921875,-74.498291015625
1760966937.8876746,-0.66015625,-0.01513671875,0.7666015625,0.6103515625,0.0,-1.3427734375,-1.702880859375,40.946044921875,-74.5147705078125
1760966937.8952305,-0.66357421875,-0.02099609375,0.77001953125,-3.173828125,-0.06103515625,-1.03759765625,-1.7413330078125,40.9405517578125,-74.5257568359375
1760966937.9032328,-0.66357421875,-0.02099609375,0.77001953125,-3.173828125,-0.06103515625,-1.03759765625,-1.77978515625,40.9405517578125,-74.5367431640625
1760966937.9100606,-0.66357421875,-0.02099609375,0.77001953125,-3.41796875,0.0,-0.8544921875,-1.82373046875,40.93505859375,-74.5477294921875
1760966937.9171581,-0.66796875,-0.0263671875,0.7333984375,-3.41796875,0.0,-0.8544921875,-1.8621826171875,40.93505859375,-74.5587158203125
1760966937.9241881,-0.67236328125,-0.03857421875,0.75341796875,-1.15966796875,0.1220703125,-0.91552734375,-1.878662109375,40.93505859375,-74.5697021484375
1760966937.9316347,-0.67236328125,-0.03857421875,0.75341796875,-1.15966796875,0.1220703125,-0.91552734375,-1.900634765625,40.9405517578125,-74.5806884765625
1760966937.939606,-0.67431640625,-0.02880859375,0.7431640625,0.0,0.244140625,-1.03759765625,-1.91162109375,40.9405517578125,-74.5916748046875
1760966937.9489887,-0.67431640625,-0.02880859375,0.7431640625,0.0,0.244140625,-1.03759765625,-1.9171142578125,40.946044921875,-74.608154296875
1760966937.9593205,-0.6708984375,-0.017578125,0.7373046875,0.18310546875,0.3662109375,-1.15966796875,-1.9281005859375,40.9515380859375,-74.619140625
1760966937.9699945,-0.6708984375,-0.017578125,0.7373046875,0.18310546875,0.3662109375,-1.15966796875,-1.93359375,40.95703125,-74.6356201171875
1760966937.979486,-0.6708984375,-0.021484375,0.75341796875,-2.25830078125,0.3662109375,-0.91552734375,-1.966552734375,40.968017578125,-74.6466064453125
1760966937.9890945,-0.6708984375,-0.021484375,0.75341796875,-2.25830078125,0.3662109375,-0.91552734375,-1.9940185546875,40.9735107421875,-74.6575927734375
1760966937.9992993,-0.66064453125,-0.03564453125,0.748046875,-1.89208984375,0.42724609375,-0.732421875,-2.0159912109375,40.97900390625,-74.6685791015625
1760966938.0091684,-0.66064453125,-0.03564453125,0.748046875,-1.89208984375,0.42724609375,-0.732421875,-2.04345703125,40.9844970703125,-74.6795654296875
1760966938.019752,-0.64794921875,-0.04296875,0.7685546875,-0.48828125,0.3662109375,-0.6103515625,-2.054443359375,40.989990234375,-74.68505859375
1760966938.0291505,-0.64794921875,-0.04296875,0.7685546875,-0.48828125,0.3662109375,-0.6103515625,-2.0654296875,40.9954833984375,-74.696044921875
1760966938.039044,-0.64794921875,-0.02978515625,0.7744140625,-0.18310546875,0.42724609375,-0.42724609375,-2.0709228515625,41.0009765625,-74.7015380859375
1760966938.0495286,-0.64794921875,-0.02978515625,0.7744140625,-0.18310546875,0.42724609375,-0.42724609375,-2.076416015625,41.0064697265625,-74.70703125
1760966938.0752466,-0.65234375,-0.02490234375,0.7578125,-0.06103515625,0.30517578125,-0.42724609375,-2.0819091796875,41.011962890625,-74.718017578125
1760966938.0821965,-0.65234375,-0.02490234375,0.7578125,-0.06103515625,0.30517578125,-0.42724609375,-2.08740234375,41.011962890625,-74.7235107421875
1760966938.089615,-0.65283203125,-0.03125,0.75390625,0.0,0.06103515625,-0.42724609375,-2.0928955078125,41.011962890625,-74.72900390625
1760966938.0980866,-0.65283203125,-0.03125,0.75390625,0.0,0.06103515625,-0.42724609375,-2.098388671875,41.011962890625,-74.7344970703125
1760966938.1266549,-0.6455078125,-0.02880859375,0.767578125,1.03759765625,-0.244140625,-0.6103515625,-2.0928955078125,41.0064697265625,-74.739990234375
1760966938.1335602,-0.6455078125,-0.02880859375,0.767578125,1.03759765625,-0.244140625,-0.6103515625,-2.08740234375,41.0064697265625,-74.7454833984375
1760966938.140004,-0.64501953125,-0.02490234375,0.7705078125,0.42724609375,-0.42724609375,-0.67138671875,-2.08740234375,40.9954833984375,-74.7564697265625
1760966938.1471252,-0.64501953125,-0.02490234375,0.7705078125,0.42724609375,-0.42724609375,-0.67138671875,-2.0928955078125,40.989990234375,-74.761962890625
1760966938.1541824,-0.64599609375,-0.02880859375,0.76953125,0.3662109375,-0.48828125,-0.67138671875,-2.0928955078125,40.9844970703125,-74.77294921875
1760966938.1628337,-0.64599609375,-0.02880859375,0.76953125,0.3662109375,-0.48828125,-0.67138671875,-2.0928955078125,40.9735107421875,-74.7784423828125
1760966938.1863132,-0.6494140625,-0.03271484375,0.76904296875,-0.06103515625,-0.3662109375,-0.732421875,-2.1038818359375,40.968017578125,-74.783935546875
1760966938.195751,-0.6494140625,-0.03271484375,0.76904296875,-0.06103515625,-0.3662109375,-0.732421875,-2.109375,40.9625244140625,-74.794921875
1760966938.2026231,-0.65185546875,-0.02587890625,0.76513671875,-0.30517578125,-0.3662109375,-0.67138671875,-2.120361328125,40.9515380859375,-74.8004150390625
1760966938.2090025,-0.65185546875,-0.02587890625,0.76513671875,-0.30517578125,-0.3662109375,-0.67138671875,-2.1258544921875,40.946044921875,-74.8114013671875
1760966938.2337103,-0.6484375,-0.021484375,0.7578125,-0.67138671875,-0.42724609375,-0.732421875,-2.142333984375,40.9405517578125,-74.81689453125
1760966938.2404346,-0.6484375,-0.021484375,0.7578125,-0.67138671875,-0.42724609375,-0.732421875,-2.1533203125,40.9295654296875,-74.827880859375
1760966938.2474751,-0.64697265625,-0.03515625,0.767578125,0.06103515625,-0.42724609375,-0.8544921875,-2.1588134765625,40.924072265625,-74.8333740234375
1760966938.2549899,-0.64697265625,-0.03515625,0.767578125,0.06103515625,-0.42724609375,-0.8544921875,-2.164306640625,40.9185791015625,-74.8443603515625
1760966938.262083,-0.64892578125,-0.041015625,0.7734375,1.28173828125,-0.42724609375,-0.91552734375,-2.1588134765625,40.9075927734375,-74.8553466796875
1760966938.2706742,-0.64892578125,-0.041015625,0.7734375,1.28173828125,-0.42724609375,-0.91552734375,-2.1533203125,40.902099609375,-74.871826171875
1760966938.2769063,-0.64892578125,-0.02783203125,0.76220703125,1.28173828125,-0.42724609375,-0.9765625,-2.1533203125,40.89111328125,-74.8828125
1760966938.2832448,-0.64892578125,-0.02783203125,0.76220703125,1.28173828125,-0.42724609375,-0.9765625,-2.1478271484375,40.8856201171875,-74.893798828125
1760966938.289546,-0.6513671875,-0.02392578125,0.759765625,0.42724609375,-0.6103515625,-0.9765625,-2.1533203125,40.8746337890625,-74.90478515625
1760966938.314193,-0.6513671875,-0.02392578125,0.759765625,0.42724609375,-0.6103515625,-0.9765625,-2.1588134765625,40.8636474609375,-74.9212646484375
1760966938.3220227,-0.650390625,-0.0283203125,0.75732421875,0.48828125,-0.67138671875,-0.9765625,-2.1588134765625,40.8526611328125,-74.9322509765625
1760966938.3305972,-0.650390625,-0.0283203125,0.75732421875,0.48828125,-0.67138671875,-0.9765625,-2.164306640625,40.84716796875,-74.9432373046875
1760966938.338047,-0.65771484375,-0.0400390625,0.77392578125,2.8076171875,-0.67138671875,-0.91552734375,-2.142333984375,40.836181640625,-74.9542236328125
1760966938.3460543,-0.65771484375,-0.0400390625,0.77392578125,2.8076171875,-0.67138671875,-0.91552734375,-2.1258544921875,40.8251953125,-74.9652099609375
1760966938.352429,-0.65771484375,-0.033203125,0.748046875,3.23486328125,-0.67138671875,-0.91552734375,-2.1038818359375,40.814208984375,-74.981689453125
1760966938.3589883,-0.65771484375,-0.033203125,0.748046875,3.23486328125,-0.67138671875,-0.91552734375,-2.076416015625,40.8087158203125,-74.99267578125
1760966938.3668058,-0.66357421875,-0.0263671875,0.74658203125,2.9296875,-0.79345703125,-0.91552734375,-2.0599365234375,40.7977294921875,-75.003662109375
1760966938.3886068,-0.66357421875,-0.0263671875,0.74658203125,2.9296875,-0.79345703125,-0.91552734375,-2.0379638671875,40.792236328125,-75.0146484375
1760966938.394815,-0.666015625,-0.02734375,0.75,0.8544921875,-0.732421875,-0.6103515625,-2.0379638671875,40.78125,-75.025634765625
1760966938.40232,-0.666015625,-0.02734375,0.75,0.8544921875,-0.732421875,-0.6103515625,-2.032470703125,40.7757568359375,-75.0311279296875
1760966938.4087136,-0.66357421875,-0.0302734375,0.75634765625,1.46484375,-0.67138671875,-0.48828125,-2.0269775390625,40.770263671875,-75.0421142578125
1760966938.424349,-0.66064453125,-0.03271484375,0.755859375,2.50244140625,-0.48828125,-0.42724609375,-2.010498046875,40.7647705078125,-75.047607421875
1760966938.4331386,-0.66064453125,-0.03271484375,0.755859375,2.50244140625,-0.48828125,-0.42724609375,-1.988525390625,40.75927734375,-75.0531005859375
1760966938.4409893,-0.6611328125,-0.02783203125,0.75048828125,2.197265625,-0.42724609375,-0.3662109375,-1.9720458984375,40.75927734375,-75.05859375
1760966938.4480722,-0.6611328125,-0.02783203125,0.75048828125,2.197265625,-0.42724609375,-0.3662109375,-1.95556640625,40.7537841796875,-75.069580078125
1760966938.4565365,-0.6611328125,-0.02783203125,0.75048828125,0.91552734375,-0.3662109375,-0.18310546875,-1.944580078125,40.7537841796875,-75.069580078125
1760966938.471413,-0.6591796875,-0.0224609375,0.75390625,0.91552734375,-0.3662109375,-0.18310546875,-1.9390869140625,40.7537841796875,-75.0750732421875
1760966938.478769,-0.65283203125,-0.02734375,0.76611328125,0.18310546875,-0.3662109375,-0.06103515625,-1.93359375,40.748291015625,-75.0750732421875
1760966938.4863212,-0.65283203125,-0.02734375,0.76611328125,0.18310546875,-0.3662109375,-0.06103515625,-1.93359375,40.748291015625,-75.08056640625
1760966938.5005665,-0.64599609375,-0.03271484375,0.77392578125,1.0986328125,-0.244140625,0.0,-1.9281005859375,40.748291015625,-75.08056640625
1760966938.5098002,-0.64599609375,-0.03271484375,0.77392578125,1.0986328125,-0.244140625,0.0,-1.922607421875,40.7427978515625,-75.08056640625
1760966938.516435,-0.64501953125,-0.025390625,0.76904296875,1.8310546875,-0.18310546875,0.0,-1.9061279296875,40.7427978515625,-75.08056640625
1760966938.5235012,-0.64501953125,-0.025390625,0.76904296875,1.8310546875,-0.18310546875,0.0,-1.8896484375,40.7373046875,-75.0860595703125
1760966938.5392962,-0.6416015625,-0.01904296875,0.7666015625,1.708984375,-0.244140625,-0.06103515625,-1.8731689453125,40.7373046875,-75.0860595703125
1760966938.546345,-0.6416015625,-0.01904296875,0.7666015625,1.708984375,-0.244140625,-0.06103515625,-1.856689453125,40.7318115234375,-75.0860595703125
1760966938.5532346,-0.64453125,-0.02294921875,0.77392578125,0.54931640625,-0.244140625,-0.06103515625,-1.8511962890625,40.726318359375,-75.0860595703125
1760966938.559981,-0.64453125,-0.02294921875,0.77392578125,0.54931640625,-0.244140625,-0.06103515625,-1.845703125,40.726318359375,-75.0860595703125
1760966938.5760293,-0.6474609375,-0.029296875,0.7685546875,0.54931640625,-0.244140625,-0.06103515625,-1.8402099609375,40.7208251953125,-75.0860595703125
1760966938.5838192,-0.6474609375,-0.029296875,0.7685546875,0.54931640625,-0.244140625,-0.06103515625,-1.834716796875,40.71533203125,-75.091552734375
1760966938.5917926,-0.6494140625,-0.02392578125,0.75634765625,0.9765625,-0.3662109375,-0.244140625,-1.8292236328125,40.7098388671875,-75.091552734375
1760966938.599398,-0.6494140625,-0.02392578125,0.75634765625,0.9765625,-0.3662109375,-0.244140625,-1.82373046875,40.704345703125,-75.0970458984375
1760966938.609792,-0.6484375,-0.02099609375,0.76953125,0.8544921875,-0.48828125,-0.244140625,-1.8182373046875,40.6988525390625,-75.0970458984375
1760966938.6238303,-0.6484375,-0.02099609375,0.76953125,0.8544921875,-0.48828125,-0.244140625,-1.812744140625,40.6878662109375,-75.1025390625
1760966938.6311033,-0.65185546875,-0.02587890625,0.76123046875,0.732421875,-0.48828125,-0.244140625,-1.8072509765625,40.682373046875,-75.1025390625
1760966938.6406453,-0.65185546875,-0.02587890625,0.76123046875,0.732421875,-0.48828125,-0.244140625,-1.8017578125,40.6768798828125,-75.1080322265625
1760966938.6522388,-0.64892578125,-0.0283203125,0.76171875,0.732421875,-0.48828125,-0.06103515625,-1.7962646484375,40.6658935546875,-75.1080322265625
1760966938.6610882,-0.64892578125,-0.0283203125,0.76171875,0.732421875,-0.48828125,-0.06103515625,-1.790771484375,40.660400390625,-75.1080322265625
1760966938.6720922,-0.6484375,-0.0263671875,0.76513671875,2.74658203125,-0.48828125,-0.18310546875,-1.7742919921875,40.6549072265625,-75.113525390625
1760966938.6801805,-0.6484375,-0.0263671875,0.76513671875,2.74658203125,-0.48828125,-0.18310546875,-1.746826171875,40.6494140625,-75.113525390625
1760966938.6898246,-0.650390625,-0.021484375,0.77001953125,3.2958984375,-0.48828125,-0.18310546875,-1.7193603515625,40.6439208984375,-75.1190185546875
1760966938.6999047,-0.650390625,-0.021484375,0.77001953125,3.2958984375,-0.48828125,-0.18310546875,-1.69189453125,40.6329345703125,-75.1190185546875
1760966938.7105374,-0.65380859375,-0.02197265625,0.7724609375,1.52587890625,-0.6103515625,-0.06103515625,-1.669921875,40.62744140625,-75.12451171875
1760966938.7195947,-0.65380859375,-0.02197265625,0.7724609375,1.52587890625,-0.6103515625,-0.06103515625,-1.6534423828125,40.616455078125,-75.12451171875
1760966938.7296488,-0.662109375,-0.01806640625,0.74951171875,0.732421875,-0.67138671875,0.0,-1.64794921875,40.6109619140625,-75.12451171875
1760966938.7402825,-0.662109375,-0.01806640625,0.74951171875,0.732421875,-0.67138671875,0.0,-1.636962890625,40.60546875,-75.12451171875
1760966938.7502375,-0.66357421875,-0.02294921875,0.748046875,0.3662109375,-0.54931640625,-0.06103515625,-1.6314697265625,40.594482421875,-75.12451171875
1760966938.7598672,-0.66357421875,-0.02294921875,0.748046875,0.3662109375,-0.54931640625,-0.06103515625,-1.6314697265625,40.5889892578125,-75.12451171875
1760966938.77731,-0.669921875,-0.02783203125,0.755859375,0.9765625,-0.30517578125,-0.1220703125,-1.6259765625,40.5889892578125,-75.12451171875
1760966938.785744,-0.669921875,-0.02783203125,0.755859375,0.9765625,-0.30517578125,-0.1220703125,-1.6204833984375,40.58349609375,-75.1300048828125
1760966938.7922132,-0.671875,-0.021484375,0.75439453125,0.8544921875,-0.1220703125,0.0,-1.6094970703125,40.58349609375,-75.1300048828125
1760966938.7999513,-0.671875,-0.021484375,0.75439453125,0.8544921875,-0.1220703125,0.0,-1.60400390625,40.5889892578125,-75.1300048828125
1760966938.8101914,-0.67041015625,-0.017578125,0.74658203125,0.42724609375,-0.06103515625,0.0,-1.5985107421875,40.5889892578125,-75.1300048828125
1760966938.8198242,-0.67041015625,-0.017578125,0.74658203125,0.42724609375,-0.06103515625,0.0,-1.593017578125,40.5889892578125,-75.135498046875
1760966938.8297884,-0.66748046875,-0.0146484375,0.74609375,-0.30517578125,0.0,0.06103515625,-1.593017578125,40.594482421875,-75.135498046875
1760966938.8420126,-0.66748046875,-0.0146484375,0.74609375,-0.30517578125,0.0,0.06103515625,-1.5985107421875,40.5999755859375,-75.135498046875
1760966938.8569403,-0.66357421875,-0.025390625,0.75146484375,-0.6103515625,0.0,0.06103515625,-1.5985107421875,40.5999755859375,-75.135498046875
1760966938.8647416,-0.66357421875,-0.025390625,0.75146484375,-0.6103515625,0.0,0.06103515625,-1.6094970703125,40.60546875,-75.135498046875
1760966938.8723102,-0.65869140625,-0.0283203125,0.7587890625,-0.3662109375,0.0,0.244140625,-1.6094970703125,40.6109619140625,-75.135498046875
1760966938.8802629,-0.65869140625,-0.0283203125,0.7587890625,-0.3662109375,0.0,0.244140625,-1.614990234375,40.616455078125,-75.1300048828125
1760966938.8905776,-0.662109375,-0.0244140625,0.7607421875,0.0,0.06103515625,0.3662109375,-1.614990234375,40.6219482421875,-75.1300048828125
1760966938.9007323,-0.662109375,-0.0244140625,0.7607421875,0.0,0.06103515625,0.3662109375,-1.6094970703125,40.6219482421875,-75.1300048828125
1760966938.9100506,-0.66552734375,-0.0205078125,0.74951171875,-0.1220703125,0.1220703125,0.3662109375,-1.6094970703125,40.62744140625,-75.12451171875
1760966938.920203,-0.66552734375,-0.0205078125,0.74951171875,-0.1220703125,0.1220703125,0.3662109375,-1.6094970703125,40.6329345703125,-75.1190185546875
1760966938.9302864,-0.66162109375,-0.02197265625,0.7509765625,-0.244140625,0.06103515625,0.3662109375,-1.6094970703125,40.638427734375,-75.1190185546875
1760966938.9400485,-0.66162109375,-0.02197265625,0.7509765625,-0.244140625,0.06103515625,0.3662109375,-1.6094970703125,40.6439208984375,-75.113525390625
1760966938.9510128,-0.65283203125,-0.01806640625,0.76171875,0.0,0.0,0.30517578125,-1.60400390625,40.6494140625,-75.113525390625
1760966938.9601088,-0.65283203125,-0.01806640625,0.76171875,0.0,0.0,0.30517578125,-1.60400390625,40.6494140625,-75.1080322265625
1760966938.9702034,-0.646484375,-0.02294921875,0.76611328125,-0.1220703125,0.0,0.3662109375,-1.60400390625,40.6549072265625,-75.1080322265625
1760966938.9808471,-0.646484375,-0.02294921875,0.76611328125,-0.1220703125,0.0,0.3662109375,-1.5985107421875,40.6549072265625,-75.1025390625
1760966938.990253,-0.64599609375,-0.0263671875,0.77490234375,0.0,0.0,0.42724609375,-1.5985107421875,40.660400390625,-75.0970458984375
1760966939.0003536,-0.64599609375,-0.0263671875,0.77490234375,0.0,0.0,0.42724609375,-1.593017578125,40.660400390625,-75.091552734375
1760966939.0115905,-0.64453125,-0.02099609375,0.76708984375,0.79345703125,-0.06103515625,0.244140625,-1.5875244140625,40.660400390625,-75.0860595703125
1760966939.0201385,-0.64453125,-0.02099609375,0.76708984375,0.79345703125,-0.06103515625,0.244140625,-1.58203125,40.660400390625,-75.0860595703125
1760966939.0316286,-0.64697265625,-0.01904296875,0.763671875,0.8544921875,-0.30517578125,0.1220703125,-1.571044921875,40.6549072265625,-75.0860595703125
1760966939.0412264,-0.64697265625,-0.01904296875,0.763671875,0.8544921875,-0.30517578125,0.1220703125,-1.56005859375,40.6549072265625,-75.0860595703125
1760966939.050231,-0.6513671875,-0.015625,0.76708984375,0.42724609375,-0.42724609375,0.0,-1.5545654296875,40.6494140625,-75.0860595703125
1760966939.0609484,-0.6513671875,-0.015625,0.76708984375,0.42724609375,-0.42724609375,0.0,-1.549072265625,40.6439208984375,-75.0860595703125
1760966939.06981,-0.6552734375,-0.01611328125,0.755859375,0.1220703125,-0.30517578125,0.0,-1.549072265625,40.638427734375,-75.0860595703125
1760966939.0799387,-0.6552734375,-0.01611328125,0.755859375,0.1220703125,-0.30517578125,0.0,-1.5435791015625,40.638427734375,-75.0860595703125
1760966939.0904808,-0.65625,-0.02197265625,0.76708984375,-0.54931640625,-0.244140625,0.0,-1.549072265625,40.6329345703125,-75.0860595703125
1760966939.1001093,-0.65625,-0.02197265625,0.76708984375,-0.54931640625,-0.244140625,0.0,-1.5545654296875,40.62744140625,-75.0860595703125
1760966939.1110861,-0.658203125,-0.02685546875,0.763671875,-0.48828125,-0.18310546875,0.0,-1.56005859375,40.62744140625,-75.0860595703125
1760966939.120136,-0.658203125,-0.02685546875,0.763671875,-0.48828125,-0.18310546875,0.0,-1.5655517578125,40.62744140625,-75.0860595703125
1760966939.1331313,-0.66064453125,-0.02099609375,0.75,-0.06103515625,-0.06103515625,0.06103515625,-1.5655517578125,40.6219482421875,-75.0860595703125
1760966939.1404448,-0.66064453125,-0.02099609375,0.75,-0.06103515625,-0.06103515625,0.06103515625,-1.5655517578125,40.6219482421875,-75.0860595703125
1760966939.1521523,-0.65869140625,-0.0185546875,0.75927734375,0.244140625,-0.06103515625,0.0,-1.5655517578125,40.6219482421875,-75.0860595703125
1760966939.1606019,-0.65869140625,-0.0185546875,0.75927734375,0.244140625,-0.06103515625,0.0,-1.56005859375,40.62744140625,-75.091552734375
1760966939.1708395,-0.65771484375,-0.017578125,0.76171875,0.48828125,0.0,0.06103515625,-1.56005859375,40.62744140625,-75.091552734375
1760966939.1805797,-0.65771484375,-0.017578125,0.76171875,0.48828125,0.0,0.06103515625,-1.5545654296875,40.62744140625,-75.091552734375
1760966939.1905186,-0.65771484375,-0.021484375,0.75732421875,-0.8544921875,0.06103515625,0.18310546875,-1.5545654296875,40.62744140625,-75.0860595703125
1760966939.2024512,-0.65771484375,-0.021484375,0.75732421875,-0.8544921875,0.06103515625,0.18310546875,-1.56005859375,40.62744140625,-75.0860595703125
1760966939.211186,-0.65283203125,-0.02685546875,0.759765625,-0.79345703125,0.0,0.30517578125,-1.5655517578125,40.6329345703125,-75.0860595703125
1760966939.221281,-0.65283203125,-0.02685546875,0.759765625,-0.79345703125,0.0,0.30517578125,-1.571044921875,40.6329345703125,-75.08056640625
1760966939.2305193,-0.6552734375,-0.01708984375,0.76416015625,0.244140625,0.0,0.18310546875,-1.571044921875,40.6329345703125,-75.08056640625
1760966939.2401478,-0.6552734375,-0.01708984375,0.76416015625,0.244140625,0.0,0.18310546875,-1.571044921875,40.6329345703125,-75.0750732421875
1760966939.2508721,-0.65283203125,-0.01904296875,0.7578125,0.67138671875,0.0,0.1220703125,-1.5655517578125,40.6329345703125,-75.0750732421875
1760966939.26052,-0.65283203125,-0.01904296875,0.7578125,0.67138671875,0.0,0.1220703125,-1.5545654296875,40.6329345703125,-75.0750732421875
1760966939.2702367,-0.6513671875,-0.02197265625,0.7666015625,0.732421875,-0.06103515625,0.06103515625,-1.549072265625,40.6329345703125,-75.0750732421875
1760966939.2802052,-0.6513671875,-0.02197265625,0.7666015625,0.732421875,-0.06103515625,0.06103515625,-1.5380859375,40.6329345703125,-75.0750732421875
1760966939.2905412,-0.650390625,-0.021484375,0.76318359375,0.30517578125,0.0,0.1220703125,-1.5325927734375,40.6329345703125,-75.069580078125
1760966939.3008745,-0.650390625,-0.021484375,0.76318359375,0.30517578125,0.0,0.1220703125,-1.5325927734375,40.6329345703125,-75.069580078125
1760966939.3162382,-0.646484375,-0.0234375,0.7626953125,1.28173828125,0.0,0.1220703125,-1.5216064453125,40.6329345703125,-75.069580078125
1760966939.3230608,-0.646484375,-0.0234375,0.7626953125,1.28173828125,0.0,0.1220703125,-1.5106201171875,40.6329345703125,-75.069580078125
1760966939.3300157,-0.64453125,-0.01904296875,0.7724609375,2.25830078125,-0.1220703125,0.0,-1.4886474609375,40.6329345703125,-75.069580078125
1760966939.3486907,-0.64453125,-0.01904296875,0.7724609375,2.25830078125,-0.1220703125,0.0,-1.4666748046875,40.6329345703125,-75.069580078125
1760966939.3567066,-0.642578125,-0.0166015625,0.7744140625,1.40380859375,-0.18310546875,0.0,-1.4501953125,40.62744140625,-75.069580078125
1760966939.3647275,-0.642578125,-0.0166015625,0.7744140625,1.40380859375,-0.18310546875,0.0,-1.439208984375,40.62744140625,-75.0750732421875
1760966939.379207,-0.64453125,-0.01513671875,0.77294921875,-0.3662109375,-0.1220703125,0.06103515625,-1.4337158203125,40.6219482421875,-75.0750732421875
1760966939.3869262,-0.64453125,-0.01513671875,0.77294921875,-0.3662109375,-0.1220703125,0.06103515625,-1.4337158203125,40.616455078125,-75.0750732421875
1760966939.3949883,-0.65087890625,-0.013671875,0.76123046875,-0.91552734375,-0.06103515625,0.0,-1.439208984375,40.616455078125,-75.0750732421875
1760966939.4012675,-0.65087890625,-0.013671875,0.76123046875,-0.91552734375,-0.06103515625,0.0,-1.4501953125,40.6109619140625,-75.0750732421875
1760966939.4135687,-0.654296875,-0.0263671875,0.7685546875,0.67138671875,-0.1220703125,0.0,-1.4501953125,40.6109619140625,-75.0750732421875
1760966939.4294543,-0.654296875,-0.0263671875,0.7685546875,0.67138671875,-0.1220703125,0.0,-1.4447021484375,40.60546875,-75.0750732421875
1760966939.435843,-0.65185546875,-0.02734375,0.75732421875,2.74658203125,-0.06103515625,-0.18310546875,-1.42822265625,40.60546875,-75.0750732421875
1760966939.4490905,-0.65185546875,-0.02734375,0.75732421875,2.74658203125,-0.06103515625,-0.18310546875,-1.4007568359375,40.5999755859375,-75.08056640625
1760966939.4587877,-0.65185546875,-0.02734375,0.75732421875,2.9296875,-0.244140625,-0.30517578125,-1.3787841796875,40.594482421875,-75.0860595703125
1760966939.4695208,-0.65087890625,-0.0107421875,0.7529296875,2.9296875,-0.244140625,-0.30517578125,-1.351318359375,40.594482421875,-75.091552734375
1760966939.483482,-0.65234375,-0.01123046875,0.77197265625,1.28173828125,-0.244140625,-0.18310546875,-1.34033203125,40.5889892578125,-75.091552734375
1760966939.490194,-0.65234375,-0.01123046875,0.77197265625,1.28173828125,-0.244140625,-0.18310546875,-1.329345703125,40.58349609375,-75.0970458984375
1760966939.5042732,-0.658203125,-0.0205078125,0.76416015625,0.54931640625,-0.06103515625,-0.1220703125,-1.3238525390625,40.58349609375,-75.0970458984375
1760966939.5113685,-0.658203125,-0.0205078125,0.76416015625,0.54931640625,-0.06103515625,-0.1220703125,-1.318359375,40.58349609375,-75.0970458984375
1760966939.5323555,-0.6640625,-0.02001953125,0.75537109375,1.03759765625,0.0,-0.244140625,-1.3128662109375,40.58349609375,-75.1025390625
1760966939.5393436,-0.6640625,-0.02001953125,0.75537109375,1.03759765625,0.0,-0.244140625,-1.3018798828125,40.58349609375,-75.1080322265625
1760966939.5470772,-0.65771484375,-0.00537109375,0.75634765625,1.52587890625,0.0,-0.54931640625,-1.2908935546875,40.58349609375,-75.113525390625
1760966939.5541291,-0.65771484375,-0.00537109375,0.75634765625,1.52587890625,0.0,-0.54931640625,-1.2799072265625,40.58349609375,-75.12451171875
1760966939.5639174,-0.64892578125,-0.0087890625,0.7607421875,0.42724609375,0.0,-0.6103515625,-1.2799072265625,40.58349609375,-75.1300048828125
1760966939.570457,-0.64892578125,-0.0087890625,0.7607421875,0.42724609375,0.0,-0.6103515625,-1.2799072265625,40.58349609375,-75.135498046875
1760966939.57699,-0.6494140625,-0.0263671875,0.77294921875,-0.91552734375,0.0,-0.30517578125,-1.2908935546875,40.58349609375,-75.1409912109375
1760966939.5839074,-0.6494140625,-0.0263671875,0.77294921875,-0.91552734375,0.0,-0.30517578125,-1.307373046875,40.58349609375,-75.146484375
1760966939.5903661,-0.6494140625,-0.02490234375,0.76025390625,-1.220703125,0.0,-0.1220703125,-1.318359375,40.58349609375,-75.146484375
1760966939.6004505,-0.6494140625,-0.02490234375,0.76025390625,-1.220703125,0.0,-0.1220703125,-1.329345703125,40.58349609375,-75.1519775390625
1760966939.6108308,-0.65185546875,-0.01611328125,0.7685546875,0.732421875,-0.244140625,-0.244140625,-1.3238525390625,40.5780029296875,-75.1519775390625
1760966939.620679,-0.65185546875,-0.01611328125,0.7685546875,0.732421875,-0.244140625,-0.244140625,-1.3238525390625,40.5780029296875,-75.157470703125
1760966939.6309345,-0.65771484375,-0.00830078125,0.7548828125,0.8544921875,-0.18310546875,-0.48828125,-1.318359375,40.572509765625,-75.1629638671875
1760966939.6404588,-0.65771484375,-0.00830078125,0.7548828125,0.8544921875,-0.18310546875,-0.48828125,-1.3128662109375,40.572509765625,-75.1739501953125
1760966939.6545384,-0.65771484375,-0.01123046875,0.75830078125,0.0,-0.1220703125,-0.54931640625,-1.318359375,40.572509765625,-75.179443359375
1760966939.661522,-0.65771484375,-0.01123046875,0.75830078125,0.0,-0.1220703125,-0.54931640625,-1.318359375,40.572509765625,-75.1849365234375
1760966939.6708527,-0.65380859375,-0.01904296875,0.765625,-1.15966796875,0.0,-0.54931640625,-1.3348388671875,40.572509765625,-75.1904296875
1760966939.6884646,-0.65380859375,-0.01904296875,0.765625,-1.15966796875,0.0,-0.54931640625,-1.351318359375,40.572509765625,-75.201416015625
1760966939.7023358,-0.6533203125,-0.02294921875,0.7646484375,-1.40380859375,0.0,-0.48828125,-1.3677978515625,40.572509765625,-75.2069091796875
1760966939.7158322,-0.6533203125,-0.02294921875,0.7646484375,-1.40380859375,0.0,-0.48828125,-1.38427734375,40.572509765625,-75.21240234375
1760966939.7327302,-0.65576171875,-0.0166015625,0.75048828125,-0.732421875,-0.18310546875,-0.6103515625,-1.395263671875,40.5670166015625,-75.223388671875
1760966939.7437694,-0.65576171875,-0.0166015625,0.75048828125,-0.732421875,-0.18310546875,-0.6103515625,-1.40625,40.5670166015625,-75.2288818359375
1760966939.7637708,-0.65673828125,-0.01953125,0.76025390625,0.30517578125,-0.18310546875,-0.732421875,-1.4117431640625,40.5670166015625,-75.2398681640625
1760966939.7734797,-0.65673828125,-0.01953125,0.76025390625,0.30517578125,-0.18310546875,-0.732421875,-1.4117431640625,40.5670166015625,-75.2508544921875
1760966939.7930527,-0.65087890625,-0.01708984375,0.7646484375,0.6103515625,-0.18310546875,-0.8544921875,-1.4117431640625,40.5670166015625,-75.2618408203125
1760966939.8114698,-0.65087890625,-0.01708984375,0.7646484375,0.6103515625,-0.18310546875,-0.8544921875,-1.417236328125,40.5615234375,-75.2728271484375
1760966939.8217466,-0.65380859375,-0.01611328125,0.76953125,0.0,-0.18310546875,-0.79345703125,-1.4227294921875,40.5615234375,-75.2838134765625
1760966939.8290343,-0.65380859375,-0.01611328125,0.76953125,0.0,-0.18310546875,-0.79345703125,-1.42822265625,40.5615234375,-75.2947998046875
1760966939.837095,-0.65673828125,-0.0234375,0.75341796875,0.0,-0.18310546875,-0.67138671875,-1.4337158203125,40.5560302734375,-75.30029296875
1760966939.8439229,-0.65673828125,-0.0234375,0.75341796875,0.0,-0.18310546875,-0.67138671875,-1.439208984375,40.5560302734375,-75.311279296875
1760966939.8509328,-0.65576171875,-0.02099609375,0.75830078125,0.18310546875,-0.18310546875,-0.54931640625,-1.439208984375,40.5560302734375,-75.3167724609375
1760966939.8583367,-0.65576171875,-0.02099609375,0.75830078125,0.18310546875,-0.18310546875,-0.54931640625,-1.4447021484375,40.5560302734375,-75.3277587890625
1760966939.8659868,-0.6533203125,-0.02001953125,0.7646484375,0.67138671875,-0.06103515625,-0.48828125,-1.439208984375,40.5560302734375,-75.333251953125
1760966939.8722818,-0.6533203125,-0.02001953125,0.7646484375,0.67138671875,-0.06103515625,-0.48828125,-1.439208984375,40.5560302734375,-75.3387451171875
1760966939.8789945,-0.65234375,-0.021484375,0.76025390625,0.732421875,-0.06103515625,-0.42724609375,-1.4337158203125,40.5560302734375,-75.34423828125
1760966939.8873656,-0.65234375,-0.021484375,0.76025390625,0.732421875,-0.06103515625,-0.42724609375,-1.42822265625,40.5560302734375,-75.355224609375
1760966939.897178,-0.64990234375,-0.01806640625,0.7626953125,0.79345703125,-0.1220703125,-0.48828125,-1.42822265625,40.5560302734375,-75.3607177734375
1760966939.9046843,-0.64990234375,-0.01806640625,0.7626953125,0.79345703125,-0.1220703125,-0.48828125,-1.4227294921875,40.550537109375,-75.3662109375
1760966939.9119375,-0.654296875,-0.01904296875,0.7666015625,0.18310546875,-0.1220703125,-0.3662109375,-1.4227294921875,40.550537109375,-75.3717041015625
1760966939.9194956,-0.654296875,-0.01904296875,0.7666015625,0.18310546875,-0.1220703125,-0.3662109375,-1.42822265625,40.550537109375,-75.377197265625
1760966939.9265845,-0.65283203125,-0.0146484375,0.759765625,0.0,-0.06103515625,-0.42724609375,-1.42822265625,40.550537109375,-75.3826904296875
1760966939.9390101,-0.65283203125,-0.0146484375,0.759765625,0.0,-0.06103515625,-0.42724609375,-1.4337158203125,40.550537109375,-75.38818359375
1760966939.9471796,-0.6533203125,-0.01513671875,0.76318359375,-0.06103515625,-0.06103515625,-0.48828125,-1.439208984375,40.550537109375,-75.3936767578125
1760966939.9627614,-0.6533203125,-0.01513671875,0.76318359375,-0.06103515625,-0.06103515625,-0.48828125,-1.439208984375,40.550537109375,-75.4046630859375
1760966939.970787,-0.65087890625,-0.02001953125,0.76416015625,0.0,-0.1220703125,-0.54931640625,-1.4447021484375,40.550537109375,-75.41015625
1760966939.97751,-0.65087890625,-0.02001953125,0.76416015625,0.0,-0.1220703125,-0.54931640625,-1.4501953125,40.5450439453125,-75.4156494140625
1760966939.9846117,-0.64697265625,-0.02490234375,0.763671875,0.79345703125,-0.244140625,-0.54931640625,-1.4447021484375,40.5450439453125,-75.4266357421875
1760966940.0001876,-0.64697265625,-0.02490234375,0.763671875,0.79345703125,-0.244140625,-0.54931640625,-1.4447021484375,40.53955078125,-75.43212890625
1760966940.0076041,-0.64501953125,-0.0224609375,0.771484375,1.15966796875,-0.30517578125,-0.48828125,-1.4337158203125,40.53955078125,-75.443115234375
1760966940.0146313,-0.64501953125,-0.0224609375,0.771484375,1.15966796875,-0.30517578125,-0.48828125,-1.42822265625,40.5340576171875,-75.4486083984375
1760966940.0226,-0.64111328125,-0.01416015625,0.77490234375,0.732421875,-0.3662109375,-0.48828125,-1.4227294921875,40.528564453125,-75.4541015625
1760966940.037145,-0.64111328125,-0.01416015625,0.77490234375,0.732421875,-0.3662109375,-0.48828125,-1.4227294921875,40.5230712890625,-75.4595947265625
1760966940.0460632,-0.6328125,-0.0126953125,0.77978515625,0.0,-0.3662109375,-0.48828125,-1.42822265625,40.517578125,-75.465087890625
1760966940.0524452,-0.6328125,-0.0126953125,0.77978515625,0.0,-0.3662109375,-0.48828125,-1.42822265625,40.5120849609375,-75.4705810546875
1760966940.0663142,-0.6474609375,-0.0185546875,0.7861328125,0.54931640625,-0.30517578125,-0.48828125,-1.42822265625,40.506591796875,-75.4815673828125
1760966940.0754232,-0.6474609375,-0.0185546875,0.7861328125,0.54931640625,-0.30517578125,-0.48828125,-1.4227294921875,40.49560546875,-75.487060546875
1760966940.0832436,-0.65087890625,-0.025390625,0.7490234375,0.67138671875,-0.30517578125,-0.42724609375,-1.4227294921875,40.4901123046875,-75.4925537109375
1760966940.090256,-0.65087890625,-0.025390625,0.7490234375,0.67138671875,-0.30517578125,-0.42724609375,-1.417236328125,40.484619140625,-75.4925537109375
1760966940.1112394,-0.65576171875,-0.0185546875,0.763671875,0.8544921875,-0.42724609375,-0.48828125,-1.4117431640625,40.4791259765625,-75.5035400390625
1760966940.1187384,-0.65576171875,-0.0185546875,0.763671875,0.8544921875,-0.42724609375,-0.48828125,-1.4117431640625,40.4736328125,-75.509033203125
1760966940.1257808,-0.65576171875,-0.013671875,0.75244140625,0.30517578125,-0.3662109375,-0.42724609375,-1.4117431640625,40.4681396484375,-75.5145263671875
1760966940.135554,-0.65576171875,-0.013671875,0.75244140625,0.30517578125,-0.3662109375,-0.42724609375,-1.4117431640625,40.462646484375,-75.52001953125
1760966940.154627,-0.6611328125,-0.02099609375,0.7578125,-0.3662109375,-0.42724609375,-0.30517578125,-1.417236328125,40.462646484375,-75.52001953125
1760966940.1624022,-0.6611328125,-0.02099609375,0.7578125,-0.3662109375,-0.42724609375,-0.30517578125,-1.4227294921875,40.4571533203125,-75.5255126953125
1760966940.1785796,-0.66259765625,-0.02587890625,0.7529296875,0.244140625,-0.30517578125,-0.1220703125,-1.4227294921875,40.45166015625,-75.531005859375
1760966940.1864552,-0.66259765625,-0.02587890625,0.7529296875,0.244140625,-0.30517578125,-0.1220703125,-1.4227294921875,40.45166015625,-75.531005859375
1760966940.2023108,-0.66357421875,-0.0224609375,0.75439453125,0.42724609375,-0.18310546875,0.0,-1.417236328125,40.45166015625,-75.5364990234375
1760966940.2164104,-0.66357421875,-0.0224609375,0.75439453125,0.42724609375,-0.18310546875,0.0,-1.4117431640625,40.45166015625,-75.5364990234375
1760966940.2237577,-0.66015625,-0.015625,0.74951171875,-0.18310546875,-0.1220703125,0.0,-1.417236328125,40.45166015625,-75.5364990234375
1760966940.230786,-0.66015625,-0.015625,0.74951171875,-0.18310546875,-0.1220703125,0.0,-1.417236328125,40.45166015625,-75.5364990234375
1760966940.2390168,-0.65673828125,-0.0146484375,0.76220703125,-0.18310546875,-0.1220703125,0.0,-1.417236328125,40.4571533203125,-75.5419921875
1760966940.2456117,-0.65673828125,-0.0146484375,0.76220703125,-0.18310546875,-0.1220703125,0.0,-1.4227294921875,40.4571533203125,-75.5419921875
1760966940.252892,-0.6533203125,-0.02099609375,0.76611328125,0.06103515625,-0.06103515625,0.1220703125,-1.417236328125,40.4571533203125,-75.5419921875
1760966940.261136,-0.6533203125,-0.02099609375,0.76611328125,0.06103515625,-0.06103515625,0.1220703125,-1.417236328125,40.4571533203125,-75.5419921875
1760966940.2687387,-0.6494140625,-0.0224609375,0.76123046875,-0.06103515625,-0.18310546875,0.18310546875,-1.417236328125,40.4571533203125,-75.5364990234375
1760966940.2791355,-0.6494140625,-0.0224609375,0.76123046875,-0.06103515625,-0.18310546875,0.18310546875,-1.417236328125,40.4571533203125,-75.5364990234375
1760966940.2865005,-0.64306640625,-0.0205078125,0.77294921875,-0.18310546875,-0.244140625,0.244140625,-1.417236328125,40.4571533203125,-75.5364990234375
1760966940.295223,-0.64306640625,-0.0205078125,0.77294921875,-0.18310546875,-0.244140625,0.244140625,-1.417236328125,40.4571533203125,-75.531005859375
1760966940.3025842,-0.64111328125,-0.01220703125,0.77294921875,-0.79345703125,-0.1220703125,0.244140625,-1.4227294921875,40.4571533203125,-75.531005859375
1760966940.3182585,-0.64111328125,-0.01220703125,0.77294921875,-0.79345703125,-0.1220703125,0.244140625,-1.42822265625,40.45166015625,-75.5255126953125
1760966940.3264465,-0.640625,-0.01123046875,0.76904296875,-1.46484375,-0.30517578125,0.18310546875,-1.439208984375,40.45166015625,-75.5255126953125
1760966940.3344269,-0.640625,-0.01123046875,0.76904296875,-1.46484375,-0.30517578125,0.18310546875,-1.4556884765625,40.4461669921875,-75.52001953125
1760966940.342237,-0.638671875,-0.0244140625,0.779296875,-1.220703125,-0.244140625,0.18310546875,-1.461181640625,40.440673828125,-75.52001953125
1760966940.350211,-0.638671875,-0.0244140625,0.779296875,-1.220703125,-0.244140625,0.18310546875,-1.47216796875,40.4351806640625,-75.5145263671875
1760966940.3571372,-0.6396484375,-0.0244140625,0.7734375,-0.06103515625,-0.42724609375,0.1220703125,-1.47216796875,40.4296875,-75.5145263671875
1760966940.37082,-0.6396484375,-0.0244140625,0.7734375,-0.06103515625,-0.42724609375,0.1220703125,-1.47216796875,40.4241943359375,-75.509033203125
1760966940.3770204,-0.63916015625,-0.01904296875,0.7685546875,0.30517578125,-0.42724609375,0.18310546875,-1.4666748046875,40.418701171875,-75.509033203125
1760966940.393894,-0.63916015625,-0.01904296875,0.7685546875,0.30517578125,-0.42724609375,0.18310546875,-1.461181640625,40.40771484375,-75.509033203125
1760966940.400818,-0.6396484375,-0.01513671875,0.77880859375,-0.30517578125,-0.54931640625,0.18310546875,-1.461181640625,40.4022216796875,-75.5035400390625
1760966940.4089677,-0.6396484375,-0.01513671875,0.77880859375,-0.30517578125,-0.54931640625,0.18310546875,-1.461181640625,40.3912353515625,-75.498046875
1760966940.4164708,-0.64013671875,-0.02001953125,0.771484375,-0.42724609375,-0.67138671875,0.18310546875,-1.4666748046875,40.3857421875,-75.498046875
1760966940.4237666,-0.64013671875,-0.02001953125,0.771484375,-0.42724609375,-0.67138671875,0.18310546875,-1.4666748046875,40.374755859375,-75.4925537109375
1760966940.4319534,-0.64453125,-0.0283203125,0.76904296875,0.91552734375,-0.8544921875,0.06103515625,-1.4556884765625,40.36376953125,-75.4925537109375
1760966940.447079,-0.6484375,-0.02099609375,0.77099609375,1.8310546875,-0.732421875,0.0,-1.4447021484375,40.352783203125,-75.4925537109375
1760966940.4570467,-0.6484375,-0.02099609375,0.77099609375,1.8310546875,-0.732421875,0.0,-1.42822265625,40.341796875,-75.4925537109375
1760966940.4639125,-0.64892578125,-0.009765625,0.7646484375,1.03759765625,-0.67138671875,0.0,-1.4117431640625,40.330810546875,-75.4925537109375
1760966940.471301,-0.64892578125,-0.009765625,0.7646484375,1.03759765625,-0.67138671875,0.0,-1.4007568359375,40.31982421875,-75.4925537109375
1760966940.4815688,-0.6455078125,-0.013671875,0.76806640625,-0.18310546875,-0.42724609375,0.0,-1.395263671875,40.3143310546875,-75.4925537109375
1760966940.4923718,-0.6455078125,-0.013671875,0.76806640625,-0.18310546875,-0.42724609375,0.0,-1.4007568359375,40.308837890625,-75.4925537109375
1760966940.5076067,-0.64404296875,-0.0224609375,0.77734375,-0.30517578125,-0.30517578125,0.1220703125,-1.4007568359375,40.3033447265625,-75.4925537109375
1760966940.5189614,-0.64404296875,-0.0224609375,0.77734375,-0.30517578125,-0.30517578125,0.1220703125,-1.4007568359375,40.2978515625,-75.487060546875
1760966940.528584,-0.64697265625,-0.021484375,0.76708984375,0.732421875,-0.30517578125,0.1220703125,-1.395263671875,40.2923583984375,-75.487060546875
1760966940.5372415,-0.64697265625,-0.021484375,0.76708984375,0.732421875,-0.30517578125,0.1220703125,-1.3897705078125,40.286865234375,-75.487060546875
1760966940.54783,-0.6455078125,-0.009765625,0.76123046875,1.15966796875,-0.42724609375,0.0,-1.3787841796875,40.2813720703125,-75.4815673828125
1760966940.560062,-0.6455078125,-0.009765625,0.76123046875,1.15966796875,-0.42724609375,0.0,-1.3677978515625,40.27587890625,-75.4815673828125
1760966940.5688818,-0.6435546875,-0.01416015625,0.77392578125,-0.06103515625,-0.42724609375,0.0,-1.3623046875,40.2703857421875,-75.4815673828125
1760966940.5786295,-0.6435546875,-0.01416015625,0.77392578125,-0.06103515625,-0.42724609375,0.0,-1.3623046875,40.264892578125,-75.4815673828125
1760966940.5873265,-0.63623046875,-0.025390625,0.78173828125,-0.732421875,-0.3662109375,0.1220703125,-1.3623046875,40.2593994140625,-75.4815673828125
1760966940.595786,-0.63623046875,-0.025390625,0.78173828125,-0.732421875,-0.3662109375,0.1220703125,-1.3677978515625,40.2484130859375,-75.47607421875
1760966940.6053126,-0.6337890625,-0.01953125,0.77587890625,-0.6103515625,-0.3662109375,0.244140625,-1.373291015625,40.242919921875,-75.47607421875
1760966940.6143656,-0.6337890625,-0.01953125,0.77587890625,-0.6103515625,-0.3662109375,0.244140625,-1.3787841796875,40.2374267578125,-75.47607421875
1760966940.622243,-0.640625,-0.013671875,0.7744140625,-0.8544921875,-0.3662109375,0.244140625,-1.38427734375,40.23193359375,-75.4705810546875
1760966940.631489,-0.640625,-0.013671875,0.7744140625,-0.8544921875,-0.3662109375,0.244140625,-1.3897705078125,40.2264404296875,-75.465087890625
1760966940.6414332,-0.64306640625,-0.0185546875,0.76904296875,-1.03759765625,-0.3662109375,0.0,-1.395263671875,40.2154541015625,-75.465087890625
1760966940.6530719,-0.64306640625,-0.0185546875,0.76904296875,-1.03759765625,-0.3662109375,0.0,-1.40625,40.2099609375,-75.465087890625
1760966940.661678,-0.646484375,-0.01904296875,0.76611328125,-1.52587890625,-0.42724609375,0.0,-1.417236328125,40.2044677734375,-75.465087890625
1760966940.6727374,-0.646484375,-0.01904296875,0.76611328125,-1.52587890625,-0.42724609375,0.0,-1.4337158203125,40.198974609375,-75.465087890625
1760966940.6831837,-0.646484375,-0.01904296875,0.767578125,-0.67138671875,-0.42724609375,0.0,-1.4447021484375,40.18798828125,-75.465087890625
1760966940.693398,-0.646484375,-0.01904296875,0.767578125,-0.67138671875,-0.42724609375,0.0,-1.4501953125,40.1824951171875,-75.465087890625
1760966940.7023156,-0.65771484375,-0.02294921875,0.76171875,0.42724609375,-0.3662109375,0.0,-1.4501953125,40.177001953125,-75.465087890625
1760966940.7209382,-0.65771484375,-0.02294921875,0.76171875,0.42724609375,-0.3662109375,0.0,-1.4447021484375,40.1715087890625,-75.465087890625
1760966940.738798,-0.65673828125,-0.01806640625,0.74853515625,1.15966796875,-0.18310546875,0.0,-1.439208984375,40.1715087890625,-75.465087890625
1760966940.7469504,-0.65673828125,-0.01806640625,0.74853515625,1.15966796875,-0.18310546875,0.0,-1.42822265625,40.166015625,-75.465087890625
1760966940.7664855,-0.65966796875,-0.01806640625,0.77001953125,0.3662109375,-0.1220703125,0.0,-1.417236328125,40.166015625,-75.465087890625
1760966940.7874162,-0.65966796875,-0.01806640625,0.77001953125,0.3662109375,-0.1220703125,0.0,-1.417236328125,40.166015625,-75.465087890625
1760966940.7961664,-0.654296875,-0.015625,0.75341796875,0.0,-0.1220703125,0.0,-1.4117431640625,40.166015625,-75.465087890625
1760966940.809031,-0.654296875,-0.015625,0.75341796875,0.0,-0.1220703125,0.0,-1.4117431640625,40.166015625,-75.465087890625
1760966940.8171482,-0.654296875,-0.01513671875,0.74951171875,-0.18310546875,-0.06103515625,0.0,-1.4117431640625,40.166015625,-75.465087890625
1760966940.835768,-0.654296875,-0.01513671875,0.74951171875,-0.18310546875,-0.06103515625,0.0,-1.417236328125,40.166015625,-75.465087890625
1760966940.8527806,-0.64501953125,-0.02001953125,0.7548828125,-0.1220703125,0.06103515625,0.0,-1.417236328125,40.1715087890625,-75.465087890625
1760966940.8624413,-0.64501953125,-0.02001953125,0.7548828125,-0.1220703125,0.06103515625,0.0,-1.417236328125,40.1715087890625,-75.465087890625
1760966940.8864734,-0.6298828125,-0.02197265625,0.81201171875,0.30517578125,-0.18310546875,0.30517578125,-1.4117431640625,40.177001953125,-75.465087890625
1760966940.902245,-0.6298828125,-0.02197265625,0.81201171875,0.30517578125,-0.18310546875,0.30517578125,-1.40625,40.1715087890625,-75.4595947265625
1760966940.9093442,-0.62841796875,-0.0185546875,0.775390625,-0.42724609375,-0.244140625,0.30517578125,-1.40625,40.1715087890625,-75.4541015625
1760966940.9265547,-0.62841796875,-0.0185546875,0.775390625,-0.42724609375,-0.244140625,0.30517578125,-1.40625,40.166015625,-75.4541015625
1760966940.9342527,-0.6357421875,-0.015625,0.7734375,-0.54931640625,-0.48828125,0.244140625,-1.4117431640625,40.1605224609375,-75.4486083984375
1760966940.9444122,-0.6357421875,-0.015625,0.7734375,-0.54931640625,-0.48828125,0.244140625,-1.4117431640625,40.155029296875,-75.443115234375
1760966940.9526713,-0.6416015625,-0.0166015625,0.7685546875,-0.48828125,-0.54931640625,0.18310546875,-1.417236328125,40.14404296875,-75.443115234375
1760966940.9593885,-0.6416015625,-0.0166015625,0.7685546875,-0.48828125,-0.54931640625,0.18310546875,-1.417236328125,40.1385498046875,-75.4376220703125
1760966940.9676032,-0.6416015625,-0.0166015625,0.7685546875,-0.3662109375,-0.8544921875,0.18310546875,-1.4227294921875,40.1275634765625,-75.4376220703125
1760966940.9746232,-0.63525390625,-0.0205078125,0.7822265625,-0.3662109375,-0.8544921875,0.18310546875,-1.4227294921875,40.1165771484375,-75.43212890625
1760966940.9819632,-0.6318359375,-0.01416015625,0.77978515625,-0.54931640625,-0.9765625,0.1220703125,-1.4227294921875,40.1055908203125,-75.43212890625
1760966940.9883974,-0.6318359375,-0.01416015625,0.77978515625,-0.54931640625,-0.9765625,0.1220703125,-1.42822265625,40.0946044921875,-75.4266357421875
1760966940.9954038,-0.63623046875,-0.013671875,0.77392578125,-0.48828125,-1.220703125,0.1220703125,-1.4337158203125,40.078125,-75.4266357421875
1760966941.0044682,-0.63623046875,-0.013671875,0.77392578125,-0.48828125,-1.220703125,0.1220703125,-1.4337158203125,40.0616455078125,-75.421142578125
1760966941.0129209,-0.63623046875,-0.013671875,0.77392578125,-0.9765625,-1.3427734375,0.06103515625,-1.439208984375,40.045166015625,-75.4156494140625
1760966941.019716,-0.63720703125,-0.013671875,0.76806640625,-0.9765625,-1.3427734375,0.06103515625,-1.4447021484375,40.0286865234375,-75.4156494140625
1760966941.0267773,-0.63916015625,-0.0205078125,0.77783203125,-1.03759765625,-1.52587890625,0.0,-1.4556884765625,40.01220703125,-75.41015625
1760966941.033833,-0.63916015625,-0.0205078125,0.77783203125,-1.03759765625,-1.52587890625,0.0,-1.461181640625,39.9957275390625,-75.41015625
1760966941.0414205,-0.63818359375,-0.01806640625,0.7685546875,-1.953125,-1.52587890625,0.0,-1.4776611328125,39.979248046875,-75.41015625
1760966941.0493746,-0.63818359375,-0.01806640625,0.7685546875,-1.953125,-1.52587890625,0.0,-1.494140625,39.957275390625,-75.4046630859375
1760966941.0568573,-0.63916015625,-0.01220703125,0.7734375,-1.40380859375,-1.64794921875,0.0,-1.5106201171875,39.9407958984375,-75.4046630859375
1760966941.0643806,-0.63916015625,-0.01220703125,0.7734375,-1.40380859375,-1.64794921875,0.0,-1.5216064453125,39.92431640625,-75.4046630859375
1760966941.0718718,-0.6357421875,-0.015625,0.77880859375,-2.8076171875,-1.64794921875,0.06103515625,-1.5380859375,39.90234375,-75.399169921875
1760966941.0804973,-0.6357421875,-0.015625,0.77880859375,-2.8076171875,-1.64794921875,0.06103515625,-1.5655517578125,39.8858642578125,-75.3936767578125
1760966941.0911381,-0.64990234375,-0.0185546875,0.7607421875,-3.60107421875,-1.64794921875,0.1220703125,-1.593017578125,39.869384765625,-75.3936767578125
1760966941.0978856,-0.64990234375,-0.0185546875,0.7607421875,-3.60107421875,-1.64794921875,0.1220703125,-1.6259765625,39.847412109375,-75.38818359375
1760966941.1053712,-0.64892578125,-0.02685546875,0.76953125,-3.7841796875,-1.708984375,0.0,-1.658935546875,39.8309326171875,-75.3826904296875
1760966941.112034,-0.64892578125,-0.02685546875,0.76953125,-3.7841796875,-1.708984375,0.0,-1.6973876953125,39.814453125,-75.3826904296875
1760966941.1192074,-0.64501953125,-0.02734375,0.7734375,-3.47900390625,-1.64794921875,0.0,-1.7303466796875,39.7979736328125,-75.3826904296875
1760966941.1286328,-0.64501953125,-0.02734375,0.7734375,-3.47900390625,-1.64794921875,0.0,-1.7633056640625,39.781494140625,-75.3826904296875
1760966941.136267,-0.64306640625,-0.02490234375,0.76318359375,-2.44140625,-1.64794921875,0.0,-1.790771484375,39.7650146484375,-75.3826904296875
1760966941.1435716,-0.64306640625,-0.02490234375,0.76318359375,-2.44140625,-1.64794921875,0.0,-1.812744140625,39.74853515625,-75.3826904296875
1760966941.1523404,-0.64501953125,-0.029296875,0.76953125,-1.3427734375,-1.64794921875,0.0,-1.8292236328125,39.7320556640625,-75.3826904296875
1760966941.1597543,-0.64501953125,-0.029296875,0.76953125,-1.3427734375,-1.64794921875,0.0,-1.8402099609375,39.715576171875,-75.3826904296875
1760966941.167247,-0.64501953125,-0.03173828125,0.767578125,-1.0986328125,-1.64794921875,-0.06103515625,-1.8511962890625,39.6990966796875,-75.3826904296875
1760966941.1750827,-0.64501953125,-0.03173828125,0.767578125,-1.0986328125,-1.64794921875,-0.06103515625,-1.8621826171875,39.6826171875,-75.3826904296875
1760966941.1828065,-0.64453125,-0.0224609375,0.77392578125,-0.42724609375,-1.46484375,0.0,-1.86767578125,39.671630859375,-75.3826904296875
1760966941.1997724,-0.64453125,-0.0224609375,0.77392578125,-0.42724609375,-1.46484375,0.0,-1.8731689453125,39.6551513671875,-75.38818359375
1760966941.208465,-0.64697265625,-0.02294921875,0.7724609375,-0.42724609375,-1.28173828125,0.0,-1.8731689453125,39.6441650390625,-75.38818359375
1760966941.2233744,-0.64697265625,-0.02294921875,0.7724609375,-0.42724609375,-1.28173828125,0.0,-1.878662109375,39.6331787109375,-75.38818359375
1760966941.2301748,-0.65185546875,-0.0166015625,0.75732421875,-1.28173828125,-1.220703125,-0.06103515625,-1.8841552734375,39.6221923828125,-75.38818359375
1760966941.239005,-0.65185546875,-0.0166015625,0.75732421875,-1.28173828125,-1.220703125,-0.06103515625,-1.900634765625,39.6112060546875,-75.38818359375
1760966941.2467682,-0.65625,-0.021484375,0.76171875,-2.38037109375,-1.15966796875,0.0,-1.9171142578125,39.605712890625,-75.38818359375
1760966941.258035,-0.65625,-0.021484375,0.76171875,-2.38037109375,-1.15966796875,0.0,-1.9390869140625,39.5947265625,-75.38818359375
1760966941.2744455,-0.64697265625,-0.029296875,0.765625,-2.0751953125,-1.03759765625,-0.06103515625,-1.95556640625,39.5892333984375,-75.38818359375
1760966941.284669,-0.64697265625,-0.029296875,0.765625,-2.0751953125,-1.03759765625,-0.06103515625,-1.9775390625,39.5782470703125,-75.3936767578125
1760966941.291465,-0.638671875,-0.03076171875,0.77783203125,-0.9765625,-0.91552734375,-0.244140625,-1.9940185546875,39.57275390625,-75.3936767578125
1760966941.306761,-0.638671875,-0.03076171875,0.77783203125,-0.9765625,-0.91552734375,-0.244140625,-1.99951171875,39.5672607421875,-75.399169921875
1760966941.3149505,-0.626953125,-0.0224609375,0.7841796875,-0.9765625,-0.79345703125,-0.3662109375,-2.010498046875,39.561767578125,-75.399169921875
1760966941.3219645,-0.626953125,-0.0224609375,0.7841796875,-0.9765625,-0.79345703125,-0.3662109375,-2.0269775390625,39.5562744140625,-75.4046630859375
1760966941.3316035,-0.62890625,-0.02685546875,0.779296875,-2.13623046875,-0.91552734375,-0.244140625,-2.04345703125,39.5452880859375,-75.41015625
1760966941.3489058,-0.62890625,-0.02685546875,0.779296875,-2.13623046875,-0.91552734375,-0.244140625,-2.0654296875,39.539794921875,-75.41015625
1760966941.3570306,-0.6328125,-0.0341796875,0.7744140625,-1.77001953125,-1.0986328125,-0.06103515625,-2.0819091796875,39.52880859375,-75.41015625
1760966941.3637254,-0.6328125,-0.0341796875,0.7744140625,-1.77001953125,-1.0986328125,-0.06103515625,-2.098388671875,39.517822265625,-75.4156494140625
1760966941.3717918,-0.6455078125,-0.0361328125,0.77587890625,-1.89208984375,-1.15966796875,0.0,-2.1148681640625,39.5068359375,-75.4156494140625
1760966941.3875113,-0.6455078125,-0.0361328125,0.77587890625,-1.89208984375,-1.15966796875,0.0,-2.1368408203125,39.495849609375,-75.4156494140625
1760966941.3991916,-0.6357421875,-0.02490234375,0.7548828125,-0.30517578125,-0.91552734375,-0.1220703125,-2.1478271484375,39.48486328125,-75.4156494140625
1760966941.407153,-0.6357421875,-0.02490234375,0.7548828125,-0.30517578125,-0.91552734375,-0.1220703125,-2.1478271484375,39.4793701171875,-75.421142578125
1760966941.4145563,-0.62841796875,-0.03564453125,0.80419921875,0.0,-1.03759765625,-0.18310546875,-2.1478271484375,39.4683837890625,-75.421142578125
1760966941.4276886,-0.62841796875,-0.03564453125,0.80419921875,0.0,-1.03759765625,-0.18310546875,-2.1533203125,39.4573974609375,-75.4266357421875
1760966941.4352555,-0.6279296875,-0.0302734375,0.7783203125,0.3662109375,-1.03759765625,-0.18310546875,-2.1478271484375,39.4464111328125,-75.4266357421875
1760966941.4480057,-0.6279296875,-0.0302734375,0.7783203125,0.3662109375,-1.03759765625,-0.18310546875,-2.1478271484375,39.4354248046875,-75.43212890625
1760966941.4553392,-0.62841796875,-0.0302734375,0.77587890625,-0.54931640625,-1.0986328125,0.0,-2.1533203125,39.4244384765625,-75.43212890625
1760966941.4628654,-0.62841796875,-0.0302734375,0.77587890625,-0.54931640625,-1.0986328125,0.0,-2.1588134765625,39.4134521484375,-75.43212890625
1760966941.4709592,-0.62841796875,-0.02392578125,0.802734375,0.3662109375,-1.03759765625,0.0,-2.1533203125,39.4024658203125,-75.43212890625
1760966941.477879,-0.62841796875,-0.02392578125,0.802734375,0.3662109375,-1.03759765625,0.0,-2.1478271484375,39.385986328125,-75.43212890625
1760966941.4857426,-0.623046875,-0.02294921875,0.77734375,-0.91552734375,-1.0986328125,0.18310546875,-2.1533203125,39.375,-75.43212890625
1760966941.4935234,-0.623046875,-0.02294921875,0.77734375,-0.91552734375,-1.0986328125,0.18310546875,-2.1588134765625,39.364013671875,-75.4266357421875
1760966941.509274,-0.62548828125,-0.0341796875,0.78076171875,0.30517578125,-1.28173828125,0.06103515625,-2.1588134765625,39.3475341796875,-75.4266357421875
1760966941.5180502,-0.62548828125,-0.0341796875,0.78076171875,0.30517578125,-1.28173828125,0.06103515625,-2.1533203125,39.3310546875,-75.421142578125
1760966941.5252757,-0.630859375,-0.029296875,0.79150390625,0.244140625,-1.3427734375,0.06103515625,-2.1478271484375,39.3145751953125,-75.421142578125
1760966941.53878,-0.630859375,-0.029296875,0.79150390625,0.244140625,-1.3427734375,0.06103515625,-2.1478271484375,39.298095703125,-75.421142578125
1760966941.5467675,-0.6328125,-0.02685546875,0.78076171875,0.6103515625,-1.28173828125,-0.06103515625,-2.1368408203125,39.2816162109375,-75.421142578125
1760966941.5561547,-0.6328125,-0.02685546875,0.78076171875,0.6103515625,-1.28173828125,-0.06103515625,-2.13134765625,39.2706298828125,-75.421142578125
1760966941.5643399,-0.63232421875,-0.01953125,0.78564453125,-0.1220703125,-1.3427734375,-0.30517578125,-2.1368408203125,39.254150390625,-75.421142578125
1760966941.572678,-0.63232421875,-0.01953125,0.78564453125,-0.1220703125,-1.3427734375,-0.30517578125,-2.1368408203125,39.2376708984375,-75.4266357421875
1760966941.5841014,-0.64208984375,-0.01513671875,0.76513671875,-0.91552734375,-1.220703125,-0.6103515625,-2.1478271484375,39.22119140625,-75.43212890625
1760966941.592455,-0.64208984375,-0.01513671875,0.76513671875,-0.91552734375,-1.220703125,-0.6103515625,-2.1588134765625,39.210205078125,-75.4376220703125
1760966941.6045535,-0.685546875,-0.025390625,0.7578125,-3.173828125,-1.28173828125,-0.244140625,-2.1917724609375,39.19921875,-75.4376220703125
1760966941.6195118,-0.685546875,-0.025390625,0.7578125,-3.173828125,-1.28173828125,-0.244140625,-2.2247314453125,39.188232421875,-75.4376220703125
1760966941.628166,-0.69873046875,-0.05810546875,0.69482421875,-0.9765625,-0.8544921875,-0.18310546875,-2.2357177734375,39.1827392578125,-75.443115234375
1760966941.6355295,-0.69873046875,-0.05810546875,0.69482421875,-0.9765625,-0.8544921875,-0.18310546875,-2.2467041015625,39.1827392578125,-75.443115234375
1760966941.6426446,-0.6943359375,-0.04296875,0.7470703125,0.9765625,-0.30517578125,-0.18310546875,-2.2357177734375,39.188232421875,-75.4541015625
1760966941.6531894,-0.6943359375,-0.04296875,0.7470703125,0.9765625,-0.30517578125,-0.18310546875,-2.230224609375,39.19921875,-75.4595947265625
1760966941.6643496,-0.66845703125,-0.013671875,0.75390625,0.54931640625,0.18310546875,-0.244140625,-2.2247314453125,39.210205078125,-75.465087890625
1760966941.6727095,-0.66845703125,-0.013671875,0.75390625,0.54931640625,0.18310546875,-0.244140625,-2.2247314453125,39.22119140625,-75.4705810546875
1760966941.6832685,-0.6484375,-0.021484375,0.75732421875,-1.52587890625,0.3662109375,-0.18310546875,-2.2412109375,39.2376708984375,-75.47607421875
1760966941.6944869,-0.6484375,-0.021484375,0.75732421875,-1.52587890625,0.3662109375,-0.18310546875,-2.2576904296875,39.254150390625,-75.4815673828125
1760966941.7028966,-0.6318359375,-0.048828125,0.77294921875,-1.64794921875,0.18310546875,0.0,-2.274169921875,39.26513671875,-75.487060546875
1760966941.7138038,-0.6318359375,-0.048828125,0.77294921875,-1.64794921875,0.18310546875,0.0,-2.2906494140625,39.276123046875,-75.487060546875
1760966941.7237728,-0.615234375,-0.0458984375,0.81005859375,0.0,0.0,0.244140625,-2.2906494140625,39.2816162109375,-75.4925537109375
1760966941.7333546,-0.615234375,-0.0458984375,0.81005859375,0.0,0.0,0.244140625,-2.2906494140625,39.287109375,-75.4925537109375
1760966941.7441525,-0.60693359375,-0.01708984375,0.80322265625,-0.6103515625,0.0,0.42724609375,-2.2906494140625,39.2926025390625,-75.487060546875
1760966941.755073,-0.60693359375,-0.01708984375,0.80322265625,-0.6103515625,0.0,0.42724609375,-2.296142578125,39.2926025390625,-75.487060546875
1760966941.7633996,-0.611328125,-0.01953125,0.7880859375,-2.197265625,0.0,0.30517578125,-2.3126220703125,39.2926025390625,-75.4815673828125
1760966941.7732508,-0.611328125,-0.01953125,0.7880859375,-2.197265625,0.0,0.30517578125,-2.3345947265625,39.2926025390625,-75.4815673828125
1760966941.7832737,-0.62255859375,-0.04443359375,0.78662109375,-1.5869140625,-0.244140625,0.244140625,-2.3455810546875,39.287109375,-75.47607421875
1760966941.7981281,-0.62255859375,-0.04443359375,0.78662109375,-1.5869140625,-0.244140625,0.244140625,-2.3565673828125,39.287109375,-75.47607421875
1760966941.8045828,-0.63330078125,-0.04345703125,0.775390625,-0.244140625,-0.3662109375,0.244140625,-2.362060546875,39.2816162109375,-75.4705810546875
1760966941.8142884,-0.63330078125,-0.04345703125,0.775390625,-0.244140625,-0.3662109375,0.244140625,-2.362060546875,39.276123046875,-75.4705810546875
1760966941.8231397,-0.6357421875,-0.0205078125,0.77587890625,0.30517578125,-0.48828125,0.0,-2.3565673828125,39.2706298828125,-75.4705810546875
1760966941.8385684,-0.6357421875,-0.0205078125,0.77587890625,0.30517578125,-0.48828125,0.0,-2.3565673828125,39.26513671875,-75.47607421875
1760966941.8459725,-0.63525390625,-0.02587890625,0.77490234375,-0.18310546875,-0.48828125,-0.1220703125,-2.3565673828125,39.2596435546875,-75.47607421875
1760966941.8533967,-0.63525390625,-0.02587890625,0.77490234375,-0.18310546875,-0.48828125,-0.1220703125,-2.3565673828125,39.254150390625,-75.47607421875
1760966941.8633003,-0.62646484375,-0.033203125,0.76416015625,-1.15966796875,-0.244140625,-0.18310546875,-2.373046875,39.2486572265625,-75.4815673828125
1760966941.879698,-0.62646484375,-0.033203125,0.76416015625,-1.15966796875,-0.244140625,-0.18310546875,-2.384033203125,39.2431640625,-75.487060546875
1760966941.887319,-0.59423828125,-0.029296875,0.83984375,-0.8544921875,-0.6103515625,-0.30517578125,-2.39501953125,39.2376708984375,-75.4925537109375
1760966941.8949018,-0.59423828125,-0.029296875,0.83984375,-0.8544921875,-0.6103515625,-0.30517578125,-2.406005859375,39.2266845703125,-75.4925537109375
1760966941.9036365,-0.59423828125,-0.029296875,0.83984375,-2.5634765625,-0.3662109375,-0.1220703125,-2.427978515625,39.2156982421875,-75.4925537109375
1760966941.9138212,-0.60546875,-0.0263671875,0.80908203125,-2.5634765625,-0.3662109375,-0.1220703125,-2.4554443359375,39.210205078125,-75.4925537109375
1760966941.9300632,-0.6259765625,-0.0361328125,0.76611328125,-3.2958984375,-0.732421875,0.06103515625,-2.48291015625,39.1937255859375,-75.4925537109375
1760966941.937625,-0.6259765625,-0.0361328125,0.76611328125,-3.2958984375,-0.732421875,0.06103515625,-2.515869140625,39.1827392578125,-75.487060546875
1760966941.945232,-0.6279296875,-0.041015625,0.79296875,-2.8076171875,-0.79345703125,0.0,-2.5433349609375,39.166259765625,-75.487060546875
1760966941.9530833,-0.6279296875,-0.041015625,0.79296875,-2.8076171875,-0.79345703125,0.0,-2.5653076171875,39.1552734375,-75.4815673828125
1760966941.9634395,-0.63720703125,-0.03466796875,0.77734375,-2.74658203125,-0.67138671875,0.06103515625,-2.5927734375,39.144287109375,-75.4815673828125
1760966941.980474,-0.63720703125,-0.03466796875,0.77734375,-2.74658203125,-0.67138671875,0.06103515625,-2.6202392578125,39.13330078125,-75.4815673828125
1760966941.9873278,-0.64697265625,-0.0263671875,0.7578125,-2.9296875,-0.6103515625,0.0,-2.647705078125,39.1278076171875,-75.47607421875
1760966941.994687,-0.64697265625,-0.0263671875,0.7578125,-2.9296875,-0.6103515625,0.0,-2.6751708984375,39.1168212890625,-75.47607421875
1760966942.0031345,-0.65185546875,-0.04248046875,0.76611328125,-2.685546875,-0.42724609375,0.0,-2.6971435546875,39.111328125,-75.47607421875
1760966942.0131047,-0.65185546875,-0.04248046875,0.76611328125,-2.685546875,-0.42724609375,0.0,-2.724609375,39.1058349609375,-75.47607421875
1760966942.0292625,-0.64794921875,-0.05126953125,0.76611328125,-2.197265625,-0.3662109375,0.0,-2.74658203125,39.1058349609375,-75.4705810546875
1760966942.0365682,-0.64794921875,-0.05126953125,0.76611328125,-2.197265625,-0.3662109375,0.0,-2.7685546875,39.100341796875,-75.47607421875
1760966942.0469384,-0.6357421875,-0.0302734375,0.78271484375,-1.953125,-0.18310546875,-0.06103515625,-2.7850341796875,39.100341796875,-75.47607421875
1760966942.0556638,-0.6357421875,-0.0302734375,0.78271484375,-1.953125,-0.18310546875,-0.06103515625,-2.8070068359375,39.100341796875,-75.47607421875
1760966942.0630147,-0.642578125,-0.02734375,0.77783203125,-3.662109375,0.0,-0.1220703125,-2.8399658203125,39.100341796875,-75.47607421875
1760966942.080831,-0.642578125,-0.02734375,0.77783203125,-3.662109375,0.0,-0.1220703125,-2.87841796875,39.1058349609375,-75.47607421875
1760966942.0888443,-0.64990234375,-0.048828125,0.7578125,-3.90625,0.06103515625,-0.18310546875,-2.9168701171875,39.1058349609375,-75.4815673828125
1760966942.0962126,-0.64990234375,-0.048828125,0.7578125,-3.90625,0.06103515625,-0.18310546875,-2.955322265625,39.111328125,-75.4815673828125
1760966942.10342,-0.64599609375,-0.05126953125,0.76171875,-1.40380859375,0.06103515625,0.0,-2.96630859375,39.111328125,-75.487060546875
1760966942.1131146,-0.64599609375,-0.05126953125,0.76171875,-1.40380859375,0.06103515625,0.0,-2.9827880859375,39.1168212890625,-75.487060546875
1760966942.1270027,-0.63232421875,-0.048828125,0.77294921875,-0.79345703125,0.0,-0.1220703125,-2.98828125,39.122314453125,-75.4925537109375
1760966942.1348999,-0.63232421875,-0.048828125,0.77294921875,-0.79345703125,0.0,-0.1220703125,-2.999267578125,39.122314453125,-75.4925537109375
1760966942.1443903,-0.62060546875,-0.04345703125,0.7998046875,-1.0986328125,-0.06103515625,0.06103515625,-3.01025390625,39.122314453125,-75.498046875
1760966942.154552,-0.62060546875,-0.04345703125,0.7998046875,-1.0986328125,-0.06103515625,0.06103515625,-3.021240234375,39.122314453125,-75.498046875
1760966942.1630905,-0.6083984375,-0.0341796875,0.79736328125,-2.01416015625,-0.06103515625,0.0,-3.043212890625,39.122314453125,-75.498046875
1760966942.1814647,-0.6083984375,-0.0341796875,0.79736328125,-2.01416015625,-0.06103515625,0.0,-3.0596923828125,39.122314453125,-75.498046875
1760966942.1886353,-0.6123046875,-0.0390625,0.78857421875,-2.74658203125,-0.1220703125,-0.06103515625,-3.087158203125,39.1168212890625,-75.498046875
1760966942.196601,-0.6123046875,-0.0390625,0.78857421875,-2.74658203125,-0.1220703125,-0.06103515625,-3.1146240234375,39.1168212890625,-75.498046875
1760966942.2040026,-0.6201171875,-0.04638671875,0.78857421875,-1.89208984375,-0.18310546875,-0.1220703125,-3.131103515625,39.111328125,-75.498046875
1760966942.2130911,-0.6201171875,-0.04638671875,0.78857421875,-1.89208984375,-0.18310546875,-0.1220703125,-3.153076171875,39.1058349609375,-75.498046875
1760966942.2274485,-0.61962890625,-0.05078125,0.78759765625,-1.0986328125,-0.3662109375,-0.244140625,-3.1640625,39.100341796875,-75.5035400390625
1760966942.2343707,-0.61962890625,-0.05078125,0.78759765625,-1.0986328125,-0.3662109375,-0.244140625,-3.175048828125,39.08935546875,-75.5035400390625
1760966942.2433913,-0.615234375,-0.04345703125,0.796875,-0.06103515625,-0.6103515625,-0.1220703125,-3.1805419921875,39.0838623046875,-75.5035400390625
1760966942.2540524,-0.615234375,-0.04345703125,0.796875,-0.06103515625,-0.6103515625,-0.1220703125,-3.1805419921875,39.0728759765625,-75.5035400390625
1760966942.2713256,-0.60595703125,-0.04736328125,0.7978515625,0.1220703125,-0.732421875,-0.30517578125,-3.1805419921875,39.056396484375,-75.509033203125
1760966942.285545,-0.60595703125,-0.04736328125,0.7978515625,0.1220703125,-0.732421875,-0.30517578125,-3.1805419921875,39.04541015625,-75.509033203125
1760966942.2931125,-0.599609375,-0.0400390625,0.80126953125,-0.6103515625,-0.8544921875,-0.244140625,-3.18603515625,39.0289306640625,-75.509033203125
1760966942.3012617,-0.599609375,-0.0400390625,0.80126953125,-0.6103515625,-0.8544921875,-0.244140625,-3.197021484375,39.0179443359375,-75.5145263671875
1760966942.3163493,-0.59423828125,-0.04296875,0.79248046875,-0.1220703125,-1.0986328125,-0.18310546875,-3.197021484375,38.9959716796875,-75.509033203125
1760966942.325443,-0.59423828125,-0.04296875,0.79248046875,-0.1220703125,-1.0986328125,-0.18310546875,-3.197021484375,38.9794921875,-75.509033203125
1760966942.333115,-0.60498046875,-0.05859375,0.80859375,-1.0986328125,-1.3427734375,0.0,-3.2080078125,38.95751953125,-75.509033203125
1760966942.340494,-0.60498046875,-0.05859375,0.80859375,-1.0986328125,-1.3427734375,0.0,-3.218994140625,38.935546875,-75.5035400390625
1760966942.3549886,-0.603515625,-0.04736328125,0.8046875,-0.18310546875,-1.46484375,-0.06103515625,-3.2244873046875,38.91357421875,-75.5035400390625
1760966942.3644621,-0.603515625,-0.04736328125,0.8046875,-0.18310546875,-1.46484375,-0.06103515625,-3.2244873046875,38.8861083984375,-75.5035400390625
1760966942.3726275,-0.6123046875,-0.0302734375,0.79150390625,0.30517578125,-1.5869140625,-0.42724609375,-3.2244873046875,38.8641357421875,-75.5035400390625
1760966942.3807592,-0.6123046875,-0.0302734375,0.79150390625,0.30517578125,-1.5869140625,-0.42724609375,-3.2244873046875,38.836669921875,-75.509033203125
1760966942.387566,-0.61962890625,-0.0341796875,0.783203125,0.48828125,-1.77001953125,-0.54931640625,-3.218994140625,38.814697265625,-75.509033203125
1760966942.4049504,-0.61962890625,-0.0341796875,0.783203125,0.48828125,-1.77001953125,-0.54931640625,-3.218994140625,38.7872314453125,-75.5145263671875
1760966942.4127965,-0.626953125,-0.0517578125,0.78955078125,-0.54931640625,-1.89208984375,-0.48828125,-3.2244873046875,38.759765625,-75.52001953125
1760966942.4191847,-0.634765625,-0.04443359375,0.77587890625,-0.3662109375,-1.5869140625,-0.3662109375,-3.22998046875,38.73779296875,-75.52001953125
1760966942.4329863,-0.634765625,-0.04443359375,0.77587890625,-0.3662109375,-1.5869140625,-0.3662109375,-3.2354736328125,38.7158203125,-75.52001953125
1760966942.441307,-0.62890625,-0.04296875,0.77783203125,0.732421875,-1.3427734375,-0.67138671875,-3.240966796875,38.6993408203125,-75.5255126953125
1760966942.449219,-0.62890625,-0.04296875,0.77783203125,0.732421875,-1.3427734375,-0.67138671875,-3.2354736328125,38.682861328125,-75.5364990234375
1760966942.4572594,-0.640625,-0.0537109375,0.77978515625,1.15966796875,-1.0986328125,-0.67138671875,-3.22998046875,38.6663818359375,-75.5419921875
1760966942.464529,-0.640625,-0.0537109375,0.77978515625,1.15966796875,-1.0986328125,-0.67138671875,-3.2244873046875,38.64990234375,-75.5474853515625
1760966942.480557,-0.64013671875,-0.0517578125,0.767578125,0.91552734375,-0.91552734375,-0.54931640625,-3.218994140625,38.638916015625,-75.5584716796875
1760966942.4888148,-0.64013671875,-0.0517578125,0.767578125,0.91552734375,-0.91552734375,-0.54931640625,-3.2135009765625,38.6279296875,-75.5694580078125
1760966942.4984512,-0.646484375,-0.03173828125,0.78076171875,1.0986328125,-0.732421875,-0.732421875,-3.2080078125,38.6224365234375,-75.574951171875
1760966942.5065217,-0.646484375,-0.03173828125,0.78076171875,1.0986328125,-0.732421875,-0.732421875,-3.2025146484375,38.616943359375,-75.5859375
1760966942.5160193,-0.64404296875,-0.041015625,0.74609375,0.48828125,-0.79345703125,-0.67138671875,-3.2025146484375,38.60595703125,-75.596923828125
1760966942.5234022,-0.64404296875,-0.041015625,0.74609375,0.48828125,-0.79345703125,-0.67138671875,-3.2025146484375,38.6004638671875,-75.60791015625
1760966942.5373204,-0.6416015625,-0.05615234375,0.7841796875,0.6103515625,-0.79345703125,-0.6103515625,-3.2025146484375,38.6004638671875,-75.618896484375
1760966942.5572083,-0.6416015625,-0.05615234375,0.7841796875,0.6103515625,-0.79345703125,-0.6103515625,-3.2025146484375,38.594970703125,-75.6243896484375
1760966942.5787163,-0.634765625,-0.060546875,0.7724609375,2.38037109375,-0.732421875,-0.42724609375,-3.1915283203125,38.5894775390625,-75.6353759765625
1760966942.5934937,-0.634765625,-0.060546875,0.7724609375,2.38037109375,-0.732421875,-0.42724609375,-3.1695556640625,38.583984375,-75.6463623046875
1760966942.6071548,-0.6298828125,-0.05078125,0.791015625,3.47900390625,-0.6103515625,-0.30517578125,-3.1475830078125,38.583984375,-75.65185546875
1760966942.6207962,-0.6298828125,-0.05078125,0.791015625,3.47900390625,-0.6103515625,-0.30517578125,-3.1146240234375,38.5784912109375,-75.662841796875
1760966942.6275272,-0.62890625,-0.02490234375,0.78466796875,2.74658203125,-0.48828125,-0.30517578125,-3.0926513671875,38.5784912109375,-75.6683349609375
1760966942.6353512,-0.62890625,-0.02490234375,0.78466796875,2.74658203125,-0.48828125,-0.30517578125,-3.065185546875,38.572998046875,-75.673828125
1760966942.6552548,-0.63427734375,-0.02978515625,0.7666015625,1.40380859375,-0.54931640625,-0.42724609375,-3.0487060546875,38.572998046875,-75.6793212890625
1760966942.6791992,-0.63427734375,-0.02978515625,0.7666015625,1.40380859375,-0.54931640625,-0.42724609375,-3.0377197265625,38.5675048828125,-75.6903076171875
1760966942.6886387,-0.6376953125,-0.05029296875,0.77783203125,0.54931640625,-0.54931640625,-0.67138671875,-3.0322265625,38.5675048828125,-75.69580078125
1760966942.6957433,-0.6376953125,-0.05029296875,0.77783203125,0.54931640625,-0.54931640625,-0.67138671875,-3.0322265625,38.56201171875,-75.706787109375
1760966942.7203472,-0.630859375,-0.0595703125,0.7841796875,1.46484375,-0.42724609375,-0.67138671875,-3.0322265625,38.56201171875,-75.7177734375
1760966942.729047,-0.630859375,-0.0595703125,0.7841796875,1.46484375,-0.42724609375,-0.67138671875,-3.021240234375,38.56201171875,-75.728759765625
1760966942.7373397,-0.625,-0.04052734375,0.7861328125,3.11279296875,-0.30517578125,-0.732421875,-3.01025390625,38.56201171875,-75.73974609375
1760966942.7443426,-0.625,-0.04052734375,0.7861328125,3.11279296875,-0.30517578125,-0.732421875,-2.9827880859375,38.5565185546875,-75.7562255859375
1760966942.7514923,-0.6201171875,-0.0263671875,0.783203125,2.8076171875,-0.30517578125,-0.9765625,-2.96630859375,38.5565185546875,-75.7672119140625
1760966942.7706642,-0.6201171875,-0.0263671875,0.783203125,2.8076171875,-0.30517578125,-0.9765625,-2.9443359375,38.5565185546875,-75.78369140625
1760966942.77758,-0.6142578125,-0.0400390625,0.80126953125,1.52587890625,-0.30517578125,-0.9765625,-2.933349609375,38.551025390625,-75.794677734375
1760966942.785446,-0.6142578125,-0.0400390625,0.80126953125,1.52587890625,-0.30517578125,-0.9765625,-2.92236328125,38.551025390625,-75.8111572265625
1760966942.8029704,-0.6181640625,-0.0439453125,0.7998046875,0.8544921875,-0.1220703125,-1.15966796875,-2.92236328125,38.5455322265625,-75.82763671875
1760966942.8107853,-0.6181640625,-0.0439453125,0.7998046875,0.8544921875,-0.1220703125,-1.15966796875,-2.92236328125,38.5455322265625,-75.8441162109375
1760966942.8187382,-0.62255859375,-0.03076171875,0.77734375,1.0986328125,-0.1220703125,-1.3427734375,-2.92236328125,38.5455322265625,-75.860595703125
1760966942.8258002,-0.62255859375,-0.03076171875,0.77734375,1.0986328125,-0.1220703125,-1.3427734375,-2.92236328125,38.5400390625,-75.8770751953125
1760966942.842789,-0.62646484375,-0.04736328125,0.78857421875,1.77001953125,-0.1220703125,-1.5869140625,-2.92236328125,38.5400390625,-75.8935546875
1760966942.8519292,-0.62646484375,-0.04736328125,0.78857421875,1.77001953125,-0.1220703125,-1.5869140625,-2.9168701171875,38.5345458984375,-75.91552734375
1760966942.8593347,-0.623046875,-0.0439453125,0.79052734375,3.90625,-0.1220703125,-1.77001953125,-2.900390625,38.5345458984375,-75.9375
1760966942.8760085,-0.623046875,-0.0439453125,0.79052734375,3.90625,-0.1220703125,-1.77001953125,-2.87841796875,38.529052734375,-75.9649658203125
1760966942.8838005,-0.623046875,-0.03466796875,0.7919921875,2.13623046875,0.0,-1.8310546875,-2.8619384765625,38.529052734375,-75.9869384765625
1760966942.8926566,-0.623046875,-0.03466796875,0.7919921875,2.13623046875,0.0,-1.8310546875,-2.8564453125,38.5235595703125,-76.014404296875
1760966942.9002583,-0.61474609375,-0.0322265625,0.78369140625,0.244140625,0.0,-1.89208984375,-2.8564453125,38.5235595703125,-76.036376953125
1760966942.908141,-0.61474609375,-0.0322265625,0.78369140625,0.244140625,0.0,-1.89208984375,-2.8729248046875,38.5235595703125,-76.058349609375
1760966942.922823,-0.6103515625,-0.03662109375,0.79296875,0.6103515625,-0.1220703125,-1.953125,-2.8839111328125,38.51806640625,-76.0858154296875
1760966942.929441,-0.6103515625,-0.03662109375,0.79296875,0.6103515625,-0.1220703125,-1.953125,-2.889404296875,38.5125732421875,-76.1077880859375
1760966942.9380782,-0.6103515625,-0.04736328125,0.8017578125,1.40380859375,-0.244140625,-1.89208984375,-2.8948974609375,38.5125732421875,-76.13525390625
1760966942.9445822,-0.6103515625,-0.04736328125,0.8017578125,1.40380859375,-0.244140625,-1.89208984375,-2.8948974609375,38.5015869140625,-76.1572265625
1760966942.9542797,-0.6103515625,-0.04296875,0.8076171875,1.28173828125,-0.30517578125,-2.0751953125,-2.900390625,38.49609375,-76.1846923828125
1760966942.9612253,-0.6103515625,-0.04296875,0.8076171875,1.28173828125,-0.30517578125,-2.0751953125,-2.900390625,38.4906005859375,-76.2066650390625
1760966942.9682667,-0.6103515625,-0.0302734375,0.796875,-0.244140625,-0.1220703125,-2.25830078125,-2.9168701171875,38.4796142578125,-76.234130859375
1760966942.9756198,-0.6103515625,-0.0302734375,0.796875,-0.244140625,-0.1220703125,-2.25830078125,-2.933349609375,38.47412109375,-76.2615966796875
1760966942.9833343,-0.609375,-0.0361328125,0.7919921875,0.6103515625,-0.1220703125,-2.62451171875,-2.9498291015625,38.4686279296875,-76.2945556640625
1760966942.993651,-0.609375,-0.0361328125,0.7919921875,0.6103515625,-0.1220703125,-2.62451171875,-2.96630859375,38.463134765625,-76.322021484375
1760966943.001185,-0.611328125,-0.05810546875,0.791015625,2.0751953125,-0.06103515625,-2.685546875,-2.9718017578125,38.4521484375,-76.35498046875
1760966943.0086455,-0.611328125,-0.05810546875,0.791015625,2.0751953125,-0.06103515625,-2.685546875,-2.9718017578125,38.4466552734375,-76.387939453125
1760966943.0175946,-0.6201171875,-0.0517578125,0.8046875,4.39453125,0.1220703125,-2.86865234375,-2.9608154296875,38.441162109375,-76.4263916015625
1760966943.0254402,-0.6201171875,-0.0517578125,0.8046875,4.39453125,0.1220703125,-2.86865234375,-2.9388427734375,38.4356689453125,-76.4593505859375
1760966943.032571,-0.62548828125,-0.02978515625,0.7548828125,4.39453125,0.67138671875,-2.99072265625,-2.92236328125,38.4356689453125,-76.497802734375
1760966943.0415943,-0.62548828125,-0.02978515625,0.7548828125,4.39453125,0.67138671875,-2.99072265625,-2.900390625,38.4356689453125,-76.5362548828125
1760966943.0486336,-0.62548828125,-0.03076171875,0.79833984375,2.9296875,0.67138671875,-2.9296875,-2.889404296875,38.441162109375,-76.57470703125
1760966943.0576873,-0.62548828125,-0.03076171875,0.79833984375,2.9296875,0.67138671875,-2.9296875,-2.8839111328125,38.441162109375,-76.6131591796875
1760966943.0651853,-0.6259765625,-0.052734375,0.80029296875,2.44140625,0.732421875,-2.5634765625,-2.87841796875,38.4466552734375,-76.6461181640625
1760966943.0719798,-0.6259765625,-0.052734375,0.80029296875,2.44140625,0.732421875,-2.5634765625,-2.87841796875,38.4521484375,-76.6790771484375
1760966943.0807295,-0.64599609375,-0.05126953125,0.767578125,3.41796875,0.67138671875,-2.5634765625,-2.867431640625,38.4521484375,-76.7120361328125
1760966943.0885813,-0.64599609375,-0.05126953125,0.767578125,3.41796875,0.67138671875,-2.5634765625,-2.8564453125,38.4576416015625,-76.7449951171875
1760966943.096943,-0.67041015625,-0.03564453125,0.69384765625,2.50244140625,1.220703125,-2.25830078125,-2.845458984375,38.4686279296875,-76.7779541015625
1760966943.105268,-0.67041015625,-0.03564453125,0.69384765625,2.50244140625,1.220703125,-2.25830078125,-2.845458984375,38.4796142578125,-76.8109130859375
1760966943.1133127,-0.6328125,-0.01708984375,0.82470703125,3.0517578125,0.3662109375,-2.74658203125,-2.83447265625,38.4906005859375,-76.849365234375
1760966943.1214485,-0.6328125,-0.01708984375,0.82470703125,3.0517578125,0.3662109375,-2.74658203125,-2.8289794921875,38.49609375,-76.88232421875
1760966943.1286612,-0.626953125,-0.04736328125,0.767578125,1.77001953125,0.67138671875,-2.62451171875,-2.823486328125,38.507080078125,-76.915283203125
1760966943.1375997,-0.626953125,-0.04736328125,0.767578125,1.77001953125,0.67138671875,-2.62451171875,-2.8289794921875,38.5125732421875,-76.9537353515625
1760966943.1520026,-0.63916015625,-0.044921875,0.74951171875,1.3427734375,0.18310546875,-2.44140625,-2.83447265625,38.51806640625,-76.9866943359375
1760966943.1602569,-0.63916015625,-0.044921875,0.74951171875,1.3427734375,0.18310546875,-2.44140625,-2.8399658203125,38.5235595703125,-77.0196533203125
1760966943.167739,-0.6455078125,-0.029296875,0.79345703125,0.8544921875,0.06103515625,-2.3193359375,-2.8509521484375,38.529052734375,-77.0526123046875
1760966943.1757958,-0.6455078125,-0.029296875,0.79345703125,0.8544921875,0.06103515625,-2.3193359375,-2.8619384765625,38.5345458984375,-77.080078125
1760966943.1834824,-0.65087890625,-0.02197265625,0.7626953125,-1.8310546875,0.06103515625,-2.01416015625,-2.87841796875,38.5400390625,-77.1075439453125
1760966943.1912882,-0.65087890625,-0.02197265625,0.7626953125,-1.8310546875,0.06103515625,-2.01416015625,-2.9168701171875,38.5455322265625,-77.135009765625
1760966943.1993237,-0.65087890625,-0.02197265625,0.7626953125,-0.244140625,0.1220703125,-2.0751953125,-2.9388427734375,38.551025390625,-77.1624755859375
1760966943.2057683,-0.646484375,-0.06787109375,0.7568359375,-0.244140625,0.1220703125,-2.0751953125,-2.955322265625,38.5565185546875,-77.18994140625
1760966943.2144141,-0.63720703125,-0.06884765625,0.7890625,0.30517578125,0.18310546875,-1.5869140625,-2.9718017578125,38.56201171875,-77.2119140625
1760966943.225719,-0.63720703125,-0.06884765625,0.7890625,0.30517578125,0.18310546875,-1.5869140625,-2.9827880859375,38.5675048828125,-77.2393798828125
1760966943.2343948,-0.62451171875,-0.0517578125,0.79052734375,0.91552734375,0.42724609375,-1.0986328125,-2.9937744140625,38.5784912109375,-77.255859375
1760966943.2452617,-0.62451171875,-0.0517578125,0.79052734375,0.91552734375,0.42724609375,-1.0986328125,-2.9937744140625,38.583984375,-77.27783203125
1760966943.2544758,-0.62158203125,-0.00732421875,0.79296875,0.42724609375,0.67138671875,-0.79345703125,-2.999267578125,38.594970703125,-77.2943115234375
1760966943.2646399,-0.62158203125,-0.00732421875,0.79296875,0.42724609375,0.67138671875,-0.79345703125,-2.999267578125,38.60595703125,-77.3052978515625
1760966943.2752514,-0.61865234375,-0.037109375,0.78466796875,-1.03759765625,0.6103515625,-0.732421875,-3.01025390625,38.6114501953125,-77.310791015625
1760966943.2842753,-0.61865234375,-0.037109375,0.78466796875,-1.03759765625,0.6103515625,-0.732421875,-3.0267333984375,38.6224365234375,-77.32177734375
1760966943.2955012,-0.61962890625,-0.0751953125,0.78955078125,-0.54931640625,0.42724609375,-0.6103515625,-3.0377197265625,38.6279296875,-77.3272705078125
1760966943.304968,-0.61962890625,-0.0751953125,0.78955078125,-0.54931640625,0.42724609375,-0.6103515625,-3.0487060546875,38.6334228515625,-77.3382568359375
1760966943.3144982,-0.62451171875,-0.04833984375,0.7841796875,1.28173828125,0.3662109375,-0.67138671875,-3.05419921875,38.6334228515625,-77.3492431640625
1760966943.324756,-0.62451171875,-0.04833984375,0.7841796875,1.28173828125,0.3662109375,-0.67138671875,-3.0487060546875,38.638916015625,-77.3602294921875
1760966943.334461,-0.62548828125,-0.029296875,0.78466796875,1.52587890625,0.30517578125,-0.732421875,-3.043212890625,38.6444091796875,-77.3712158203125
1760966943.3471642,-0.62548828125,-0.029296875,0.78466796875,1.52587890625,0.30517578125,-0.732421875,-3.0322265625,38.6444091796875,-77.3822021484375
1760966943.3558118,-0.62890625,-0.0439453125,0.7861328125,0.48828125,0.30517578125,-0.6103515625,-3.0322265625,38.64990234375,-77.3931884765625
1760966943.3650982,-0.62890625,-0.0439453125,0.7861328125,0.48828125,0.30517578125,-0.6103515625,-3.0322265625,38.64990234375,-77.398681640625
1760966943.3757174,-0.63037109375,-0.05078125,0.77783203125,0.06103515625,0.30517578125,-0.42724609375,-3.0322265625,38.6553955078125,-77.40966796875
1760966943.3867114,-0.63037109375,-0.05078125,0.77783203125,0.06103515625,0.30517578125,-0.42724609375,-3.0377197265625,38.6553955078125,-77.4151611328125
1760966943.396714,-0.63134765625,-0.03564453125,0.783203125,0.54931640625,0.30517578125,-0.48828125,-3.0377197265625,38.660888671875,-77.420654296875
1760966943.40716,-0.63134765625,-0.03564453125,0.783203125,0.54931640625,0.30517578125,-0.48828125,-3.0377197265625,38.660888671875,-77.4261474609375
1760966943.4161682,-0.63525390625,-0.03662109375,0.76806640625,-0.6103515625,0.244140625,-0.42724609375,-3.0487060546875,38.6663818359375,-77.431640625
1760966943.424688,-0.63525390625,-0.03662109375,0.76806640625,-0.6103515625,0.244140625,-0.42724609375,-3.0596923828125,38.671875,-77.4371337890625
1760966943.4346604,-0.63330078125,-0.05322265625,0.7861328125,-0.06103515625,0.1220703125,-0.30517578125,-3.065185546875,38.671875,-77.442626953125
1760966943.449663,-0.63330078125,-0.05322265625,0.7861328125,-0.06103515625,0.1220703125,-0.30517578125,-3.065185546875,38.671875,-77.4481201171875
1760966943.4587169,-0.62939453125,-0.05078125,0.775390625,0.48828125,0.18310546875,-0.18310546875,-3.065185546875,38.6773681640625,-77.45361328125
1760966943.4655147,-0.62939453125,-0.05078125,0.775390625,0.48828125,0.18310546875,-0.18310546875,-3.065185546875,38.6773681640625,-77.4591064453125
1760966943.4767215,-0.6357421875,-0.03369140625,0.77294921875,0.6103515625,0.244140625,-0.1220703125,-3.0596923828125,38.682861328125,-77.4591064453125
1760966943.4852178,-0.6357421875,-0.03369140625,0.77294921875,0.6103515625,0.244140625,-0.1220703125,-3.05419921875,38.6883544921875,-77.464599609375
1760966943.495869,-0.6376953125,-0.03662109375,0.78271484375,-0.30517578125,0.3662109375,-0.1220703125,-3.0596923828125,38.69384765625,-77.464599609375
1760966943.5046065,-0.6376953125,-0.03662109375,0.78271484375,-0.30517578125,0.3662109375,-0.1220703125,-3.065185546875,38.6993408203125,-77.4700927734375
1760966943.5143704,-0.63525390625,-0.0478515625,0.77587890625,-0.30517578125,0.48828125,-0.06103515625,-3.0706787109375,38.704833984375,-77.4700927734375
1760966943.524621,-0.63525390625,-0.0478515625,0.77587890625,-0.30517578125,0.48828125,-0.06103515625,-3.0706787109375,38.7103271484375,-77.4700927734375
1760966943.5344393,-0.63037109375,-0.05322265625,0.77734375,0.3662109375,0.42724609375,0.0,-3.0706787109375,38.7213134765625,-77.4755859375
1760966943.544408,-0.63037109375,-0.05322265625,0.77734375,0.3662109375,0.42724609375,0.0,-3.0706787109375,38.726806640625,-77.4755859375
1760966943.5546753,-0.62548828125,-0.03662109375,0.78369140625,1.220703125,0.3662109375,0.0,-3.0596923828125,38.7322998046875,-77.4755859375
1760966943.5644593,-0.62548828125,-0.03662109375,0.78369140625,1.220703125,0.3662109375,0.0,-3.0487060546875,38.73779296875,-77.4810791015625
1760966943.5747101,-0.6220703125,-0.0302734375,0.7744140625,0.67138671875,0.1220703125,-0.1220703125,-3.043212890625,38.73779296875,-77.4810791015625
1760966943.585336,-0.6220703125,-0.0302734375,0.7744140625,0.67138671875,0.1220703125,-0.1220703125,-3.0377197265625,38.73779296875,-77.486572265625
1760966943.5948675,-0.619140625,-0.04443359375,0.80224609375,0.06103515625,0.06103515625,-0.18310546875,-3.0377197265625,38.7432861328125,-77.486572265625
1760966943.6054745,-0.619140625,-0.04443359375,0.80224609375,0.06103515625,0.06103515625,-0.18310546875,-3.0377197265625,38.7432861328125,-77.4920654296875
1760966943.615216,-0.6162109375,-0.05224609375,0.791015625,0.06103515625,0.18310546875,-0.18310546875,-3.0377197265625,38.7432861328125,-77.4920654296875
1760966943.624565,-0.6162109375,-0.05224609375,0.791015625,0.06103515625,0.18310546875,-0.18310546875,-3.0377197265625,38.7432861328125,-77.49755859375
1760966943.6352687,-0.62060546875,-0.033203125,0.787109375,0.6103515625,0.1220703125,-0.42724609375,-3.0377197265625,38.7432861328125,-77.5030517578125
1760966943.6444657,-0.62060546875,-0.033203125,0.787109375,0.6103515625,0.1220703125,-0.42724609375,-3.0377197265625,38.7432861328125,-77.508544921875
1760966943.6553342,-0.6220703125,-0.0322265625,0.791015625,0.54931640625,0.1220703125,-0.42724609375,-3.0322265625,38.7432861328125,-77.5140380859375
1760966943.6656017,-0.6220703125,-0.0322265625,0.791015625,0.54931640625,0.1220703125,-0.42724609375,-3.0322265625,38.73779296875,-77.5140380859375
1760966943.6753416,-0.60986328125,-0.04833984375,0.80224609375,0.30517578125,0.0,-0.48828125,-3.0322265625,38.73779296875,-77.51953125
1760966943.6856446,-0.60986328125,-0.04833984375,0.80224609375,0.30517578125,0.0,-0.48828125,-3.0322265625,38.7322998046875,-77.5250244140625
1760966943.69532,-0.60986328125,-0.046875,0.80419921875,0.42724609375,0.0,-0.48828125,-3.0322265625,38.7322998046875,-77.530517578125
1760966943.7045033,-0.60986328125,-0.046875,0.80419921875,0.42724609375,0.0,-0.48828125,-3.0322265625,38.726806640625,-77.5360107421875
1760966943.7150044,-0.62451171875,-0.0302734375,0.77197265625,-0.06103515625,-0.06103515625,-0.54931640625,-3.0377197265625,38.7213134765625,-77.54150390625
1760966943.7250247,-0.62451171875,-0.0302734375,0.77197265625,-0.06103515625,-0.06103515625,-0.54931640625,-3.0377197265625,38.7158203125,-77.5469970703125
1760966943.7351646,-0.63232421875,-0.04296875,0.77392578125,0.1220703125,-0.30517578125,-0.42724609375,-3.043212890625,38.7103271484375,-77.5469970703125
1760966943.7446241,-0.63232421875,-0.04296875,0.77392578125,0.1220703125,-0.30517578125,-0.42724609375,-3.043212890625,38.704833984375,-77.552490234375
1760966943.7571568,-0.62548828125,-0.06494140625,0.798828125,1.64794921875,-0.244140625,-0.244140625,-3.0267333984375,38.6993408203125,-77.552490234375
1760966943.7709196,-0.62548828125,-0.06494140625,0.798828125,1.64794921875,-0.244140625,-0.244140625,-3.0157470703125,38.69384765625,-77.5579833984375
1760966943.7784202,-0.6259765625,-0.04052734375,0.7841796875,2.01416015625,-0.244140625,-0.06103515625,-2.999267578125,38.6883544921875,-77.5579833984375
1760966943.786904,-0.6259765625,-0.04052734375,0.7841796875,2.01416015625,-0.244140625,-0.06103515625,-2.977294921875,38.682861328125,-77.5579833984375
1760966943.7989361,-0.6171875,-0.03564453125,0.78076171875,1.3427734375,-0.30517578125,-0.1220703125,-2.96630859375,38.6773681640625,-77.5634765625
1760966943.81471,-0.6171875,-0.03564453125,0.78076171875,1.3427734375,-0.30517578125,-0.1220703125,-2.955322265625,38.671875,-77.5634765625
1760966943.8286152,-0.62451171875,-0.02783203125,0.78759765625,0.48828125,-0.18310546875,-0.30517578125,-2.955322265625,38.671875,-77.5689697265625
1760966943.8510437,-0.62451171875,-0.02783203125,0.78759765625,0.48828125,-0.18310546875,-0.30517578125,-2.9498291015625,38.6663818359375,-77.5689697265625
1760966943.8578742,-0.61962890625,-0.0478515625,0.79638671875,0.3662109375,-0.18310546875,-0.30517578125,-2.9498291015625,38.660888671875,-77.574462890625
1760966943.8647752,-0.61962890625,-0.0478515625,0.79638671875,0.3662109375,-0.18310546875,-0.30517578125,-2.9498291015625,38.6553955078125,-77.5799560546875
1760966943.8721175,-0.61474609375,-0.048828125,0.796875,1.03759765625,-0.1220703125,-0.244140625,-2.9388427734375,38.6553955078125,-77.5799560546875
1760966943.87861,-0.61474609375,-0.048828125,0.796875,1.03759765625,-0.1220703125,-0.244140625,-2.933349609375,38.64990234375,-77.58544921875
1760966943.8855398,-0.611328125,-0.0380859375,0.7861328125,1.5869140625,-0.06103515625,-0.244140625,-2.92236328125,38.6444091796875,-77.5909423828125
1760966943.8949955,-0.611328125,-0.0380859375,0.7861328125,1.5869140625,-0.06103515625,-0.244140625,-2.9058837890625,38.638916015625,-77.5909423828125
1760966943.9028916,-0.615234375,-0.0322265625,0.80712890625,0.3662109375,0.0,-0.30517578125,-2.9058837890625,38.638916015625,-77.596435546875
1760966943.91012,-0.615234375,-0.0322265625,0.80712890625,0.3662109375,0.0,-0.30517578125,-2.9058837890625,38.6334228515625,-77.6019287109375
1760966943.9174407,-0.61083984375,-0.02978515625,0.7900390625,-1.64794921875,0.0,-0.3662109375,-2.92236328125,38.6279296875,-77.6019287109375
1760966943.9251668,-0.61083984375,-0.02978515625,0.7900390625,-1.64794921875,0.0,-0.3662109375,-2.9443359375,38.6224365234375,-77.607421875
1760966943.9444642,-0.6025390625,-0.0361328125,0.8115234375,-1.64794921875,0.0,-0.3662109375,-2.9608154296875,38.616943359375,-77.6129150390625
1760966943.9597,-0.6025390625,-0.0361328125,0.8115234375,-1.64794921875,0.0,-0.3662109375,-2.977294921875,38.6114501953125,-77.6129150390625
1760966943.9702265,-0.5966796875,-0.0400390625,0.80419921875,-1.220703125,0.0,-0.244140625,-2.9937744140625,38.60595703125,-77.6129150390625
1760966943.9789538,-0.5966796875,-0.0400390625,0.80419921875,-1.220703125,0.0,-0.244140625,-3.0047607421875,38.6004638671875,-77.6129150390625
1760966943.9887297,-0.5986328125,-0.052734375,0.80224609375,0.30517578125,-0.18310546875,-0.30517578125,-2.999267578125,38.5894775390625,-77.618408203125
1760966943.9985118,-0.5986328125,-0.052734375,0.80224609375,0.30517578125,-0.18310546875,-0.30517578125,-2.999267578125,38.5784912109375,-77.618408203125
1760966944.009064,-0.591796875,-0.05517578125,0.80810546875,1.3427734375,-0.30517578125,-0.18310546875,-2.98828125,38.5675048828125,-77.618408203125
1760966944.019309,-0.591796875,-0.05517578125,0.80810546875,1.3427734375,-0.30517578125,-0.18310546875,-2.977294921875,38.5565185546875,-77.6239013671875
1760966944.0262876,-0.59130859375,-0.044921875,0.806640625,1.89208984375,-0.1220703125,0.06103515625,-2.9608154296875,38.5455322265625,-77.6239013671875
1760966944.0354314,-0.59130859375,-0.044921875,0.806640625,1.89208984375,-0.1220703125,0.06103515625,-2.9388427734375,38.5345458984375,-77.6239013671875
1760966944.047405,-0.595703125,-0.04248046875,0.791015625,2.9296875,0.0,0.30517578125,-2.911376953125,38.529052734375,-77.618408203125
1760966944.0540767,-0.595703125,-0.04248046875,0.791015625,2.9296875,0.0,0.30517578125,-2.87841796875,38.51806640625,-77.618408203125
1760966944.0615761,-0.60546875,-0.07080078125,0.82958984375,4.33349609375,-0.1220703125,0.42724609375,-2.83447265625,38.507080078125,-77.6129150390625
1760966944.0692132,-0.60546875,-0.07080078125,0.82958984375,4.33349609375,-0.1220703125,0.42724609375,-2.79052734375,38.49609375,-77.6129150390625
1760966944.0784693,-0.61865234375,-0.04296875,0.78564453125,5.7373046875,0.0,0.48828125,-2.735595703125,38.485107421875,-77.607421875
1760966944.0866172,-0.61865234375,-0.04296875,0.78564453125,5.7373046875,0.0,0.48828125,-2.6806640625,38.47412109375,-77.607421875
1760966944.095936,-0.64013671875,-0.0224609375,0.76611328125,5.92041015625,0.0,0.3662109375,-2.6202392578125,38.4686279296875,-77.6019287109375
1760966944.1058996,-0.64013671875,-0.0224609375,0.76611328125,5.92041015625,0.0,0.3662109375,-2.559814453125,38.463134765625,-77.6019287109375
1760966944.1150923,-0.65380859375,-0.01513671875,0.771484375,5.126953125,0.06103515625,0.0,-2.5103759765625,38.4576416015625,-77.607421875
1760966944.1268363,-0.65380859375,-0.01513671875,0.771484375,5.126953125,0.06103515625,0.0,-2.4609375,38.4576416015625,-77.607421875
1760966944.1430244,-0.66357421875,-0.0205078125,0.75439453125,4.33349609375,0.244140625,-0.54931640625,-2.427978515625,38.4576416015625,-77.6129150390625
1760966944.150637,-0.66357421875,-0.0205078125,0.75439453125,4.33349609375,0.244140625,-0.54931640625,-2.3895263671875,38.463134765625,-77.6239013671875
1760966944.158658,-0.66748046875,-0.0234375,0.75927734375,2.74658203125,0.54931640625,-0.732421875,-2.3675537109375,38.4686279296875,-77.6348876953125
1760966944.166188,-0.66748046875,-0.0234375,0.75927734375,2.74658203125,0.54931640625,-0.732421875,-2.3455810546875,38.4796142578125,-77.6458740234375
1760966944.1759539,-0.65576171875,-0.0302734375,0.75927734375,0.79345703125,0.732421875,-0.9765625,-2.3455810546875,38.4906005859375,-77.6568603515625
1760966944.1910293,-0.65576171875,-0.0302734375,0.75927734375,0.79345703125,0.732421875,-0.9765625,-2.3455810546875,38.5015869140625,-77.67333984375
1760966944.2046895,-0.65576171875,-0.0302734375,0.75927734375,1.3427734375,0.67138671875,-1.03759765625,-2.340087890625,38.5125732421875,-77.6898193359375
1760966944.2129815,-0.64404296875,-0.03271484375,0.77392578125,1.3427734375,0.67138671875,-1.03759765625,-2.3345947265625,38.529052734375,-77.706298828125
1760966944.2274284,-0.638671875,-0.03369140625,0.77783203125,0.9765625,0.79345703125,-1.0986328125,-2.3345947265625,38.5400390625,-77.7227783203125
1760966944.2354815,-0.638671875,-0.03369140625,0.77783203125,0.9765625,0.79345703125,-1.0986328125,-2.3345947265625,38.551025390625,-77.7392578125
1760966944.2464392,-0.640625,-0.02587890625,0.7724609375,0.1220703125,0.732421875,-1.3427734375,-2.3455810546875,38.5675048828125,-77.7557373046875
1760966944.2609074,-0.640625,-0.02587890625,0.7724609375,0.1220703125,0.732421875,-1.3427734375,-2.3565673828125,38.5784912109375,-77.7777099609375
1760966944.2683592,-0.63623046875,-0.0234375,0.763671875,0.244140625,0.67138671875,-1.52587890625,-2.362060546875,38.5894775390625,-77.7996826171875
1760966944.2798944,-0.63623046875,-0.0234375,0.763671875,0.244140625,0.67138671875,-1.52587890625,-2.373046875,38.6004638671875,-77.816162109375
1760966944.2901525,-0.61962890625,-0.04150390625,0.7939453125,2.197265625,0.54931640625,-1.5869140625,-2.362060546875,38.6114501953125,-77.838134765625
1760966944.2970028,-0.61962890625,-0.04150390625,0.7939453125,2.197265625,0.54931640625,-1.5869140625,-2.3565673828125,38.6224365234375,-77.860107421875
1760966944.3096275,-0.615234375,-0.03662109375,0.8115234375,2.74658203125,0.54931640625,-1.52587890625,-2.340087890625,38.6279296875,-77.882080078125
1760966944.3188891,-0.615234375,-0.03662109375,0.8115234375,2.74658203125,0.54931640625,-1.52587890625,-2.3236083984375,38.6334228515625,-77.904052734375
1760966944.3276727,-0.6171875,-0.03564453125,0.78564453125,2.685546875,0.6103515625,-1.40380859375,-2.30712890625,38.638916015625,-77.926025390625
1760966944.3438432,-0.6171875,-0.03564453125,0.78564453125,2.685546875,0.6103515625,-1.40380859375,-2.296142578125,38.6444091796875,-77.9425048828125
1760966944.351119,-0.630859375,-0.0283203125,0.7822265625,2.13623046875,0.48828125,-1.3427734375,-2.28515625,38.64990234375,-77.9644775390625
1760966944.3584244,-0.630859375,-0.0283203125,0.7822265625,2.13623046875,0.48828125,-1.3427734375,-2.274169921875,38.6553955078125,-77.98095703125
1760966944.3654594,-0.64697265625,-0.02783203125,0.7744140625,2.0751953125,0.67138671875,-1.15966796875,-2.26318359375,38.6663818359375,-77.9974365234375
1760966944.3726833,-0.64697265625,-0.02783203125,0.7744140625,2.0751953125,0.67138671875,-1.15966796875,-2.252197265625,38.671875,-78.013916015625
1760966944.3806772,-0.65234375,-0.03125,0.7548828125,1.5869140625,0.79345703125,-1.03759765625,-2.2467041015625,38.682861328125,-78.0303955078125
1760966944.3896997,-0.65234375,-0.03125,0.7548828125,1.5869140625,0.79345703125,-1.03759765625,-2.2412109375,38.69384765625,-78.0413818359375
1760966944.396462,-0.65673828125,-0.033203125,0.7607421875,1.220703125,0.732421875,-0.8544921875,-2.2357177734375,38.704833984375,-78.057861328125
1760966944.4056313,-0.65673828125,-0.033203125,0.7607421875,1.220703125,0.732421875,-0.8544921875,-2.230224609375,38.7158203125,-78.06884765625
1760966944.4163032,-0.65673828125,-0.03759765625,0.74853515625,1.220703125,0.67138671875,-0.67138671875,-2.2247314453125,38.726806640625,-78.079833984375
1760966944.4256263,-0.6572265625,-0.0263671875,0.74267578125,2.5634765625,0.42724609375,-0.67138671875,-2.2137451171875,38.73779296875,-78.0908203125
1760966944.4352555,-0.6572265625,-0.0263671875,0.74267578125,2.5634765625,0.42724609375,-0.67138671875,-2.1917724609375,38.7542724609375,-78.1072998046875
1760966944.446554,-0.64599609375,-0.0234375,0.7763671875,1.953125,0.18310546875,-0.54931640625,-2.17529296875,38.7652587890625,-78.1182861328125
1760966944.4569538,-0.64599609375,-0.0234375,0.7763671875,1.953125,0.18310546875,-0.54931640625,-2.164306640625,38.770751953125,-78.123779296875
1760966944.4653676,-0.63037109375,-0.02978515625,0.78759765625,0.30517578125,0.244140625,-0.244140625,-2.1533203125,38.78173828125,-78.134765625
1760966944.4765358,-0.63037109375,-0.02978515625,0.78759765625,0.30517578125,0.244140625,-0.244140625,-2.1533203125,38.792724609375,-78.1402587890625
1760966944.486134,-0.61474609375,-0.0283203125,0.78759765625,-0.42724609375,0.244140625,0.0,-2.1588134765625,38.7982177734375,-78.145751953125
1760966944.4956186,-0.61474609375,-0.0283203125,0.78759765625,-0.42724609375,0.244140625,0.0,-2.1588134765625,38.8037109375,-78.145751953125
1760966944.5067303,-0.5986328125,-0.0380859375,0.80810546875,0.79345703125,0.06103515625,0.06103515625,-2.1588134765625,38.8092041015625,-78.1512451171875
1760966944.5160313,-0.5986328125,-0.0380859375,0.80810546875,0.79345703125,0.06103515625,0.06103515625,-2.1533203125,38.814697265625,-78.1512451171875
1760966944.5262022,-0.58837890625,-0.0400390625,0.80810546875,2.01416015625,-0.244140625,0.18310546875,-2.1368408203125,38.814697265625,-78.1512451171875
1760966944.5355117,-0.58837890625,-0.0400390625,0.80810546875,2.01416015625,-0.244140625,0.18310546875,-2.1148681640625,38.8092041015625,-78.1512451171875
1760966944.5458212,-0.58544921875,-0.0302734375,0.81005859375,3.47900390625,-0.732421875,0.30517578125,-2.08740234375,38.7982177734375,-78.1512451171875
1760966944.5555825,-0.58544921875,-0.0302734375,0.81005859375,3.47900390625,-0.732421875,0.30517578125,-2.054443359375,38.7872314453125,-78.1512451171875
1760966944.5709064,-0.583984375,-0.03076171875,0.8154296875,2.86865234375,-1.0986328125,0.79345703125,-2.021484375,38.7762451171875,-78.145751953125
1760966944.5955696,-0.583984375,-0.03076171875,0.8154296875,2.86865234375,-1.0986328125,0.79345703125,-1.988525390625,38.7542724609375,-78.134765625
1760966944.6079962,-0.58740234375,-0.02392578125,0.83154296875,2.8076171875,-1.40380859375,1.15966796875,-1.9500732421875,38.73779296875,-78.123779296875
1760966944.616616,-0.58740234375,-0.02392578125,0.83154296875,2.8076171875,-1.40380859375,1.15966796875,-1.9171142578125,38.7158203125,-78.11279296875
1760966944.6286218,-0.59326171875,-0.03125,0.79248046875,2.62451171875,-1.5869140625,1.64794921875,-1.878662109375,38.6883544921875,-78.0963134765625
