timestamp,acc_x,acc_y,acc_z,gyro_x,gyro_y,gyro_z,angle_x,angle_y,angle_z
1758184305.9138138,0.0,0.0,0.0,0.0,0.0,0.0,-12.5738525390625,36.947021484375,-80.92529296875
1758184305.9249249,-0.59375,-0.17431640625,0.783203125,-0.48828125,-0.06103515625,0.0,-12.579345703125,36.947021484375,-80.92529296875
1758184305.9360309,-0.59375,-0.17431640625,0.783203125,-0.48828125,-0.06103515625,0.0,-12.5848388671875,36.9415283203125,-80.92529296875
1758184305.9485345,-0.59619140625,-0.17431640625,0.78662109375,-0.06103515625,-0.06103515625,0.0,-12.5848388671875,36.9415283203125,-80.92529296875
1758184305.9635077,-0.59619140625,-0.17431640625,0.78662109375,-0.06103515625,-0.06103515625,0.0,-12.5848388671875,36.9415283203125,-80.92529296875
1758184305.9767585,-0.59130859375,-0.17626953125,0.7841796875,0.18310546875,0.0,0.06103515625,-12.5848388671875,36.93603515625,-80.92529296875
1758184305.9882264,-0.59130859375,-0.17626953125,0.7841796875,0.18310546875,0.0,0.06103515625,-12.579345703125,36.93603515625,-80.92529296875
1758184305.9972258,-0.59521484375,-0.1787109375,0.7802734375,0.244140625,-0.1220703125,0.1220703125,-12.579345703125,36.93603515625,-80.9197998046875
1758184306.0039492,-0.59521484375,-0.1787109375,0.7802734375,0.244140625,-0.1220703125,0.1220703125,-12.5738525390625,36.9305419921875,-80.9197998046875
1758184306.0099626,-0.60107421875,-0.177734375,0.78369140625,0.91552734375,-0.06103515625,0.06103515625,-12.568359375,36.9305419921875,-80.9197998046875
1758184306.0168846,-0.60107421875,-0.177734375,0.78369140625,0.91552734375,-0.06103515625,0.06103515625,-12.557373046875,36.925048828125,-80.9197998046875
1758184306.0235748,-0.6015625,-0.1748046875,0.78125,0.732421875,-0.06103515625,0.1220703125,-12.5518798828125,36.925048828125,-80.9197998046875
1758184306.0333643,-0.6015625,-0.1748046875,0.78125,0.732421875,-0.06103515625,0.1220703125,-12.5408935546875,36.925048828125,-80.914306640625
1758184306.0428145,-0.60009765625,-0.171875,0.775390625,0.3662109375,0.0,0.06103515625,-12.5408935546875,36.925048828125,-80.914306640625
1758184306.0535846,-0.60009765625,-0.171875,0.775390625,0.3662109375,0.0,0.06103515625,-12.535400390625,36.9195556640625,-80.914306640625
1758184306.0628576,-0.599609375,-0.17333984375,0.77978515625,0.3662109375,0.0,0.06103515625,-12.5299072265625,36.9195556640625,-80.914306640625
1758184306.0738277,-0.599609375,-0.17333984375,0.77978515625,0.3662109375,0.0,0.06103515625,-12.5299072265625,36.9195556640625,-80.914306640625
1758184306.0832648,-0.595703125,-0.1748046875,0.779296875,-0.18310546875,-0.06103515625,0.06103515625,-12.5299072265625,36.9195556640625,-80.914306640625
1758184306.0937579,-0.595703125,-0.1748046875,0.779296875,-0.18310546875,-0.06103515625,0.06103515625,-12.5299072265625,36.9195556640625,-80.9088134765625
1758184306.102908,-0.59716796875,-0.17431640625,0.78857421875,-0.54931640625,-0.18310546875,0.18310546875,-12.535400390625,36.9140625,-80.9088134765625
1758184306.1129184,-0.59716796875,-0.17431640625,0.78857421875,-0.54931640625,-0.18310546875,0.18310546875,-12.5408935546875,36.9140625,-80.9033203125
1758184306.1232815,-0.59765625,-0.17578125,0.78271484375,0.1220703125,0.0,0.1220703125,-12.535400390625,36.9140625,-80.9033203125
1758184306.1329253,-0.59765625,-0.17578125,0.78271484375,0.1220703125,0.0,0.1220703125,-12.535400390625,36.9140625,-80.9033203125
1758184306.1429534,-0.5966796875,-0.1796875,0.77587890625,0.30517578125,-0.244140625,0.18310546875,-12.5299072265625,36.9085693359375,-80.8978271484375
1758184306.15303,-0.5966796875,-0.1796875,0.77587890625,0.30517578125,-0.244140625,0.18310546875,-12.5299072265625,36.903076171875,-80.8978271484375
1758184306.1630597,-0.60009765625,-0.17822265625,0.78173828125,1.03759765625,-0.30517578125,0.18310546875,-12.5189208984375,36.903076171875,-80.892333984375
1758184306.1732252,-0.60009765625,-0.17822265625,0.78173828125,1.03759765625,-0.30517578125,0.18310546875,-12.5079345703125,36.8975830078125,-80.892333984375
1758184306.183132,-0.59765625,-0.17431640625,0.78369140625,1.3427734375,-0.30517578125,0.0,-12.491455078125,36.89208984375,-80.892333984375
1758184306.193099,-0.59765625,-0.17431640625,0.78369140625,1.3427734375,-0.30517578125,0.0,-12.48046875,36.89208984375,-80.892333984375
1758184306.2030838,-0.59521484375,-0.169921875,0.78466796875,0.732421875,-0.18310546875,0.0,-12.4749755859375,36.8865966796875,-80.892333984375
1758184306.2131057,-0.59521484375,-0.169921875,0.78466796875,0.732421875,-0.18310546875,0.0,-12.469482421875,36.8865966796875,-80.892333984375
1758184306.22311,-0.59326171875,-0.1689453125,0.79052734375,1.220703125,-0.244140625,0.0,-12.4530029296875,36.881103515625,-80.892333984375
1758184306.2331119,-0.59326171875,-0.1689453125,0.79052734375,1.220703125,-0.244140625,0.0,-12.4420166015625,36.8756103515625,-80.892333984375
1758184306.2431114,-0.59521484375,-0.1748046875,0.783203125,2.685546875,-0.244140625,0.0,-12.41455078125,36.8756103515625,-80.892333984375
1758184306.2531528,-0.59521484375,-0.1748046875,0.783203125,2.685546875,-0.244140625,0.0,-12.3870849609375,36.8701171875,-80.892333984375
1758184306.2631705,-0.5966796875,-0.17333984375,0.78173828125,2.50244140625,-0.30517578125,0.0,-12.3651123046875,36.8646240234375,-80.892333984375
1758184306.2731872,-0.5966796875,-0.17333984375,0.78173828125,2.50244140625,-0.30517578125,0.0,-12.337646484375,36.859130859375,-80.892333984375
1758184306.2832043,-0.59521484375,-0.1708984375,0.78173828125,2.50244140625,-0.244140625,-0.30517578125,-12.315673828125,36.8536376953125,-80.8978271484375
1758184306.2932084,-0.59521484375,-0.1708984375,0.78173828125,2.50244140625,-0.244140625,-0.30517578125,-12.293701171875,36.8536376953125,-80.8978271484375
1758184306.3032103,-0.6025390625,-0.17041015625,0.7900390625,2.5634765625,0.0,-0.42724609375,-12.271728515625,36.84814453125,-80.9033203125
1758184306.3132288,-0.6025390625,-0.17041015625,0.7900390625,2.5634765625,0.0,-0.42724609375,-12.2552490234375,36.84814453125,-80.9088134765625
1758184306.3232753,-0.59814453125,-0.16796875,0.78955078125,3.96728515625,0.244140625,-0.3662109375,-12.216796875,36.84814453125,-80.914306640625
1758184306.333249,-0.59814453125,-0.16796875,0.78955078125,3.96728515625,0.244140625,-0.3662109375,-12.183837890625,36.84814453125,-80.9197998046875
1758184306.3432758,-0.60107421875,-0.171875,0.775390625,3.84521484375,0.1220703125,-0.18310546875,-12.1453857421875,36.84814453125,-80.92529296875
1758184306.3532805,-0.60107421875,-0.171875,0.775390625,3.84521484375,0.1220703125,-0.18310546875,-12.1124267578125,36.84814453125,-80.92529296875
1758184306.3633072,-0.6064453125,-0.171875,0.77392578125,3.173828125,-0.06103515625,-0.06103515625,-12.0794677734375,36.84814453125,-80.9307861328125
1758184306.3733113,-0.6064453125,-0.171875,0.77392578125,3.173828125,-0.06103515625,-0.06103515625,-12.052001953125,36.84814453125,-80.9307861328125
1758184306.3833287,-0.60791015625,-0.16796875,0.77490234375,2.50244140625,-0.06103515625,0.1220703125,-12.030029296875,36.84814453125,-80.9307861328125
1758184306.3933752,-0.60791015625,-0.16796875,0.77490234375,2.50244140625,-0.06103515625,0.1220703125,-12.0025634765625,36.84814453125,-80.9307861328125
1758184306.4033659,-0.6123046875,-0.166015625,0.77880859375,1.52587890625,-0.06103515625,0.18310546875,-11.9915771484375,36.84814453125,-80.9307861328125
1758184306.4133847,-0.6123046875,-0.166015625,0.77880859375,1.52587890625,-0.06103515625,0.18310546875,-11.97509765625,36.84814453125,-80.936279296875
1758184306.4233577,-0.611328125,-0.1630859375,0.78173828125,2.44140625,0.0,0.244140625,-11.9476318359375,36.84814453125,-80.9307861328125
1758184306.433392,-0.611328125,-0.1630859375,0.78173828125,2.44140625,0.0,0.244140625,-11.9256591796875,36.8536376953125,-80.9307861328125
1758184306.4435344,-0.60986328125,-0.16650390625,0.76904296875,2.9296875,-0.06103515625,0.30517578125,-11.898193359375,36.8536376953125,-80.9307861328125
1758184306.4534082,-0.60986328125,-0.16650390625,0.76904296875,2.9296875,-0.06103515625,0.30517578125,-11.865234375,36.8536376953125,-80.9307861328125
1758184306.4635806,-0.61083984375,-0.1650390625,0.77099609375,1.5869140625,-0.1220703125,0.42724609375,-11.8487548828125,36.859130859375,-80.92529296875
1758184306.473596,-0.61083984375,-0.1650390625,0.77099609375,1.5869140625,-0.1220703125,0.42724609375,-11.832275390625,36.859130859375,-80.92529296875
1758184306.4842403,-0.6123046875,-0.166015625,0.77880859375,0.18310546875,-0.244140625,0.732421875,-11.8267822265625,36.8646240234375,-80.914306640625
1758184306.493704,-0.6123046875,-0.166015625,0.77880859375,0.18310546875,-0.244140625,0.732421875,-11.8212890625,36.8646240234375,-80.9088134765625
1758184306.5038493,-0.611328125,-0.16259765625,0.77880859375,0.3662109375,0.0,0.67138671875,-11.8157958984375,36.8701171875,-80.9033203125
1758184306.5143847,-0.611328125,-0.16259765625,0.77880859375,0.3662109375,0.0,0.67138671875,-11.8048095703125,36.8756103515625,-80.8978271484375
1758184306.523767,-0.609375,-0.162109375,0.77783203125,1.28173828125,0.0,0.6103515625,-11.7938232421875,36.881103515625,-80.892333984375
1758184306.533922,-0.609375,-0.162109375,0.77783203125,1.28173828125,0.0,0.6103515625,-11.77734375,36.881103515625,-80.8868408203125
1758184306.5439904,-0.60595703125,-0.1650390625,0.7734375,0.79345703125,0.0,0.732421875,-11.766357421875,36.8865966796875,-80.88134765625
1758184306.554478,-0.60595703125,-0.1650390625,0.7734375,0.79345703125,0.0,0.732421875,-11.7498779296875,36.89208984375,-80.8758544921875
1758184306.5636556,-0.60693359375,-0.1611328125,0.77783203125,0.244140625,0.0,0.79345703125,-11.744384765625,36.8975830078125,-80.8648681640625
1758184306.5737562,-0.60693359375,-0.1611328125,0.77783203125,0.244140625,0.0,0.79345703125,-11.7388916015625,36.903076171875,-80.859375
1758184306.5842097,-0.60400390625,-0.16162109375,0.78515625,0.1220703125,0.0,0.79345703125,-11.7333984375,36.9085693359375,-80.848388671875
1758184306.59377,-0.60400390625,-0.16162109375,0.78515625,0.1220703125,0.0,0.79345703125,-11.7279052734375,36.9140625,-80.8428955078125
1758184306.6037507,-0.603515625,-0.16162109375,0.783203125,-0.48828125,0.18310546875,0.79345703125,-11.7279052734375,36.9195556640625,-80.8319091796875
1758184306.6142786,-0.603515625,-0.16162109375,0.783203125,-0.48828125,0.18310546875,0.79345703125,-11.7279052734375,36.925048828125,-80.826416015625
1758184306.623781,-0.5986328125,-0.1591796875,0.78515625,0.06103515625,0.06103515625,0.79345703125,-11.722412109375,36.925048828125,-80.8154296875
1758184306.6338992,-0.5986328125,-0.1591796875,0.78515625,0.06103515625,0.06103515625,0.79345703125,-11.7169189453125,36.9305419921875,-80.8099365234375
1758184306.6442587,-0.5947265625,-0.16162109375,0.78271484375,-0.1220703125,0.0,0.79345703125,-11.71142578125,36.93603515625,-80.7989501953125
1758184306.6538382,-0.5947265625,-0.16162109375,0.78271484375,-0.1220703125,0.0,0.79345703125,-11.7059326171875,36.93603515625,-80.79345703125
1758184306.663802,-0.595703125,-0.1611328125,0.78759765625,-0.30517578125,-0.06103515625,0.79345703125,-11.7059326171875,36.93603515625,-80.782470703125
1758184306.6741893,-0.595703125,-0.1611328125,0.78759765625,-0.30517578125,-0.06103515625,0.79345703125,-11.700439453125,36.9415283203125,-80.7769775390625
1758184306.6838932,-0.5986328125,-0.16357421875,0.78857421875,-0.06103515625,0.06103515625,0.79345703125,-11.6949462890625,36.9415283203125,-80.7659912109375
1758184306.6939125,-0.5986328125,-0.16357421875,0.78857421875,-0.06103515625,0.06103515625,0.79345703125,-11.6949462890625,36.9415283203125,-80.760498046875
1758184306.7042341,-0.59814453125,-0.162109375,0.7822265625,0.06103515625,0.06103515625,0.79345703125,-11.6839599609375,36.947021484375,-80.74951171875
1758184306.7142785,-0.59814453125,-0.162109375,0.7822265625,0.06103515625,0.06103515625,0.79345703125,-11.678466796875,36.947021484375,-80.7440185546875
1758184306.7238314,-0.59716796875,-0.162109375,0.78369140625,-0.1220703125,0.0,0.91552734375,-11.6729736328125,36.947021484375,-80.7330322265625
1758184306.734213,-0.59716796875,-0.162109375,0.78369140625,-0.1220703125,0.0,0.91552734375,-11.66748046875,36.9525146484375,-80.7220458984375
1758184306.7444553,-0.59423828125,-0.16064453125,0.787109375,-0.48828125,0.0,0.9765625,-11.66748046875,36.9525146484375,-80.7110595703125
1758184306.7539964,-0.59423828125,-0.16064453125,0.787109375,-0.48828125,0.0,0.9765625,-11.66748046875,36.9525146484375,-80.7000732421875
1758184306.7641158,-0.5908203125,-0.16259765625,0.78662109375,-1.52587890625,0.06103515625,1.03759765625,-11.6729736328125,36.9525146484375,-80.6890869140625
1758184306.7742977,-0.5908203125,-0.16259765625,0.78662109375,-1.52587890625,0.06103515625,1.03759765625,-11.678466796875,36.9580078125,-80.672607421875
1758184306.7839925,-0.587890625,-0.15625,0.7958984375,-1.52587890625,-0.06103515625,1.03759765625,-11.689453125,36.9580078125,-80.66162109375
1758184306.7940001,-0.587890625,-0.15625,0.7958984375,-1.52587890625,-0.06103515625,1.03759765625,-11.6949462890625,36.9580078125,-80.650634765625
1758184306.8044188,-0.59033203125,-0.15966796875,0.78857421875,-0.91552734375,0.0,0.9765625,-11.6949462890625,36.9525146484375,-80.6396484375
1758184306.8141313,-0.59033203125,-0.15966796875,0.78857421875,-0.91552734375,0.0,0.9765625,-11.6949462890625,36.9525146484375,-80.6231689453125
1758184306.8240135,-0.59033203125,-0.15966796875,0.78857421875,-1.0986328125,0.18310546875,1.03759765625,-11.700439453125,36.9580078125,-80.6121826171875
1758184306.8343673,-0.5927734375,-0.15673828125,0.78662109375,-1.0986328125,0.18310546875,1.03759765625,-11.700439453125,36.9580078125,-80.6011962890625
1758184306.8444638,-0.58544921875,-0.15771484375,0.79345703125,-0.79345703125,0.18310546875,0.79345703125,-11.700439453125,36.9580078125,-80.5902099609375
1758184306.854136,-0.58544921875,-0.15771484375,0.79345703125,-0.79345703125,0.18310546875,0.79345703125,-11.7059326171875,36.9580078125,-80.5792236328125
1758184306.864225,-0.58544921875,-0.15771484375,0.79345703125,-1.46484375,0.18310546875,0.8544921875,-11.71142578125,36.9580078125,-80.5682373046875
1758184306.8743646,-0.587890625,-0.1611328125,0.7919921875,-1.46484375,0.18310546875,0.8544921875,-11.7169189453125,36.9580078125,-80.5572509765625
1758184306.8840876,-0.59130859375,-0.16064453125,0.78173828125,-2.3193359375,0.06103515625,0.79345703125,-11.7333984375,36.9525146484375,-80.5462646484375
1758184306.8941603,-0.59521484375,-0.16064453125,0.78857421875,-2.0751953125,0.06103515625,0.79345703125,-11.7498779296875,36.9525146484375,-80.52978515625
1758184306.9047961,-0.59521484375,-0.16064453125,0.78857421875,-2.0751953125,0.06103515625,0.79345703125,-11.7608642578125,36.9525146484375,-80.518798828125
1758184306.9142418,-0.59326171875,-0.1640625,0.78857421875,-1.89208984375,0.1220703125,0.6103515625,-11.77734375,36.9525146484375,-80.5133056640625
1758184306.9240544,-0.59326171875,-0.1640625,0.78857421875,-1.89208984375,0.1220703125,0.6103515625,-11.788330078125,36.9525146484375,-80.5023193359375
1758184306.9341419,-0.58837890625,-0.16552734375,0.78466796875,-1.220703125,0.0,0.48828125,-11.79931640625,36.947021484375,-80.496826171875
1758184306.9446833,-0.58837890625,-0.16552734375,0.78466796875,-1.220703125,0.0,0.48828125,-11.8048095703125,36.947021484375,-80.48583984375
1758184306.9542522,-0.59521484375,-0.16455078125,0.787109375,-0.6103515625,-0.244140625,0.48828125,-11.810302734375,36.9415283203125,-80.4803466796875
1758184306.964239,-0.59521484375,-0.16455078125,0.787109375,-0.6103515625,-0.244140625,0.48828125,-11.810302734375,36.93603515625,-80.474853515625
1758184306.974455,-0.59912109375,-0.1640625,0.77978515625,-0.6103515625,-0.42724609375,0.30517578125,-11.810302734375,36.9305419921875,-80.4693603515625
1758184306.9842112,-0.59912109375,-0.1640625,0.77978515625,-0.6103515625,-0.42724609375,0.30517578125,-11.8157958984375,36.925048828125,-80.4638671875
1758184306.9943156,-0.5986328125,-0.162109375,0.77978515625,-0.54931640625,-0.6103515625,0.1220703125,-11.8157958984375,36.9195556640625,-80.4583740234375
1758184307.0046372,-0.5986328125,-0.162109375,0.77978515625,-0.54931640625,-0.6103515625,0.1220703125,-11.8212890625,36.9085693359375,-80.452880859375
1758184307.0144737,-0.599609375,-0.16162109375,0.783203125,0.0,-0.54931640625,0.0,-11.8212890625,36.903076171875,-80.452880859375
1758184307.024116,-0.599609375,-0.16162109375,0.783203125,0.0,-0.54931640625,0.0,-11.8212890625,36.8975830078125,-80.452880859375
1758184307.034579,-0.599609375,-0.16162109375,0.78369140625,0.48828125,-0.54931640625,-0.244140625,-11.8157958984375,36.8865966796875,-80.452880859375
1758184307.044577,-0.599609375,-0.16162109375,0.78369140625,0.48828125,-0.54931640625,-0.244140625,-11.810302734375,36.881103515625,-80.452880859375
1758184307.0543656,-0.5966796875,-0.16552734375,0.7861328125,0.91552734375,-0.42724609375,-0.3662109375,-11.8048095703125,36.8756103515625,-80.452880859375
1758184307.0644493,-0.5966796875,-0.16552734375,0.7861328125,0.91552734375,-0.42724609375,-0.3662109375,-11.79931640625,36.8701171875,-80.4583740234375
1758184307.0751762,-0.58984375,-0.15869140625,0.78466796875,1.46484375,-0.67138671875,-0.48828125,-11.788330078125,36.859130859375,-80.4638671875
1758184307.0852723,-0.58984375,-0.15869140625,0.78466796875,1.46484375,-0.67138671875,-0.48828125,-11.7718505859375,36.8536376953125,-80.4638671875
1758184307.0943804,-0.59765625,-0.162109375,0.7841796875,1.77001953125,-0.8544921875,-0.6103515625,-11.7608642578125,36.8426513671875,-80.4693603515625
1758184307.1045673,-0.59765625,-0.162109375,0.7841796875,1.77001953125,-0.8544921875,-0.6103515625,-11.744384765625,36.8316650390625,-80.474853515625
1758184307.1148245,-0.59814453125,-0.16259765625,0.78857421875,1.52587890625,-0.8544921875,-0.67138671875,-11.7333984375,36.8206787109375,-80.4803466796875
1758184307.1243467,-0.59814453125,-0.16259765625,0.78857421875,1.52587890625,-0.8544921875,-0.67138671875,-11.722412109375,36.8096923828125,-80.48583984375
1758184307.1345348,-0.595703125,-0.1650390625,0.78515625,1.953125,-0.67138671875,-0.79345703125,-11.7059326171875,36.7987060546875,-80.4913330078125
1758184307.1450257,-0.595703125,-0.1650390625,0.78515625,1.953125,-0.67138671875,-0.79345703125,-11.689453125,36.7877197265625,-80.496826171875
1758184307.1545079,-0.5908203125,-0.1630859375,0.78759765625,3.173828125,-0.79345703125,-1.03759765625,-11.6729736328125,36.7822265625,-80.5078125
1758184307.1643329,-0.5908203125,-0.1630859375,0.78759765625,3.173828125,-0.79345703125,-1.03759765625,-11.6455078125,36.771240234375,-80.518798828125
1758184307.1746526,-0.59326171875,-0.16015625,0.7890625,3.5400390625,-0.8544921875,-1.0986328125,-11.6180419921875,36.7547607421875,-80.52978515625
1758184307.1843846,-0.59326171875,-0.16015625,0.7890625,3.5400390625,-0.8544921875,-1.0986328125,-11.590576171875,36.7437744140625,-80.540771484375
1758184307.1946027,-0.60107421875,-0.1591796875,0.78759765625,3.173828125,-0.732421875,-1.28173828125,-11.568603515625,36.7327880859375,-80.5517578125
1758184307.2052598,-0.60107421875,-0.1591796875,0.78759765625,3.173828125,-0.732421875,-1.28173828125,-11.5411376953125,36.7218017578125,-80.562744140625
1758184307.2146747,-0.60302734375,-0.15966796875,0.7861328125,2.86865234375,-0.48828125,-1.220703125,-11.524658203125,36.71630859375,-80.5792236328125
1758184307.2244177,-0.60302734375,-0.15966796875,0.7861328125,2.86865234375,-0.48828125,-1.220703125,-11.502685546875,36.705322265625,-80.5902099609375
1758184307.2348275,-0.60205078125,-0.15869140625,0.77783203125,2.9296875,-0.48828125,-1.28173828125,-11.480712890625,36.6998291015625,-80.606689453125
1758184307.2448502,-0.60205078125,-0.15869140625,0.77783203125,2.9296875,-0.48828125,-1.28173828125,-11.4642333984375,36.6888427734375,-80.61767578125
1758184307.2545595,-0.6064453125,-0.1572265625,0.779296875,2.8076171875,-0.54931640625,-1.220703125,-11.4422607421875,36.683349609375,-80.6341552734375
1758184307.2646384,-0.6064453125,-0.1572265625,0.779296875,2.8076171875,-0.54931640625,-1.220703125,-11.42578125,36.6778564453125,-80.6451416015625
1758184307.2747726,-0.60888671875,-0.15771484375,0.783203125,2.01416015625,-0.42724609375,-0.9765625,-11.4093017578125,36.67236328125,-80.66162109375
1758184307.2844982,-0.60888671875,-0.15771484375,0.783203125,2.01416015625,-0.42724609375,-0.9765625,-11.392822265625,36.6668701171875,-80.672607421875
1758184307.294611,-0.60888671875,-0.162109375,0.77734375,1.5869140625,-0.48828125,-0.8544921875,-11.3818359375,36.661376953125,-80.68359375
1758184307.3051367,-0.60888671875,-0.162109375,0.77734375,1.5869140625,-0.48828125,-0.8544921875,-11.3763427734375,36.6558837890625,-80.694580078125
1758184307.3146589,-0.609375,-0.16162109375,0.77587890625,1.953125,-0.6103515625,-0.8544921875,-11.3653564453125,36.6558837890625,-80.70556640625
1758184307.3245745,-0.609375,-0.16162109375,0.77587890625,1.953125,-0.6103515625,-0.8544921875,-11.348876953125,36.650390625,-80.716552734375
1758184307.3347208,-0.61376953125,-0.15625,0.7744140625,1.8310546875,-0.6103515625,-0.732421875,-11.337890625,36.6448974609375,-80.7275390625
1758184307.344946,-0.61376953125,-0.15625,0.7744140625,1.8310546875,-0.6103515625,-0.732421875,-11.326904296875,36.639404296875,-80.738525390625
1758184307.3547018,-0.61376953125,-0.15625,0.7744140625,0.30517578125,-0.42724609375,-0.67138671875,-11.3214111328125,36.639404296875,-80.7440185546875
1758184307.3648243,-0.61181640625,-0.1552734375,0.7763671875,0.30517578125,-0.42724609375,-0.67138671875,-11.3214111328125,36.6339111328125,-80.7550048828125
1758184307.375536,-0.60986328125,-0.15283203125,0.7783203125,-0.3662109375,-0.42724609375,-0.54931640625,-11.326904296875,36.6339111328125,-80.760498046875
1758184307.3854184,-0.60986328125,-0.15283203125,0.7783203125,-0.3662109375,-0.42724609375,-0.54931640625,-11.337890625,36.6339111328125,-80.771484375
1758184307.3946898,-0.60791015625,-0.16015625,0.77734375,-0.244140625,-0.42724609375,-0.48828125,-11.3433837890625,36.6339111328125,-80.7769775390625
1758184307.4047964,-0.60791015625,-0.16015625,0.77734375,-0.244140625,-0.42724609375,-0.48828125,-11.348876953125,36.6339111328125,-80.782470703125
1758184307.4153767,-0.603515625,-0.1650390625,0.78369140625,-0.06103515625,-0.48828125,-0.48828125,-11.3543701171875,36.6339111328125,-80.7879638671875
1758184307.424691,-0.603515625,-0.1650390625,0.78369140625,-0.06103515625,-0.48828125,-0.48828125,-11.35986328125,36.62841796875,-80.79345703125
1758184307.434877,-0.60205078125,-0.16162109375,0.78564453125,0.06103515625,-0.42724609375,-0.3662109375,-11.35986328125,36.62841796875,-80.804443359375
1758184307.4452507,-0.60205078125,-0.16162109375,0.78564453125,0.06103515625,-0.42724609375,-0.3662109375,-11.3653564453125,36.62841796875,-80.8099365234375
1758184307.4548676,-0.60205078125,-0.16064453125,0.78271484375,0.30517578125,-0.42724609375,-0.3662109375,-11.3653564453125,36.62841796875,-80.8154296875
1758184307.4647079,-0.60205078125,-0.16064453125,0.78271484375,0.30517578125,-0.42724609375,-0.3662109375,-11.3653564453125,36.6229248046875,-80.8209228515625
1758184307.4751325,-0.60107421875,-0.158203125,0.78271484375,0.18310546875,-0.42724609375,-0.30517578125,-11.3653564453125,36.6229248046875,-80.826416015625
1758184307.4847646,-0.60107421875,-0.158203125,0.78271484375,0.18310546875,-0.42724609375,-0.30517578125,-11.3653564453125,36.6229248046875,-80.826416015625
1758184307.4948802,-0.5966796875,-0.15625,0.783203125,-0.18310546875,-0.3662109375,-0.244140625,-11.370849609375,36.6229248046875,-80.8319091796875
1758184307.5052795,-0.5966796875,-0.15625,0.783203125,-0.18310546875,-0.3662109375,-0.244140625,-11.3763427734375,36.617431640625,-80.83740234375
1758184307.5149577,-0.595703125,-0.15625,0.79345703125,-0.3662109375,-0.30517578125,-0.18310546875,-11.3763427734375,36.617431640625,-80.83740234375
1758184307.5248213,-0.595703125,-0.15625,0.79345703125,-0.3662109375,-0.30517578125,-0.18310546875,-11.3818359375,36.617431640625,-80.8428955078125
1758184307.5349658,-0.58935546875,-0.15869140625,0.7919921875,-0.18310546875,-0.18310546875,-0.244140625,-11.3873291015625,36.617431640625,-80.8428955078125
1758184307.545261,-0.58935546875,-0.15869140625,0.7919921875,-0.18310546875,-0.18310546875,-0.244140625,-11.392822265625,36.617431640625,-80.848388671875
1758184307.5548673,-0.58642578125,-0.162109375,0.7890625,0.1220703125,-0.244140625,-0.18310546875,-11.392822265625,36.6119384765625,-80.848388671875
1758184307.5651739,-0.58642578125,-0.162109375,0.7890625,0.1220703125,-0.244140625,-0.18310546875,-11.392822265625,36.6119384765625,-80.848388671875
1758184307.5752778,-0.58984375,-0.16015625,0.79541015625,0.48828125,-0.18310546875,-0.244140625,-11.392822265625,36.6119384765625,-80.8538818359375
1758184307.5848248,-0.58984375,-0.16015625,0.79541015625,0.48828125,-0.18310546875,-0.244140625,-11.3873291015625,36.6064453125,-80.8538818359375
1758184307.5950747,-0.5859375,-0.1591796875,0.7900390625,0.3662109375,-0.18310546875,-0.30517578125,-11.3873291015625,36.6064453125,-80.859375
1758184307.6053407,-0.5859375,-0.1591796875,0.7900390625,0.3662109375,-0.18310546875,-0.30517578125,-11.3873291015625,36.6009521484375,-80.8648681640625
1758184307.6149771,-0.5859375,-0.1572265625,0.79345703125,0.0,-0.244140625,-0.1220703125,-11.3873291015625,36.595458984375,-80.8648681640625
1758184307.624818,-0.5859375,-0.1572265625,0.79345703125,0.0,-0.244140625,-0.1220703125,-11.3873291015625,36.595458984375,-80.8648681640625
1758184307.6350775,-0.58154296875,-0.16015625,0.7939453125,-0.244140625,-0.1220703125,0.0,-11.3873291015625,36.5899658203125,-80.870361328125
1758184307.6454937,-0.58154296875,-0.16015625,0.7939453125,-0.244140625,-0.1220703125,0.0,-11.3873291015625,36.5899658203125,-80.8648681640625
1758184307.6549613,-0.5869140625,-0.15869140625,0.79736328125,-0.3662109375,-0.18310546875,0.0,-11.392822265625,36.58447265625,-80.8648681640625
1758184307.6649194,-0.5869140625,-0.15869140625,0.79736328125,-0.3662109375,-0.18310546875,0.0,-11.392822265625,36.5789794921875,-80.8648681640625
1758184307.6752806,-0.5849609375,-0.1572265625,0.79296875,0.0,-0.244140625,0.0,-11.3983154296875,36.573486328125,-80.8648681640625
1758184307.684911,-0.5849609375,-0.1572265625,0.79296875,0.0,-0.244140625,0.0,-11.3983154296875,36.5679931640625,-80.8648681640625
1758184307.6950877,-0.58740234375,-0.16064453125,0.7919921875,0.0,-0.244140625,0.06103515625,-11.392822265625,36.5625,-80.859375
1758184307.7059667,-0.58740234375,-0.16064453125,0.7919921875,0.0,-0.244140625,0.06103515625,-11.392822265625,36.5570068359375,-80.859375
1758184307.715075,-0.5869140625,-0.1591796875,0.794921875,0.0,-0.06103515625,0.1220703125,-11.392822265625,36.5570068359375,-80.859375
1758184307.7249367,-0.5869140625,-0.1591796875,0.794921875,0.0,-0.06103515625,0.1220703125,-11.392822265625,36.551513671875,-80.8538818359375
1758184307.7350495,-0.58251953125,-0.1611328125,0.79345703125,0.244140625,-0.1220703125,0.18310546875,-11.3873291015625,36.5460205078125,-80.8538818359375
1758184307.7456145,-0.58251953125,-0.1611328125,0.79345703125,0.244140625,-0.1220703125,0.18310546875,-11.3873291015625,36.5460205078125,-80.8538818359375
1758184307.7551267,-0.5810546875,-0.16064453125,0.794921875,0.30517578125,-0.244140625,0.30517578125,-11.3818359375,36.54052734375,-80.848388671875
1758184307.7650406,-0.5810546875,-0.16064453125,0.794921875,0.30517578125,-0.244140625,0.30517578125,-11.3763427734375,36.5350341796875,-80.8428955078125
1758184307.775598,-0.58349609375,-0.15771484375,0.79443359375,0.30517578125,-0.244140625,0.42724609375,-11.370849609375,36.529541015625,-80.83740234375
1758184307.7850509,-0.58349609375,-0.15771484375,0.79443359375,0.30517578125,-0.244140625,0.42724609375,-11.35986328125,36.5240478515625,-80.8319091796875
1758184307.795205,-0.58642578125,-0.1611328125,0.7939453125,0.18310546875,-0.18310546875,0.42724609375,-11.3543701171875,36.5185546875,-80.826416015625
1758184307.805921,-0.58642578125,-0.1611328125,0.7939453125,0.18310546875,-0.18310546875,0.42724609375,-11.348876953125,36.5130615234375,-80.8209228515625
1758184307.8151617,-0.58349609375,-0.1572265625,0.79150390625,0.244140625,-0.1220703125,0.42724609375,-11.3433837890625,36.507568359375,-80.8154296875
1758184307.8250852,-0.58349609375,-0.1572265625,0.79150390625,0.244140625,-0.1220703125,0.42724609375,-11.337890625,36.507568359375,-80.8099365234375
1758184307.8352292,-0.58251953125,-0.1552734375,0.7919921875,0.30517578125,-0.18310546875,0.42724609375,-11.3323974609375,36.5020751953125,-80.804443359375
1758184307.8459063,-0.58251953125,-0.1552734375,0.7919921875,0.30517578125,-0.18310546875,0.42724609375,-11.326904296875,36.49658203125,-80.7989501953125
1758184307.8552067,-0.583984375,-0.154296875,0.79638671875,-0.06103515625,-0.3662109375,0.42724609375,-11.3214111328125,36.4910888671875,-80.7879638671875
1758184307.8651528,-0.583984375,-0.154296875,0.79638671875,-0.06103515625,-0.3662109375,0.42724609375,-11.3214111328125,36.485595703125,-80.782470703125
1758184307.8756201,-0.583984375,-0.15185546875,0.79296875,-0.67138671875,-0.42724609375,0.54931640625,-11.31591796875,36.4801025390625,-80.7769775390625
1758184307.8852193,-0.583984375,-0.15185546875,0.79296875,-0.67138671875,-0.42724609375,0.54931640625,-11.3214111328125,36.4691162109375,-80.7659912109375
1758184307.895321,-0.5888671875,-0.15625,0.79296875,-0.732421875,-0.3662109375,0.48828125,-11.3214111328125,36.463623046875,-80.760498046875
1758184307.905864,-0.5888671875,-0.15625,0.79296875,-0.732421875,-0.3662109375,0.48828125,-11.3214111328125,36.4581298828125,-80.74951171875
1758184307.9154356,-0.59130859375,-0.15771484375,0.796875,-0.67138671875,-0.244140625,0.48828125,-11.326904296875,36.45263671875,-80.7440185546875
1758184307.9252152,-0.59130859375,-0.15771484375,0.796875,-0.67138671875,-0.244140625,0.48828125,-11.326904296875,36.4471435546875,-80.738525390625
1758184307.9354262,-0.59228515625,-0.15380859375,0.7880859375,-1.03759765625,-0.244140625,0.6103515625,-11.3323974609375,36.441650390625,-80.7275390625
1758184307.9460053,-0.59228515625,-0.15380859375,0.7880859375,-1.03759765625,-0.244140625,0.6103515625,-11.337890625,36.441650390625,-80.716552734375
1758184307.9553273,-0.59326171875,-0.15673828125,0.78759765625,-1.46484375,-0.244140625,0.67138671875,-11.3433837890625,36.4361572265625,-80.7110595703125
1758184307.9653425,-0.59326171875,-0.15673828125,0.78759765625,-1.46484375,-0.244140625,0.67138671875,-11.3543701171875,36.4306640625,-80.7000732421875
1758184307.9763649,-0.58984375,-0.1611328125,0.7958984375,-1.46484375,-0.30517578125,0.9765625,-11.35986328125,36.4306640625,-80.68359375
1758184307.9861116,-0.58984375,-0.1611328125,0.7958984375,-1.46484375,-0.30517578125,0.9765625,-11.3653564453125,36.4251708984375,-80.672607421875
1758184307.995438,-0.5927734375,-0.166015625,0.79345703125,-2.0751953125,-0.42724609375,1.0986328125,-11.3763427734375,36.4251708984375,-80.6561279296875
1758184308.005636,-0.5927734375,-0.166015625,0.79345703125,-2.0751953125,-0.42724609375,1.0986328125,-11.3873291015625,36.419677734375,-80.6451416015625
1758184308.0175219,-0.5927734375,-0.162109375,0.79150390625,-1.953125,-0.42724609375,1.220703125,-11.3983154296875,36.4141845703125,-80.628662109375
1758184308.025315,-0.5927734375,-0.162109375,0.79150390625,-1.953125,-0.42724609375,1.220703125,-11.4093017578125,36.4141845703125,-80.61767578125
1758184308.0355017,-0.5947265625,-0.16015625,0.78759765625,-1.28173828125,-0.3662109375,1.46484375,-11.4093017578125,36.40869140625,-80.595703125
1758184308.0460358,-0.5947265625,-0.16015625,0.78759765625,-1.28173828125,-0.3662109375,1.46484375,-11.4093017578125,36.40869140625,-80.5792236328125
1758184308.0555208,-0.59716796875,-0.15966796875,0.7880859375,-1.3427734375,-0.3662109375,1.52587890625,-11.414794921875,36.4031982421875,-80.562744140625
1758184308.0653892,-0.59716796875,-0.15966796875,0.7880859375,-1.3427734375,-0.3662109375,1.52587890625,-11.414794921875,36.4031982421875,-80.540771484375
1758184308.076099,-0.59912109375,-0.16064453125,0.7890625,-0.3662109375,-0.30517578125,1.64794921875,-11.40380859375,36.4031982421875,-80.5242919921875
1758184308.0862012,-0.59912109375,-0.16064453125,0.7890625,-0.3662109375,-0.30517578125,1.64794921875,-11.3983154296875,36.4031982421875,-80.5023193359375
1758184308.0955446,-0.599609375,-0.1640625,0.78125,-0.244140625,-0.30517578125,1.77001953125,-11.3873291015625,36.4031982421875,-80.48583984375
1758184308.105647,-0.599609375,-0.1640625,0.78125,-0.244140625,-0.30517578125,1.77001953125,-11.3763427734375,36.4031982421875,-80.4638671875
1758184308.1162932,-0.59521484375,-0.1611328125,0.779296875,-0.48828125,-0.67138671875,1.64794921875,-11.370849609375,36.4031982421875,-80.4473876953125
1758184308.1255724,-0.59521484375,-0.1611328125,0.779296875,-0.48828125,-0.67138671875,1.64794921875,-11.3653564453125,36.397705078125,-80.4254150390625
1758184308.135792,-0.59814453125,-0.15625,0.78955078125,0.0,-0.732421875,1.5869140625,-11.348876953125,36.397705078125,-80.408935546875
1758184308.146195,-0.59814453125,-0.15625,0.78955078125,0.0,-0.732421875,1.5869140625,-11.337890625,36.3922119140625,-80.386962890625
1758184308.1555579,-0.59130859375,-0.15478515625,0.78515625,0.67138671875,-0.79345703125,1.3427734375,-11.3214111328125,36.38671875,-80.3704833984375
1758184308.1655064,-0.59130859375,-0.15478515625,0.78515625,0.67138671875,-0.79345703125,1.3427734375,-11.304931640625,36.38671875,-80.35400390625
1758184308.176182,-0.59423828125,-0.15576171875,0.78955078125,1.40380859375,-0.9765625,1.0986328125,-11.282958984375,36.375732421875,-80.3375244140625
1758184308.1856742,-0.59423828125,-0.15576171875,0.78955078125,1.40380859375,-0.9765625,1.0986328125,-11.260986328125,36.3702392578125,-80.3265380859375
1758184308.1955822,-0.5927734375,-0.16015625,0.79052734375,2.5634765625,-0.732421875,0.91552734375,-11.22802734375,36.36474609375,-80.3155517578125
1758184308.206461,-0.5927734375,-0.16015625,0.79052734375,2.5634765625,-0.732421875,0.91552734375,-11.195068359375,36.3592529296875,-80.3045654296875
1758184308.215722,-0.591796875,-0.15771484375,0.78759765625,2.50244140625,-0.79345703125,0.732421875,-11.1676025390625,36.353759765625,-80.2935791015625
1758184308.2255664,-0.591796875,-0.15771484375,0.78759765625,2.50244140625,-0.79345703125,0.732421875,-11.1346435546875,36.3482666015625,-80.2880859375
1758184308.2359169,-0.5888671875,-0.1513671875,0.79345703125,3.0517578125,-0.79345703125,0.54931640625,-11.1016845703125,36.3427734375,-80.277099609375
1758184308.246389,-0.5888671875,-0.1513671875,0.79345703125,3.0517578125,-0.79345703125,0.54931640625,-11.0687255859375,36.3372802734375,-80.2716064453125
1758184308.2556376,-0.5810546875,-0.14697265625,0.78515625,2.99072265625,-0.79345703125,0.42724609375,-11.0357666015625,36.331787109375,-80.26611328125
1758184308.2656512,-0.5810546875,-0.14697265625,0.78515625,2.99072265625,-0.79345703125,0.42724609375,-11.0028076171875,36.32080078125,-80.2606201171875
1758184308.2765448,-0.58984375,-0.14794921875,0.79931640625,0.67138671875,-0.91552734375,0.30517578125,-10.9918212890625,36.3153076171875,-80.255126953125
1758184308.2873826,-0.58984375,-0.14794921875,0.79931640625,0.67138671875,-0.91552734375,0.30517578125,-10.9808349609375,36.3043212890625,-80.2496337890625
1758184308.2956293,-0.58544921875,-0.1474609375,0.802734375,0.244140625,-0.67138671875,0.244140625,-10.975341796875,36.298828125,-80.2496337890625
1758184308.306039,-0.58544921875,-0.1474609375,0.802734375,0.244140625,-0.67138671875,0.244140625,-10.9698486328125,36.2933349609375,-80.244140625
1758184308.316251,-0.58349609375,-0.15087890625,0.7880859375,0.732421875,-0.54931640625,0.1220703125,-10.9588623046875,36.287841796875,-80.2386474609375
1758184308.325732,-0.58349609375,-0.15087890625,0.7880859375,0.732421875,-0.54931640625,0.1220703125,-10.953369140625,36.2823486328125,-80.233154296875
1758184308.3357449,-0.5849609375,-0.15478515625,0.794921875,0.6103515625,-0.6103515625,0.0,-10.9423828125,36.2713623046875,-80.233154296875
1758184308.3467739,-0.5849609375,-0.15478515625,0.794921875,0.6103515625,-0.6103515625,0.0,-10.9368896484375,36.265869140625,-80.233154296875
1758184308.3559124,-0.5810546875,-0.154296875,0.7939453125,0.54931640625,-0.54931640625,0.1220703125,-10.931396484375,36.2603759765625,-80.2276611328125
1758184308.365891,-0.5810546875,-0.154296875,0.7939453125,0.54931640625,-0.54931640625,0.1220703125,-10.92041015625,36.2548828125,-80.22216796875
1758184308.3757944,-0.58154296875,-0.15380859375,0.7978515625,0.67138671875,-0.67138671875,0.1220703125,-10.9149169921875,36.243896484375,-80.22216796875
1758184308.3866282,-0.58154296875,-0.15380859375,0.7978515625,0.67138671875,-0.67138671875,0.1220703125,-10.9039306640625,36.2384033203125,-80.2166748046875
1758184308.3958302,-0.58203125,-0.15576171875,0.798828125,0.30517578125,-0.6103515625,0.244140625,-10.8984375,36.2274169921875,-80.211181640625
1758184308.4061916,-0.58203125,-0.15576171875,0.798828125,0.30517578125,-0.6103515625,0.244140625,-10.8929443359375,36.221923828125,-80.211181640625
1758184308.4164085,-0.5830078125,-0.1474609375,0.79931640625,-0.54931640625,-0.67138671875,0.42724609375,-10.8984375,36.2109375,-80.2056884765625
1758184308.4261205,-0.5830078125,-0.1474609375,0.79931640625,-0.54931640625,-0.67138671875,0.42724609375,-10.8984375,36.2054443359375,-80.1947021484375
1758184308.4358764,-0.58203125,-0.1494140625,0.794921875,-1.3427734375,-0.6103515625,0.6103515625,-10.9039306640625,36.199951171875,-80.189208984375
1758184308.4463677,-0.58203125,-0.1494140625,0.794921875,-1.3427734375,-0.6103515625,0.6103515625,-10.9149169921875,36.18896484375,-80.17822265625
1758184308.456475,-0.58154296875,-0.15283203125,0.79443359375,-3.2958984375,-0.79345703125,0.9765625,-10.9368896484375,36.1834716796875,-80.167236328125
1758184308.466082,-0.58154296875,-0.15283203125,0.79443359375,-3.2958984375,-0.79345703125,0.9765625,-10.96435546875,36.1724853515625,-80.1507568359375
1758184308.4758928,-0.58447265625,-0.15380859375,0.80419921875,-3.84521484375,-0.91552734375,1.220703125,-10.9918212890625,36.1669921875,-80.13427734375
1758184308.4869227,-0.58447265625,-0.15380859375,0.80419921875,-3.84521484375,-0.91552734375,1.220703125,-11.019287109375,36.156005859375,-80.1177978515625
1758184308.4959903,-0.5888671875,-0.15625,0.791015625,-3.7841796875,-0.67138671875,1.28173828125,-11.041259765625,36.1505126953125,-80.101318359375
1758184308.506253,-0.5888671875,-0.15625,0.791015625,-3.7841796875,-0.67138671875,1.28173828125,-11.0687255859375,36.14501953125,-80.0848388671875
1758184308.5166047,-0.58837890625,-0.15966796875,0.79443359375,-2.9296875,-0.67138671875,1.3427734375,-11.085205078125,36.1395263671875,-80.068359375
1758184308.5266511,-0.58837890625,-0.15966796875,0.79443359375,-2.9296875,-0.67138671875,1.3427734375,-11.107177734375,36.134033203125,-80.04638671875
1758184308.5359993,-0.58984375,-0.15673828125,0.8017578125,-1.89208984375,-0.42724609375,1.28173828125,-11.1126708984375,36.1285400390625,-80.035400390625
1758184308.5468884,-0.58984375,-0.15673828125,0.8017578125,-1.89208984375,-0.42724609375,1.28173828125,-11.1236572265625,36.123046875,-80.0189208984375
1758184308.556036,-0.583984375,-0.1484375,0.78466796875,-2.0751953125,-0.48828125,1.220703125,-11.1346435546875,36.123046875,-80.00244140625
1758184308.5662265,-0.583984375,-0.1484375,0.78466796875,-2.0751953125,-0.48828125,1.220703125,-11.1456298828125,36.1175537109375,-79.9859619140625
1758184308.5766318,-0.59423828125,-0.15185546875,0.79638671875,-2.86865234375,-0.67138671875,1.52587890625,-11.1566162109375,36.112060546875,-79.9639892578125
1758184308.5863705,-0.59423828125,-0.15185546875,0.79638671875,-2.86865234375,-0.67138671875,1.52587890625,-11.173095703125,36.1065673828125,-79.9420166015625
1758184308.5960987,-0.5908203125,-0.15283203125,0.79150390625,-4.94384765625,-0.3662109375,1.8310546875,-11.2060546875,36.1065673828125,-79.9200439453125
1758184308.60636,-0.5908203125,-0.15283203125,0.79150390625,-4.94384765625,-0.3662109375,1.8310546875,-11.239013671875,36.1065673828125,-79.892578125
1758184308.616758,-0.58642578125,-0.15185546875,0.78857421875,-6.65283203125,-0.42724609375,2.01416015625,-11.2884521484375,36.1065673828125,-79.87060546875
1758184308.626245,-0.58642578125,-0.15185546875,0.78857421875,-6.65283203125,-0.42724609375,2.01416015625,-11.337890625,36.1065673828125,-79.8431396484375
1758184308.6362865,-0.58935546875,-0.16259765625,0.7958984375,-6.591796875,-0.18310546875,2.13623046875,-11.3873291015625,36.1065673828125,-79.815673828125
1758184308.6470535,-0.58935546875,-0.16259765625,0.7958984375,-6.591796875,-0.18310546875,2.13623046875,-11.436767578125,36.1065673828125,-79.7882080078125
1758184308.656121,-0.5849609375,-0.162109375,0.79736328125,-4.94384765625,-0.1220703125,2.197265625,-11.4697265625,36.112060546875,-79.7607421875
1758184308.666301,-0.5849609375,-0.162109375,0.79736328125,-4.94384765625,-0.1220703125,2.197265625,-11.4971923828125,36.112060546875,-79.7332763671875
1758184308.6769223,-0.5810546875,-0.16552734375,0.79541015625,-4.7607421875,-0.1220703125,2.38037109375,-11.524658203125,36.1175537109375,-79.705810546875
1758184308.6865108,-0.5810546875,-0.16552734375,0.79541015625,-4.7607421875,-0.1220703125,2.38037109375,-11.5576171875,36.1175537109375,-79.6783447265625
1758184308.6962655,-0.5791015625,-0.16455078125,0.79541015625,-6.28662109375,-0.244140625,2.74658203125,-11.5960693359375,36.1175537109375,-79.6453857421875
1758184308.707216,-0.5791015625,-0.16455078125,0.79541015625,-6.28662109375,-0.244140625,2.74658203125,-11.634521484375,36.123046875,-79.6124267578125
1758184308.7163072,-0.5771484375,-0.16259765625,0.79052734375,-6.89697265625,-0.42724609375,3.0517578125,-11.6839599609375,36.123046875,-79.573974609375
1758184308.7263253,-0.5771484375,-0.16259765625,0.79052734375,-6.89697265625,-0.42724609375,3.0517578125,-11.7279052734375,36.123046875,-79.5355224609375
1758184308.7364206,-0.59033203125,-0.169921875,0.798828125,-7.38525390625,-0.3662109375,3.11279296875,-11.77734375,36.123046875,-79.4970703125
1758184308.7472308,-0.59033203125,-0.169921875,0.798828125,-7.38525390625,-0.3662109375,3.11279296875,-11.8267822265625,36.123046875,-79.4586181640625
1758184308.7562976,-0.5947265625,-0.17333984375,0.80029296875,-4.7607421875,0.0,3.23486328125,-11.8487548828125,36.1285400390625,-79.420166015625
1758184308.7664635,-0.5947265625,-0.17333984375,0.80029296875,-4.7607421875,0.0,3.23486328125,-11.8707275390625,36.134033203125,-79.3817138671875
1758184308.776983,-0.58740234375,-0.17431640625,0.783203125,-1.3427734375,0.18310546875,3.0517578125,-11.8597412109375,36.1395263671875,-79.3487548828125
1758184308.786533,-0.58740234375,-0.17431640625,0.783203125,-1.3427734375,0.18310546875,3.0517578125,-11.854248046875,36.14501953125,-79.3157958984375
1758184308.796376,-0.587890625,-0.1708984375,0.79345703125,0.1220703125,0.18310546875,3.0517578125,-11.8267822265625,36.1505126953125,-79.2828369140625
1758184308.806879,-0.587890625,-0.1708984375,0.79345703125,0.1220703125,0.18310546875,3.0517578125,-11.8048095703125,36.156005859375,-79.244384765625
1758184308.8165886,-0.58349609375,-0.162109375,0.787109375,-0.91552734375,0.30517578125,3.2958984375,-11.7938232421875,36.1669921875,-79.21142578125
1758184308.8265617,-0.58349609375,-0.162109375,0.787109375,-0.91552734375,0.30517578125,3.2958984375,-11.77734375,36.1724853515625,-79.1729736328125
1758184308.836743,-0.59130859375,-0.16796875,0.7939453125,-3.2958984375,0.06103515625,3.35693359375,-11.788330078125,36.177978515625,-79.1400146484375
1758184308.8472962,-0.59130859375,-0.16796875,0.7939453125,-3.2958984375,0.06103515625,3.35693359375,-11.79931640625,36.18896484375,-79.1015625
1758184308.8564415,-0.59423828125,-0.16552734375,0.80517578125,0.1220703125,0.30517578125,3.47900390625,-11.7718505859375,36.1944580078125,-79.0631103515625
1758184308.8665917,-0.59423828125,-0.16552734375,0.80517578125,0.1220703125,0.30517578125,3.47900390625,-11.7498779296875,36.2054443359375,-79.024658203125
1758184308.8785527,-0.59326171875,-0.16845703125,0.77685546875,0.8544921875,0.18310546875,3.47900390625,-11.7169189453125,36.2109375,-78.99169921875
1758184308.8869421,-0.59326171875,-0.16845703125,0.77685546875,0.8544921875,0.18310546875,3.47900390625,-11.6839599609375,36.2164306640625,-78.9532470703125
1758184308.8964539,-0.5966796875,-0.1708984375,0.78564453125,0.6103515625,0.0,3.35693359375,-11.656494140625,36.2274169921875,-78.914794921875
1758184308.9071617,-0.5966796875,-0.1708984375,0.78564453125,0.6103515625,0.0,3.35693359375,-11.62353515625,36.23291015625,-78.8818359375
1758184308.9167309,-0.60498046875,-0.16455078125,0.7861328125,0.67138671875,0.1220703125,3.35693359375,-11.5960693359375,36.2384033203125,-78.848876953125
1758184308.9266148,-0.59228515625,-0.15673828125,0.78076171875,1.77001953125,0.1220703125,3.0517578125,-11.5631103515625,36.2493896484375,-78.81591796875
1758184308.9364188,-0.59228515625,-0.15673828125,0.78076171875,1.77001953125,0.1220703125,3.0517578125,-11.524658203125,36.2548828125,-78.782958984375
1758184308.9471807,-0.59912109375,-0.15966796875,0.7919921875,2.25830078125,0.06103515625,3.173828125,-11.4862060546875,36.2603759765625,-78.7554931640625
1758184308.9564877,-0.59912109375,-0.15966796875,0.7919921875,2.25830078125,0.06103515625,3.173828125,-11.4422607421875,36.2713623046875,-78.7225341796875
1758184308.9666584,-0.6005859375,-0.158203125,0.7841796875,2.197265625,0.0,3.23486328125,-11.3983154296875,36.27685546875,-78.6895751953125
1758184308.9770448,-0.6005859375,-0.158203125,0.7841796875,2.197265625,0.0,3.23486328125,-11.3543701171875,36.287841796875,-78.6566162109375
1758184308.9867163,-0.60205078125,-0.154296875,0.78173828125,2.25830078125,0.0,2.99072265625,-11.31591796875,36.2933349609375,-78.6236572265625
1758184308.9966438,-0.60205078125,-0.154296875,0.78173828125,2.25830078125,0.0,2.99072265625,-11.27197265625,36.298828125,-78.5906982421875
1758184309.007081,-0.5986328125,-0.15478515625,0.7900390625,2.3193359375,0.0,2.99072265625,-11.22802734375,36.309814453125,-78.563232421875
1758184309.016596,-0.5986328125,-0.15478515625,0.7900390625,2.3193359375,0.0,2.99072265625,-11.18408203125,36.3153076171875,-78.5302734375
1758184309.0267456,-0.5966796875,-0.15185546875,0.78662109375,1.8310546875,-0.06103515625,2.86865234375,-11.1456298828125,36.32080078125,-78.5028076171875
1758184309.0369108,-0.5966796875,-0.15185546875,0.78662109375,1.8310546875,-0.06103515625,2.86865234375,-11.107177734375,36.3262939453125,-78.4698486328125
1758184309.047323,-0.59912109375,-0.15234375,0.78857421875,1.708984375,-0.30517578125,2.8076171875,-11.07421875,36.331787109375,-78.4423828125
1758184309.0566263,-0.59912109375,-0.15234375,0.78857421875,1.708984375,-0.30517578125,2.8076171875,-11.0357666015625,36.3372802734375,-78.409423828125
1758184309.0668,-0.59765625,-0.14794921875,0.78125,0.54931640625,-0.30517578125,2.74658203125,-11.00830078125,36.3427734375,-78.3819580078125
1758184309.0772884,-0.59765625,-0.14794921875,0.78125,0.54931640625,-0.30517578125,2.74658203125,-10.9808349609375,36.3482666015625,-78.3544921875
1758184309.08683,-0.59619140625,-0.14453125,0.78759765625,0.48828125,-0.42724609375,2.74658203125,-10.9588623046875,36.3482666015625,-78.3270263671875
1758184309.0967383,-0.59619140625,-0.14453125,0.78759765625,0.48828125,-0.42724609375,2.74658203125,-10.931396484375,36.353759765625,-78.2940673828125
1758184309.106921,-0.59228515625,-0.15185546875,0.7900390625,-0.18310546875,-0.67138671875,2.8076171875,-10.909423828125,36.353759765625,-78.2666015625
1758184309.1172085,-0.59228515625,-0.15185546875,0.7900390625,-0.18310546875,-0.67138671875,2.8076171875,-10.8929443359375,36.353759765625,-78.233642578125
1758184309.1268778,-0.595703125,-0.15478515625,0.78955078125,-1.15966796875,-0.79345703125,2.86865234375,-10.87646484375,36.353759765625,-78.20068359375
1758184309.136959,-0.595703125,-0.15478515625,0.78955078125,-1.15966796875,-0.79345703125,2.86865234375,-10.8709716796875,36.353759765625,-78.1732177734375
1758184309.1473103,-0.59814453125,-0.15380859375,0.7890625,-1.03759765625,-0.67138671875,2.74658203125,-10.8599853515625,36.353759765625,-78.1402587890625
1758184309.1567638,-0.59814453125,-0.15380859375,0.7890625,-1.03759765625,-0.67138671875,2.74658203125,-10.8489990234375,36.353759765625,-78.11279296875
1758184309.1669714,-0.595703125,-0.15185546875,0.78564453125,0.06103515625,-0.54931640625,2.50244140625,-10.8380126953125,36.353759765625,-78.0853271484375
1758184309.1797252,-0.595703125,-0.15185546875,0.78564453125,0.06103515625,-0.54931640625,2.50244140625,-10.8160400390625,36.353759765625,-78.057861328125
1758184309.1871192,-0.59228515625,-0.146484375,0.78466796875,0.54931640625,-0.54931640625,2.3193359375,-10.799560546875,36.3592529296875,-78.0303955078125
1758184309.1968825,-0.59228515625,-0.146484375,0.78466796875,0.54931640625,-0.54931640625,2.3193359375,-10.777587890625,36.3592529296875,-78.0084228515625
1758184309.207458,-0.59375,-0.1416015625,0.791015625,0.0,-0.6103515625,2.3193359375,-10.755615234375,36.3592529296875,-77.9864501953125
1758184309.2171524,-0.59375,-0.1416015625,0.791015625,0.0,-0.6103515625,2.3193359375,-10.7391357421875,36.3592529296875,-77.958984375
1758184309.2270188,-0.595703125,-0.138671875,0.78955078125,-2.3193359375,-0.54931640625,2.5634765625,-10.733642578125,36.3592529296875,-77.9315185546875
1758184309.2371557,-0.595703125,-0.138671875,0.78955078125,-2.3193359375,-0.54931640625,2.5634765625,-10.7391357421875,36.3592529296875,-77.904052734375
1758184309.247585,-0.5986328125,-0.14501953125,0.7861328125,-3.96728515625,-0.54931640625,2.685546875,-10.7501220703125,36.3592529296875,-77.8765869140625
1758184309.2569017,-0.5986328125,-0.14501953125,0.7861328125,-3.96728515625,-0.54931640625,2.685546875,-10.7666015625,36.3592529296875,-77.8436279296875
1758184309.2670925,-0.59619140625,-0.154296875,0.78759765625,-2.38037109375,-0.48828125,2.62451171875,-10.777587890625,36.3592529296875,-77.816162109375
1758184309.2772233,-0.59619140625,-0.154296875,0.78759765625,-2.38037109375,-0.48828125,2.62451171875,-10.7830810546875,36.36474609375,-77.783203125
1758184309.2870595,-0.59423828125,-0.16064453125,0.791015625,-0.79345703125,-0.48828125,2.50244140625,-10.777587890625,36.36474609375,-77.7557373046875
1758184309.2973452,-0.59423828125,-0.16064453125,0.791015625,-0.79345703125,-0.48828125,2.50244140625,-10.7666015625,36.36474609375,-77.728271484375
1758184309.307217,-0.59521484375,-0.1552734375,0.79052734375,0.3662109375,-0.48828125,2.5634765625,-10.7501220703125,36.36474609375,-77.706298828125
1758184309.3174777,-0.59521484375,-0.1552734375,0.79052734375,0.3662109375,-0.48828125,2.5634765625,-10.7281494140625,36.3702392578125,-77.6788330078125
1758184309.327124,-0.59228515625,-0.14697265625,0.7890625,0.18310546875,-0.732421875,2.74658203125,-10.7061767578125,36.3702392578125,-77.6513671875
1758184309.3370464,-0.59228515625,-0.14697265625,0.7890625,0.18310546875,-0.732421875,2.74658203125,-10.6842041015625,36.3702392578125,-77.618408203125
1758184309.3475804,-0.595703125,-0.1416015625,0.79345703125,-0.79345703125,-0.8544921875,2.99072265625,-10.667724609375,36.36474609375,-77.5909423828125
1758184309.3570504,-0.595703125,-0.1416015625,0.79345703125,-0.79345703125,-0.8544921875,2.99072265625,-10.6512451171875,36.36474609375,-77.5579833984375
1758184309.3672047,-0.59521484375,-0.142578125,0.7919921875,-1.8310546875,-0.91552734375,3.23486328125,-10.6402587890625,36.36474609375,-77.51953125
1758184309.377696,-0.59521484375,-0.142578125,0.7919921875,-1.8310546875,-0.91552734375,3.23486328125,-10.634765625,36.3592529296875,-77.486572265625
1758184309.387192,-0.595703125,-0.1455078125,0.78369140625,-2.99072265625,-1.03759765625,3.41796875,-10.634765625,36.3592529296875,-77.4481201171875
1758184309.3971179,-0.595703125,-0.1455078125,0.78369140625,-2.99072265625,-1.03759765625,3.41796875,-10.634765625,36.353759765625,-77.40966796875
1758184309.4072948,-0.59375,-0.1474609375,0.79443359375,-2.38037109375,-0.9765625,3.47900390625,-10.634765625,36.353759765625,-77.36572265625
1758184309.4174774,-0.59375,-0.1474609375,0.79443359375,-2.38037109375,-0.9765625,3.47900390625,-10.634765625,36.3482666015625,-77.3272705078125
1758184309.4273021,-0.591796875,-0.15478515625,0.79931640625,-1.46484375,-0.79345703125,3.47900390625,-10.6292724609375,36.3482666015625,-77.288818359375
1758184309.4377246,-0.591796875,-0.15478515625,0.79931640625,-1.46484375,-0.79345703125,3.47900390625,-10.61279296875,36.3482666015625,-77.2503662109375
1758184309.4482994,-0.5849609375,-0.1484375,0.7939453125,-1.8310546875,-0.67138671875,3.5400390625,-10.6072998046875,36.3482666015625,-77.2119140625
1758184309.4571788,-0.5849609375,-0.1484375,0.7939453125,-1.8310546875,-0.67138671875,3.5400390625,-10.5963134765625,36.3482666015625,-77.1734619140625
1758184309.4673312,-0.58203125,-0.142578125,0.79443359375,-2.25830078125,-0.67138671875,3.662109375,-10.5908203125,36.3482666015625,-77.1295166015625
1758184309.477793,-0.58203125,-0.142578125,0.79443359375,-2.25830078125,-0.67138671875,3.662109375,-10.5853271484375,36.3482666015625,-77.091064453125
1758184309.4872754,-0.58349609375,-0.15185546875,0.79296875,-1.52587890625,-0.6103515625,3.72314453125,-10.579833984375,36.3482666015625,-77.047119140625
1758184309.4972215,-0.58349609375,-0.15185546875,0.79296875,-1.52587890625,-0.6103515625,3.72314453125,-10.5633544921875,36.3482666015625,-77.003173828125
1758184309.5077112,-0.58935546875,-0.14599609375,0.794921875,-1.46484375,-0.54931640625,3.90625,-10.5523681640625,36.3482666015625,-76.9647216796875
1758184309.5174785,-0.58935546875,-0.14599609375,0.794921875,-1.46484375,-0.54931640625,3.90625,-10.535888671875,36.3482666015625,-76.9207763671875
1758184309.5273945,-0.58837890625,-0.138671875,0.7958984375,-2.0751953125,-0.244140625,3.90625,-10.52490234375,36.3482666015625,-76.8768310546875
1758184309.5373657,-0.58837890625,-0.138671875,0.7958984375,-2.0751953125,-0.244140625,3.90625,-10.5194091796875,36.353759765625,-76.8328857421875
1758184309.5479326,-0.58447265625,-0.138671875,0.791015625,-2.86865234375,0.0,3.84521484375,-10.513916015625,36.3592529296875,-76.79443359375
1758184309.557341,-0.58447265625,-0.138671875,0.791015625,-2.86865234375,0.0,3.84521484375,-10.513916015625,36.36474609375,-76.75048828125
1758184309.5674627,-0.58642578125,-0.14453125,0.79931640625,-2.44140625,0.0,3.90625,-10.513916015625,36.3702392578125,-76.70654296875
1758184309.578103,-0.58642578125,-0.14453125,0.79931640625,-2.44140625,0.0,3.90625,-10.5084228515625,36.375732421875,-76.6680908203125
1758184309.5874195,-0.58740234375,-0.1484375,0.7998046875,-2.8076171875,0.0,3.90625,-10.5029296875,36.3812255859375,-76.6241455078125
1758184309.5973542,-0.58740234375,-0.1484375,0.7998046875,-2.8076171875,0.0,3.90625,-10.5029296875,36.38671875,-76.5802001953125
1758184309.6075537,-0.58642578125,-0.14306640625,0.79052734375,-2.8076171875,0.1220703125,3.7841796875,-10.5029296875,36.3922119140625,-76.541748046875
1758184309.617665,-0.58642578125,-0.14306640625,0.79052734375,-2.8076171875,0.1220703125,3.7841796875,-10.5029296875,36.397705078125,-76.497802734375
1758184309.6274781,-0.59326171875,-0.14306640625,0.79638671875,-2.0751953125,0.30517578125,3.662109375,-10.4974365234375,36.4031982421875,-76.4593505859375
1758184309.6375093,-0.59326171875,-0.14306640625,0.79638671875,-2.0751953125,0.30517578125,3.662109375,-10.491943359375,36.40869140625,-76.4208984375
1758184309.6478786,-0.59423828125,-0.1455078125,0.79248046875,-2.25830078125,0.6103515625,3.662109375,-10.4864501953125,36.419677734375,-76.3824462890625
1758184309.6574316,-0.59423828125,-0.1455078125,0.79248046875,-2.25830078125,0.6103515625,3.662109375,-10.48095703125,36.4306640625,-76.343994140625
1758184309.6676621,-0.5888671875,-0.14306640625,0.79052734375,-2.44140625,0.732421875,3.72314453125,-10.48095703125,36.441650390625,-76.3055419921875
1758184309.6784177,-0.5888671875,-0.14306640625,0.79052734375,-2.44140625,0.732421875,3.72314453125,-10.4754638671875,36.45263671875,-76.26708984375
1758184309.687546,-0.59228515625,-0.1416015625,0.79248046875,-2.9296875,0.67138671875,3.90625,-10.4754638671875,36.463623046875,-76.2286376953125
1758184309.697595,-0.59228515625,-0.1416015625,0.79248046875,-2.9296875,0.67138671875,3.90625,-10.4754638671875,36.4801025390625,-76.1846923828125
1758184309.707972,-0.58544921875,-0.14453125,0.78662109375,-4.21142578125,0.48828125,3.96728515625,-10.4864501953125,36.4910888671875,-76.1407470703125
1758184309.717667,-0.58544921875,-0.14453125,0.78662109375,-4.21142578125,0.48828125,3.96728515625,-10.4974365234375,36.49658203125,-76.102294921875
1758184309.7276266,-0.59716796875,-0.15283203125,0.7919921875,-3.662109375,0.244140625,3.96728515625,-10.5084228515625,36.507568359375,-76.058349609375
1758184309.7375903,-0.59716796875,-0.15283203125,0.7919921875,-3.662109375,0.244140625,3.96728515625,-10.513916015625,36.5130615234375,-76.014404296875
1758184309.748039,-0.591796875,-0.150390625,0.79052734375,-1.03759765625,0.42724609375,3.7841796875,-10.5084228515625,36.5240478515625,-75.9759521484375
1758184309.7575803,-0.591796875,-0.150390625,0.79052734375,-1.03759765625,0.42724609375,3.7841796875,-10.491943359375,36.5350341796875,-75.9375
1758184309.7676919,-0.6025390625,-0.1513671875,0.78857421875,0.54931640625,0.6103515625,3.41796875,-10.469970703125,36.5460205078125,-75.8990478515625
1758184309.7793677,-0.6025390625,-0.1513671875,0.78857421875,0.54931640625,0.6103515625,3.41796875,-10.4425048828125,36.5570068359375,-75.8660888671875
1758184309.7876523,-0.59814453125,-0.14208984375,0.791015625,0.1220703125,0.6103515625,3.2958984375,-10.4150390625,36.5679931640625,-75.8331298828125
1758184309.7975702,-0.59814453125,-0.14208984375,0.791015625,0.1220703125,0.6103515625,3.2958984375,-10.39306640625,36.5789794921875,-75.8001708984375
1758184309.8081205,-0.5986328125,-0.13330078125,0.78466796875,0.0,0.67138671875,3.23486328125,-10.3656005859375,36.5899658203125,-75.7672119140625
1758184309.8177123,-0.5986328125,-0.13330078125,0.78466796875,0.0,0.67138671875,3.23486328125,-10.3436279296875,36.6009521484375,-75.7342529296875
1758184309.827733,-0.5986328125,-0.13330078125,0.78466796875,-0.3662109375,0.6103515625,3.0517578125,-10.3271484375,36.6119384765625,-75.706787109375
1758184309.8387637,-0.5966796875,-0.13330078125,0.78369140625,-0.3662109375,0.6103515625,3.0517578125,-10.30517578125,36.6229248046875,-75.673828125
1758184309.848212,-0.59912109375,-0.138671875,0.7939453125,-1.3427734375,0.48828125,2.86865234375,-10.294189453125,36.6339111328125,-75.6463623046875
1758184309.8576467,-0.59912109375,-0.138671875,0.7939453125,-1.3427734375,0.48828125,2.86865234375,-10.283203125,36.6448974609375,-75.618896484375
1758184309.8677976,-0.5927734375,-0.14501953125,0.7919921875,0.6103515625,0.3662109375,2.685546875,-10.2667236328125,36.650390625,-75.5914306640625
1758184309.8783622,-0.5927734375,-0.14501953125,0.7919921875,0.6103515625,0.3662109375,2.685546875,-10.2447509765625,36.661376953125,-75.56396484375
1758184309.887794,-0.60595703125,-0.1513671875,0.787109375,2.5634765625,0.54931640625,2.3193359375,-10.2117919921875,36.6668701171875,-75.5419921875
1758184309.8977168,-0.60595703125,-0.1513671875,0.787109375,2.5634765625,0.54931640625,2.3193359375,-10.1678466796875,36.6778564453125,-75.52001953125
1758184309.9081123,-0.60400390625,-0.14111328125,0.7841796875,4.08935546875,0.79345703125,1.77001953125,-10.1239013671875,36.6888427734375,-75.5035400390625
1758184309.9178448,-0.60400390625,-0.14111328125,0.7841796875,4.08935546875,0.79345703125,1.77001953125,-10.0689697265625,36.6998291015625,-75.4925537109375
1758184309.9277754,-0.60546875,-0.13037109375,0.7900390625,2.685546875,1.0986328125,1.5869140625,-10.0250244140625,36.7108154296875,-75.4815673828125
1758184309.937886,-0.60546875,-0.13037109375,0.7900390625,2.685546875,1.0986328125,1.5869140625,-9.9920654296875,36.727294921875,-75.4705810546875
1758184309.9482145,-0.60009765625,-0.12109375,0.79296875,1.220703125,1.3427734375,1.3427734375,-9.964599609375,36.73828125,-75.4595947265625
1758184309.9577782,-0.60009765625,-0.12109375,0.79296875,1.220703125,1.3427734375,1.3427734375,-9.942626953125,36.7547607421875,-75.4541015625
1758184309.96783,-0.5986328125,-0.12548828125,0.78857421875,0.30517578125,1.40380859375,1.220703125,-9.931640625,36.771240234375,-75.4486083984375
1758184309.9784498,-0.5986328125,-0.12548828125,0.78857421875,0.30517578125,1.40380859375,1.220703125,-9.920654296875,36.7877197265625,-75.443115234375
1758184309.987799,-0.595703125,-0.1357421875,0.78271484375,-0.6103515625,1.46484375,1.15966796875,-9.920654296875,36.80419921875,-75.4376220703125
1758184309.9977908,-0.595703125,-0.1357421875,0.78271484375,-0.6103515625,1.46484375,1.15966796875,-9.9151611328125,36.8206787109375,-75.4266357421875
1758184310.0081694,-0.595703125,-0.138671875,0.7900390625,-1.0986328125,1.28173828125,1.03759765625,-9.920654296875,36.837158203125,-75.4266357421875
1758184310.0178275,-0.595703125,-0.138671875,0.7900390625,-1.0986328125,1.28173828125,1.03759765625,-9.9261474609375,36.84814453125,-75.421142578125
1758184310.02784,-0.5966796875,-0.138671875,0.7919921875,-1.3427734375,1.220703125,1.0986328125,-9.931640625,36.8646240234375,-75.4156494140625
1758184310.0382156,-0.5966796875,-0.138671875,0.7919921875,-1.3427734375,1.220703125,1.0986328125,-9.9371337890625,36.8756103515625,-75.41015625
1758184310.048471,-0.59765625,-0.12939453125,0.7822265625,-1.77001953125,1.28173828125,0.9765625,-9.9481201171875,36.89208984375,-75.4046630859375
1758184310.0579047,-0.59765625,-0.12939453125,0.7822265625,-1.77001953125,1.28173828125,0.9765625,-9.9591064453125,36.903076171875,-75.399169921875
1758184310.067915,-0.58935546875,-0.1279296875,0.7958984375,-1.64794921875,1.28173828125,0.79345703125,-9.9700927734375,36.9140625,-75.3936767578125
1758184310.0795364,-0.58935546875,-0.1279296875,0.7958984375,-1.64794921875,1.28173828125,0.79345703125,-9.9810791015625,36.9305419921875,-75.3936767578125
1758184310.088,-0.5859375,-0.130859375,0.7958984375,-2.685546875,1.40380859375,1.03759765625,-10.0030517578125,36.9415283203125,-75.38818359375
1758184310.0979025,-0.5859375,-0.130859375,0.7958984375,-2.685546875,1.40380859375,1.03759765625,-10.01953125,36.9580078125,-75.377197265625
1758184310.1083424,-0.58642578125,-0.13720703125,0.79150390625,-3.47900390625,1.220703125,0.9765625,-10.0469970703125,36.968994140625,-75.3717041015625
1758184310.1180966,-0.58642578125,-0.13720703125,0.79150390625,-3.47900390625,1.220703125,0.9765625,-10.074462890625,36.97998046875,-75.3662109375
1758184310.127931,-0.591796875,-0.146484375,0.79248046875,-3.60107421875,1.3427734375,0.8544921875,-10.1019287109375,36.990966796875,-75.3607177734375
1758184310.1380792,-0.591796875,-0.146484375,0.79248046875,-3.60107421875,1.3427734375,0.8544921875,-10.12939453125,37.001953125,-75.3607177734375
1758184310.148498,-0.5966796875,-0.14111328125,0.7900390625,-1.77001953125,1.708984375,0.54931640625,-10.1458740234375,37.012939453125,-75.3607177734375
1758184310.1580927,-0.5966796875,-0.14111328125,0.7900390625,-1.77001953125,1.708984375,0.54931640625,-10.1568603515625,37.0294189453125,-75.3607177734375
1758184310.1680732,-0.60009765625,-0.14111328125,0.7890625,0.54931640625,2.13623046875,0.18310546875,-10.1513671875,37.0458984375,-75.3717041015625
1758184310.178711,-0.60009765625,-0.14111328125,0.7890625,0.54931640625,2.13623046875,0.18310546875,-10.1458740234375,37.06787109375,-75.377197265625
1758184310.187996,-0.6005859375,-0.14111328125,0.78662109375,0.18310546875,2.685546875,0.0,-10.1458740234375,37.08984375,-75.38818359375
1758184310.1987753,-0.6005859375,-0.14111328125,0.78662109375,0.18310546875,2.685546875,0.0,-10.1458740234375,37.11181640625,-75.399169921875
1758184310.2090242,-0.59521484375,-0.1279296875,0.79248046875,-0.79345703125,3.0517578125,-0.18310546875,-10.1568603515625,37.1392822265625,-75.41015625
1758184310.2189522,-0.59521484375,-0.1279296875,0.79248046875,-0.79345703125,3.0517578125,-0.18310546875,-10.17333984375,37.166748046875,-75.421142578125
1758184310.233824,-0.59326171875,-0.12646484375,0.791015625,-0.67138671875,3.2958984375,-0.3662109375,-10.184326171875,37.1942138671875,-75.4376220703125
1758184310.2473185,-0.59326171875,-0.12646484375,0.791015625,-0.67138671875,3.2958984375,-0.3662109375,-10.1953125,37.2216796875,-75.4486083984375
1758184310.2569244,-0.59033203125,-0.1318359375,0.79833984375,-2.44140625,3.23486328125,-0.18310546875,-10.21728515625,37.2491455078125,-75.4595947265625
1758184310.2640681,-0.59033203125,-0.1318359375,0.79833984375,-2.44140625,3.23486328125,-0.18310546875,-10.2447509765625,37.276611328125,-75.465087890625
1758184310.2710598,-0.59375,-0.138671875,0.79150390625,-5.859375,2.99072265625,0.1220703125,-10.30517578125,37.298583984375,-75.4705810546875
1758184310.2787874,-0.59375,-0.138671875,0.79150390625,-5.859375,2.99072265625,0.1220703125,-10.360107421875,37.3260498046875,-75.47607421875
1758184310.288551,-0.6044921875,-0.1396484375,0.77880859375,-6.65283203125,2.8076171875,0.18310546875,-10.426025390625,37.3480224609375,-75.4815673828125
1758184310.2983434,-0.6044921875,-0.1396484375,0.77880859375,-6.65283203125,2.8076171875,0.18310546875,-10.491943359375,37.3699951171875,-75.487060546875
1758184310.3086042,-0.6123046875,-0.14453125,0.7841796875,-6.40869140625,2.74658203125,0.244140625,-10.5523681640625,37.3974609375,-75.487060546875
1758184310.3191185,-0.6123046875,-0.14453125,0.7841796875,-6.40869140625,2.74658203125,0.244140625,-10.61279296875,37.41943359375,-75.4925537109375
1758184310.328212,-0.6083984375,-0.14892578125,0.7802734375,-7.080078125,2.62451171875,0.3662109375,-10.6842041015625,37.44140625,-75.4925537109375
1758184310.3408582,-0.6083984375,-0.14892578125,0.7802734375,-7.080078125,2.62451171875,0.3662109375,-10.7501220703125,37.46337890625,-75.498046875
1758184310.3489408,-0.61572265625,-0.14404296875,0.77880859375,-7.87353515625,2.197265625,0.54931640625,-10.821533203125,37.4853515625,-75.498046875
1758184310.3636546,-0.61572265625,-0.14404296875,0.77880859375,-7.87353515625,2.197265625,0.54931640625,-10.8984375,37.50732421875,-75.4925537109375
1758184310.3703306,-0.6142578125,-0.154296875,0.7744140625,-7.14111328125,1.89208984375,0.48828125,-10.96435546875,37.5238037109375,-75.4925537109375
1758184310.3785157,-0.6142578125,-0.154296875,0.7744140625,-7.14111328125,1.89208984375,0.48828125,-11.0302734375,37.540283203125,-75.4925537109375
1758184310.3904936,-0.62255859375,-0.16162109375,0.7705078125,-6.103515625,1.40380859375,0.42724609375,-11.085205078125,37.55126953125,-75.4925537109375
1758184310.3987176,-0.62255859375,-0.16162109375,0.7705078125,-6.103515625,1.40380859375,0.42724609375,-11.14013671875,37.5677490234375,-75.4925537109375
1758184310.4082909,-0.62939453125,-0.16552734375,0.765625,-2.8076171875,1.0986328125,0.244140625,-11.1676025390625,37.5787353515625,-75.4925537109375
1758184310.4190917,-0.62939453125,-0.16552734375,0.765625,-2.8076171875,1.0986328125,0.244140625,-11.195068359375,37.5897216796875,-75.498046875
1758184310.4291475,-0.63623046875,-0.169921875,0.76513671875,0.6103515625,1.03759765625,-0.1220703125,-11.1895751953125,37.6007080078125,-75.509033203125
1758184310.4386144,-0.63623046875,-0.169921875,0.76513671875,0.6103515625,1.03759765625,-0.1220703125,-11.18408203125,37.6116943359375,-75.5145263671875
1758184310.4484065,-0.62744140625,-0.1611328125,0.76220703125,4.21142578125,1.46484375,-0.6103515625,-11.151123046875,37.628173828125,-75.531005859375
1758184310.45922,-0.62744140625,-0.1611328125,0.76220703125,4.21142578125,1.46484375,-0.6103515625,-11.1181640625,37.6446533203125,-75.5474853515625
1758184310.468668,-0.61572265625,-0.1513671875,0.77294921875,5.126953125,1.64794921875,-1.03759765625,-11.07421875,37.6611328125,-75.5694580078125
1758184310.4805722,-0.61572265625,-0.1513671875,0.77294921875,5.126953125,1.64794921875,-1.03759765625,-11.0357666015625,37.6776123046875,-75.596923828125
1758184310.4884393,-0.619140625,-0.14697265625,0.78515625,5.126953125,1.77001953125,-1.15966796875,-10.997314453125,37.694091796875,-75.618896484375
1758184310.4986315,-0.619140625,-0.14697265625,0.78515625,5.126953125,1.77001953125,-1.15966796875,-10.9588623046875,37.716064453125,-75.640869140625
1758184310.5085654,-0.61767578125,-0.146484375,0.7666015625,4.08935546875,1.708984375,-1.28173828125,-10.931396484375,37.7325439453125,-75.6683349609375
1758184310.5186765,-0.61767578125,-0.146484375,0.7666015625,4.08935546875,1.708984375,-1.28173828125,-10.9039306640625,37.7490234375,-75.6903076171875
1758184310.52846,-0.6171875,-0.1455078125,0.759765625,3.84521484375,1.46484375,-1.40380859375,-10.8819580078125,37.760009765625,-75.7177734375
1758184310.5385885,-0.6171875,-0.1455078125,0.759765625,3.84521484375,1.46484375,-1.40380859375,-10.8544921875,37.7764892578125,-75.73974609375
1758184310.548654,-0.61962890625,-0.1455078125,0.76611328125,4.0283203125,1.0986328125,-1.46484375,-10.8270263671875,37.7874755859375,-75.7672119140625
1758184310.5586152,-0.61962890625,-0.1455078125,0.76611328125,4.0283203125,1.0986328125,-1.46484375,-10.8050537109375,37.7984619140625,-75.794677734375
1758184310.5690932,-0.625,-0.14892578125,0.76806640625,3.84521484375,1.03759765625,-1.64794921875,-10.777587890625,37.803955078125,-75.8221435546875
1758184310.5800426,-0.625,-0.14892578125,0.76806640625,3.84521484375,1.03759765625,-1.64794921875,-10.755615234375,37.81494140625,-75.849609375
1758184310.5890214,-0.63037109375,-0.14892578125,0.76611328125,3.84521484375,1.28173828125,-1.77001953125,-10.733642578125,37.825927734375,-75.8770751953125
1758184310.5988233,-0.63037109375,-0.14892578125,0.76611328125,3.84521484375,1.28173828125,-1.77001953125,-10.711669921875,37.8424072265625,-75.904541015625
1758184310.609697,-0.63037109375,-0.14892578125,0.76611328125,4.150390625,1.46484375,-2.0751953125,-10.689697265625,37.8533935546875,-75.9429931640625
1758184310.6188064,-0.62646484375,-0.1435546875,0.765625,4.150390625,1.46484375,-2.0751953125,-10.667724609375,37.869873046875,-75.9759521484375
1758184310.6291595,-0.6162109375,-0.14208984375,0.7744140625,4.33349609375,1.52587890625,-2.44140625,-10.645751953125,37.880859375,-76.014404296875
1758184310.6394203,-0.6162109375,-0.14208984375,0.7744140625,4.33349609375,1.52587890625,-2.44140625,-10.6292724609375,37.8973388671875,-76.0528564453125
1758184310.64904,-0.60595703125,-0.140625,0.779296875,3.41796875,1.3427734375,-2.50244140625,-10.61279296875,37.9083251953125,-76.0858154296875
1758184310.6588342,-0.60595703125,-0.140625,0.779296875,3.41796875,1.3427734375,-2.50244140625,-10.601806640625,37.9193115234375,-76.124267578125
1758184310.670703,-0.599609375,-0.1416015625,0.77783203125,2.38037109375,0.91552734375,-2.44140625,-10.601806640625,37.9248046875,-76.1627197265625
1758184310.6794121,-0.599609375,-0.1416015625,0.77783203125,2.38037109375,0.91552734375,-2.44140625,-10.5963134765625,37.9302978515625,-76.1956787109375
1758184310.6893797,-0.60693359375,-0.14453125,0.78125,1.220703125,0.54931640625,-2.25830078125,-10.601806640625,37.9302978515625,-76.2286376953125
1758184310.699228,-0.60693359375,-0.14453125,0.78125,1.220703125,0.54931640625,-2.25830078125,-10.6072998046875,37.9302978515625,-76.256103515625
1758184310.7093735,-0.61279296875,-0.14697265625,0.775390625,0.48828125,0.48828125,-2.3193359375,-10.623779296875,37.935791015625,-76.2890625
1758184310.7188418,-0.61279296875,-0.14697265625,0.775390625,0.48828125,0.48828125,-2.3193359375,-10.634765625,37.935791015625,-76.322021484375
1758184310.7305653,-0.61376953125,-0.1435546875,0.77001953125,0.42724609375,0.54931640625,-2.50244140625,-10.6512451171875,37.935791015625,-76.35498046875
1758184310.7390525,-0.61376953125,-0.1435546875,0.77001953125,0.42724609375,0.54931640625,-2.50244140625,-10.667724609375,37.935791015625,-76.387939453125
1758184310.749511,-0.611328125,-0.142578125,0.7763671875,0.732421875,0.732421875,-2.62451171875,-10.6787109375,37.935791015625,-76.4263916015625
1758184310.759069,-0.611328125,-0.142578125,0.7763671875,0.732421875,0.732421875,-2.62451171875,-10.689697265625,37.9412841796875,-76.4593505859375
1758184310.7708182,-0.61767578125,-0.14453125,0.7783203125,0.0,0.91552734375,-2.86865234375,-10.7171630859375,37.9412841796875,-76.497802734375
1758184310.7789404,-0.61767578125,-0.14453125,0.7783203125,0.0,0.91552734375,-2.86865234375,-10.7391357421875,37.94677734375,-76.541748046875
1758184310.7887993,-0.61669921875,-0.1416015625,0.77001953125,0.06103515625,1.220703125,-2.9296875,-10.7611083984375,37.9522705078125,-76.5802001953125
1758184310.7994287,-0.61669921875,-0.1416015625,0.77001953125,0.06103515625,1.220703125,-2.9296875,-10.7830810546875,37.957763671875,-76.61865234375
1758184310.8088462,-0.62451171875,-0.146484375,0.76708984375,0.30517578125,1.52587890625,-3.11279296875,-10.8050537109375,37.96875,-76.66259765625
1758184310.8190062,-0.62451171875,-0.146484375,0.76708984375,0.30517578125,1.52587890625,-3.11279296875,-10.8270263671875,37.979736328125,-76.70654296875
1758184310.829452,-0.62451171875,-0.146484375,0.76708984375,0.79345703125,1.953125,-3.35693359375,-10.843505859375,37.99072265625,-76.75048828125
1758184310.8389788,-0.6240234375,-0.15087890625,0.765625,0.79345703125,1.953125,-3.35693359375,-10.865478515625,38.0072021484375,-76.7999267578125
1758184310.8489325,-0.62255859375,-0.150390625,0.76708984375,1.0986328125,2.25830078125,-3.47900390625,-10.8819580078125,38.023681640625,-76.849365234375
1758184310.859527,-0.62255859375,-0.150390625,0.76708984375,1.0986328125,2.25830078125,-3.47900390625,-10.8984375,38.0401611328125,-76.8988037109375
1758184310.8689392,-0.6259765625,-0.15087890625,0.77392578125,0.48828125,2.50244140625,-3.47900390625,-10.9259033203125,38.056640625,-76.9482421875
1758184310.8790941,-0.6259765625,-0.15087890625,0.77392578125,0.48828125,2.50244140625,-3.47900390625,-10.9478759765625,38.07861328125,-76.9976806640625
1758184310.8895767,-0.6279296875,-0.14453125,0.75927734375,-0.244140625,2.50244140625,-3.72314453125,-10.986328125,38.0950927734375,-77.047119140625
1758184310.8991013,-0.6279296875,-0.14453125,0.75927734375,-0.244140625,2.50244140625,-3.72314453125,-11.019287109375,38.1170654296875,-77.10205078125
1758184310.9097054,-0.6181640625,-0.1396484375,0.75732421875,-1.46484375,2.3193359375,-3.90625,-11.063232421875,38.133544921875,-77.156982421875
1758184310.9194708,-0.6181640625,-0.1396484375,0.75732421875,-1.46484375,2.3193359375,-3.90625,-11.1126708984375,38.1500244140625,-77.2119140625
1758184310.9297223,-0.60009765625,-0.1435546875,0.78466796875,-3.90625,2.13623046875,-3.5400390625,-11.1785888671875,38.16650390625,-77.255859375
1758184310.9391143,-0.60009765625,-0.1435546875,0.78466796875,-3.90625,2.13623046875,-3.5400390625,-11.2445068359375,38.1829833984375,-77.3052978515625
1758184310.9497626,-0.583984375,-0.15478515625,0.794921875,-4.21142578125,1.953125,-2.99072265625,-11.3104248046875,38.1939697265625,-77.34375
1758184310.95914,-0.583984375,-0.15478515625,0.794921875,-4.21142578125,1.953125,-2.99072265625,-11.370849609375,38.2049560546875,-77.3822021484375
1758184310.969081,-0.57958984375,-0.17822265625,0.78955078125,-3.96728515625,1.5869140625,-2.44140625,-11.4312744140625,38.21044921875,-77.4151611328125
1758184310.9802072,-0.58154296875,-0.1767578125,0.7900390625,-4.57763671875,0.8544921875,-2.0751953125,-11.49169921875,38.2159423828125,-77.442626953125
1758184310.9896922,-0.58154296875,-0.1767578125,0.7900390625,-4.57763671875,0.8544921875,-2.0751953125,-11.5521240234375,38.21044921875,-77.4700927734375
1758184310.9992304,-0.58447265625,-0.1572265625,0.7783203125,-5.43212890625,0.06103515625,-1.8310546875,-11.612548828125,38.2049560546875,-77.4920654296875
1758184311.0091636,-0.58447265625,-0.1572265625,0.7783203125,-5.43212890625,0.06103515625,-1.8310546875,-11.6839599609375,38.1939697265625,-77.5140380859375
1758184311.0201309,-0.5966796875,-0.1474609375,0.77099609375,-8.6669921875,-0.79345703125,-1.5869140625,-11.7608642578125,38.1829833984375,-77.530517578125
1758184311.0297904,-0.5966796875,-0.1474609375,0.77099609375,-8.6669921875,-0.79345703125,-1.5869140625,-11.854248046875,38.16650390625,-77.5469970703125
1758184311.0396826,-0.60791015625,-0.15234375,0.7763671875,-9.3994140625,-1.03759765625,-1.52587890625,-11.953125,38.14453125,-77.5579833984375
1758184311.0491984,-0.60791015625,-0.15234375,0.7763671875,-9.3994140625,-1.03759765625,-1.52587890625,-12.052001953125,38.1280517578125,-77.5689697265625
1758184311.060824,-0.61767578125,-0.16552734375,0.76171875,-7.9345703125,-0.79345703125,-1.5869140625,-12.1453857421875,38.1060791015625,-77.5799560546875
1758184311.069264,-0.61767578125,-0.16552734375,0.76171875,-7.9345703125,-0.79345703125,-1.5869140625,-12.227783203125,38.089599609375,-77.5909423828125
1758184311.0796297,-0.62841796875,-0.17919921875,0.775390625,-5.9814453125,-0.79345703125,-1.8310546875,-12.3046875,38.07861328125,-77.607421875
1758184311.0892775,-0.62841796875,-0.17919921875,0.775390625,-5.9814453125,-0.79345703125,-1.8310546875,-12.37060546875,38.0621337890625,-77.618408203125
1758184311.1008725,-0.62841796875,-0.17919921875,0.775390625,-4.2724609375,-0.6103515625,-1.708984375,-12.4310302734375,38.045654296875,-77.6348876953125
1758184311.109275,-0.619140625,-0.18115234375,0.76318359375,-4.2724609375,-0.6103515625,-1.708984375,-12.4859619140625,38.03466796875,-77.6513671875
1758184311.1198783,-0.61181640625,-0.17138671875,0.76220703125,-4.45556640625,-0.79345703125,-1.64794921875,-12.535400390625,38.023681640625,-77.6678466796875
1758184311.1305203,-0.61181640625,-0.17138671875,0.76220703125,-4.45556640625,-0.79345703125,-1.64794921875,-12.59033203125,38.0126953125,-77.684326171875
1758184311.140051,-0.61669921875,-0.16943359375,0.77099609375,-5.9814453125,-0.91552734375,-1.5869140625,-12.6507568359375,37.9962158203125,-77.6953125
1758184311.1495228,-0.61669921875,-0.16943359375,0.77099609375,-5.9814453125,-0.91552734375,-1.5869140625,-12.7166748046875,37.9852294921875,-77.7117919921875
1758184311.1610382,-0.60986328125,-0.1669921875,0.78076171875,-5.67626953125,-1.220703125,-1.52587890625,-12.7825927734375,37.96875,-77.7227783203125
1758184311.1696856,-0.60986328125,-0.1669921875,0.78076171875,-5.67626953125,-1.220703125,-1.52587890625,-12.843017578125,37.9522705078125,-77.7337646484375
1758184311.1800768,-0.61279296875,-0.1708984375,0.76416015625,-5.79833984375,-1.77001953125,-1.15966796875,-12.9034423828125,37.9302978515625,-77.7392578125
1758184311.1894186,-0.61279296875,-0.1708984375,0.76416015625,-5.79833984375,-1.77001953125,-1.15966796875,-12.9638671875,37.913818359375,-77.7447509765625
1758184311.2012491,-0.62060546875,-0.18310546875,0.75341796875,-7.9345703125,-1.8310546875,-0.91552734375,-13.02978515625,37.891845703125,-77.750244140625
1758184311.2094336,-0.62060546875,-0.18310546875,0.75341796875,-7.9345703125,-1.8310546875,-0.91552734375,-13.1121826171875,37.869873046875,-77.750244140625
1758184311.2195673,-0.6298828125,-0.1904296875,0.76171875,-8.85009765625,-1.5869140625,-0.79345703125,-13.194580078125,37.8533935546875,-77.750244140625
1758184311.2303214,-0.6298828125,-0.1904296875,0.76171875,-8.85009765625,-1.5869140625,-0.79345703125,-13.282470703125,37.8369140625,-77.7557373046875
1758184311.239527,-0.6220703125,-0.20361328125,0.7626953125,-5.2490234375,-1.220703125,-0.8544921875,-13.3538818359375,37.825927734375,-77.7557373046875
1758184311.2498565,-0.6220703125,-0.20361328125,0.7626953125,-5.2490234375,-1.220703125,-0.8544921875,-13.4088134765625,37.8094482421875,-77.76123046875
1758184311.2598956,-0.61279296875,-0.19873046875,0.75927734375,-1.89208984375,-1.0986328125,-1.220703125,-13.447265625,37.7984619140625,-77.772216796875
1758184311.2695062,-0.61279296875,-0.19873046875,0.75927734375,-1.89208984375,-1.0986328125,-1.220703125,-13.4747314453125,37.7874755859375,-77.783203125
1758184311.2796474,-0.6181640625,-0.19091796875,0.76611328125,-1.03759765625,-1.220703125,-1.708984375,-13.4967041015625,37.7764892578125,-77.794189453125
1758184311.290001,-0.6181640625,-0.19091796875,0.76611328125,-1.03759765625,-1.220703125,-1.708984375,-13.5186767578125,37.760009765625,-77.8106689453125
1758184311.300025,-0.6337890625,-0.18603515625,0.77001953125,3.5400390625,-0.91552734375,-1.8310546875,-13.5186767578125,37.7490234375,-77.8326416015625
1758184311.3096037,-0.6337890625,-0.18603515625,0.77001953125,3.5400390625,-0.91552734375,-1.8310546875,-13.4967041015625,37.738037109375,-77.84912109375
1758184311.3200526,-0.63037109375,-0.1904296875,0.7392578125,5.0048828125,-0.18310546875,-1.953125,-13.4637451171875,37.7325439453125,-77.87109375
1758184311.3297427,-0.63037109375,-0.1904296875,0.7392578125,5.0048828125,-0.18310546875,-1.953125,-13.4307861328125,37.72705078125,-77.8985595703125
1758184311.3398612,-0.6337890625,-0.19384765625,0.76611328125,2.99072265625,0.06103515625,-2.197265625,-13.4088134765625,37.72705078125,-77.9205322265625
1758184311.3510985,-0.6337890625,-0.19384765625,0.76611328125,2.99072265625,0.06103515625,-2.197265625,-13.3978271484375,37.72705078125,-77.9534912109375
1758184311.3597767,-0.61376953125,-0.18994140625,0.77978515625,4.21142578125,0.42724609375,-2.13623046875,-13.38134765625,37.7325439453125,-77.98095703125
1758184311.3696723,-0.61376953125,-0.18994140625,0.77978515625,4.21142578125,0.42724609375,-2.13623046875,-13.359375,37.7325439453125,-78.0084228515625
1758184311.3801758,-0.60302734375,-0.1884765625,0.76123046875,6.04248046875,0.0,-2.38037109375,-13.326416015625,37.7325439453125,-78.0413818359375
1758184311.389669,-0.60302734375,-0.1884765625,0.76123046875,6.04248046875,0.0,-2.38037109375,-13.2879638671875,37.7325439453125,-78.06884765625
1758184311.4001055,-0.6220703125,-0.19091796875,0.7548828125,7.62939453125,-0.48828125,-2.38037109375,-13.238525390625,37.72705078125,-78.101806640625
1758184311.4151258,-0.6220703125,-0.19091796875,0.7548828125,7.62939453125,-0.48828125,-2.38037109375,-13.18359375,37.716064453125,-78.1292724609375
1758184311.421675,-0.6220703125,-0.193359375,0.76416015625,10.986328125,-0.732421875,-2.197265625,-13.1121826171875,37.7105712890625,-78.1622314453125
1758184311.4300368,-0.6220703125,-0.193359375,0.76416015625,10.986328125,-0.732421875,-2.197265625,-13.0242919921875,37.6995849609375,-78.189697265625
1758184311.4402187,-0.6220703125,-0.1923828125,0.76171875,13.427734375,-0.732421875,-2.25830078125,-12.9254150390625,37.694091796875,-78.2171630859375
1758184311.451314,-0.6220703125,-0.1923828125,0.76171875,13.427734375,-0.732421875,-2.25830078125,-12.81005859375,37.68310546875,-78.2501220703125
1758184311.4598973,-0.62451171875,-0.17529296875,0.7646484375,11.29150390625,-0.79345703125,-2.0751953125,-12.711181640625,37.6776123046875,-78.277587890625
1758184311.470695,-0.62451171875,-0.17529296875,0.7646484375,11.29150390625,-0.79345703125,-2.0751953125,-12.6177978515625,37.6666259765625,-78.3050537109375
1758184311.480312,-0.6279296875,-0.1611328125,0.7705078125,8.6669921875,-0.79345703125,-1.8310546875,-12.5408935546875,37.6611328125,-78.33251953125
1758184311.4905622,-0.6279296875,-0.1611328125,0.7705078125,8.6669921875,-0.79345703125,-1.8310546875,-12.469482421875,37.650146484375,-78.3599853515625
1758184311.5002675,-0.61865234375,-0.15625,0.76416015625,7.01904296875,-0.79345703125,-1.64794921875,-12.4090576171875,37.6446533203125,-78.3819580078125
1758184311.5107524,-0.61865234375,-0.15625,0.76416015625,7.01904296875,-0.79345703125,-1.64794921875,-12.3541259765625,37.63916015625,-78.4039306640625
1758184311.520189,-0.61865234375,-0.16552734375,0.76708984375,5.92041015625,-1.03759765625,-1.64794921875,-12.3046875,37.628173828125,-78.42041015625
1758184311.5299325,-0.61865234375,-0.16552734375,0.76708984375,5.92041015625,-1.03759765625,-1.64794921875,-12.2607421875,37.6226806640625,-78.4423828125
1758184311.539875,-0.61669921875,-0.17333984375,0.771484375,5.92041015625,-1.0986328125,-1.8310546875,-12.216796875,37.6116943359375,-78.46435546875
1758184311.5502238,-0.61669921875,-0.17333984375,0.771484375,5.92041015625,-1.0986328125,-1.8310546875,-12.1728515625,37.6007080078125,-78.4808349609375
1758184311.56007,-0.61474609375,-0.17529296875,0.765625,7.50732421875,-1.220703125,-2.0751953125,-12.1234130859375,37.5897216796875,-78.50830078125
1758184311.5700953,-0.61474609375,-0.17529296875,0.765625,7.50732421875,-1.220703125,-2.0751953125,-12.0684814453125,37.5787353515625,-78.5302734375
1758184311.5806098,-0.61474609375,-0.17333984375,0.77490234375,7.6904296875,-1.3427734375,-2.01416015625,-12.0135498046875,37.562255859375,-78.5577392578125
1758184311.5901868,-0.61474609375,-0.17333984375,0.77490234375,7.6904296875,-1.3427734375,-2.01416015625,-11.953125,37.55126953125,-78.5797119140625
1758184311.6001465,-0.6064453125,-0.16845703125,0.7744140625,7.01904296875,-1.3427734375,-2.0751953125,-11.898193359375,37.5347900390625,-78.607177734375
1758184311.6101103,-0.6064453125,-0.16845703125,0.7744140625,7.01904296875,-1.3427734375,-2.0751953125,-11.84326171875,37.5238037109375,-78.629150390625
1758184311.6202676,-0.59619140625,-0.16162109375,0.78466796875,6.53076171875,-1.5869140625,-2.25830078125,-11.79931640625,37.50732421875,-78.6566162109375
1758184311.6305466,-0.59619140625,-0.16162109375,0.78466796875,6.53076171875,-1.5869140625,-2.25830078125,-11.7498779296875,37.4908447265625,-78.68408203125
1758184311.639952,-0.591796875,-0.158203125,0.78564453125,8.23974609375,-1.64794921875,-2.74658203125,-11.700439453125,37.4688720703125,-78.7115478515625
1758184311.6501462,-0.591796875,-0.158203125,0.78564453125,8.23974609375,-1.64794921875,-2.74658203125,-11.6400146484375,37.4468994140625,-78.7445068359375
1758184311.6604254,-0.5908203125,-0.15966796875,0.7880859375,9.21630859375,-2.01416015625,-3.23486328125,-11.5740966796875,37.4249267578125,-78.7774658203125
1758184311.6700892,-0.5908203125,-0.15966796875,0.7880859375,9.21630859375,-2.01416015625,-3.23486328125,-11.5081787109375,37.3974609375,-78.8104248046875
1758184311.6804101,-0.5947265625,-0.1533203125,0.78076171875,8.11767578125,-2.3193359375,-3.47900390625,-11.44775390625,37.3699951171875,-78.848876953125
1758184311.6905046,-0.5947265625,-0.1533203125,0.78076171875,8.11767578125,-2.3193359375,-3.47900390625,-11.392822265625,37.342529296875,-78.8873291015625
1758184311.7003212,-0.61083984375,-0.142578125,0.77880859375,5.18798828125,-2.38037109375,-3.72314453125,-11.3543701171875,37.3095703125,-78.92578125
1758184311.7101216,-0.61083984375,-0.142578125,0.77880859375,5.18798828125,-2.38037109375,-3.72314453125,-11.326904296875,37.276611328125,-78.9642333984375
1758184311.7201374,-0.62841796875,-0.14404296875,0.7763671875,3.23486328125,-1.64794921875,-3.662109375,-11.3104248046875,37.2491455078125,-79.0081787109375
1758184311.730524,-0.62841796875,-0.14404296875,0.7763671875,3.23486328125,-1.64794921875,-3.662109375,-11.304931640625,37.2271728515625,-79.046630859375
1758184311.740091,-0.61962890625,-0.1572265625,0.77099609375,3.23486328125,-0.48828125,-3.7841796875,-11.2994384765625,37.2161865234375,-79.0850830078125
1758184311.7504735,-0.61962890625,-0.1572265625,0.77099609375,3.23486328125,-0.48828125,-3.7841796875,-11.2939453125,37.2052001953125,-79.1290283203125
1758184311.7604938,-0.6005859375,-0.16259765625,0.7939453125,2.74658203125,0.0,-4.08935546875,-11.2939453125,37.1942138671875,-79.178466796875
1758184311.7702403,-0.6005859375,-0.16259765625,0.7939453125,2.74658203125,0.0,-4.08935546875,-11.2994384765625,37.188720703125,-79.2279052734375
1758184311.7802463,-0.59033203125,-0.15185546875,0.79541015625,3.47900390625,0.0,-4.21142578125,-11.2994384765625,37.1832275390625,-79.27734375
1758184311.7906635,-0.59033203125,-0.15185546875,0.79541015625,3.47900390625,0.0,-4.21142578125,-11.2994384765625,37.177734375,-79.3267822265625
1758184311.8003352,-0.59716796875,-0.1533203125,0.78466796875,2.8076171875,-0.1220703125,-3.72314453125,-11.2939453125,37.166748046875,-79.3707275390625
1758184311.8102968,-0.59716796875,-0.1533203125,0.78466796875,2.8076171875,-0.1220703125,-3.72314453125,-11.2939453125,37.1612548828125,-79.4146728515625
1758184311.8204582,-0.607421875,-0.158203125,0.7802734375,2.197265625,-0.244140625,-3.2958984375,-11.2994384765625,37.1502685546875,-79.453125
1758184311.8302712,-0.607421875,-0.158203125,0.7802734375,2.197265625,-0.244140625,-3.2958984375,-11.2994384765625,37.1392822265625,-79.4915771484375
1758184311.8402617,-0.6171875,-0.1728515625,0.77490234375,2.197265625,-0.244140625,-2.62451171875,-11.2994384765625,37.1337890625,-79.5245361328125
1758184311.8506055,-0.6171875,-0.1728515625,0.77490234375,2.197265625,-0.244140625,-2.62451171875,-11.2994384765625,37.1282958984375,-79.552001953125
1758184311.8606114,-0.626953125,-0.17138671875,0.76904296875,2.685546875,0.0,-2.197265625,-11.2939453125,37.122802734375,-79.5849609375
1758184311.8703265,-0.626953125,-0.17138671875,0.76904296875,2.685546875,0.0,-2.197265625,-11.282958984375,37.1173095703125,-79.6124267578125
1758184311.8804832,-0.62548828125,-0.16259765625,0.76708984375,3.41796875,0.244140625,-1.77001953125,-11.27197265625,37.1173095703125,-79.6343994140625
1758184311.8906493,-0.62548828125,-0.16259765625,0.76708984375,3.41796875,0.244140625,-1.77001953125,-11.2554931640625,37.122802734375,-79.661865234375
1758184311.900433,-0.62744140625,-0.15380859375,0.771484375,2.9296875,0.54931640625,-1.5869140625,-11.239013671875,37.122802734375,-79.683837890625
1758184311.9103897,-0.62744140625,-0.15380859375,0.771484375,2.9296875,0.54931640625,-1.5869140625,-11.2225341796875,37.1337890625,-79.705810546875
1758184311.9206011,-0.6259765625,-0.1455078125,0.76416015625,1.28173828125,0.79345703125,-1.28173828125,-11.217041015625,37.1392822265625,-79.727783203125
1758184311.9308774,-0.6259765625,-0.1455078125,0.76416015625,1.28173828125,0.79345703125,-1.28173828125,-11.217041015625,37.1502685546875,-79.7442626953125
1758184311.9403517,-0.6240234375,-0.1533203125,0.76904296875,-0.91552734375,1.0986328125,-0.8544921875,-11.22802734375,37.1612548828125,-79.7607421875
1758184311.9504483,-0.6240234375,-0.1533203125,0.76904296875,-0.91552734375,1.0986328125,-0.8544921875,-11.2445068359375,37.177734375,-79.7772216796875
1758184311.9607375,-0.6162109375,-0.15966796875,0.77734375,-1.0986328125,1.3427734375,-0.67138671875,-11.2664794921875,37.1942138671875,-79.7882080078125
1758184311.9704282,-0.6162109375,-0.15966796875,0.77734375,-1.0986328125,1.3427734375,-0.67138671875,-11.282958984375,37.210693359375,-79.7991943359375
1758184311.9805171,-0.61474609375,-0.16259765625,0.775390625,0.79345703125,1.40380859375,-0.79345703125,-11.2884521484375,37.2271728515625,-79.815673828125
1758184311.9909244,-0.61474609375,-0.16259765625,0.775390625,0.79345703125,1.40380859375,-0.79345703125,-11.2884521484375,37.24365234375,-79.82666015625
1758184312.0007548,-0.609375,-0.16064453125,0.77294921875,2.197265625,1.28173828125,-0.6103515625,-11.27197265625,37.2601318359375,-79.837646484375
1758184312.0105212,-0.609375,-0.16064453125,0.77294921875,2.197265625,1.28173828125,-0.6103515625,-11.260986328125,37.276611328125,-79.8486328125
1758184312.0206776,-0.60546875,-0.16064453125,0.77734375,1.220703125,0.91552734375,-0.42724609375,-11.2554931640625,37.28759765625,-79.859619140625
1758184312.0309703,-0.60546875,-0.16064453125,0.77734375,1.220703125,0.91552734375,-0.42724609375,-11.25,37.298583984375,-79.8651123046875
1758184312.0406265,-0.6103515625,-0.15869140625,0.78466796875,1.52587890625,0.8544921875,0.42724609375,-11.2335205078125,37.3150634765625,-79.8651123046875
1758184312.0505629,-0.6103515625,-0.15869140625,0.78466796875,1.52587890625,0.8544921875,0.42724609375,-11.217041015625,37.3260498046875,-79.859619140625
1758184312.0607495,-0.5947265625,-0.181640625,0.76806640625,-0.244140625,0.48828125,0.54931640625,-11.2225341796875,37.33154296875,-79.8541259765625
1758184312.0706131,-0.5947265625,-0.181640625,0.76806640625,-0.244140625,0.48828125,0.54931640625,-11.2225341796875,37.342529296875,-79.8541259765625
1758184312.0806217,-0.59765625,-0.1474609375,0.80029296875,1.15966796875,0.42724609375,0.3662109375,-11.2115478515625,37.3480224609375,-79.8541259765625
1758184312.0909543,-0.59765625,-0.1474609375,0.80029296875,1.15966796875,0.42724609375,0.3662109375,-11.2005615234375,37.353515625,-79.8486328125
1758184312.1005676,-0.59765625,-0.1474609375,0.80029296875,4.2724609375,0.3662109375,0.0,-11.162109375,37.353515625,-79.8486328125
1758184312.110624,-0.59814453125,-0.14599609375,0.78076171875,4.2724609375,0.3662109375,0.0,-11.1236572265625,37.3590087890625,-79.8541259765625
1758184312.1206658,-0.60400390625,-0.1455078125,0.78466796875,2.99072265625,0.3662109375,-0.18310546875,-11.09619140625,37.3590087890625,-79.8541259765625
1758184312.1311033,-0.60400390625,-0.1455078125,0.78466796875,2.99072265625,0.3662109375,-0.18310546875,-11.0687255859375,37.364501953125,-79.8541259765625
1758184312.1406124,-0.6103515625,-0.14599609375,0.7724609375,2.50244140625,0.30517578125,-0.244140625,-11.0467529296875,37.364501953125,-79.859619140625
1758184312.1510801,-0.6103515625,-0.14599609375,0.7724609375,2.50244140625,0.30517578125,-0.244140625,-11.0247802734375,37.3699951171875,-79.859619140625
1758184312.160853,-0.60693359375,-0.1513671875,0.77001953125,1.64794921875,0.244140625,-0.42724609375,-11.0137939453125,37.3699951171875,-79.8651123046875
1758184312.17069,-0.60693359375,-0.1513671875,0.77001953125,1.64794921875,0.244140625,-0.42724609375,-11.0028076171875,37.3699951171875,-79.87060546875
1758184312.1807065,-0.60107421875,-0.1513671875,0.79296875,1.0986328125,0.48828125,-0.3662109375,-10.997314453125,37.37548828125,-79.8760986328125
1758184312.1913972,-0.60107421875,-0.1513671875,0.79296875,1.0986328125,0.48828125,-0.3662109375,-10.986328125,37.3809814453125,-79.881591796875
1758184312.2007747,-0.5849609375,-0.15771484375,0.794921875,2.13623046875,0.6103515625,-0.54931640625,-10.975341796875,37.3809814453125,-79.8870849609375
1758184312.2107928,-0.5849609375,-0.15771484375,0.794921875,2.13623046875,0.6103515625,-0.54931640625,-10.9588623046875,37.386474609375,-79.892578125
1758184312.2210498,-0.583984375,-0.15380859375,0.79638671875,4.08935546875,0.244140625,-0.91552734375,-10.9259033203125,37.3809814453125,-79.903564453125
1758184312.23081,-0.583984375,-0.15380859375,0.79638671875,4.08935546875,0.244140625,-0.91552734375,-10.8929443359375,37.3809814453125,-79.91455078125
1758184312.240769,-0.58544921875,-0.146484375,0.7939453125,5.615234375,0.0,-1.0986328125,-10.843505859375,37.37548828125,-79.925537109375
1758184312.25129,-0.58544921875,-0.146484375,0.7939453125,5.615234375,0.0,-1.0986328125,-10.799560546875,37.3699951171875,-79.9365234375
1758184312.2611198,-0.59375,-0.14404296875,0.7822265625,4.21142578125,-0.30517578125,-1.03759765625,-10.7666015625,37.3590087890625,-79.947509765625
1758184312.2709122,-0.59375,-0.14404296875,0.7822265625,4.21142578125,-0.30517578125,-1.03759765625,-10.7281494140625,37.3480224609375,-79.95849609375
1758184312.2808945,-0.587890625,-0.1396484375,0.78369140625,2.197265625,-0.48828125,-0.732421875,-10.711669921875,37.3370361328125,-79.9639892578125
1758184312.2911725,-0.587890625,-0.1396484375,0.78369140625,2.197265625,-0.48828125,-0.732421875,-10.6951904296875,37.3260498046875,-79.969482421875
1758184312.3008907,-0.603515625,-0.1484375,0.79541015625,0.48828125,-0.42724609375,-0.732421875,-10.6951904296875,37.320556640625,-79.9749755859375
1758184312.3109012,-0.603515625,-0.1484375,0.79541015625,0.48828125,-0.42724609375,-0.732421875,-10.6951904296875,37.3095703125,-79.98046875
1758184312.3212194,-0.60498046875,-0.1484375,0.78955078125,1.708984375,0.06103515625,-0.732421875,-10.6842041015625,37.3040771484375,-79.9859619140625
1758184312.3310118,-0.60498046875,-0.1484375,0.78955078125,1.708984375,0.06103515625,-0.732421875,-10.6732177734375,37.298583984375,-79.991455078125
1758184312.3408697,-0.60400390625,-0.14892578125,0.77685546875,4.0283203125,0.54931640625,-0.8544921875,-10.6402587890625,37.298583984375,-80.00244140625
1758184312.3509586,-0.60400390625,-0.14892578125,0.77685546875,4.0283203125,0.54931640625,-0.8544921875,-10.6072998046875,37.3040771484375,-80.0079345703125
1758184312.3612134,-0.6083984375,-0.15380859375,0.7802734375,4.33349609375,0.9765625,-0.8544921875,-10.5743408203125,37.3040771484375,-80.0189208984375
1758184312.3712773,-0.6083984375,-0.15380859375,0.7802734375,4.33349609375,0.9765625,-0.8544921875,-10.5413818359375,37.3150634765625,-80.035400390625
1758184312.380924,-0.60693359375,-0.1474609375,0.78955078125,2.44140625,1.15966796875,-0.3662109375,-10.5194091796875,37.320556640625,-80.0408935546875
1758184312.3910053,-0.60693359375,-0.1474609375,0.78955078125,2.44140625,1.15966796875,-0.3662109375,-10.5029296875,37.33154296875,-80.04638671875
1758184312.4013278,-0.58203125,-0.1376953125,0.78564453125,1.64794921875,1.15966796875,-0.18310546875,-10.491943359375,37.3370361328125,-80.0518798828125
1758184312.4109836,-0.58203125,-0.1376953125,0.78564453125,1.64794921875,1.15966796875,-0.18310546875,-10.4754638671875,37.3480224609375,-80.057373046875
1758184312.4209244,-0.5908203125,-0.14697265625,0.802734375,2.25830078125,0.91552734375,-0.1220703125,-10.458984375,37.353515625,-80.057373046875
1758184312.431006,-0.5908203125,-0.14697265625,0.802734375,2.25830078125,0.91552734375,-0.1220703125,-10.43701171875,37.353515625,-80.057373046875
1758184312.4414406,-0.59375,-0.15087890625,0.79833984375,3.7841796875,0.91552734375,0.1220703125,-10.404052734375,37.3590087890625,-80.057373046875
1758184312.4511137,-0.59375,-0.15087890625,0.79833984375,3.7841796875,0.91552734375,0.1220703125,-10.3656005859375,37.364501953125,-80.057373046875
1758184312.4610543,-0.5947265625,-0.150390625,0.7802734375,4.8828125,0.6103515625,0.30517578125,-10.316162109375,37.364501953125,-80.057373046875
1758184312.4711847,-0.5947265625,-0.150390625,0.7802734375,4.8828125,0.6103515625,0.30517578125,-10.2667236328125,37.3699951171875,-80.0518798828125
1758184312.481388,-0.5966796875,-0.14599609375,0.79248046875,5.37109375,0.30517578125,0.6103515625,-10.2117919921875,37.3699951171875,-80.04638671875
1758184312.491282,-0.5966796875,-0.14599609375,0.79248046875,5.37109375,0.30517578125,0.6103515625,-10.1568603515625,37.364501953125,-80.0408935546875
1758184312.5010526,-0.599609375,-0.1416015625,0.78466796875,5.18798828125,0.06103515625,0.91552734375,-10.1019287109375,37.364501953125,-80.0299072265625
1758184312.5112474,-0.599609375,-0.1416015625,0.78466796875,5.18798828125,0.06103515625,0.91552734375,-10.0469970703125,37.364501953125,-80.0189208984375
1758184312.5215456,-0.59814453125,-0.13818359375,0.783203125,5.06591796875,-0.1220703125,1.03759765625,-9.9920654296875,37.3590087890625,-80.0079345703125
1758184312.53125,-0.59814453125,-0.13818359375,0.783203125,5.06591796875,-0.1220703125,1.03759765625,-9.9371337890625,37.353515625,-79.991455078125
1758184312.5411475,-0.61376953125,-0.13232421875,0.7861328125,4.39453125,-0.18310546875,1.28173828125,-9.8822021484375,37.353515625,-79.98046875
1758184312.5515528,-0.61376953125,-0.13232421875,0.7861328125,4.39453125,-0.18310546875,1.28173828125,-9.832763671875,37.3480224609375,-79.9639892578125
1758184312.5614305,-0.609375,-0.1279296875,0.7744140625,2.9296875,0.0,1.28173828125,-9.7943115234375,37.3480224609375,-79.947509765625
1758184312.571224,-0.609375,-0.1279296875,0.7744140625,2.9296875,0.0,1.28173828125,-9.7613525390625,37.3480224609375,-79.9310302734375
1758184312.5816755,-0.61669921875,-0.126953125,0.78369140625,0.9765625,-0.06103515625,1.220703125,-9.744873046875,37.3480224609375,-79.91455078125
1758184312.5912435,-0.61669921875,-0.126953125,0.78369140625,0.9765625,-0.06103515625,1.220703125,-9.722900390625,37.3480224609375,-79.8980712890625
1758184312.601189,-0.60205078125,-0.12646484375,0.77978515625,0.732421875,0.244140625,0.91552734375,-9.7119140625,37.353515625,-79.8870849609375
1758184312.6118326,-0.60205078125,-0.12646484375,0.77978515625,0.732421875,0.244140625,0.91552734375,-9.700927734375,37.353515625,-79.8760986328125
1758184312.621593,-0.6025390625,-0.123046875,0.7802734375,-0.30517578125,0.1220703125,0.8544921875,-9.6954345703125,37.3590087890625,-79.8651123046875
1758184312.6312487,-0.6025390625,-0.123046875,0.7802734375,-0.30517578125,0.1220703125,0.8544921875,-9.68994140625,37.3590087890625,-79.8541259765625
1758184312.641266,-0.607421875,-0.12548828125,0.79296875,-1.220703125,0.18310546875,0.9765625,-9.6954345703125,37.364501953125,-79.837646484375
1758184312.6517854,-0.607421875,-0.12548828125,0.79296875,-1.220703125,0.18310546875,0.9765625,-9.700927734375,37.364501953125,-79.8211669921875
1758184312.6613235,-0.60302734375,-0.13232421875,0.78466796875,-2.86865234375,0.30517578125,1.220703125,-9.7174072265625,37.3699951171875,-79.8046875
1758184312.6713767,-0.60302734375,-0.13232421875,0.78466796875,-2.86865234375,0.30517578125,1.220703125,-9.7393798828125,37.37548828125,-79.7882080078125
1758184312.6816695,-0.6015625,-0.13427734375,0.78662109375,-3.60107421875,0.30517578125,1.0986328125,-9.766845703125,37.37548828125,-79.771728515625
1758184312.6914265,-0.6015625,-0.13427734375,0.78662109375,-3.60107421875,0.30517578125,1.0986328125,-9.7943115234375,37.3809814453125,-79.7607421875
1758184312.701354,-0.6025390625,-0.1416015625,0.7841796875,-2.25830078125,0.3662109375,1.28173828125,-9.8052978515625,37.386474609375,-79.7442626953125
1758184312.7115338,-0.6025390625,-0.1416015625,0.7841796875,-2.25830078125,0.3662109375,1.28173828125,-9.8162841796875,37.3919677734375,-79.727783203125
1758184312.7218575,-0.6015625,-0.14697265625,0.7861328125,0.6103515625,0.54931640625,1.220703125,-9.7998046875,37.3974609375,-79.7113037109375
1758184312.7313666,-0.6015625,-0.14697265625,0.7861328125,0.6103515625,0.54931640625,1.220703125,-9.788818359375,37.4029541015625,-79.69482421875
1758184312.7414014,-0.60009765625,-0.14208984375,0.787109375,2.13623046875,0.54931640625,1.28173828125,-9.755859375,37.408447265625,-79.683837890625
1758184312.7518413,-0.60009765625,-0.14208984375,0.787109375,2.13623046875,0.54931640625,1.28173828125,-9.7283935546875,37.4139404296875,-79.6673583984375
1758184312.7613926,-0.59765625,-0.1357421875,0.78515625,2.25830078125,0.30517578125,1.28173828125,-9.700927734375,37.4139404296875,-79.6563720703125
1758184312.7714713,-0.59765625,-0.1357421875,0.78515625,2.25830078125,0.30517578125,1.28173828125,-9.66796875,37.41943359375,-79.639892578125
1758184312.782131,-0.60205078125,-0.13427734375,0.783203125,2.44140625,0.18310546875,1.3427734375,-9.635009765625,37.41943359375,-79.6234130859375
1758184312.7917929,-0.60205078125,-0.13427734375,0.783203125,2.44140625,0.18310546875,1.3427734375,-9.60205078125,37.41943359375,-79.60693359375
1758184312.8014836,-0.6025390625,-0.130859375,0.78515625,2.99072265625,0.1220703125,1.46484375,-9.5635986328125,37.4249267578125,-79.5904541015625
1758184312.8115392,-0.6025390625,-0.130859375,0.78515625,2.99072265625,0.1220703125,1.46484375,-9.525146484375,37.4249267578125,-79.573974609375
1758184312.8219986,-0.6044921875,-0.1298828125,0.77783203125,4.5166015625,0.06103515625,1.28173828125,-9.47021484375,37.4249267578125,-79.5574951171875
1758184312.8319287,-0.6044921875,-0.1298828125,0.77783203125,4.5166015625,0.06103515625,1.28173828125,-9.4207763671875,37.4249267578125,-79.541015625
1758184312.8414948,-0.60302734375,-0.1376953125,0.7734375,4.2724609375,0.0,1.3427734375,-9.3658447265625,37.4249267578125,-79.530029296875
1758184312.8515866,-0.60302734375,-0.1376953125,0.7734375,4.2724609375,0.0,1.3427734375,-9.31640625,37.430419921875,-79.5135498046875
1758184312.862165,-0.60302734375,-0.10986328125,0.81884765625,1.52587890625,0.3662109375,1.0986328125,-9.29443359375,37.430419921875,-79.5025634765625
1758184312.8716202,-0.60302734375,-0.10986328125,0.81884765625,1.52587890625,0.3662109375,1.0986328125,-9.2724609375,37.4359130859375,-79.486083984375
1758184312.8816314,-0.60302734375,-0.11376953125,0.7685546875,2.01416015625,0.0,1.708984375,-9.239501953125,37.4359130859375,-79.464111328125
1758184312.8917866,-0.60302734375,-0.11376953125,0.7685546875,2.01416015625,0.0,1.708984375,-9.20654296875,37.4359130859375,-79.442138671875
1758184312.9016645,-0.603515625,-0.12939453125,0.7578125,0.06103515625,0.0,1.5869140625,-9.195556640625,37.4359130859375,-79.420166015625
1758184312.911682,-0.603515625,-0.12939453125,0.7578125,0.06103515625,0.0,1.5869140625,-9.1845703125,37.44140625,-79.4036865234375
1758184312.922104,-0.62841796875,-0.123046875,0.79638671875,-2.86865234375,-0.244140625,1.64794921875,-9.2010498046875,37.44140625,-79.3817138671875
1758184312.9319358,-0.62841796875,-0.123046875,0.79638671875,-2.86865234375,-0.244140625,1.64794921875,-9.217529296875,37.44140625,-79.3597412109375
1758184312.9417617,-0.61083984375,-0.119140625,0.77880859375,-0.79345703125,0.0,1.64794921875,-9.2120361328125,37.44140625,-79.3377685546875
1758184312.9517071,-0.61083984375,-0.119140625,0.77880859375,-0.79345703125,0.0,1.64794921875,-9.20654296875,37.4468994140625,-79.3157958984375
1758184312.9623656,-0.609375,-0.1279296875,0.77197265625,-0.91552734375,-0.244140625,1.64794921875,-9.2010498046875,37.4468994140625,-79.2938232421875
1758184312.971684,-0.609375,-0.1279296875,0.77197265625,-0.91552734375,-0.244140625,1.64794921875,-9.2010498046875,37.4468994140625,-79.27734375
1758184312.9824455,-0.6171875,-0.1279296875,0.7900390625,-2.5634765625,0.0,1.77001953125,-9.2120361328125,37.452392578125,-79.25537109375
1758184312.9919355,-0.619140625,-0.12451171875,0.7734375,-3.41796875,0.1220703125,1.77001953125,-9.228515625,37.452392578125,-79.2333984375
1758184313.0017247,-0.619140625,-0.12451171875,0.7734375,-3.41796875,0.1220703125,1.77001953125,-9.2449951171875,37.4578857421875,-79.21142578125
1758184313.0118504,-0.61865234375,-0.123046875,0.779296875,-2.50244140625,0.18310546875,1.64794921875,-9.261474609375,37.4688720703125,-79.189453125
1758184313.0222442,-0.61865234375,-0.123046875,0.779296875,-2.50244140625,0.18310546875,1.64794921875,-9.2779541015625,37.474365234375,-79.1729736328125
1758184313.031782,-0.62353515625,-0.12255859375,0.77685546875,-3.0517578125,0.244140625,1.52587890625,-9.2889404296875,37.4798583984375,-79.1510009765625
1758184313.0417747,-0.62353515625,-0.12255859375,0.77685546875,-3.0517578125,0.244140625,1.52587890625,-9.3109130859375,37.4853515625,-79.134521484375
1758184313.0522525,-0.61865234375,-0.12158203125,0.7705078125,-3.662109375,0.30517578125,1.40380859375,-9.3328857421875,37.496337890625,-79.1180419921875
1758184313.061867,-0.61865234375,-0.12158203125,0.7705078125,-3.662109375,0.30517578125,1.40380859375,-9.3548583984375,37.5018310546875,-79.1015625
1758184313.0718546,-0.619140625,-0.12646484375,0.7763671875,-4.57763671875,0.42724609375,1.46484375,-9.38232421875,37.5128173828125,-79.07958984375
1758184313.0819032,-0.619140625,-0.12646484375,0.7763671875,-4.57763671875,0.42724609375,1.46484375,-9.415283203125,37.518310546875,-79.0631103515625
1758184313.0923922,-0.623046875,-0.12890625,0.77392578125,-4.82177734375,0.6103515625,1.46484375,-9.4537353515625,37.529296875,-79.046630859375
1758184313.1018822,-0.623046875,-0.12890625,0.77392578125,-4.82177734375,0.6103515625,1.46484375,-9.4866943359375,37.5457763671875,-79.0301513671875
1758184313.1120129,-0.625,-0.13525390625,0.7734375,-3.2958984375,0.9765625,1.3427734375,-9.5196533203125,37.5567626953125,-79.013671875
1758184313.1222901,-0.625,-0.13525390625,0.7734375,-3.2958984375,0.9765625,1.3427734375,-9.5416259765625,37.5732421875,-78.9971923828125
1758184313.1321034,-0.61865234375,-0.1357421875,0.76806640625,-1.46484375,1.0986328125,1.15966796875,-9.5526123046875,37.5897216796875,-78.9862060546875
1758184313.141885,-0.61865234375,-0.1357421875,0.76806640625,-1.46484375,1.0986328125,1.15966796875,-9.55810546875,37.606201171875,-78.9752197265625
1758184313.1519432,-0.60107421875,-0.13427734375,0.7900390625,-2.8076171875,1.64794921875,0.91552734375,-9.5745849609375,37.6226806640625,-78.9642333984375
1758184313.1625628,-0.60107421875,-0.13427734375,0.7900390625,-2.8076171875,1.64794921875,0.91552734375,-9.5965576171875,37.6446533203125,-78.958740234375
1758184313.1720426,-0.6162109375,-0.1142578125,0.79638671875,-2.8076171875,1.953125,0.9765625,-9.6185302734375,37.6666259765625,-78.94775390625
1758184313.18204,-0.6162109375,-0.1142578125,0.79638671875,-2.8076171875,1.953125,0.9765625,-9.6405029296875,37.6885986328125,-78.9422607421875
1758184313.1923397,-0.60791015625,-0.13671875,0.7548828125,-1.15966796875,1.77001953125,0.91552734375,-9.6514892578125,37.7105712890625,-78.9312744140625
1758184313.2020974,-0.60791015625,-0.13671875,0.7548828125,-1.15966796875,1.77001953125,0.91552734375,-9.656982421875,37.72705078125,-78.9202880859375
1758184313.2121515,-0.62744140625,-0.13720703125,0.78955078125,-2.0751953125,1.953125,0.91552734375,-9.66796875,37.7490234375,-78.914794921875
1758184313.2220507,-0.62744140625,-0.13720703125,0.78955078125,-2.0751953125,1.953125,0.91552734375,-9.6844482421875,37.77099609375,-78.9093017578125
1758184313.232505,-0.61279296875,-0.12939453125,0.7734375,-1.89208984375,2.197265625,0.67138671875,-9.700927734375,37.79296875,-78.90380859375
1758184313.242028,-0.61279296875,-0.12939453125,0.7734375,-1.89208984375,2.197265625,0.67138671875,-9.7119140625,37.8204345703125,-78.8983154296875
1758184313.2521982,-0.61181640625,-0.13525390625,0.77294921875,-0.1220703125,1.953125,0.54931640625,-9.722900390625,37.8424072265625,-78.892822265625
1758184313.262512,-0.61181640625,-0.13525390625,0.77294921875,-0.1220703125,1.953125,0.54931640625,-9.7174072265625,37.8643798828125,-78.892822265625
1758184313.2721183,-0.61865234375,-0.13916015625,0.78515625,1.953125,1.953125,0.3662109375,-9.7064208984375,37.880859375,-78.8873291015625
1758184313.2820644,-0.61865234375,-0.13916015625,0.78515625,1.953125,1.953125,0.3662109375,-9.68994140625,37.90283203125,-78.8873291015625
1758184313.2921789,-0.6171875,-0.13037109375,0.76513671875,0.732421875,1.77001953125,0.30517578125,-9.6734619140625,37.9248046875,-78.8873291015625
1758184313.3024895,-0.6171875,-0.13037109375,0.76513671875,0.732421875,1.77001953125,0.30517578125,-9.66796875,37.9412841796875,-78.8873291015625
1758184313.312355,-0.62109375,-0.12255859375,0.77001953125,-0.1220703125,1.40380859375,0.18310546875,-9.6624755859375,37.957763671875,-78.8873291015625
1758184313.322207,-0.62109375,-0.12255859375,0.77001953125,-0.1220703125,1.40380859375,0.18310546875,-9.66796875,37.9742431640625,-78.8873291015625
1758184313.33226,-0.61962890625,-0.126953125,0.77685546875,-0.79345703125,1.220703125,0.30517578125,-9.66796875,37.9852294921875,-78.8873291015625
1758184313.3425357,-0.61962890625,-0.126953125,0.77685546875,-0.79345703125,1.220703125,0.30517578125,-9.6734619140625,38.001708984375,-78.8873291015625
1758184313.3522635,-0.61572265625,-0.1357421875,0.7734375,-1.46484375,1.03759765625,0.30517578125,-9.6844482421875,38.0126953125,-78.8818359375
1758184313.3623374,-0.61572265625,-0.1357421875,0.7734375,-1.46484375,1.03759765625,0.30517578125,-9.6954345703125,38.023681640625,-78.8818359375
1758184313.3723395,-0.6181640625,-0.13623046875,0.77587890625,-0.9765625,0.9765625,0.30517578125,-9.7064208984375,38.03466796875,-78.8818359375
1758184313.382601,-0.6181640625,-0.13623046875,0.77587890625,-0.9765625,0.9765625,0.30517578125,-9.7174072265625,38.045654296875,-78.8763427734375
1758184313.3927107,-0.61572265625,-0.13525390625,0.77734375,0.30517578125,1.03759765625,0.244140625,-9.7174072265625,38.056640625,-78.8763427734375
1758184313.4040935,-0.61572265625,-0.13525390625,0.77734375,0.30517578125,1.03759765625,0.244140625,-9.7174072265625,38.067626953125,-78.8763427734375
1758184313.4134572,-0.61083984375,-0.13232421875,0.7744140625,0.1220703125,0.91552734375,0.244140625,-9.7119140625,38.07861328125,-78.8763427734375
1758184313.4222891,-0.61083984375,-0.13232421875,0.7744140625,0.1220703125,0.91552734375,0.244140625,-9.7119140625,38.089599609375,-78.8763427734375
1758184313.432636,-0.6083984375,-0.1298828125,0.78466796875,-1.03759765625,0.8544921875,0.48828125,-9.7119140625,38.0950927734375,-78.870849609375
1758184313.4424367,-0.6083984375,-0.1298828125,0.78466796875,-1.03759765625,0.8544921875,0.48828125,-9.722900390625,38.1060791015625,-78.870849609375
1758184313.4533246,-0.60546875,-0.12939453125,0.78515625,-2.197265625,0.79345703125,0.6103515625,-9.73388671875,38.111572265625,-78.8653564453125
1758184313.4623673,-0.60546875,-0.12939453125,0.78515625,-2.197265625,0.79345703125,0.6103515625,-9.7503662109375,38.12255859375,-78.8543701171875
1758184313.472627,-0.60498046875,-0.12841796875,0.78369140625,-3.0517578125,0.67138671875,0.54931640625,-9.7723388671875,38.1280517578125,-78.848876953125
1758184313.483471,-0.60498046875,-0.12841796875,0.78369140625,-3.0517578125,0.67138671875,0.54931640625,-9.7998046875,38.133544921875,-78.8433837890625
1758184313.4931958,-0.60986328125,-0.13134765625,0.7783203125,-3.35693359375,0.54931640625,0.48828125,-9.8272705078125,38.133544921875,-78.8323974609375
1758184313.5023956,-0.60986328125,-0.13134765625,0.7783203125,-3.35693359375,0.54931640625,0.48828125,-9.854736328125,38.1390380859375,-78.826904296875
1758184313.5124812,-0.609375,-0.13134765625,0.77880859375,-3.35693359375,0.42724609375,0.48828125,-9.8822021484375,38.14453125,-78.81591796875
1758184313.5238402,-0.609375,-0.13134765625,0.77880859375,-3.35693359375,0.42724609375,0.48828125,-9.90966796875,38.14453125,-78.8104248046875
1758184313.5325725,-0.611328125,-0.1357421875,0.78173828125,-3.0517578125,0.54931640625,0.42724609375,-9.9371337890625,38.1500244140625,-78.804931640625
1758184313.5425153,-0.611328125,-0.1357421875,0.78173828125,-3.0517578125,0.54931640625,0.42724609375,-9.964599609375,38.1500244140625,-78.7939453125
1758184313.5536914,-0.60986328125,-0.13818359375,0.77783203125,-3.7841796875,0.6103515625,0.42724609375,-9.9920654296875,38.155517578125,-78.7884521484375
1758184313.5637414,-0.60986328125,-0.13818359375,0.77783203125,-3.7841796875,0.6103515625,0.42724609375,-10.0250244140625,38.1610107421875,-78.782958984375
1758184313.5725253,-0.60693359375,-0.1357421875,0.78125,-4.33349609375,0.6103515625,0.67138671875,-10.0579833984375,38.1610107421875,-78.77197265625
1758184313.5832443,-0.60693359375,-0.1357421875,0.78125,-4.33349609375,0.6103515625,0.67138671875,-10.096435546875,38.16650390625,-78.7664794921875
1758184313.5935004,-0.6025390625,-0.1337890625,0.78271484375,-5.06591796875,0.732421875,0.79345703125,-10.1348876953125,38.1719970703125,-78.7554931640625
1758184313.602892,-0.6025390625,-0.1337890625,0.78271484375,-5.06591796875,0.732421875,0.79345703125,-10.1788330078125,38.177490234375,-78.739013671875
1758184313.6125097,-0.6083984375,-0.14013671875,0.77880859375,-4.94384765625,0.8544921875,0.79345703125,-10.2227783203125,38.1829833984375,-78.72802734375
1758184313.6236784,-0.6083984375,-0.14013671875,0.77880859375,-4.94384765625,0.8544921875,0.79345703125,-10.26123046875,38.1884765625,-78.717041015625
1758184313.6327264,-0.60595703125,-0.14111328125,0.7802734375,-3.173828125,0.91552734375,0.79345703125,-10.294189453125,38.1939697265625,-78.7060546875
1758184313.642958,-0.60595703125,-0.14111328125,0.7802734375,-3.173828125,0.91552734375,0.79345703125,-10.3216552734375,38.199462890625,-78.695068359375
1758184313.6528795,-0.60595703125,-0.14306640625,0.78125,-3.23486328125,0.9765625,0.9765625,-10.3436279296875,38.21044921875,-78.68408203125
1758184313.6637511,-0.60595703125,-0.14306640625,0.78125,-3.23486328125,0.9765625,0.9765625,-10.3656005859375,38.2159423828125,-78.673095703125
1758184313.6726315,-0.60986328125,-0.1435546875,0.78076171875,-4.45556640625,0.9765625,0.91552734375,-10.3985595703125,38.221435546875,-78.662109375
1758184313.6834147,-0.60986328125,-0.1435546875,0.78076171875,-4.45556640625,0.9765625,0.91552734375,-10.4315185546875,38.2269287109375,-78.651123046875
1758184313.6931849,-0.6044921875,-0.14404296875,0.779296875,-4.5166015625,0.79345703125,1.220703125,-10.469970703125,38.232421875,-78.64013671875
1758184313.7032743,-0.6044921875,-0.14404296875,0.779296875,-4.5166015625,0.79345703125,1.220703125,-10.5029296875,38.2379150390625,-78.6236572265625
1758184313.71261,-0.60888671875,-0.14599609375,0.775390625,-3.41796875,0.91552734375,1.220703125,-10.535888671875,38.2489013671875,-78.607177734375
1758184313.723479,-0.60888671875,-0.14599609375,0.775390625,-3.41796875,0.91552734375,1.220703125,-10.557861328125,38.25439453125,-78.5906982421875
1758184313.7334876,-0.6083984375,-0.146484375,0.77734375,-3.173828125,0.8544921875,1.15966796875,-10.579833984375,38.2598876953125,-78.5797119140625
1758184313.7430232,-0.6083984375,-0.146484375,0.77734375,-3.173828125,0.8544921875,1.15966796875,-10.601806640625,38.265380859375,-78.563232421875
1758184313.752865,-0.60400390625,-0.14892578125,0.767578125,-3.41796875,0.8544921875,1.28173828125,-10.623779296875,38.2708740234375,-78.55224609375
1758184313.7639616,-0.60400390625,-0.14892578125,0.767578125,-3.41796875,0.8544921875,1.28173828125,-10.6512451171875,38.2763671875,-78.5357666015625
1758184313.7728908,-0.61669921875,-0.1396484375,0.77685546875,-3.90625,0.48828125,1.220703125,-10.6732177734375,38.2818603515625,-78.519287109375
1758184313.783256,-0.61669921875,-0.1396484375,0.77685546875,-3.90625,0.48828125,1.220703125,-10.7061767578125,38.287353515625,-78.5028076171875
1758184313.7934637,-0.61865234375,-0.14501953125,0.77587890625,-3.0517578125,0.6103515625,1.15966796875,-10.7281494140625,38.287353515625,-78.4918212890625
1758184313.803843,-0.61865234375,-0.14501953125,0.77587890625,-3.0517578125,0.6103515625,1.15966796875,-10.7501220703125,38.2928466796875,-78.475341796875
1758184313.8128095,-0.615234375,-0.1455078125,0.7646484375,-3.90625,0.6103515625,1.0986328125,-10.7720947265625,38.29833984375,-78.4588623046875
1758184313.8241315,-0.615234375,-0.1455078125,0.7646484375,-3.90625,0.6103515625,1.0986328125,-10.8050537109375,38.3038330078125,-78.4478759765625
1758184313.8330705,-0.615234375,-0.1455078125,0.7646484375,-4.39453125,0.54931640625,1.0986328125,-10.83251953125,38.309326171875,-78.431396484375
1758184313.8432486,-0.6123046875,-0.138671875,0.7744140625,-4.39453125,0.54931640625,1.0986328125,-10.8709716796875,38.3148193359375,-78.4149169921875
1758184313.8529856,-0.61279296875,-0.14453125,0.7724609375,-4.8828125,0.54931640625,1.0986328125,-10.9039306640625,38.3148193359375,-78.3984375
1758184313.8641152,-0.61279296875,-0.14453125,0.7724609375,-4.8828125,0.54931640625,1.0986328125,-10.9423828125,38.3203125,-78.387451171875
1758184313.8729193,-0.6201171875,-0.15478515625,0.76806640625,-5.55419921875,0.54931640625,1.0986328125,-10.986328125,38.3258056640625,-78.3709716796875
1758184313.8834307,-0.6201171875,-0.15478515625,0.76806640625,-5.55419921875,0.54931640625,1.0986328125,-11.0302734375,38.331298828125,-78.3544921875
1758184313.893434,-0.62158203125,-0.15673828125,0.77734375,-3.72314453125,0.48828125,1.15966796875,-11.063232421875,38.3367919921875,-78.3380126953125
1758184313.904381,-0.62158203125,-0.15673828125,0.77734375,-3.72314453125,0.48828125,1.15966796875,-11.0906982421875,38.34228515625,-78.321533203125
