timestamp,acc_x,acc_y,acc_z,gyro_x,gyro_y,gyro_z,angle_x,angle_y,angle_z
1758876131.7671132,-0.81494140625,-0.20703125,0.70068359375,-51.26953125,10.55908203125,48.2177734375,-12.557373046875,50.570068359375,78.673095703125
1758876131.777003,-0.80859375,-0.22705078125,0.63427734375,-32.3486328125,10.07080078125,46.69189453125,-12.4365234375,50.7568359375,79.3927001953125
1758876131.7872796,-0.80859375,-0.22705078125,0.63427734375,-32.3486328125,10.07080078125,46.69189453125,-12.2332763671875,50.9381103515625,80.101318359375
1758876131.7971616,-0.796875,-0.228515625,0.60498046875,-29.11376953125,9.27734375,45.47119140625,-12.0245361328125,51.1138916015625,80.8099365234375
1758876131.807034,-0.796875,-0.228515625,0.60498046875,-29.11376953125,9.27734375,45.47119140625,-11.79931640625,51.2841796875,81.5130615234375
1758876131.816943,-0.82666015625,-0.146484375,0.626953125,-40.52734375,8.7890625,43.02978515625,-11.6510009765625,51.4434814453125,82.19970703125
1758876131.8274858,-0.82666015625,-0.146484375,0.626953125,-40.52734375,8.7890625,43.02978515625,-11.568603515625,51.602783203125,82.880859375
1758876131.8368397,-0.7978515625,-0.0986328125,0.63330078125,-34.7900390625,8.72802734375,40.771484375,-11.4642333984375,51.756591796875,83.5400390625
1758876131.8466933,-0.7978515625,-0.0986328125,0.63330078125,-34.7900390625,8.72802734375,40.771484375,-11.3433837890625,51.910400390625,84.188232421875
1758876131.8566587,-0.82666015625,-0.08349609375,0.6796875,-6.7138671875,9.765625,38.02490234375,-11.09619140625,52.064208984375,84.8199462890625
1758876131.8656018,-0.82666015625,-0.08349609375,0.6796875,-6.7138671875,9.765625,38.02490234375,-10.7171630859375,52.218017578125,85.4296875
1758876131.8756042,-0.869140625,-0.10400390625,0.72119140625,5.79833984375,9.27734375,37.65869140625,-10.272216796875,52.3663330078125,86.0394287109375
1758876131.8859727,-0.869140625,-0.10400390625,0.72119140625,5.79833984375,9.27734375,37.65869140625,-9.766845703125,52.5091552734375,86.66015625
1758876131.8956623,-0.88623046875,-0.0888671875,0.69482421875,12.20703125,7.8125,38.0859375,-9.217529296875,52.6409912109375,87.286376953125
1758876131.905808,-0.88623046875,-0.0888671875,0.69482421875,12.20703125,7.8125,38.0859375,-8.6297607421875,52.7618408203125,87.923583984375
1758876131.915687,-0.85400390625,0.02099609375,0.6923828125,28.01513671875,6.8359375,40.1611328125,-7.943115234375,52.8717041015625,88.582763671875
1758876131.9257052,-0.85400390625,0.02099609375,0.6923828125,28.01513671875,6.8359375,40.1611328125,-7.1630859375,52.9815673828125,89.263916015625
1758876131.9357367,-0.79150390625,0.06689453125,0.732421875,17.08984375,6.103515625,41.50390625,-6.416015625,53.074951171875,89.9615478515625
1758876131.9461725,-0.79150390625,0.06689453125,0.732421875,17.08984375,6.103515625,41.50390625,-5.7073974609375,53.162841796875,90.68115234375
1758876131.955692,-0.76904296875,0.07958984375,0.7529296875,-11.53564453125,5.859375,43.9453125,-5.1141357421875,53.2452392578125,91.417236328125
1758876131.9657059,-0.76904296875,0.07958984375,0.7529296875,-11.53564453125,5.859375,43.9453125,-4.647216796875,53.316650390625,92.186279296875
1758876131.975704,-0.7412109375,0.09326171875,0.73974609375,-18.6767578125,5.06591796875,46.69189453125,-4.185791015625,53.382568359375,92.977294921875
1758876131.9857178,-0.7412109375,0.09326171875,0.73974609375,-18.6767578125,5.06591796875,46.69189453125,-3.7353515625,53.4375,93.7957763671875
1758876131.9957325,-0.69970703125,0.13330078125,0.75830078125,-41.68701171875,4.08935546875,51.20849609375,-3.36181640625,53.4814453125,94.6527099609375
1758876132.0057359,-0.69970703125,0.13330078125,0.75830078125,-41.68701171875,4.08935546875,51.20849609375,-3.065185546875,53.5198974609375,95.5535888671875
1758876132.015757,-0.6787109375,0.13671875,0.73291015625,-89.4775390625,2.9296875,55.6640625,-2.9718017578125,53.54736328125,96.492919921875
1758876132.0257754,-0.6787109375,0.13671875,0.73291015625,-89.4775390625,2.9296875,55.6640625,-3.0816650390625,53.5638427734375,97.470703125
1758876132.0357814,-0.6611328125,0.1171875,0.720703125,-96.98486328125,1.220703125,60.791015625,-3.1805419921875,53.5748291015625,98.4979248046875
1758876132.0458095,-0.6611328125,0.1171875,0.720703125,-96.98486328125,1.220703125,60.791015625,-3.2794189453125,53.580322265625,99.5635986328125
1758876132.0558197,-0.64208984375,0.12939453125,0.72412109375,-97.412109375,-0.244140625,65.12451171875,-3.3453369140625,53.5748291015625,100.6732177734375
1758876132.065837,-0.64208984375,0.12939453125,0.72412109375,-97.412109375,-0.244140625,65.12451171875,-3.3837890625,53.5638427734375,101.8157958984375
1758876132.0758328,-0.6357421875,0.13818359375,0.69287109375,-129.5166015625,-2.99072265625,68.90869140625,-3.548583984375,53.5418701171875,102.9913330078125
1758876132.0858476,-0.6357421875,0.13818359375,0.69287109375,-129.5166015625,-2.99072265625,68.90869140625,-3.8397216796875,53.50341796875,104.1998291015625
1758876132.095851,-0.61474609375,0.103515625,0.6337890625,-131.103515625,-5.06591796875,72.44873046875,-4.1143798828125,53.45947265625,105.435791015625
1758876132.1058745,-0.61474609375,0.103515625,0.6337890625,-131.103515625,-5.06591796875,72.44873046875,-4.3670654296875,53.41552734375,106.7047119140625
1758876132.1158788,-0.61865234375,0.109375,0.6298828125,-105.77392578125,-5.55419921875,75.927734375,-4.471435546875,53.3660888671875,108.0010986328125
1758876132.1258872,-0.61865234375,0.109375,0.6298828125,-105.77392578125,-5.55419921875,75.927734375,-4.4219970703125,53.3221435546875,109.3304443359375
1758876132.135899,-0.64501953125,0.11279296875,0.64404296875,-114.1357421875,-7.62939453125,78.125,-4.4000244140625,53.26171875,110.67626953125
1758876132.145917,-0.64501953125,0.11279296875,0.64404296875,-114.1357421875,-7.62939453125,78.125,-4.4110107421875,53.19580078125,112.03857421875
1758876132.1559198,-0.6474609375,0.09619140625,0.63232421875,-119.384765625,-10.07080078125,80.01708984375,-4.427490234375,53.1243896484375,113.4228515625
1758876132.1659684,-0.6474609375,0.09619140625,0.63232421875,-119.384765625,-10.07080078125,80.01708984375,-4.4659423828125,53.0364990234375,114.818115234375
1758876132.1767163,-0.658203125,0.076171875,0.583984375,-109.619140625,-12.51220703125,80.74951171875,-4.4439697265625,52.9376220703125,116.2188720703125
1758876132.1860266,-0.658203125,0.076171875,0.583984375,-109.619140625,-12.51220703125,80.74951171875,-4.3780517578125,52.833251953125,117.630615234375
1758876132.1959665,-0.63720703125,0.08544921875,0.55859375,-104.00390625,-12.5732421875,81.97021484375,-4.28466796875,52.7288818359375,119.0478515625
1758876132.2059956,-0.63720703125,0.08544921875,0.55859375,-104.00390625,-12.5732421875,81.97021484375,-4.15283203125,52.62451171875,120.47607421875
1758876132.2160413,-0.68310546875,0.09814453125,0.572265625,-121.58203125,-13.7939453125,82.1533203125,-4.2022705078125,52.5146484375,121.9097900390625
1758876132.2260375,-0.68310546875,0.09814453125,0.572265625,-121.58203125,-13.7939453125,82.1533203125,-4.251708984375,52.40478515625,123.343505859375
1758876132.2360377,-0.7294921875,0.078125,0.5625,-134.58251953125,-16.357421875,83.1298828125,-4.4219970703125,52.2784423828125,124.793701171875
1758876132.2460716,-0.7294921875,0.078125,0.5625,-134.58251953125,-16.357421875,83.1298828125,-4.5977783203125,52.1575927734375,126.2493896484375
1758876132.2560701,-0.7509765625,0.0537109375,0.53857421875,-113.22021484375,-18.6767578125,82.763671875,-4.5703125,52.0147705078125,127.705078125
1758876132.2662518,-0.7509765625,0.0537109375,0.53857421875,-113.22021484375,-18.6767578125,82.763671875,-4.54833984375,51.8829345703125,129.166259765625
1758876132.2760878,-0.7783203125,0.0595703125,0.5390625,-96.74072265625,-19.47021484375,82.1533203125,-4.37255859375,51.74560546875,130.616455078125
1758876132.2862353,-0.7783203125,0.0595703125,0.5390625,-96.74072265625,-19.47021484375,82.1533203125,-4.2132568359375,51.6082763671875,132.0721435546875
1758876132.296441,-0.80224609375,0.060546875,0.525390625,-108.0322265625,-21.17919921875,80.810546875,-4.185791015625,51.4544677734375,133.505859375
1758876132.3062968,-0.80224609375,0.060546875,0.525390625,-108.0322265625,-21.17919921875,80.810546875,-4.1693115234375,51.3116455078125,134.9505615234375
1758876132.316153,-0.81005859375,0.03369140625,0.47265625,-109.7412109375,-22.27783203125,78.67431640625,-4.207763671875,51.1578369140625,136.3623046875
1758876132.3263476,-0.81005859375,0.03369140625,0.47265625,-109.7412109375,-22.27783203125,78.67431640625,-4.251708984375,51.0150146484375,137.7850341796875
1758876132.336149,-0.7939453125,0.0146484375,0.4296875,-87.95166015625,-20.93505859375,76.2939453125,-4.1143798828125,50.8831787109375,139.1693115234375
1758876132.3462956,-0.7939453125,0.0146484375,0.4296875,-87.95166015625,-20.93505859375,76.2939453125,-3.9935302734375,50.7568359375,140.55908203125
1758876132.3562639,-0.83056640625,0.0244140625,0.42333984375,-74.5849609375,-19.04296875,72.93701171875,-3.790283203125,50.6524658203125,141.8939208984375
1758876132.3669233,-0.83056640625,0.0244140625,0.42333984375,-74.5849609375,-19.04296875,72.93701171875,-3.5980224609375,50.548095703125,143.23974609375
1758876132.3762586,-0.8564453125,0.0458984375,0.4189453125,-84.716796875,-17.88330078125,69.88525390625,-3.5540771484375,50.460205078125,144.5361328125
1758876132.3863719,-0.8564453125,0.0458984375,0.4189453125,-84.716796875,-17.88330078125,69.88525390625,-3.515625,50.372314453125,145.8380126953125
1758876132.3962762,-0.87109375,0.04833984375,0.40283203125,-100.341796875,-16.9677734375,67.44384765625,-3.66943359375,50.3009033203125,147.10693359375
1758876132.4127288,-0.87109375,0.04833984375,0.40283203125,-100.341796875,-16.9677734375,67.44384765625,-3.8287353515625,50.2349853515625,148.38134765625
1758876132.418838,-0.85400390625,0.037109375,0.3837890625,-106.201171875,-15.44189453125,65.0634765625,-4.075927734375,50.1910400390625,149.622802734375
1758876132.42627,-0.85400390625,0.037109375,0.3837890625,-106.201171875,-15.44189453125,65.0634765625,-4.32861328125,50.152587890625,150.8697509765625
1758876132.4426992,-0.86279296875,0.0263671875,0.380859375,-95.3369140625,-14.0380859375,62.3779296875,-4.515380859375,50.130615234375,152.07275390625
1758876132.4492488,-0.86279296875,0.0263671875,0.380859375,-95.3369140625,-14.0380859375,62.3779296875,-4.6966552734375,50.1141357421875,153.28125
1758876132.456422,-0.87060546875,0.0244140625,0.38671875,-70.98388671875,-13.12255859375,60.6689453125,-4.6636962890625,50.108642578125,154.4622802734375
1758876132.4664562,-0.87060546875,0.0244140625,0.38671875,-70.98388671875,-13.12255859375,60.6689453125,-4.63623046875,50.108642578125,155.643310546875
1758876132.4827924,-0.87060546875,0.0244140625,0.38671875,-55.23681640625,-12.02392578125,59.02099609375,-4.471435546875,50.1141357421875,156.8023681640625
1758876132.4901307,-0.86328125,0.03466796875,0.3837890625,-55.23681640625,-12.02392578125,59.02099609375,-4.306640625,50.1251220703125,157.96142578125
1758876132.4964263,-0.8798828125,0.0361328125,0.3798828125,-62.01171875,-10.68115234375,57.55615234375,-4.2352294921875,50.1416015625,159.093017578125
1758876132.506476,-0.8798828125,0.0361328125,0.3798828125,-62.01171875,-10.68115234375,57.55615234375,-4.163818359375,50.16357421875,160.2301025390625
1758876132.5166547,-0.90087890625,0.02978515625,0.361328125,-77.81982421875,-8.85009765625,55.419921875,-4.2791748046875,50.20751953125,161.3287353515625
1758876132.5264118,-0.90087890625,0.02978515625,0.361328125,-77.81982421875,-8.85009765625,55.419921875,-4.4000244140625,50.2459716796875,162.4273681640625
1758876132.5364547,-0.9248046875,0.01806640625,0.35400390625,-88.56201171875,-6.591796875,52.79541015625,-4.658203125,50.3173828125,163.487548828125
1758876132.5464725,-0.9248046875,0.01806640625,0.35400390625,-88.56201171875,-6.591796875,52.79541015625,-4.910888671875,50.3887939453125,164.542236328125
1758876132.5567298,-1.10693359375,-0.056640625,0.43212890625,-89.05029296875,-5.4931640625,48.64501953125,-5.2294921875,50.47119140625,165.531005859375
1758876132.5664666,-1.10693359375,-0.056640625,0.43212890625,-89.05029296875,-5.4931640625,48.64501953125,-5.548095703125,50.55908203125,166.519775390625
1758876132.5764818,-1.615234375,-0.42529296875,1.43896484375,-114.2578125,-19.22607421875,39.9169921875,-6.207275390625,50.4876708984375,167.3712158203125
1758876132.5869064,-1.615234375,-0.42529296875,1.43896484375,-114.2578125,-19.22607421875,39.9169921875,-6.866455078125,50.3997802734375,168.2061767578125
1758876132.5965614,-1.08349609375,-0.498046875,0.939453125,-74.8291015625,-21.6064453125,40.58837890625,-7.1246337890625,50.284423828125,169.03564453125
1758876132.606552,-1.08349609375,-0.498046875,0.939453125,-74.8291015625,-21.6064453125,40.58837890625,-7.3992919921875,50.1580810546875,169.8541259765625
1758876132.6165595,-0.7900390625,-0.1396484375,0.26416015625,15.93017578125,-24.96337890625,34.85107421875,-6.83349609375,49.998779296875,170.5792236328125
1758876132.6266139,-0.7900390625,-0.1396484375,0.26416015625,15.93017578125,-24.96337890625,34.85107421875,-6.2896728515625,49.833984375,171.3043212890625
1758876132.6365798,-0.7353515625,0.0048828125,0.23095703125,42.236328125,-15.7470703125,28.50341796875,-5.570068359375,49.757080078125,171.9085693359375
1758876132.6466932,-0.7353515625,0.0048828125,0.23095703125,42.236328125,-15.7470703125,28.50341796875,-4.8614501953125,49.6856689453125,172.518310546875
1758876132.6565847,-0.69677734375,-0.0107421875,0.22216796875,-0.67138671875,-11.474609375,24.4140625,-4.63623046875,49.6527099609375,173.056640625
1758876132.6672769,-0.69677734375,-0.0107421875,0.22216796875,-0.67138671875,-11.474609375,24.4140625,-4.4110107421875,49.625244140625,173.6004638671875
1758876132.6766756,-0.69091796875,-0.0283203125,0.17919921875,-42.3583984375,-4.94384765625,18.49365234375,-4.68017578125,49.658203125,174.04541015625
1758876132.6866887,-0.69091796875,-0.0283203125,0.17919921875,-42.3583984375,-4.94384765625,18.49365234375,-4.9493408203125,49.7021484375,174.495849609375
1758876132.6967068,-0.9150390625,0.0517578125,0.478515625,-28.50341796875,-4.82177734375,16.78466796875,-5.0921630859375,49.74609375,174.92431640625
1758876132.706743,-0.9150390625,0.0517578125,0.478515625,-28.50341796875,-4.82177734375,16.78466796875,-5.2239990234375,49.7955322265625,175.3582763671875
1758876132.7166991,-1.25732421875,0.17578125,1.2255859375,24.2919921875,-6.8359375,13.73291015625,-4.8504638671875,49.8065185546875,175.75927734375
1758876132.7266545,-1.25732421875,0.17578125,1.2255859375,24.2919921875,-6.8359375,13.73291015625,-4.449462890625,49.8065185546875,176.1712646484375
1758876132.736709,-0.94287109375,-0.0341796875,0.8642578125,39.97802734375,-9.27734375,13.18359375,-3.900146484375,49.7735595703125,176.572265625
1758876132.7471836,-0.94287109375,-0.0341796875,0.8642578125,39.97802734375,-9.27734375,13.18359375,-3.3453369140625,49.7296142578125,176.9677734375
1758876132.7566845,-0.779296875,-0.12158203125,0.23681640625,53.16162109375,-12.451171875,10.80322265625,-2.6971435546875,49.6527099609375,177.3193359375
1758876132.7666888,-0.779296875,-0.12158203125,0.23681640625,53.16162109375,-12.451171875,10.80322265625,-2.0599365234375,49.5867919921875,177.6654052734375
1758876132.776735,-0.8310546875,-0.08447265625,0.35693359375,51.3916015625,-9.21630859375,7.38525390625,-1.494140625,49.54833984375,177.945556640625
1758876132.7870646,-0.8310546875,-0.08447265625,0.35693359375,51.3916015625,-9.21630859375,7.38525390625,-0.9393310546875,49.515380859375,178.22021484375
1758876132.7967107,-0.81640625,0.1201171875,0.591796875,28.62548828125,-8.60595703125,5.859375,-0.6207275390625,49.482421875,178.4783935546875
1758876132.806768,-0.81640625,0.1201171875,0.591796875,28.62548828125,-8.60595703125,5.859375,-0.296630859375,49.449462890625,178.736572265625
1758876132.8170068,-0.79052734375,0.2099609375,0.7041015625,7.4462890625,-8.85009765625,4.39453125,-0.1922607421875,49.41650390625,178.978271484375
1758876132.8267908,-0.79052734375,0.2099609375,0.7041015625,7.4462890625,-8.85009765625,4.39453125,-0.076904296875,49.37255859375,179.2254638671875
1758876132.8367481,-0.767578125,0.123046875,0.640625,-13.36669921875,-9.6435546875,3.90625,-0.164794921875,49.3231201171875,179.47265625
1758876132.846811,-0.767578125,0.123046875,0.640625,-13.36669921875,-9.6435546875,3.90625,-0.2471923828125,49.2681884765625,179.7198486328125
1758876132.857095,-0.72607421875,0.03759765625,0.6181640625,-30.57861328125,-9.27734375,3.11279296875,-0.50537109375,49.2132568359375,179.9560546875
1758876132.8668818,-0.72607421875,0.03759765625,0.6181640625,-30.57861328125,-9.27734375,3.11279296875,-0.7635498046875,49.1583251953125,-179.8077392578125
1758876132.8768132,-0.736328125,-0.00146484375,0.69091796875,-38.6962890625,-8.9111328125,2.74658203125,-1.1041259765625,49.1033935546875,-179.58251953125
1758876132.8868487,-0.736328125,-0.00146484375,0.69091796875,-38.6962890625,-8.9111328125,2.74658203125,-1.439208984375,49.04296875,-179.36279296875
1758876132.8973076,-0.70361328125,-0.01611328125,0.7529296875,-33.935546875,-8.36181640625,2.13623046875,-1.73583984375,48.988037109375,-179.154052734375
1758876132.906892,-0.70361328125,-0.01611328125,0.7529296875,-33.935546875,-8.36181640625,2.13623046875,-2.0269775390625,48.922119140625,-178.9508056640625
1758876132.916901,-0.68994140625,-0.0498046875,0.72900390625,-17.578125,-8.056640625,0.9765625,-2.1697998046875,48.856201171875,-178.76953125
1758876132.9271638,-0.68994140625,-0.0498046875,0.72900390625,-17.578125,-8.056640625,0.9765625,-2.3126220703125,48.7847900390625,-178.59375
1758876132.9368868,-0.712890625,-0.04736328125,0.71728515625,-7.50732421875,-7.080078125,0.0,-2.3675537109375,48.724365234375,-178.4344482421875
1758876132.9468954,-0.712890625,-0.04736328125,0.71728515625,-7.50732421875,-7.080078125,0.0,-2.427978515625,48.658447265625,-178.2806396484375
1758876132.9568589,-0.734375,-0.0556640625,0.66015625,0.9765625,-6.77490234375,0.06103515625,-2.4005126953125,48.592529296875,-178.1268310546875
1758876132.9673772,-0.734375,-0.0556640625,0.66015625,0.9765625,-6.77490234375,0.06103515625,-2.3785400390625,48.526611328125,-177.978515625
1758876132.97693,-0.75537109375,-0.02099609375,0.6591796875,4.2724609375,-6.34765625,0.06103515625,-2.3236083984375,48.4661865234375,-177.8302001953125
1758876132.9869778,-0.75537109375,-0.02099609375,0.6591796875,4.2724609375,-6.34765625,0.06103515625,-2.274169921875,48.40576171875,-177.681884765625
1758876132.9973376,-0.77734375,-0.00439453125,0.66259765625,4.21142578125,-5.43212890625,0.244140625,-2.21923828125,48.3563232421875,-177.5335693359375
1758876133.0070193,-0.77734375,-0.00439453125,0.66259765625,4.21142578125,-5.43212890625,0.244140625,-2.164306640625,48.306884765625,-177.38525390625
1758876133.0170434,-0.77197265625,0.013671875,0.630859375,2.01416015625,-4.39453125,-0.244140625,-2.1368408203125,48.2684326171875,-177.242431640625
1758876133.0270052,-0.77197265625,0.013671875,0.630859375,2.01416015625,-4.39453125,-0.244140625,-2.1148681640625,48.22998046875,-177.099609375
1758876133.0374558,-0.748046875,0.037109375,0.6533203125,-0.732421875,-3.23486328125,-1.708984375,-2.1258544921875,48.2025146484375,-176.978759765625
1758876133.047089,-0.748046875,0.037109375,0.6533203125,-0.732421875,-3.23486328125,-1.708984375,-2.142333984375,48.1805419921875,-176.8524169921875
1758876133.0570207,-0.7294921875,0.037109375,0.69970703125,-5.55419921875,-2.44140625,-2.99072265625,-2.21923828125,48.1585693359375,-176.748046875
1758876133.0672092,-0.7294921875,0.037109375,0.69970703125,-5.55419921875,-2.44140625,-2.99072265625,-2.2906494140625,48.14208984375,-176.63818359375
1758876133.077162,-0.7265625,-0.00244140625,0.68408203125,-7.568359375,-2.13623046875,-3.90625,-2.3895263671875,48.1256103515625,-176.55029296875
1758876133.0878546,-0.7265625,-0.00244140625,0.68408203125,-7.568359375,-2.13623046875,-3.90625,-2.4884033203125,48.1036376953125,-176.4569091796875
1758876133.0972774,-0.74365234375,-0.01904296875,0.65380859375,-8.60595703125,-2.38037109375,-4.39453125,-2.6092529296875,48.0816650390625,-176.37451171875
1758876133.1075006,-0.74365234375,-0.01904296875,0.65380859375,-8.60595703125,-2.38037109375,-4.39453125,-2.724609375,48.0596923828125,-176.297607421875
1758876133.1170847,-0.73095703125,-0.0185546875,0.66064453125,-11.1083984375,-2.13623046875,-4.45556640625,-2.867431640625,48.043212890625,-176.2152099609375
1758876133.1271026,-0.73095703125,-0.0185546875,0.66064453125,-11.1083984375,-2.13623046875,-4.45556640625,-3.01025390625,48.021240234375,-176.1383056640625
1758876133.137125,-0.716796875,-0.017578125,0.7001953125,-11.53564453125,-1.953125,-4.7607421875,-3.1640625,47.999267578125,-176.06689453125
1758876133.1476183,-0.716796875,-0.017578125,0.7001953125,-11.53564453125,-1.953125,-4.7607421875,-3.3123779296875,47.9827880859375,-175.9954833984375
1758876133.1571531,-0.712890625,-0.0244140625,0.7041015625,-7.9345703125,-2.5634765625,-5.7373046875,-3.4332275390625,47.9498291015625,-175.9405517578125
1758876133.1671584,-0.712890625,-0.0244140625,0.7041015625,-7.9345703125,-2.5634765625,-5.7373046875,-3.5595703125,47.92236328125,-175.8856201171875
1758876133.1771517,-0.7275390625,-0.03955078125,0.6875,-1.52587890625,-3.60107421875,-6.7138671875,-3.62548828125,47.87841796875,-175.8416748046875
1758876133.1876206,-0.7275390625,-0.03955078125,0.6875,-1.52587890625,-3.60107421875,-6.7138671875,-3.6968994140625,47.8399658203125,-175.80322265625
1758876133.1971605,-0.708984375,-0.048828125,0.658203125,5.06591796875,-5.37109375,-7.6904296875,-3.71337890625,47.779541015625,-175.78125
1758876133.2126245,-0.708984375,-0.048828125,0.658203125,5.06591796875,-5.37109375,-7.6904296875,-3.7298583984375,47.7191162109375,-175.7537841796875
1758876133.2209523,-0.6845703125,-0.02880859375,0.68310546875,4.0283203125,-7.75146484375,-8.60595703125,-3.768310546875,47.6312255859375,-175.7427978515625
1758876133.227703,-0.6953125,0.0068359375,0.736328125,2.74658203125,-9.94873046875,-10.1318359375,-3.8177490234375,47.537841796875,-175.7427978515625
1758876133.2383337,-0.6953125,0.0068359375,0.736328125,2.74658203125,-9.94873046875,-10.1318359375,-3.8726806640625,47.4224853515625,-175.7537841796875
1758876133.2472796,-0.67626953125,-0.00439453125,0.71826171875,4.33349609375,-11.23046875,-11.53564453125,-3.93310546875,47.30712890625,-175.770263671875
1758876133.257253,-0.67626953125,-0.00439453125,0.71826171875,4.33349609375,-11.23046875,-11.53564453125,-3.988037109375,47.1807861328125,-175.7977294921875
1758876133.2685578,-0.65673828125,-0.0078125,0.7294921875,3.7841796875,-11.04736328125,-12.39013671875,-4.0484619140625,47.054443359375,-175.836181640625
1758876133.2773254,-0.65673828125,-0.0078125,0.7294921875,3.7841796875,-11.04736328125,-12.39013671875,-4.1143798828125,46.9281005859375,-175.8746337890625
1758876133.2873473,-0.634765625,-0.01806640625,0.96484375,1.5869140625,-11.41357421875,-12.87841796875,-4.185791015625,46.7962646484375,-175.9185791015625
1758876133.297403,-0.634765625,-0.01806640625,0.96484375,1.5869140625,-11.41357421875,-12.87841796875,-4.273681640625,46.6534423828125,-175.9735107421875
1758876133.307321,-0.44140625,-0.07666015625,0.9033203125,3.7841796875,-10.6201171875,-11.71875,-4.3450927734375,46.5106201171875,-176.02294921875
1758876133.3172944,-0.44140625,-0.07666015625,0.9033203125,3.7841796875,-10.6201171875,-11.71875,-4.39453125,46.3623046875,-176.0723876953125
1758876133.3277915,-0.5029296875,-0.11669921875,0.900390625,6.103515625,-13.48876953125,-11.5966796875,-4.4329833984375,46.197509765625,-176.1328125
1758876133.3373575,-0.5029296875,-0.11669921875,0.900390625,6.103515625,-13.48876953125,-11.5966796875,-4.4659423828125,46.0052490234375,-176.19873046875
1758876133.347328,-0.5244140625,-0.07470703125,1.13037109375,16.2353515625,-17.08984375,-10.55908203125,-4.4384765625,45.7965087890625,-176.2591552734375
1758876133.3573277,-0.5244140625,-0.07470703125,1.13037109375,16.2353515625,-17.08984375,-10.55908203125,-4.3560791015625,45.5548095703125,-176.3250732421875
1758876133.367581,-0.23046875,-0.09814453125,0.81201171875,22.94921875,-13.36669921875,-8.4228515625,-4.229736328125,45.3350830078125,-176.385498046875
1758876133.3773973,-0.23046875,-0.09814453125,0.81201171875,22.94921875,-13.36669921875,-8.4228515625,-4.06494140625,45.120849609375,-176.4459228515625
1758876133.38842,-0.11474609375,-0.1181640625,0.45751953125,20.69091796875,-7.62939453125,-6.103515625,-3.9056396484375,44.9285888671875,-176.50634765625
1758876133.3978343,-0.11474609375,-0.1181640625,0.45751953125,20.69091796875,-7.62939453125,-6.103515625,-3.75732421875,44.7637939453125,-176.5557861328125
1758876133.407479,-0.57958984375,-0.16943359375,1.03759765625,38.75732421875,-6.04248046875,-3.96728515625,-3.515625,44.6044921875,-176.605224609375
1758876133.4174488,-0.57958984375,-0.16943359375,1.03759765625,38.75732421875,-6.04248046875,-3.96728515625,-3.175048828125,44.4561767578125,-176.6436767578125
1758876133.4274473,-0.94677734375,0.236328125,1.34228515625,56.640625,-6.8359375,-11.41357421875,-2.7850341796875,44.3023681640625,-176.7315673828125
1758876133.4379284,-0.94677734375,0.236328125,1.34228515625,56.640625,-6.8359375,-11.41357421875,-2.3291015625,44.1485595703125,-176.8524169921875
1758876133.4474785,-0.572265625,0.345703125,0.96728515625,-93.26171875,-6.65283203125,-0.06103515625,-2.548828125,44.0057373046875,-176.8853759765625
1758876133.45746,-0.572265625,0.345703125,0.96728515625,-93.26171875,-6.65283203125,-0.06103515625,-3.4442138671875,43.8629150390625,-176.8194580078125
1758876133.467512,-0.29345703125,0.0693359375,-0.01806640625,-103.69873046875,-4.8828125,0.67138671875,-4.3670654296875,43.736572265625,-176.737060546875
1758876133.477939,-0.29345703125,0.0693359375,-0.01806640625,-103.69873046875,-4.8828125,0.67138671875,-5.328369140625,43.6322021484375,-176.627197265625
1758876133.4876556,-0.63134765625,-0.2607421875,0.52490234375,-12.87841796875,-2.50244140625,0.91552734375,-5.833740234375,43.5498046875,-176.50634765625
1758876133.497539,-0.63134765625,-0.2607421875,0.52490234375,-12.87841796875,-2.50244140625,0.91552734375,-5.899658203125,43.48388671875,-176.3909912109375
1758876133.5076292,-1.01806640625,-0.44921875,1.78173828125,136.41357421875,-14.0380859375,-10.7421875,-5.2899169921875,43.3575439453125,-176.3580322265625
1758876133.5180743,-1.01806640625,-0.44921875,1.78173828125,136.41357421875,-14.0380859375,-10.7421875,-4.010009765625,43.1597900390625,-176.4239501953125
1758876133.5275652,-0.81005859375,-0.12548828125,0.86962890625,27.03857421875,-8.9111328125,-3.662109375,-3.262939453125,42.989501953125,-176.46240234375
1758876133.5375926,-0.81005859375,-0.12548828125,0.86962890625,27.03857421875,-8.9111328125,-3.662109375,-3.0377197265625,42.8521728515625,-176.451416015625
1758876133.5476189,-0.47802734375,0.26513671875,0.21484375,-59.02099609375,-9.70458984375,-4.638671875,-3.2464599609375,42.7203369140625,-176.4404296875
1758876133.5578184,-0.47802734375,0.26513671875,0.21484375,-59.02099609375,-9.70458984375,-4.638671875,-3.8671875,42.5885009765625,-176.4129638671875
1758876133.5676584,-0.60986328125,0.064453125,0.18798828125,-6.8359375,-7.26318359375,-2.13623046875,-4.207763671875,42.4896240234375,-176.3470458984375
1758876133.5776298,-0.60986328125,0.064453125,0.18798828125,-6.8359375,-7.26318359375,-2.13623046875,-4.273681640625,42.4072265625,-176.253662109375
1758876133.587695,-0.81201171875,-0.2666015625,0.73046875,26.30615234375,-3.47900390625,-6.8359375,-4.19677734375,42.3577880859375,-176.1822509765625
1758876133.5980394,-0.81201171875,-0.2666015625,0.73046875,26.30615234375,-3.47900390625,-6.8359375,-3.9935302734375,42.330322265625,-176.15478515625
1758876133.6076753,-0.76611328125,-0.2412109375,1.046875,36.80419921875,-6.103515625,-5.37109375,-3.7408447265625,42.286376953125,-176.1273193359375
1758876133.6177082,-0.76611328125,-0.2412109375,1.046875,36.80419921875,-6.103515625,-5.37109375,-3.438720703125,42.220458984375,-176.1053466796875
1758876133.6279216,-0.59033203125,-0.0400390625,0.45068359375,41.19873046875,-1.5869140625,-6.77490234375,-3.1256103515625,42.176513671875,-176.0943603515625
1758876133.6380985,-0.59033203125,-0.0400390625,0.45068359375,41.19873046875,-1.5869140625,-6.77490234375,-2.7960205078125,42.1600341796875,-176.099853515625
1758876133.647786,-0.8310546875,0.09716796875,0.45849609375,11.90185546875,-1.5869140625,-7.2021484375,-2.6202392578125,42.1490478515625,-176.0943603515625
1758876133.6578414,-0.8310546875,0.09716796875,0.45849609375,11.90185546875,-1.5869140625,-7.2021484375,-2.5872802734375,42.1490478515625,-176.0833740234375
1758876133.6680875,-1.501953125,-0.0771484375,1.380859375,55.23681640625,-10.68115234375,-8.97216796875,-2.340087890625,42.110595703125,-176.0723876953125
1758876133.6778657,-1.501953125,-0.0771484375,1.380859375,55.23681640625,-10.68115234375,-8.97216796875,-1.8841552734375,42.0281982421875,-176.06689453125
1758876133.6877937,-0.955078125,-0.3515625,0.77685546875,52.3681640625,-10.92529296875,-9.46044921875,-1.4501953125,41.94580078125,-176.0723876953125
1758876133.6978624,-0.955078125,-0.3515625,0.77685546875,52.3681640625,-10.92529296875,-9.46044921875,-1.043701171875,41.8634033203125,-176.0888671875
1758876133.7081091,-0.955078125,-0.3515625,0.77685546875,-18.00537109375,-8.7890625,-5.55419921875,-0.98876953125,41.7974853515625,-176.0888671875
1758876133.7178473,-0.42138671875,-0.08544921875,-0.11083984375,-18.00537109375,-8.7890625,-5.55419921875,-1.2689208984375,41.748046875,-176.055908203125
1758876133.727809,-0.4111328125,0.06103515625,0.35595703125,-16.9677734375,-4.5166015625,-8.60595703125,-1.56005859375,41.7315673828125,-176.044921875
1758876133.7381938,-0.4111328125,0.06103515625,0.35595703125,-16.9677734375,-4.5166015625,-8.60595703125,-1.856689453125,41.737060546875,-176.0504150390625
1758876133.7478483,-0.48291015625,0.14013671875,0.59228515625,78.4912109375,0.0,-6.9580078125,-1.658935546875,41.7645263671875,-176.0394287109375
1758876133.7578745,-0.48291015625,0.14013671875,0.59228515625,78.4912109375,0.0,-6.9580078125,-0.966796875,41.8084716796875,-176.0174560546875
1758876133.7678895,-0.53759765625,-0.02099609375,0.85302734375,65.97900390625,-0.67138671875,-8.4228515625,-0.340576171875,41.8414306640625,-176.0009765625
1758876133.7782452,-0.53759765625,-0.02099609375,0.85302734375,65.97900390625,-0.67138671875,-8.4228515625,0.2142333984375,41.8634033203125,-176.0009765625
1758876133.7878487,-0.52734375,0.25244140625,1.1396484375,-44.86083984375,1.28173828125,-1.8310546875,0.252685546875,41.8853759765625,-175.9625244140625
1758876133.797896,-0.52734375,0.25244140625,1.1396484375,-44.86083984375,1.28173828125,-1.8310546875,-0.2032470703125,41.90185546875,-175.8746337890625
1758876133.8078792,-0.60791015625,0.11669921875,0.65283203125,-22.27783203125,1.8310546875,-1.953125,-0.5438232421875,41.912841796875,-175.792236328125
1758876133.818308,-0.60791015625,0.11669921875,0.65283203125,-22.27783203125,1.8310546875,-1.953125,-0.7635498046875,41.9293212890625,-175.704345703125
1758876133.8279028,-0.99755859375,0.1162109375,1.08837890625,-57.55615234375,-2.62451171875,-5.615234375,-1.1700439453125,41.923828125,-175.638427734375
1758876133.8379762,-0.99755859375,0.1162109375,1.08837890625,-57.55615234375,-2.62451171875,-5.615234375,-1.7633056640625,41.8963623046875,-175.5889892578125
1758876133.8482916,-0.84716796875,0.27197265625,1.13232421875,-131.04248046875,-5.615234375,-0.6103515625,-2.691650390625,41.85791015625,-175.5010986328125
1758876133.858312,-0.84716796875,0.27197265625,1.13232421875,-131.04248046875,-5.615234375,-0.6103515625,-3.9495849609375,41.802978515625,-175.3692626953125
1758876133.8679702,-0.39208984375,-0.0576171875,0.3876953125,-95.8251953125,-2.62451171875,5.859375,-4.98779296875,41.7645263671875,-175.18798828125
1758876133.8779974,-0.39208984375,-0.0576171875,0.3876953125,-95.8251953125,-2.62451171875,5.859375,-5.8282470703125,41.748046875,-174.957275390625
1758876133.8882668,-0.5009765625,-0.30078125,0.47265625,-36.56005859375,0.244140625,1.953125,-6.3885498046875,41.748046875,-174.7650146484375
1758876133.8983097,-0.5009765625,-0.30078125,0.47265625,-36.56005859375,0.244140625,1.953125,-6.6851806640625,41.759033203125,-174.605712890625
1758876133.9080143,-0.935546875,-0.33349609375,1.1396484375,18.49365234375,-3.47900390625,-2.99072265625,-6.74560546875,41.7425537109375,-174.4903564453125
1758876133.9181027,-0.935546875,-0.33349609375,1.1396484375,18.49365234375,-3.47900390625,-2.99072265625,-6.5643310546875,41.7041015625,-174.4189453125
1758876133.9280713,-0.4912109375,-0.20751953125,0.833984375,33.5693359375,-1.708984375,-1.8310546875,-6.3116455078125,41.671142578125,-174.3585205078125
1758876133.9388342,-0.4912109375,-0.20751953125,0.833984375,33.5693359375,-1.708984375,-1.8310546875,-5.987548828125,41.6436767578125,-174.298095703125
1758876133.9481072,-0.3388671875,-0.11083984375,0.16015625,34.912109375,2.44140625,-1.0986328125,-5.6634521484375,41.6326904296875,-174.2376708984375
1758876133.9581568,-0.3388671875,-0.11083984375,0.16015625,34.912109375,2.44140625,-1.0986328125,-5.3338623046875,41.6436767578125,-174.1827392578125
1758876133.9681642,-0.849609375,-0.0234375,0.798828125,45.71533203125,0.30517578125,-1.15966796875,-4.954833984375,41.6546630859375,-174.122314453125
1758876133.9789054,-0.849609375,-0.0234375,0.798828125,45.71533203125,0.30517578125,-1.15966796875,-4.5263671875,41.6546630859375,-174.056396484375
1758876133.9892044,-0.71728515625,-0.0419921875,1.6279296875,59.4482421875,-2.74658203125,-4.8828125,-4.0374755859375,41.63818359375,-174.012451171875
1758876133.9981534,-0.71728515625,-0.0419921875,1.6279296875,59.4482421875,-2.74658203125,-4.8828125,-3.49365234375,41.5887451171875,-174.0069580078125
1758876134.0081441,-0.47802734375,-0.0048828125,0.61279296875,-20.32470703125,-3.11279296875,0.67138671875,-3.3233642578125,41.5283203125,-173.968505859375
1758876134.018348,-0.47802734375,-0.0048828125,0.61279296875,-20.32470703125,-3.11279296875,0.67138671875,-3.5211181640625,41.4678955078125,-173.8970947265625
1758876134.028174,-0.44140625,0.1015625,0.29248046875,-39.36767578125,2.38037109375,1.708984375,-3.8067626953125,41.4404296875,-173.814697265625
1758876134.0382438,-0.44140625,0.1015625,0.29248046875,-39.36767578125,2.38037109375,1.708984375,-4.1802978515625,41.4459228515625,-173.7158203125
1758876134.0482337,-0.60888671875,-0.056640625,0.5390625,-10.55908203125,4.33349609375,-0.48828125,-4.4110107421875,41.4678955078125,-173.6279296875
1758876134.058625,-0.60888671875,-0.056640625,0.5390625,-10.55908203125,4.33349609375,-0.48828125,-4.5098876953125,41.50634765625,-173.551025390625
1758876134.0684533,-1.09130859375,-0.046875,1.5830078125,2.50244140625,-2.8076171875,-4.638671875,-4.5648193359375,41.5008544921875,-173.49609375
1758876134.0782764,-1.09130859375,-0.046875,1.5830078125,2.50244140625,-2.8076171875,-4.638671875,-4.5648193359375,41.4569091796875,-173.4686279296875
1758876134.0882883,-0.57080078125,-0.01171875,0.86572265625,-32.8369140625,3.7841796875,2.01416015625,-4.713134765625,41.4459228515625,-173.4027099609375
1758876134.0985005,-0.57080078125,-0.01171875,0.86572265625,-32.8369140625,3.7841796875,2.01416015625,-5.0042724609375,41.4678955078125,-173.29833984375
1758876134.1082852,-0.44677734375,-0.07373046875,0.13623046875,-36.4990234375,5.79833984375,1.220703125,-5.3228759765625,41.495361328125,-173.199462890625
1758876134.1183078,-0.44677734375,-0.07373046875,0.13623046875,-36.4990234375,5.79833984375,1.220703125,-5.6634521484375,41.5447998046875,-173.1060791015625
1758876134.1283383,-0.9677734375,-0.12744140625,0.98828125,2.13623046875,5.37109375,-1.3427734375,-5.82275390625,41.5997314453125,-173.0181884765625
1758876134.1390822,-0.9677734375,-0.12744140625,0.98828125,2.13623046875,5.37109375,-1.3427734375,-5.8062744140625,41.649169921875,-172.9522705078125
1758876134.1483634,-0.62646484375,-0.1884765625,0.876953125,54.50439453125,5.79833984375,-3.7841796875,-5.5426025390625,41.6986083984375,-172.90283203125
1758876134.1584153,-0.62646484375,-0.1884765625,0.876953125,54.50439453125,5.79833984375,-3.7841796875,-5.0372314453125,41.748046875,-172.880859375
1758876134.16883,-0.279296875,-0.19580078125,0.24951171875,57.6171875,9.94873046875,-2.50244140625,-4.515380859375,41.81396484375,-172.8643798828125
1758876134.1785393,-0.279296875,-0.19580078125,0.24951171875,57.6171875,9.94873046875,-2.50244140625,-3.988037109375,41.90185546875,-172.847900390625
1758876134.1883955,-0.67822265625,0.02197265625,0.8916015625,-33.5693359375,6.591796875,-5.06591796875,-3.93310546875,41.9732666015625,-172.847900390625
1758876134.1984606,-0.67822265625,0.02197265625,0.8916015625,-33.5693359375,6.591796875,-5.06591796875,-4.3341064453125,42.0281982421875,-172.8643798828125
1758876134.2087185,-0.78369140625,0.17919921875,1.27392578125,-26.0009765625,3.662109375,-1.8310546875,-4.669189453125,42.0611572265625,-172.8533935546875
1758876134.218486,-0.78369140625,0.17919921875,1.27392578125,-26.0009765625,3.662109375,-1.8310546875,-4.9383544921875,42.07763671875,-172.8094482421875
1758876134.2284114,-0.50732421875,-0.1357421875,0.7080078125,-2.5634765625,-2.62451171875,0.244140625,-5.0701904296875,42.0556640625,-172.7545166015625
1758876134.2385073,-0.50732421875,-0.1357421875,0.7080078125,-2.5634765625,-2.62451171875,0.244140625,-5.07568359375,42.0062255859375,-172.68310546875
1758876134.2487686,-0.35009765625,-0.08935546875,0.4638671875,-36.2548828125,4.82177734375,3.47900390625,-5.394287109375,42.0281982421875,-172.5787353515625
1758876134.2585418,-0.35009765625,-0.08935546875,0.4638671875,-36.2548828125,4.82177734375,3.47900390625,-5.7183837890625,42.0556640625,-172.4853515625
1758876134.268516,-0.53759765625,0.08544921875,0.2529296875,-18.85986328125,7.38525390625,3.72314453125,-5.86669921875,42.1160888671875,-172.37548828125
1758876134.2790885,-0.53759765625,0.08544921875,0.2529296875,-18.85986328125,7.38525390625,3.72314453125,-6.0040283203125,42.1820068359375,-172.2491455078125
1758876134.290735,-1.0361328125,0.08984375,1.36962890625,-87.82958984375,0.79345703125,2.25830078125,-6.83349609375,42.1875,-172.1282958984375
1758876134.2985873,-1.0361328125,0.08984375,1.36962890625,-87.82958984375,0.79345703125,2.25830078125,-7.646484375,42.1875,-172.001953125
1758876134.3085477,-0.68017578125,0.01806640625,1.28564453125,-96.19140625,-2.50244140625,7.2021484375,-8.4869384765625,42.154541015625,-171.8096923828125
1758876134.3185673,-0.68017578125,0.01806640625,1.28564453125,-96.19140625,-2.50244140625,7.2021484375,-9.3218994140625,42.1160888671875,-171.617431640625
1758876134.3290284,-0.7080078125,-0.30517578125,0.35546875,-35.2783203125,3.662109375,12.0849609375,-9.5196533203125,42.154541015625,-171.375732421875
1758876134.338607,-0.7080078125,-0.30517578125,0.35546875,-35.2783203125,3.662109375,12.0849609375,-9.73388671875,42.198486328125,-171.134033203125
1758876134.348562,-0.51953125,-0.28515625,0.40380859375,22.8271484375,4.82177734375,5.0048828125,-9.4427490234375,42.25341796875,-170.9967041015625
1758876134.3585846,-0.51953125,-0.28515625,0.40380859375,22.8271484375,4.82177734375,5.0048828125,-9.16259765625,42.3028564453125,-170.8648681640625
1758876134.369063,-0.8828125,-0.2412109375,0.4443359375,96.0693359375,8.4228515625,3.7841796875,-8.184814453125,42.396240234375,-170.7550048828125
1758876134.3786716,-0.8828125,-0.2412109375,0.4443359375,96.0693359375,8.4228515625,3.7841796875,-7.2235107421875,42.5006103515625,-170.6451416015625
1758876134.3886778,-0.73779296875,-0.27880859375,1.517578125,133.056640625,5.2490234375,-4.150390625,-5.9600830078125,42.550048828125,-170.650634765625
1758876134.3989544,-0.73779296875,-0.27880859375,1.517578125,133.056640625,5.2490234375,-4.150390625,-4.7076416015625,42.5830078125,-170.6781005859375
1758876134.4090276,-0.353515625,-0.13623046875,-0.087890625,42.90771484375,12.451171875,2.01416015625,-4.3121337890625,42.6983642578125,-170.628662109375
1758876134.4187064,-0.353515625,-0.13623046875,-0.087890625,42.90771484375,12.451171875,2.01416015625,-3.922119140625,42.8192138671875,-170.5792236328125
1758876134.4286463,-1.0810546875,0.05419921875,1.05029296875,-39.48974609375,3.23486328125,-0.42724609375,-4.3670654296875,42.857666015625,-170.540771484375
1758876134.4387624,-1.0810546875,0.05419921875,1.05029296875,-39.48974609375,3.23486328125,-0.42724609375,-4.7955322265625,42.890625,-170.496826171875
1758876134.449176,-0.7392578125,0.2900390625,0.74560546875,-78.0029296875,6.4697265625,4.0283203125,-5.5535888671875,42.967529296875,-170.3759765625
1758876134.4587326,-0.7392578125,0.2900390625,0.74560546875,-78.0029296875,6.4697265625,4.0283203125,-6.2896728515625,43.0499267578125,-170.2386474609375
1758876134.4687135,-0.853515625,-0.06982421875,0.8056640625,-21.728515625,-0.6103515625,5.126953125,-6.43798828125,43.0609130859375,-170.0738525390625
1758876134.4790235,-0.853515625,-0.06982421875,0.8056640625,-21.728515625,-0.6103515625,5.126953125,-6.591796875,43.0718994140625,-169.9090576171875
1758876134.4891365,-0.568359375,-0.2490234375,0.283203125,-15.93017578125,5.0048828125,5.06591796875,-6.70166015625,43.143310546875,-169.7607421875
1758876134.4987662,-0.568359375,-0.2490234375,0.283203125,-15.93017578125,5.0048828125,5.06591796875,-6.822509765625,43.22021484375,-169.617919921875
1758876134.5088224,-1.04638671875,-0.173828125,0.5546875,-12.6953125,1.0986328125,1.52587890625,-6.9488525390625,43.26416015625,-169.5135498046875
1758876134.519171,-1.04638671875,-0.173828125,0.5546875,-12.6953125,1.0986328125,1.52587890625,-7.0751953125,43.3135986328125,-169.4091796875
1758876134.5288794,-0.7841796875,-0.169921875,1.05712890625,0.3662109375,-1.03759765625,-1.5869140625,-7.1026611328125,43.3355712890625,-169.3487548828125
1758876134.5389168,-0.7841796875,-0.169921875,1.05712890625,0.3662109375,-1.03759765625,-1.5869140625,-7.1246337890625,43.3465576171875,-169.2938232421875
1758876134.5489151,-0.498046875,-0.07373046875,0.3095703125,39.55078125,3.7841796875,0.06103515625,-6.7510986328125,43.406982421875,-169.2279052734375
1758876134.5592117,-0.498046875,-0.07373046875,0.3095703125,39.55078125,3.7841796875,0.06103515625,-6.3775634765625,43.4674072265625,-169.1619873046875
1758876134.5690842,-0.62109375,-0.01318359375,0.18017578125,22.5830078125,7.080078125,-2.01416015625,-6.2017822265625,43.57177734375,-169.1180419921875
1758876134.578971,-0.62109375,-0.01318359375,0.18017578125,22.5830078125,7.080078125,-2.01416015625,-6.0260009765625,43.681640625,-169.0740966796875
1758876134.5888674,-0.9052734375,0.1025390625,0.82666015625,-20.263671875,2.3193359375,-2.01416015625,-6.2677001953125,43.7420654296875,-169.0081787109375
1758876134.5991461,-0.9052734375,0.1025390625,0.82666015625,-20.263671875,2.3193359375,-2.01416015625,-6.492919921875,43.8079833984375,-168.9422607421875
1758876134.6089628,-0.8837890625,0.0244140625,1.2490234375,-2.197265625,0.732421875,-1.64794921875,-6.52587890625,43.846435546875,-168.85986328125
1758876134.6189415,-0.8837890625,0.0244140625,1.2490234375,-2.197265625,0.732421875,-1.64794921875,-6.5478515625,43.868408203125,-168.7884521484375
1758876134.6289423,-0.9912109375,-0.25537109375,0.8330078125,-38.4521484375,-3.7841796875,0.79345703125,-6.910400390625,43.8519287109375,-168.6785888671875
1758876134.6394517,-0.9912109375,-0.25537109375,0.8330078125,-38.4521484375,-3.7841796875,0.79345703125,-7.2784423828125,43.83544921875,-168.57421875
1758876134.6489556,-0.7119140625,-0.10107421875,0.779296875,-26.0009765625,-8.7890625,0.18310546875,-7.5201416015625,43.76953125,-168.475341796875
1758876134.6589725,-0.7119140625,-0.10107421875,0.779296875,-26.0009765625,-8.7890625,0.18310546875,-7.7618408203125,43.6981201171875,-168.37646484375
1758876134.6689386,-0.42041015625,-0.0078125,0.22705078125,10.25390625,-2.685546875,-1.953125,-7.66845703125,43.6871337890625,-168.3160400390625
1758876134.6796222,-0.42041015625,-0.0078125,0.22705078125,10.25390625,-2.685546875,-1.953125,-7.5750732421875,43.681640625,-168.2501220703125
1758876134.6889956,-0.35595703125,-0.03759765625,-0.01123046875,12.20703125,4.94384765625,-2.99072265625,-7.4871826171875,43.758544921875,-168.211669921875
1758876134.6990116,-0.35595703125,-0.03759765625,-0.01123046875,12.20703125,4.94384765625,-2.99072265625,-7.40478515625,43.846435546875,-168.167724609375
1758876134.7091966,-0.35595703125,-0.03759765625,-0.01123046875,11.3525390625,11.04736328125,-4.638671875,-7.3553466796875,43.9947509765625,-168.15673828125
1758876134.719262,-0.50244140625,-0.021484375,0.25,11.3525390625,11.04736328125,-4.638671875,-7.305908203125,44.14306640625,-168.134765625
1758876134.7289839,-1.59228515625,-0.19384765625,1.77392578125,39.12353515625,-2.99072265625,-6.4697265625,-6.976318359375,44.14306640625,-168.1292724609375
1758876134.739069,-1.59228515625,-0.19384765625,1.77392578125,39.12353515625,-2.99072265625,-6.4697265625,-6.646728515625,44.132080078125,-168.1292724609375
1758876134.7494667,-0.59130859375,-0.08349609375,1.55517578125,31.005859375,-3.41796875,-3.173828125,-6.361083984375,44.1046142578125,-168.0963134765625
1758876134.7591906,-0.59130859375,-0.08349609375,1.55517578125,31.005859375,-3.41796875,-3.173828125,-6.075439453125,44.0496826171875,-168.079833984375
1758876134.7690754,-0.29833984375,-0.12939453125,-0.05224609375,-12.6953125,-2.25830078125,3.0517578125,-6.1688232421875,44.022216796875,-167.9864501953125
1758876134.7791166,-0.29833984375,-0.12939453125,-0.05224609375,-12.6953125,-2.25830078125,3.0517578125,-6.2677001953125,44.000244140625,-167.8875732421875
1758876134.789318,-0.45458984375,0.08349609375,0.0322265625,-38.0859375,1.3427734375,-5.31005859375,-6.70166015625,44.01123046875,-167.8985595703125
1758876134.799168,-0.45458984375,0.08349609375,0.0322265625,-38.0859375,1.3427734375,-5.31005859375,-7.130126953125,44.0386962890625,-167.8985595703125
1758876134.8091187,-1.7890625,0.0947265625,1.4052734375,-65.85693359375,-9.3994140625,-5.126953125,-7.811279296875,43.96728515625,-167.8546142578125
1758876134.8191667,-1.7890625,0.0947265625,1.4052734375,-65.85693359375,-9.3994140625,-5.126953125,-8.4814453125,43.9013671875,-167.794189453125
1758876134.829487,-0.33935546875,-0.10205078125,1.2861328125,-39.0625,-7.32421875,5.4931640625,-8.778076171875,43.857421875,-167.607421875
1758876134.8391554,-0.33935546875,-0.10205078125,1.2861328125,-39.0625,-7.32421875,5.4931640625,-9.0692138671875,43.79150390625,-167.431640625
1758876134.849118,-0.4892578125,-0.43994140625,0.0625,-9.6435546875,-4.21142578125,5.06591796875,-9.0911865234375,43.758544921875,-167.2833251953125
1758876134.8591826,-0.4892578125,-0.43994140625,0.0625,-9.6435546875,-4.21142578125,5.06591796875,-9.129638671875,43.7310791015625,-167.14599609375
1758876134.8694782,-0.4453125,-0.16552734375,-0.0068359375,-18.9208984375,-0.48828125,-2.3193359375,-9.349365234375,43.736572265625,-167.1185302734375
1758876134.879336,-0.4453125,-0.16552734375,-0.0068359375,-18.9208984375,-0.48828125,-2.3193359375,-9.580078125,43.758544921875,-167.091064453125
1758876134.88925,-0.6845703125,-0.12548828125,0.671875,59.26513671875,2.0751953125,-6.103515625,-9.0692138671875,43.7969970703125,-167.1240234375
1758876134.8994763,-0.6845703125,-0.12548828125,0.671875,59.26513671875,2.0751953125,-6.103515625,-8.5638427734375,43.8299560546875,-167.1514892578125
1758876134.909632,-0.74169921875,-0.236328125,1.21240234375,68.115234375,5.55419921875,-6.9580078125,-7.97607421875,43.890380859375,-167.2119140625
1758876134.919222,-0.74169921875,-0.236328125,1.21240234375,68.115234375,5.55419921875,-6.9580078125,-7.3992919921875,43.934326171875,-167.2833251953125
1758876134.9292321,-0.6142578125,-0.01318359375,0.646484375,0.79345703125,6.16455078125,-5.0048828125,-7.4652099609375,43.9837646484375,-167.3272705078125
1758876134.9395692,-0.6142578125,-0.01318359375,0.646484375,0.79345703125,6.16455078125,-5.0048828125,-7.5311279296875,44.033203125,-167.3712158203125
1758876134.9496212,-1.38671875,0.02490234375,1.03955078125,-4.8828125,-1.40380859375,-5.92041015625,-7.6409912109375,44.0167236328125,-167.398681640625
1758876134.9592955,-1.38671875,0.02490234375,1.03955078125,-4.8828125,-1.40380859375,-5.92041015625,-7.745361328125,44.01123046875,-167.40966796875
1758876134.9693341,-0.80859375,-0.1376953125,1.21142578125,66.34521484375,-7.75146484375,-8.056640625,-7.1466064453125,43.9288330078125,-167.4481201171875
1758876134.9795434,-0.80859375,-0.1376953125,1.21142578125,66.34521484375,-7.75146484375,-8.056640625,-6.5533447265625,43.8409423828125,-167.4920654296875
1758876134.989299,-0.3779296875,-0.2685546875,0.1171875,70.3125,2.13623046875,-8.056640625,-5.943603515625,43.857421875,-167.5634765625
1758876134.999298,-0.3779296875,-0.2685546875,0.1171875,70.3125,2.13623046875,-8.056640625,-5.350341796875,43.8739013671875,-167.640380859375
1758876135.009572,-0.41748046875,-0.208984375,0.0126953125,45.95947265625,5.9814453125,-13.00048828125,-5.0592041015625,43.934326171875,-167.794189453125
1758876135.0195484,-0.41748046875,-0.208984375,0.0126953125,45.95947265625,5.9814453125,-13.00048828125,-4.7845458984375,44.0057373046875,-167.9534912109375
1758876135.029331,-0.6015625,-0.05224609375,0.654296875,59.38720703125,5.4931640625,-17.15087890625,-4.4110107421875,44.066162109375,-168.167724609375
1758876135.039452,-0.6015625,-0.05224609375,0.654296875,59.38720703125,5.4931640625,-17.15087890625,-4.0374755859375,44.1265869140625,-168.387451171875
1758876135.0497916,-0.4951171875,0.0849609375,1.00634765625,7.6904296875,6.77490234375,-15.2587890625,-4.15283203125,44.1925048828125,-168.5797119140625
1758876135.059402,-0.4951171875,0.0849609375,1.00634765625,7.6904296875,6.77490234375,-15.2587890625,-4.251708984375,44.241943359375,-168.77197265625
1758876135.0694273,-0.7109375,0.16162109375,0.9130859375,-53.52783203125,4.21142578125,-9.033203125,-4.8834228515625,44.263916015625,-168.8653564453125
1758876135.0794291,-0.7109375,0.16162109375,0.9130859375,-53.52783203125,4.21142578125,-9.033203125,-5.504150390625,44.285888671875,-168.9532470703125
1758876135.0897884,-1.6201171875,-0.27294921875,1.7431640625,17.822265625,-15.07568359375,-5.37109375,-5.3558349609375,44.1156005859375,-168.9697265625
1758876135.099406,-1.6201171875,-0.27294921875,1.7431640625,17.822265625,-15.07568359375,-5.37109375,-5.2130126953125,43.9508056640625,-168.99169921875
1758876135.109409,-0.525390625,-0.0634765625,0.21728515625,85.0830078125,-3.35693359375,-12.39013671875,-4.482421875,43.9013671875,-169.12353515625
1758876135.1194549,-0.525390625,-0.0634765625,0.21728515625,85.0830078125,-3.35693359375,-12.39013671875,-3.7628173828125,43.8629150390625,-169.25537109375
1758876135.1294627,-0.41064453125,-0.2412109375,0.02294921875,44.921875,-1.64794921875,-16.78466796875,-3.4991455078125,43.8409423828125,-169.4476318359375
1758876135.139484,-0.41064453125,-0.2412109375,0.02294921875,44.921875,-1.64794921875,-16.78466796875,-3.2464599609375,43.83544921875,-169.6453857421875
1758876135.149438,-0.72998046875,0.03369140625,0.4580078125,33.38623046875,4.21142578125,-14.16015625,-3.087158203125,43.890380859375,-169.8046875
1758876135.1595035,-0.72998046875,0.03369140625,0.4580078125,33.38623046875,4.21142578125,-14.16015625,-2.92236328125,43.956298828125,-169.95849609375
1758876135.1699493,-0.6259765625,0.07421875,0.83740234375,21.78955078125,2.38037109375,-12.20703125,-2.845458984375,44.000244140625,-170.079345703125
1758876135.179694,-0.6259765625,0.07421875,0.83740234375,21.78955078125,2.38037109375,-12.20703125,-2.7630615234375,44.033203125,-170.2001953125
1758876135.1895382,-0.8056640625,-0.052734375,1.009765625,-14.46533203125,3.35693359375,-7.75146484375,-2.999267578125,44.0716552734375,-170.2606201171875
1758876135.1995618,-0.8056640625,-0.052734375,1.009765625,-14.46533203125,3.35693359375,-7.75146484375,-3.2244873046875,44.110107421875,-170.33203125
1758876135.210637,-0.9873046875,-0.24560546875,1.2373046875,16.357421875,-8.6669921875,-15.7470703125,-3.2244873046875,44.01123046875,-170.5133056640625
1758876135.2196288,-0.9873046875,-0.24560546875,1.2373046875,16.357421875,-8.6669921875,-15.7470703125,-3.2244873046875,43.912353515625,-170.7000732421875
1758876135.2295158,-0.4599609375,0.189453125,0.70068359375,-44.0673828125,-4.5166015625,-2.9296875,-3.6968994140625,43.857421875,-170.7110595703125
1758876135.2395978,-0.4599609375,0.189453125,0.70068359375,-44.0673828125,-4.5166015625,-2.9296875,-4.1583251953125,43.802490234375,-170.716552734375
1758876135.2500823,-0.3564453125,0.2119140625,0.1796875,-43.45703125,-4.57763671875,-2.74658203125,-4.5977783203125,43.74755859375,-170.70556640625
1758876135.259646,-0.3564453125,0.2119140625,0.1796875,-43.45703125,-4.57763671875,-2.74658203125,-5.020751953125,43.6981201171875,-170.6781005859375
1758876135.2695894,-0.8544921875,-0.32373046875,0.97900390625,67.3828125,-10.3759765625,-9.27734375,-4.405517578125,43.582763671875,-170.7440185546875
1758876135.2798285,-0.64501953125,-0.41650390625,0.84814453125,74.76806640625,-4.21142578125,-5.9814453125,-3.7628173828125,43.5003662109375,-170.8099365234375
1758876135.28995,-0.64501953125,-0.41650390625,0.84814453125,74.76806640625,-4.21142578125,-5.9814453125,-3.087158203125,43.4454345703125,-170.870361328125
1758876135.2995915,-0.36962890625,0.078125,0.52001953125,-5.615234375,-4.08935546875,-5.92041015625,-2.8289794921875,43.3905029296875,-170.947265625
1758876135.3096044,-0.36962890625,0.078125,0.52001953125,-5.615234375,-4.08935546875,-5.92041015625,-2.96630859375,43.3355712890625,-171.0186767578125
1758876135.3199959,-0.70068359375,0.1865234375,0.7158203125,-32.1044921875,-3.47900390625,-8.056640625,-3.22998046875,43.2806396484375,-171.10107421875
1758876135.3296602,-0.70068359375,0.1865234375,0.7158203125,-32.1044921875,-3.47900390625,-8.056640625,-3.62548828125,43.231201171875,-171.1834716796875
1758876135.3397233,-1.09912109375,0.1025390625,1.421875,-23.92578125,-11.71875,-3.7841796875,-3.944091796875,43.1378173828125,-171.221923828125
1758876135.3496945,-1.09912109375,0.1025390625,1.421875,-23.92578125,-11.71875,-3.7841796875,-4.185791015625,43.0059814453125,-171.221923828125
1758876135.3601959,-0.69580078125,-0.27685546875,0.79736328125,48.583984375,-9.6435546875,-3.5400390625,-4.0704345703125,42.8851318359375,-171.221923828125
1758876135.3697157,-0.69580078125,-0.27685546875,0.79736328125,48.583984375,-9.6435546875,-3.5400390625,-3.5980224609375,42.7752685546875,-171.23291015625
1758876135.379699,-0.27978515625,-0.10546875,0.29931640625,43.51806640625,-6.40869140625,-3.7841796875,-3.1695556640625,42.6763916015625,-171.2548828125
1758876135.3897383,-0.27978515625,-0.10546875,0.29931640625,43.51806640625,-6.40869140625,-3.7841796875,-2.779541015625,42.5994873046875,-171.2823486328125
1758876135.4000063,-0.37255859375,0.00439453125,-0.0185546875,42.78564453125,0.30517578125,-7.62939453125,-2.4114990234375,42.56103515625,-171.3427734375
1758876135.4097085,-0.37255859375,0.00439453125,-0.0185546875,42.78564453125,0.30517578125,-7.62939453125,-2.0709228515625,42.56103515625,-171.419677734375
1758876135.419774,-0.8427734375,0.06005859375,0.99755859375,14.58740234375,-3.5400390625,-7.26318359375,-1.86767578125,42.550048828125,-171.485595703125
1758876135.4301722,-0.8427734375,0.06005859375,0.99755859375,14.58740234375,-3.5400390625,-7.26318359375,-1.7962646484375,42.5225830078125,-171.5460205078125
1758876135.4397738,-0.95166015625,0.09228515625,1.70166015625,-14.2822265625,-7.62939453125,0.1220703125,-1.8292236328125,42.4676513671875,-171.5570068359375
1758876135.4497204,-0.95166015625,0.09228515625,1.70166015625,-14.2822265625,-7.62939453125,0.1220703125,-1.9610595703125,42.374267578125,-171.5240478515625
1758876135.459841,-0.5537109375,-0.36328125,0.7470703125,17.63916015625,-6.2255859375,-0.79345703125,-1.9390869140625,42.286376953125,-171.5130615234375
1758876135.470242,-0.5537109375,-0.36328125,0.7470703125,17.63916015625,-6.2255859375,-0.79345703125,-1.77978515625,42.198486328125,-171.5240478515625
1758876135.479941,-0.35302734375,0.05517578125,0.21630859375,-40.10009765625,-4.69970703125,-0.30517578125,-1.9171142578125,42.1270751953125,-171.5350341796875
1758876135.489835,-0.35302734375,0.05517578125,0.21630859375,-40.10009765625,-4.69970703125,-0.30517578125,-2.3291015625,42.0611572265625,-171.5350341796875
1758876135.5001433,-0.802734375,0.25341796875,0.94970703125,26.7333984375,-12.3291015625,-2.01416015625,-2.406005859375,41.9622802734375,-171.5350341796875
1758876135.510196,-0.802734375,0.25341796875,0.94970703125,26.7333984375,-12.3291015625,-2.01416015625,-2.1478271484375,41.8304443359375,-171.5350341796875
1758876135.5198698,-0.5,-0.0791015625,1.01171875,59.50927734375,-5.79833984375,0.3662109375,-1.7083740234375,41.72607421875,-171.5130615234375
1758876135.5298147,-0.5,-0.0791015625,1.01171875,59.50927734375,-5.79833984375,0.3662109375,-1.0986328125,41.649169921875,-171.4910888671875
1758876135.53991,-0.52978515625,-0.33154296875,0.6416015625,2.86865234375,-9.765625,0.79345703125,-0.7855224609375,41.5447998046875,-171.4801025390625
1758876135.5502057,-0.52978515625,-0.33154296875,0.6416015625,2.86865234375,-9.765625,0.79345703125,-0.7635498046875,41.4239501953125,-171.474609375
1758876135.559881,-0.8759765625,0.0419921875,1.060546875,-2.9296875,-13.5498046875,2.01416015625,-0.7745361328125,41.28662109375,-171.4691162109375
1758876135.56988,-0.8759765625,0.0419921875,1.060546875,-2.9296875,-13.5498046875,2.01416015625,-0.8074951171875,41.1273193359375,-171.4471435546875
1758876135.580325,-0.7724609375,0.2060546875,1.42236328125,23.681640625,-15.80810546875,-7.4462890625,-0.736083984375,40.9625244140625,-171.4801025390625
1758876135.589983,-0.7724609375,0.2060546875,1.42236328125,23.681640625,-15.80810546875,-7.4462890625,-0.5657958984375,40.7757568359375,-171.573486328125
1758876135.5999143,-0.4599609375,0.052734375,0.6201171875,-169.7998046875,-21.78955078125,8.36181640625,-1.285400390625,40.5615234375,-171.5625
1758876135.609902,-0.4599609375,0.052734375,0.6201171875,-169.7998046875,-21.78955078125,8.36181640625,-2.889404296875,40.3143310546875,-171.4361572265625
1758876135.6200712,-0.169921875,0.14892578125,-0.23095703125,-111.38916015625,-8.36181640625,10.25390625,-4.1748046875,40.1495361328125,-171.2823486328125
1758876135.6299229,-0.169921875,0.14892578125,-0.23095703125,-111.38916015625,-8.36181640625,10.25390625,-5.152587890625,40.0616455078125,-171.10107421875
1758876135.6399639,-0.439453125,-0.1923828125,0.03662109375,43.5791015625,-3.5400390625,5.18798828125,-5.3778076171875,40.01220703125,-170.9307861328125
1758876135.6501038,-0.439453125,-0.1923828125,0.03662109375,43.5791015625,-3.5400390625,5.18798828125,-4.8614501953125,39.990234375,-170.79345703125
1758876135.6604977,-0.55322265625,-0.34423828125,1.11328125,116.943359375,2.01416015625,-2.50244140625,-4.031982421875,40.001220703125,-170.7220458984375
1758876135.670005,-0.55322265625,-0.34423828125,1.11328125,116.943359375,2.01416015625,-2.50244140625,-2.8948974609375,40.023193359375,-170.7275390625
1758876135.6799884,-1.1708984375,0.29638671875,1.96044921875,-94.970703125,-8.30078125,1.89208984375,-2.801513671875,39.9847412109375,-170.7110595703125
1758876135.690226,-1.1708984375,0.29638671875,1.96044921875,-94.970703125,-8.30078125,1.89208984375,-3.7188720703125,39.88037109375,-170.66162109375
1758876135.700165,-0.5439453125,0.42431640625,0.888671875,-117.431640625,-10.8642578125,11.5966796875,-4.6856689453125,39.7650146484375,-170.5352783203125
1758876135.7100997,-0.5439453125,0.42431640625,0.888671875,-117.431640625,-10.8642578125,11.5966796875,-5.701904296875,39.6441650390625,-170.3265380859375
1758876135.7200978,-0.44677734375,-0.3251953125,0.28662109375,-15.07568359375,-11.23046875,9.94873046875,-6.1962890625,39.5233154296875,-170.1177978515625
1758876135.730302,-0.44677734375,-0.3251953125,0.28662109375,-15.07568359375,-11.23046875,9.94873046875,-6.207275390625,39.407958984375,-169.9200439453125
1758876135.7400918,-0.52734375,-0.345703125,0.36376953125,35.0341796875,-5.92041015625,6.8359375,-5.9930419921875,39.3255615234375,-169.7552490234375
1758876135.7500966,-0.52734375,-0.345703125,0.36376953125,35.0341796875,-5.92041015625,6.8359375,-5.570068359375,39.2706298828125,-169.6234130859375
1758876135.7600915,-0.984375,-0.2744140625,1.4931640625,66.2841796875,-11.5966796875,-3.35693359375,-5.042724609375,39.1827392578125,-169.5574951171875
1758876135.770136,-0.984375,-0.2744140625,1.4931640625,66.2841796875,-11.5966796875,-3.35693359375,-4.405517578125,39.056396484375,-169.5684814453125
1758876135.7802532,-0.455078125,0.140625,0.6201171875,-2.44140625,5.4931640625,5.0048828125,-4.0924072265625,39.0179443359375,-169.5355224609375
1758876135.7901073,-0.455078125,0.140625,0.6201171875,-2.44140625,5.4931640625,5.0048828125,-4.0869140625,39.0673828125,-169.4586181640625
1758876135.800106,-0.6044921875,-0.03515625,0.13037109375,2.44140625,0.06103515625,5.06591796875,-4.0484619140625,39.0948486328125,-169.365234375
1758876135.8102078,-0.6044921875,-0.03515625,0.13037109375,2.44140625,0.06103515625,5.06591796875,-3.9825439453125,39.1058349609375,-169.25537109375
1758876135.8200903,-0.97265625,-0.0341796875,1.1181640625,15.9912109375,3.662109375,4.150390625,-3.856201171875,39.144287109375,-169.1510009765625
1758876135.8301215,-0.97265625,-0.0341796875,1.1181640625,15.9912109375,3.662109375,4.150390625,-3.66943359375,39.19921875,-169.046630859375
1758876135.8401597,-0.6025390625,-0.142578125,1.4267578125,56.33544921875,-1.0986328125,1.28173828125,-3.2904052734375,39.22119140625,-168.9697265625
1758876135.850618,-0.6025390625,-0.142578125,1.4267578125,56.33544921875,-1.0986328125,1.28173828125,-2.724609375,39.210205078125,-168.9202880859375
1758876135.8601427,-0.58447265625,-0.09814453125,0.38232421875,-32.89794921875,2.62451171875,6.04248046875,-2.5872802734375,39.2047119140625,-168.85986328125
1758876135.8701959,-0.58447265625,-0.09814453125,0.38232421875,-32.89794921875,2.62451171875,6.04248046875,-2.87841796875,39.232177734375,-168.760986328125
1758876135.8801568,-0.62646484375,0.09228515625,0.42138671875,-33.69140625,2.8076171875,4.82177734375,-3.1805419921875,39.2596435546875,-168.6676025390625
1758876135.8906863,-0.62646484375,0.09228515625,0.42138671875,-33.69140625,2.8076171875,4.82177734375,-3.482666015625,39.3035888671875,-168.563232421875
1758876135.9002593,-0.7958984375,0.076171875,1.048828125,2.13623046875,-5.06591796875,4.69970703125,-3.5980224609375,39.30908203125,-168.453369140625
1758876135.910272,-0.7958984375,0.076171875,1.048828125,2.13623046875,-5.06591796875,4.69970703125,-3.5321044921875,39.2706298828125,-168.3380126953125
1758876135.9202533,-0.548828125,-0.1025390625,0.54541015625,36.4990234375,5.7373046875,7.6904296875,-3.2794189453125,39.287109375,-168.2061767578125
1758876135.9305675,-0.548828125,-0.1025390625,0.54541015625,36.4990234375,5.7373046875,7.6904296875,-2.8509521484375,39.3585205078125,-168.0633544921875
1758876135.9402628,-0.607421875,-0.2119140625,0.25,8.7890625,6.16455078125,5.4931640625,-2.5762939453125,39.4354248046875,-167.93701171875
1758876135.9503214,-0.607421875,-0.2119140625,0.25,8.7890625,6.16455078125,5.4931640625,-2.4609375,39.5233154296875,-167.8271484375
1758876135.960285,-1.63720703125,0.0703125,1.380859375,16.11328125,-4.21142578125,3.84521484375,-2.318115234375,39.5672607421875,-167.71728515625
1758876135.9707026,-1.63720703125,0.0703125,1.380859375,16.11328125,-4.21142578125,3.84521484375,-2.1368408203125,39.561767578125,-167.607421875
1758876135.9802878,-0.822265625,0.1181640625,1.23779296875,0.0,-4.0283203125,4.69970703125,-2.032470703125,39.561767578125,-167.486572265625
1758876135.9903228,-0.822265625,0.1181640625,1.23779296875,0.0,-4.0283203125,4.69970703125,-1.988525390625,39.55078125,-167.3602294921875
1758876136.0004368,-0.3330078125,-0.04248046875,-0.2734375,-54.38232421875,-0.67138671875,11.53564453125,-2.1917724609375,39.561767578125,-167.18994140625
1758876136.0103815,-0.3330078125,-0.04248046875,-0.2734375,-54.38232421875,-0.67138671875,11.53564453125,-2.63671875,39.6002197265625,-166.97021484375
1758876136.0202813,-0.5068359375,-0.0849609375,0.0,-60.97412109375,7.26318359375,3.72314453125,-3.1585693359375,39.693603515625,-166.7889404296875
1758876136.0303454,-0.5068359375,-0.0849609375,0.0,-60.97412109375,7.26318359375,3.72314453125,-3.746337890625,39.8309326171875,-166.66259765625
1758876136.0405877,-0.6650390625,-0.123046875,0.818359375,14.7705078125,3.7841796875,1.40380859375,-3.966064453125,39.957275390625,-166.552734375
1758876136.0504353,-0.6650390625,-0.123046875,0.818359375,14.7705078125,3.7841796875,1.40380859375,-3.8232421875,40.0616455078125,-166.4593505859375
1758876136.0603576,-0.42333984375,-0.16748046875,0.7080078125,51.57470703125,16.6015625,4.94384765625,-3.482666015625,40.2154541015625,-166.365966796875
1758876136.0704358,-0.42333984375,-0.16748046875,0.7080078125,51.57470703125,16.6015625,4.94384765625,-2.955322265625,40.4241943359375,-166.2615966796875
1758876136.0811725,-0.453125,-0.0185546875,0.16845703125,26.79443359375,19.95849609375,3.96728515625,-2.5543212890625,40.6439208984375,-166.168212890625
1758876136.0904741,-0.453125,-0.0185546875,0.16845703125,26.79443359375,19.95849609375,3.96728515625,-2.2906494140625,40.8856201171875,-166.080322265625
1758876136.1004322,-1.435546875,0.42626953125,1.54150390625,-101.62353515625,6.591796875,2.0751953125,-2.65869140625,41.0614013671875,-165.992431640625
1758876136.1112394,-1.435546875,0.42626953125,1.54150390625,-101.62353515625,6.591796875,2.0751953125,-3.6474609375,41.165771484375,-165.8880615234375
1758876136.1207952,-0.85986328125,0.58935546875,1.3955078125,-156.1279296875,0.0,12.0849609375,-4.8394775390625,41.2371826171875,-165.7012939453125
1758876136.1304307,-0.85986328125,0.58935546875,1.3955078125,-156.1279296875,0.0,12.0849609375,-6.2237548828125,41.275634765625,-165.43212890625
1758876136.1405065,-0.42138671875,0.05029296875,0.451171875,-119.5068359375,1.52587890625,20.6298828125,-7.3663330078125,41.3250732421875,-165.091552734375
1758876136.150803,-0.42138671875,0.05029296875,0.451171875,-119.5068359375,1.52587890625,20.6298828125,-8.2891845703125,41.385498046875,-164.6905517578125
1758876136.1605544,-0.4423828125,-0.26220703125,0.01708984375,-47.91259765625,2.62451171875,16.2353515625,-8.8714599609375,41.4569091796875,-164.322509765625
1758876136.1705332,-0.4423828125,-0.26220703125,0.01708984375,-47.91259765625,2.62451171875,16.2353515625,-9.129638671875,41.539306640625,-163.98193359375
1758876136.1805387,-0.794921875,-0.52734375,0.66455078125,63.5986328125,3.2958984375,7.50732421875,-8.887939453125,41.627197265625,-163.71826171875
1758876136.1908257,-0.794921875,-0.52734375,0.66455078125,63.5986328125,3.2958984375,7.50732421875,-8.162841796875,41.7041015625,-163.5369873046875
1758876136.2005394,-1.33056640625,-0.61279296875,1.513671875,127.86865234375,-3.7841796875,4.45556640625,-7.1466064453125,41.7425537109375,-163.399658203125
1758876136.2105405,-1.33056640625,-0.61279296875,1.513671875,127.86865234375,-3.7841796875,4.45556640625,-5.8447265625,41.7315673828125,-163.30078125
1758876136.2205443,-1.33056640625,-0.61279296875,1.513671875,149.90234375,-4.69970703125,4.8828125,-4.449462890625,41.7095947265625,-163.223876953125
1758876136.2309313,-0.50634765625,-0.111328125,1.06884765625,149.90234375,-4.69970703125,4.8828125,-2.9498291015625,41.6656494140625,-163.1524658203125
1758876136.240639,-0.32958984375,-0.0751953125,-0.06298828125,55.0537109375,-1.03759765625,4.7607421875,-1.93359375,41.63818359375,-163.0975341796875
1758876136.2505527,-0.32958984375,-0.0751953125,-0.06298828125,55.0537109375,-1.03759765625,4.7607421875,-1.395263671875,41.63818359375,-163.037109375
1758876136.260584,-0.35205078125,0.04736328125,-0.07275390625,-7.568359375,6.591796875,-1.40380859375,-1.2030029296875,41.68212890625,-163.01513671875
1758876136.27059,-0.35205078125,0.04736328125,-0.07275390625,-7.568359375,6.591796875,-1.40380859375,-1.351318359375,41.7755126953125,-163.0316162109375
1758876136.2809355,-0.96044921875,-0.09033203125,0.91748046875,124.51171875,-0.18310546875,-2.9296875,-0.8404541015625,41.846923828125,-163.0426025390625
1758876136.2905934,-0.96044921875,-0.09033203125,0.91748046875,124.51171875,-0.18310546875,-2.9296875,0.318603515625,41.8798828125,-163.070068359375
1758876136.3006077,-0.62060546875,-0.482421875,1.51513671875,84.77783203125,5.859375,-16.4794921875,1.2139892578125,41.934814453125,-163.1964111328125
1758876136.3110235,-0.62060546875,-0.482421875,1.51513671875,84.77783203125,5.859375,-16.4794921875,1.834716796875,42.0062255859375,-163.443603515625
1758876136.3206437,-0.384765625,0.1650390625,0.21044921875,-53.89404296875,6.65283203125,-4.39453125,1.812744140625,42.0611572265625,-163.63037109375
1758876136.3306735,-0.384765625,0.1650390625,0.21044921875,-53.89404296875,6.65283203125,-4.39453125,1.16455078125,42.1270751953125,-163.71826171875
1758876136.3406954,-1.00341796875,0.75830078125,0.89453125,-63.04931640625,0.18310546875,-7.14111328125,0.4779052734375,42.16552734375,-163.8116455078125
1758876136.3510454,-1.00341796875,0.75830078125,0.89453125,-63.04931640625,0.18310546875,-7.14111328125,-0.2142333984375,42.176513671875,-163.8775634765625
1758876136.3607547,-0.9189453125,0.72314453125,1.578125,-75.13427734375,-6.8359375,-0.91552734375,-0.9393310546875,42.1051025390625,-163.8336181640625
1758876136.370741,-0.9189453125,0.72314453125,1.578125,-75.13427734375,-6.8359375,-0.91552734375,-1.6314697265625,42.0281982421875,-163.773193359375
1758876136.3807328,-0.375,0.0146484375,0.32568359375,-114.68505859375,-2.44140625,6.7138671875,-2.647705078125,41.9952392578125,-163.6029052734375
1758876136.3913295,-0.375,0.0146484375,0.32568359375,-114.68505859375,-2.44140625,6.7138671875,-3.6529541015625,41.9732666015625,-163.4271240234375
1758876136.4007268,-0.521484375,-0.2685546875,0.2421875,-119.384765625,-0.9765625,2.50244140625,-4.7515869140625,41.9622802734375,-163.311767578125
1758876136.4107404,-0.521484375,-0.2685546875,0.2421875,-119.384765625,-0.9765625,2.50244140625,-5.8612060546875,41.9677734375,-163.1964111328125
1758876136.420741,-0.654296875,-0.14794921875,0.86328125,-82.51953125,0.244140625,-0.732421875,-6.6412353515625,41.978759765625,-163.135986328125
1758876136.4311225,-0.654296875,-0.14794921875,0.86328125,-82.51953125,0.244140625,-0.732421875,-7.4212646484375,41.9842529296875,-163.0865478515625
1758876136.440733,-0.447265625,-0.24951171875,0.50634765625,1.8310546875,6.16455078125,0.0,-7.3663330078125,42.044677734375,-163.0426025390625
1758876136.4507544,-0.447265625,-0.24951171875,0.50634765625,1.8310546875,6.16455078125,0.0,-7.327880859375,42.1051025390625,-163.0096435546875
1758876136.461242,-0.81396484375,-0.32861328125,0.90625,40.58837890625,3.35693359375,-1.46484375,-6.9268798828125,42.1380615234375,-162.9986572265625
1758876136.4710093,-0.81396484375,-0.32861328125,0.90625,40.58837890625,3.35693359375,-1.46484375,-6.536865234375,42.16552734375,-163.004150390625
1758876136.4808002,-0.76171875,-0.22265625,1.1513671875,46.5087890625,0.732421875,-2.0751953125,-6.097412109375,42.1600341796875,-163.026123046875
1758876136.4908738,-0.76171875,-0.22265625,1.1513671875,46.5087890625,0.732421875,-2.0751953125,-5.6689453125,42.154541015625,-163.0535888671875
1758876136.5011287,-0.64306640625,-0.2529296875,0.82666015625,89.4775390625,-1.89208984375,-7.50732421875,-4.8614501953125,42.110595703125,-163.157958984375
1758876136.510917,-0.64306640625,-0.2529296875,0.82666015625,89.4775390625,-1.89208984375,-7.50732421875,-4.0704345703125,42.066650390625,-163.2733154296875
1758876136.5208414,-0.6318359375,0.2607421875,0.86279296875,-12.0849609375,-3.84521484375,-5.7373046875,-4.2626953125,42.0062255859375,-163.355712890625
1758876136.5308497,-0.6318359375,0.2607421875,0.86279296875,-12.0849609375,-3.84521484375,-5.7373046875,-4.4384765625,41.94580078125,-163.421630859375
1758876136.5409224,-0.7109375,0.10791015625,0.361328125,-16.66259765625,-4.39453125,-0.79345703125,-4.603271484375,41.890869140625,-163.41064453125
1758876136.5509062,-0.7109375,0.10791015625,0.361328125,-16.66259765625,-4.39453125,-0.79345703125,-4.7625732421875,41.846923828125,-163.377685546875
1758876136.5608463,-0.6591796875,-0.19189453125,0.46044921875,38.0859375,-0.54931640625,-2.685546875,-4.4000244140625,41.846923828125,-163.377685546875
1758876136.570889,-0.6591796875,-0.19189453125,0.46044921875,38.0859375,-0.54931640625,-2.685546875,-4.0484619140625,41.8524169921875,-163.377685546875
1758876136.580943,-0.9384765625,-0.1044921875,1.17236328125,36.07177734375,-4.8828125,-3.47900390625,-3.724365234375,41.8084716796875,-163.3941650390625
1758876136.5909932,-0.9384765625,-0.1044921875,1.17236328125,36.07177734375,-4.8828125,-3.47900390625,-3.40576171875,41.7645263671875,-163.41064453125
1758876136.600936,-0.740234375,0.00439453125,0.54736328125,18.61572265625,3.5400390625,-0.54931640625,-3.2354736328125,41.8084716796875,-163.3941650390625
1758876136.6109848,-0.740234375,0.00439453125,0.54736328125,18.61572265625,3.5400390625,-0.54931640625,-3.065185546875,41.85791015625,-163.36669921875
1758876136.6212456,-1.044921875,-0.04052734375,0.50634765625,59.4482421875,2.50244140625,-2.62451171875,-2.5103759765625,41.9073486328125,-163.3612060546875
1758876136.6309311,-1.044921875,-0.04052734375,0.50634765625,59.4482421875,2.50244140625,-2.62451171875,-1.95556640625,41.9677734375,-163.3502197265625
1758876136.640976,-0.90087890625,-0.09814453125,0.8330078125,75.13427734375,7.080078125,-9.33837890625,-1.3128662109375,42.0721435546875,-163.4326171875
1758876136.6510208,-0.90087890625,-0.09814453125,0.8330078125,75.13427734375,7.080078125,-9.33837890625,-0.6756591796875,42.176513671875,-163.5205078125
1758876136.6610384,-0.5107421875,0.0361328125,0.52490234375,1.220703125,10.92529296875,-7.14111328125,-0.7525634765625,42.3193359375,-163.575439453125
1758876136.671025,-0.5107421875,0.0361328125,0.52490234375,1.220703125,10.92529296875,-7.14111328125,-0.823974609375,42.462158203125,-163.6358642578125
1758876136.6810443,-0.4267578125,0.18798828125,0.4072265625,-32.5927734375,13.427734375,-5.9814453125,-1.219482421875,42.6214599609375,-163.6688232421875
1758876136.6910772,-0.4267578125,0.18798828125,0.4072265625,-32.5927734375,13.427734375,-5.9814453125,-1.5985107421875,42.7862548828125,-163.7017822265625
1758876136.7013624,-0.48583984375,0.0458984375,0.59521484375,-16.54052734375,13.61083984375,-3.47900390625,-1.790771484375,42.945556640625,-163.6962890625
1758876136.7110574,-0.48583984375,0.0458984375,0.59521484375,-16.54052734375,13.61083984375,-3.47900390625,-1.9830322265625,43.099365234375,-163.6962890625
1758876136.7211263,-0.66357421875,-0.2109375,1.046875,-1.03759765625,8.72802734375,-1.64794921875,-2.0050048828125,43.1982421875,-163.6798095703125
1758876136.7313638,-0.66357421875,-0.2109375,1.046875,-1.03759765625,8.72802734375,-1.64794921875,-2.0379638671875,43.2861328125,-163.6907958984375
1758876136.7411182,-0.9462890625,-0.14306640625,1.2783203125,6.28662109375,0.54931640625,4.45556640625,-1.9390869140625,43.2861328125,-163.619384765625
1758876136.7511473,-0.9462890625,-0.14306640625,1.2783203125,6.28662109375,0.54931640625,4.45556640625,-1.845703125,43.2806396484375,-163.564453125
1758876136.7611468,-0.72802734375,-0.03466796875,0.87939453125,30.45654296875,-2.13623046875,5.55419921875,-1.4996337890625,43.2476806640625,-163.4930419921875
1758876136.7713935,-0.72802734375,-0.03466796875,0.87939453125,30.45654296875,-2.13623046875,5.55419921875,-1.153564453125,43.2147216796875,-163.421630859375
1758876136.7811687,-0.55859375,-0.123046875,0.34130859375,-1.953125,-0.244140625,6.34765625,-1.131591796875,43.2037353515625,-163.3392333984375
1758876136.7913125,-0.55859375,-0.123046875,0.34130859375,-1.953125,-0.244140625,6.34765625,-1.1151123046875,43.1982421875,-163.2568359375
1758876136.8020964,-0.53125,0.03173828125,0.4013671875,-27.03857421875,2.13623046875,3.90625,-1.3677978515625,43.22021484375,-163.201904296875
1758876136.8112495,-0.53125,0.03173828125,0.4013671875,-27.03857421875,2.13623046875,3.90625,-1.6204833984375,43.2476806640625,-163.1414794921875
1758876136.8212292,-0.490234375,0.0341796875,0.45849609375,-10.8642578125,9.521484375,5.31005859375,-1.69189453125,43.35205078125,-163.0645751953125
1758876136.8312426,-0.490234375,0.0341796875,0.45849609375,-10.8642578125,9.521484375,5.31005859375,-1.7578125,43.4564208984375,-162.9766845703125
1758876136.8412485,-0.82080078125,0.1015625,0.97900390625,-41.68701171875,7.38525390625,5.859375,-2.120361328125,43.5333251953125,-162.88330078125
1758876136.851511,-0.82080078125,0.1015625,0.97900390625,-41.68701171875,7.38525390625,5.859375,-2.4774169921875,43.6102294921875,-162.784423828125
1758876136.8612227,-0.76513671875,0.2646484375,0.99169921875,-100.03662109375,6.7138671875,10.1318359375,-3.3563232421875,43.681640625,-162.6141357421875
1758876136.871282,-0.76513671875,0.2646484375,0.99169921875,-100.03662109375,6.7138671875,10.1318359375,-4.2242431640625,43.74755859375,-162.4383544921875
1758876136.8816288,-0.873046875,0.015625,0.97509765625,-54.6875,-0.06103515625,12.5732421875,-4.603271484375,43.74755859375,-162.22412109375
1758876136.8913774,-0.873046875,0.015625,0.97509765625,-54.6875,-0.06103515625,12.5732421875,-4.9822998046875,43.7530517578125,-162.00439453125
1758876136.9012392,-0.640625,-0.29345703125,0.638671875,-9.3994140625,-1.0986328125,9.1552734375,-4.9493408203125,43.7420654296875,-161.839599609375
1758876136.9113538,-0.640625,-0.29345703125,0.638671875,-9.3994140625,-1.0986328125,9.1552734375,-4.932861328125,43.7310791015625,-161.6912841796875
1758876136.9213266,-0.37158203125,-0.19091796875,0.48095703125,-30.57861328125,-0.3662109375,7.32421875,-5.152587890625,43.7255859375,-161.5704345703125
1758876136.931264,-0.37158203125,-0.19091796875,0.48095703125,-30.57861328125,-0.3662109375,7.32421875,-5.3778076171875,43.7200927734375,-161.466064453125
1758876136.9412992,-0.58251953125,-0.0322265625,0.68701171875,-5.55419921875,-0.244140625,5.92041015625,-5.372314453125,43.7091064453125,-161.378173828125
1758876136.9513526,-0.58251953125,-0.0322265625,0.68701171875,-5.55419921875,-0.244140625,5.92041015625,-5.361328125,43.70361328125,-161.2847900390625
1758876136.9618256,-0.751953125,-0.03173828125,1.1298828125,36.19384765625,-4.150390625,2.44140625,-4.9658203125,43.6431884765625,-161.246337890625
1758876136.9713328,-0.751953125,-0.03173828125,1.1298828125,36.19384765625,-4.150390625,2.44140625,-4.5703125,43.582763671875,-161.2078857421875
1758876136.9816206,-0.41259765625,-0.04833984375,0.650390625,0.30517578125,-1.5869140625,2.25830078125,-4.537353515625,43.5443115234375,-161.180419921875
1758876136.9914484,-0.41259765625,-0.04833984375,0.650390625,0.30517578125,-1.5869140625,2.25830078125,-4.50439453125,43.5003662109375,-161.158447265625
1758876137.0017655,-0.3876953125,0.044921875,0.3583984375,-32.71484375,-1.220703125,1.46484375,-4.81201171875,43.4619140625,-161.1419677734375
1758876137.0114627,-0.3876953125,0.044921875,0.3583984375,-32.71484375,-1.220703125,1.46484375,-5.108642578125,43.428955078125,-161.114501953125
1758876137.0214126,-0.79638671875,-0.029296875,0.97265625,-9.58251953125,-2.13623046875,-3.2958984375,-5.2130126953125,43.3795166015625,-161.1529541015625
1758876137.0317326,-0.79638671875,-0.029296875,0.97265625,-9.58251953125,-2.13623046875,-3.2958984375,-5.3228759765625,43.330078125,-161.1859130859375
1758876137.0418708,-0.75,-0.0234375,1.49755859375,-31.43310546875,-9.70458984375,-3.41796875,-5.635986328125,43.1982421875,-161.2188720703125
1758876137.0514588,-0.75,-0.0234375,1.49755859375,-31.43310546875,-9.70458984375,-3.41796875,-5.9490966796875,43.0609130859375,-161.2628173828125
1758876137.061431,-0.4912109375,-0.0263671875,0.6455078125,-40.58837890625,-9.27734375,0.48828125,-6.317138671875,42.923583984375,-161.2518310546875
1758876137.071459,-0.4912109375,-0.0263671875,0.6455078125,-40.58837890625,-9.27734375,0.48828125,-6.6796875,42.791748046875,-161.2353515625
1758876137.0818398,-0.41943359375,-0.130859375,0.46728515625,-4.94384765625,-8.4228515625,-2.99072265625,-6.7181396484375,42.6654052734375,-161.268310546875
1758876137.0914633,-0.41943359375,-0.130859375,0.46728515625,-4.94384765625,-8.4228515625,-2.99072265625,-6.767578125,42.5445556640625,-161.30126953125
1758876137.1014588,-0.74853515625,-0.23291015625,0.7353515625,-27.4658203125,-7.87353515625,-8.30078125,-7.0916748046875,42.4237060546875,-161.4056396484375
1758876137.1119106,-0.74853515625,-0.23291015625,0.7353515625,-27.4658203125,-7.87353515625,-8.30078125,-7.4212646484375,42.308349609375,-161.510009765625
1758876137.1217554,-0.5986328125,-0.11474609375,1.01611328125,-14.70947265625,-10.92529296875,-3.7841796875,-7.5860595703125,42.1710205078125,-161.553955078125
1758876137.1314838,-0.5986328125,-0.11474609375,1.01611328125,-14.70947265625,-10.92529296875,-3.7841796875,-7.745361328125,42.022705078125,-161.597900390625
1758876137.1415634,-0.26416015625,-0.17578125,0.1220703125,76.416015625,-0.91552734375,-3.47900390625,-7.00927734375,41.9842529296875,-161.6583251953125
1758876137.1516407,-0.26416015625,-0.17578125,0.1220703125,76.416015625,-0.91552734375,-3.47900390625,-6.2896728515625,41.94580078125,-161.71875
1758876137.1620228,-0.6015625,-0.15771484375,0.97607421875,119.32373046875,-8.056640625,-7.6904296875,-5.1800537109375,41.8304443359375,-161.839599609375
1758876137.171627,-0.6015625,-0.15771484375,0.97607421875,119.32373046875,-8.056640625,-7.6904296875,-4.075927734375,41.715087890625,-161.9659423828125
1758876137.1816194,-0.78564453125,-0.00390625,1.03369140625,98.14453125,0.1220703125,-8.48388671875,-3.2025146484375,41.68212890625,-162.1142578125
1758876137.1916618,-0.78564453125,-0.00390625,1.03369140625,98.14453125,0.1220703125,-8.48388671875,-2.3236083984375,41.649169921875,-162.257080078125
1758876137.2021046,-0.58203125,-0.14013671875,0.7978515625,46.08154296875,-5.92041015625,-9.3994140625,-1.9775390625,41.561279296875,-162.410888671875
1758876137.211678,-0.58203125,-0.14013671875,0.7978515625,46.08154296875,-5.92041015625,-9.3994140625,-1.636962890625,41.4678955078125,-162.5701904296875
1758876137.2216592,-0.58203125,-0.14013671875,0.7978515625,-9.765625,-13.916015625,-5.06591796875,-1.8017578125,41.297607421875,-162.6690673828125
1758876137.2316575,-0.8984375,0.10595703125,1.5908203125,-9.765625,-13.916015625,-5.06591796875,-1.95556640625,41.1163330078125,-162.762451171875
1758876137.2420714,-0.43701171875,0.078125,0.291015625,3.90625,-11.3525390625,-0.42724609375,-1.9281005859375,40.9735107421875,-162.7899169921875
1758876137.2517347,-0.43701171875,0.078125,0.291015625,3.90625,-11.3525390625,-0.42724609375,-1.8951416015625,40.8306884765625,-162.806396484375
1758876137.2617693,-0.5322265625,-0.0537109375,0.4716796875,41.3818359375,-8.36181640625,-4.39453125,-1.527099609375,40.726318359375,-162.8668212890625
1758876137.2718272,-0.5322265625,-0.0537109375,0.4716796875,41.3818359375,-8.36181640625,-4.39453125,-1.1590576171875,40.6219482421875,-162.92724609375
1758876137.2822673,-0.830078125,-0.07275390625,0.86767578125,-84.89990234375,-8.36181640625,-5.31005859375,-2.0599365234375,40.528564453125,-162.9931640625
1758876137.2917924,-0.830078125,-0.07275390625,0.86767578125,-84.89990234375,-8.36181640625,-5.31005859375,-2.955322265625,40.4351806640625,-163.0535888671875
1758876137.3017406,-0.3251953125,0.1630859375,0.10546875,-88.8671875,1.8310546875,3.5400390625,-3.8067626953125,40.4571533203125,-162.9931640625
1758876137.312166,-0.3251953125,0.1630859375,0.10546875,-88.8671875,1.8310546875,3.5400390625,-4.647216796875,40.484619140625,-162.916259765625
1758876137.321866,-0.76171875,-0.21728515625,0.4375,46.08154296875,1.953125,0.732421875,-4.1693115234375,40.517578125,-162.8668212890625
1758876137.3317745,-0.76171875,-0.21728515625,0.4375,46.08154296875,1.953125,0.732421875,-3.702392578125,40.5615234375,-162.8228759765625
1758876137.3417888,-0.896484375,-0.181640625,1.91552734375,31.31103515625,-4.638671875,-2.74658203125,-3.416748046875,40.5230712890625,-162.83935546875
1758876137.3522234,-0.896484375,-0.181640625,1.91552734375,31.31103515625,-4.638671875,-2.74658203125,-3.1365966796875,40.462646484375,-162.8778076171875
1758876137.361923,-0.578125,-0.10693359375,0.5302734375,15.625,0.6103515625,0.48828125,-2.98828125,40.4571533203125,-162.8778076171875
1758876137.3718672,-0.578125,-0.10693359375,0.5302734375,15.625,0.6103515625,0.48828125,-2.845458984375,40.4571533203125,-162.8778076171875
1758876137.3819308,-0.58203125,-0.04931640625,0.4912109375,19.775390625,2.74658203125,1.52587890625,-2.6531982421875,40.4791259765625,-162.861328125
1758876137.3922255,-0.494140625,-0.01220703125,0.26953125,17.08984375,8.6669921875,0.06103515625,-2.48291015625,40.53955078125,-162.850341796875
1758876137.4018664,-0.494140625,-0.01220703125,0.26953125,17.08984375,8.6669921875,0.06103515625,-2.3345947265625,40.6329345703125,-162.8448486328125
1758876137.411954,-1.28857421875,-0.13623046875,1.4267578125,38.87939453125,-0.54931640625,-1.46484375,-2.0819091796875,40.682373046875,-162.8448486328125
1758876137.4221835,-1.28857421875,-0.13623046875,1.4267578125,38.87939453125,-0.54931640625,-1.46484375,-1.724853515625,40.6878662109375,-162.8558349609375
1758876137.432229,-0.60009765625,0.0380859375,1.34716796875,19.47021484375,5.9814453125,2.197265625,-1.4501953125,40.7208251953125,-162.8448486328125
1758876137.4418998,-0.60009765625,0.0380859375,1.34716796875,19.47021484375,5.9814453125,2.197265625,-1.2579345703125,40.7757568359375,-162.8228759765625
1758876137.4519868,-0.4921875,-0.03076171875,0.1865234375,-7.62939453125,1.708984375,4.82177734375,-1.1810302734375,40.80322265625,-162.7899169921875
1758876137.4622815,-0.4921875,-0.03076171875,0.1865234375,-7.62939453125,1.708984375,4.82177734375,-1.23046875,40.814208984375,-162.7294921875
1758876137.4722219,-0.6689453125,0.0107421875,0.4765625,-5.43212890625,6.4697265625,1.953125,-1.285400390625,40.858154296875,-162.6800537109375
1758876137.4820151,-0.6689453125,0.0107421875,0.4765625,-5.43212890625,6.4697265625,1.953125,-1.3348388671875,40.93505859375,-162.6470947265625
1758876137.4920118,-1.05810546875,0.095703125,1.48388671875,-19.6533203125,-1.89208984375,-3.0517578125,-1.47216796875,40.968017578125,-162.6361083984375
1758876137.5021794,-1.05810546875,0.095703125,1.48388671875,-19.6533203125,-1.89208984375,-3.0517578125,-1.6973876953125,40.9515380859375,-162.6580810546875
1758876137.5123444,-0.5625,0.0732421875,0.91064453125,-20.263671875,-5.06591796875,8.1787109375,-1.86767578125,40.9130859375,-162.608642578125
1758876137.52204,-0.5625,0.0732421875,0.91064453125,-20.263671875,-5.06591796875,8.1787109375,-1.988525390625,40.858154296875,-162.4822998046875
1758876137.5320225,-0.392578125,-0.29638671875,0.04345703125,37.90283203125,1.3427734375,5.9814453125,-1.8292236328125,40.836181640625,-162.3724365234375
1758876137.542085,-0.392578125,-0.29638671875,0.04345703125,37.90283203125,1.3427734375,5.9814453125,-1.4007568359375,40.8526611328125,-162.2900390625
1758876137.5523741,-0.70654296875,-0.12109375,0.3505859375,13.7939453125,2.25830078125,0.3662109375,-1.1370849609375,40.880126953125,-162.2406005859375
1758876137.5621355,-0.70654296875,-0.12109375,0.3505859375,13.7939453125,2.25830078125,0.3662109375,-1.021728515625,40.924072265625,-162.22412109375
1758876137.5721061,-0.966796875,0.16162109375,1.56298828125,-27.4658203125,-4.2724609375,-0.8544921875,-1.1151123046875,40.9405517578125,-162.213134765625
1758876137.5838552,-0.966796875,0.16162109375,1.56298828125,-27.4658203125,-4.2724609375,-0.8544921875,-1.40625,40.9075927734375,-162.2076416015625
1758876137.5923576,-0.5390625,0.0205078125,0.07958984375,-11.04736328125,3.35693359375,7.26318359375,-1.571044921875,40.9075927734375,-162.1527099609375
1758876137.602205,-0.5390625,0.0205078125,0.07958984375,-11.04736328125,3.35693359375,7.26318359375,-1.6204833984375,40.95703125,-162.0318603515625
1758876137.612237,-0.5859375,0.14697265625,0.1220703125,6.40869140625,7.62939453125,8.11767578125,-1.5765380859375,41.044921875,-161.89453125
1758876137.6224575,-0.5859375,0.14697265625,0.1220703125,6.40869140625,7.62939453125,8.11767578125,-1.439208984375,41.1602783203125,-161.729736328125
1758876137.6322103,-0.9541015625,0.013671875,0.93505859375,-15.19775390625,7.01904296875,2.86865234375,-1.4227294921875,41.28662109375,-161.5924072265625
1758876137.6421976,-0.9541015625,0.013671875,0.93505859375,-15.19775390625,7.01904296875,2.86865234375,-1.5435791015625,41.396484375,-161.4935302734375
1758876137.6523142,-0.75830078125,-0.1337890625,1.2978515625,8.85009765625,4.638671875,2.99072265625,-1.5380859375,41.495361328125,-161.400146484375
1758876137.6623874,-0.75830078125,-0.1337890625,1.2978515625,8.85009765625,4.638671875,2.99072265625,-1.4227294921875,41.561279296875,-161.3287353515625
1758876137.672259,-0.48828125,-0.0927734375,0.33837890625,-18.85986328125,8.48388671875,6.77490234375,-1.42822265625,41.6436767578125,-161.2408447265625
1758876137.6822462,-0.48828125,-0.0927734375,0.33837890625,-18.85986328125,8.48388671875,6.77490234375,-1.56005859375,41.748046875,-161.1309814453125
1758876137.6923437,-0.9736328125,0.06640625,0.75,-60.11962890625,2.44140625,3.60107421875,-1.91162109375,41.8194580078125,-161.03759765625
1758876137.702678,-0.9736328125,0.06640625,0.75,-60.11962890625,2.44140625,3.60107421875,-2.4774169921875,41.8743896484375,-160.9552001953125
1758876137.7122967,-0.9736328125,0.06640625,0.75,-61.279296875,0.30517578125,8.7890625,-3.021240234375,41.912841796875,-160.828857421875
1758876137.7222939,-0.66162109375,0.16552734375,0.94677734375,-61.279296875,0.30517578125,8.7890625,-3.5321044921875,41.94580078125,-160.6640625
1758876137.7333238,-0.66162109375,0.16552734375,0.94677734375,12.87841796875,3.173828125,10.7421875,-3.658447265625,41.9842529296875,-160.48828125
1758876137.742817,-0.57861328125,-0.18701171875,0.40283203125,12.87841796875,3.173828125,10.7421875,-3.416748046875,42.0391845703125,-160.3070068359375
1758876137.7523143,-0.560546875,-0.3125,0.494140625,19.6533203125,5.615234375,9.1552734375,-3.1640625,42.110595703125,-160.1422119140625
1758876137.762465,-0.560546875,-0.3125,0.494140625,19.6533203125,5.615234375,9.1552734375,-2.8948974609375,42.1929931640625,-160.0048828125
1758876137.7725954,-0.7744140625,-0.0107421875,0.79296875,11.04736328125,6.40869140625,7.4462890625,-2.691650390625,42.2808837890625,-159.884033203125
1758876137.7826943,-0.7744140625,-0.0107421875,0.79296875,11.04736328125,6.40869140625,7.4462890625,-2.5323486328125,42.3687744140625,-159.7796630859375
1758876137.7923784,-0.7451171875,0.15966796875,1.05615234375,1.15966796875,5.0048828125,7.6904296875,-2.4169921875,42.4456787109375,-159.664306640625
1758876137.802424,-0.7451171875,0.15966796875,1.05615234375,1.15966796875,5.0048828125,7.6904296875,-2.340087890625,42.506103515625,-159.5489501953125
1758876137.8123975,-0.654296875,0.0205078125,0.7021484375,-30.2734375,5.2490234375,10.986328125,-2.39501953125,42.5665283203125,-159.400634765625
1758876137.8227084,-0.654296875,0.0205078125,0.7021484375,-30.2734375,5.2490234375,10.986328125,-2.5927734375,42.626953125,-159.23583984375
1758876137.8324015,-0.7060546875,-0.04443359375,0.59228515625,-27.83203125,4.150390625,9.8876953125,-2.779541015625,42.681884765625,-159.0765380859375
1758876137.842444,-0.7060546875,-0.04443359375,0.59228515625,-27.83203125,4.150390625,9.8876953125,-2.955322265625,42.73681640625,-158.917236328125
1758876137.8524241,-0.798828125,-0.11572265625,0.8564453125,1.708984375,3.0517578125,9.033203125,-2.9937744140625,42.7862548828125,-158.7689208984375
1758876137.8628414,-0.798828125,-0.11572265625,0.8564453125,1.708984375,3.0517578125,9.033203125,-2.889404296875,42.8302001953125,-158.631591796875
1758876137.8724513,-0.8203125,-0.0390625,1.083984375,21.54541015625,-1.0986328125,7.87353515625,-2.6971435546875,42.8521728515625,-158.5052490234375
1758876137.8826644,-0.8203125,-0.0390625,1.083984375,21.54541015625,-1.0986328125,7.87353515625,-2.4114990234375,42.8466796875,-158.389892578125
1758876137.892466,-0.47314453125,-0.03466796875,0.41552734375,15.31982421875,2.9296875,8.056640625,-2.1533203125,42.8521728515625,-158.2745361328125
1758876137.9029307,-0.47314453125,-0.03466796875,0.41552734375,15.31982421875,2.9296875,8.056640625,-1.93359375,42.8851318359375,-158.1591796875
1758876137.9132266,-0.52197265625,0.00439453125,0.27978515625,-17.51708984375,3.23486328125,7.14111328125,-1.878662109375,42.923583984375,-158.04931640625
1758876137.922588,-0.52197265625,0.00439453125,0.27978515625,-17.51708984375,3.23486328125,7.14111328125,-1.9940185546875,42.967529296875,-157.939453125
1758876137.9325407,-0.748046875,0.13232421875,0.75732421875,-16.66259765625,3.60107421875,4.638671875,-2.109375,43.0169677734375,-157.840576171875
1758876137.9430091,-0.748046875,0.13232421875,0.75732421875,-16.66259765625,3.60107421875,4.638671875,-2.230224609375,43.0718994140625,-157.752685546875
1758876137.9525778,-1.18701171875,-0.26611328125,1.083984375,41.50390625,-0.79345703125,8.4228515625,-2.0379638671875,43.099365234375,-157.6373291015625
1758876137.962674,-1.18701171875,-0.26611328125,1.083984375,41.50390625,-0.79345703125,8.4228515625,-1.549072265625,43.1103515625,-157.5054931640625
1758876137.9728067,-0.79638671875,-0.13037109375,1.08203125,70.73974609375,-4.2724609375,-1.708984375,-0.966796875,43.099365234375,-157.4505615234375
1758876137.9833045,-0.79638671875,-0.13037109375,1.08203125,70.73974609375,-4.2724609375,-1.708984375,-0.3021240234375,43.06640625,-157.47802734375
1758876137.9926624,-0.40869140625,0.13818359375,0.28564453125,-38.0859375,-2.0751953125,2.5634765625,-0.1593017578125,43.0389404296875,-157.47802734375
1758876138.0026417,-0.40869140625,0.13818359375,0.28564453125,-38.0859375,-2.0751953125,2.5634765625,-0.52734375,43.0279541015625,-157.4395751953125
1758876138.0129416,-0.42724609375,0.24951171875,0.11767578125,-50.72021484375,3.2958984375,1.89208984375,-0.955810546875,43.04443359375,-157.3956298828125
1758876138.0227222,-0.42724609375,0.24951171875,0.11767578125,-50.72021484375,3.2958984375,1.89208984375,-1.439208984375,43.099365234375,-157.335205078125
1758876138.032615,-0.61474609375,0.13330078125,0.4951171875,-18.61572265625,6.9580078125,1.3427734375,-1.746826171875,43.17626953125,-157.2637939453125
1758876138.0427394,-0.61474609375,0.13330078125,0.4951171875,-18.61572265625,6.9580078125,1.3427734375,-1.8951416015625,43.275146484375,-157.1868896484375
1758876138.0531142,-0.73681640625,-0.068359375,1.01611328125,-34.66796875,7.62939453125,2.685546875,-2.1148681640625,43.3795166015625,-157.1044921875
1758876138.062811,-0.73681640625,-0.068359375,1.01611328125,-34.66796875,7.62939453125,2.685546875,-2.4114990234375,43.472900390625,-157.0220947265625
1758876138.07273,-0.6494140625,-0.1220703125,0.84521484375,-13.427734375,8.85009765625,3.11279296875,-2.5982666015625,43.5662841796875,-156.95068359375
1758876138.082934,-0.6494140625,-0.1220703125,0.84521484375,-13.427734375,8.85009765625,3.11279296875,-2.691650390625,43.65966796875,-156.8902587890625
1758876138.09333,-0.82568359375,-0.017578125,0.919921875,-18.49365234375,6.65283203125,-0.91552734375,-2.8289794921875,43.736572265625,-156.86279296875
1758876138.1028247,-0.82568359375,-0.017578125,0.919921875,-18.49365234375,6.65283203125,-0.91552734375,-3.01025390625,43.7969970703125,-156.8682861328125
1758876138.1127417,-0.7236328125,0.21240234375,0.90234375,-57.80029296875,3.90625,0.42724609375,-3.372802734375,43.846435546875,-156.851806640625
1758876138.1231408,-0.7236328125,0.21240234375,0.90234375,-57.80029296875,3.90625,0.42724609375,-3.9166259765625,43.87939453125,-156.81884765625
1758876138.1327553,-0.5947265625,0.01171875,0.4970703125,-69.15283203125,5.18798828125,2.13623046875,-4.4989013671875,43.9178466796875,-156.7694091796875
1758876138.1427808,-0.5947265625,0.01171875,0.4970703125,-69.15283203125,5.18798828125,2.13623046875,-5.130615234375,43.96728515625,-156.7034912109375
1758876138.152763,-0.89404296875,-0.18017578125,0.974609375,-73.18115234375,-0.6103515625,4.150390625,-5.767822265625,43.9892578125,-156.6156005859375
1758876138.1632423,-0.89404296875,-0.18017578125,0.974609375,-73.18115234375,-0.6103515625,4.150390625,-6.4215087890625,43.9837646484375,-156.5167236328125
1758876138.1730654,-0.62353515625,-0.17724609375,0.77734375,-12.63427734375,2.9296875,5.126953125,-6.767578125,44.000244140625,-156.42333984375
1758876138.1828675,-0.62353515625,-0.17724609375,0.77734375,-12.63427734375,2.9296875,5.126953125,-6.822509765625,44.0277099609375,-156.33544921875
1758876138.1928737,-0.6640625,-0.3115234375,0.154296875,55.908203125,7.568359375,3.662109375,-6.5478515625,44.0771484375,-156.26953125
1758876138.2028906,-0.6640625,-0.3115234375,0.154296875,55.908203125,7.568359375,3.662109375,-5.9600830078125,44.1595458984375,-156.2200927734375
1758876138.213196,-1.115234375,-0.33203125,0.79296875,110.53466796875,7.568359375,-2.9296875,-5.152587890625,44.2529296875,-156.2200927734375
1758876138.2229116,-1.115234375,-0.33203125,0.79296875,110.53466796875,7.568359375,-2.9296875,-4.1143798828125,44.3463134765625,-156.2750244140625
1758876138.2328844,-0.72216796875,-0.11767578125,0.88427734375,102.4169921875,14.22119140625,-7.87353515625,-3.153076171875,44.47265625,-156.368408203125
1758876138.24367,-0.72216796875,-0.11767578125,0.88427734375,102.4169921875,14.22119140625,-7.87353515625,-2.26318359375,44.6209716796875,-156.5057373046875
1758876138.2534478,-0.564453125,0.15625,0.431640625,42.90771484375,15.380859375,-7.2021484375,-1.658935546875,44.7802734375,-156.6375732421875
1758876138.2630043,-0.564453125,0.15625,0.431640625,42.90771484375,15.380859375,-7.2021484375,-1.3458251953125,44.945068359375,-156.7529296875
1758876138.2729127,-0.58203125,0.2373046875,0.5361328125,15.9912109375,16.17431640625,-6.65283203125,-1.153564453125,45.1153564453125,-156.8572998046875
1758876138.282985,-0.58203125,0.2373046875,0.5361328125,15.9912109375,16.17431640625,-6.65283203125,-1.0821533203125,45.28564453125,-156.939697265625
1758876138.293297,-0.6044921875,0.04638671875,0.7373046875,5.0048828125,14.5263671875,-3.662109375,-1.03271484375,45.450439453125,-157.0001220703125
1758876138.3030145,-0.6044921875,0.04638671875,0.7373046875,5.0048828125,14.5263671875,-3.662109375,-1.021728515625,45.604248046875,-157.03857421875
1758876138.3130372,-0.6484375,-0.11083984375,0.87744140625,-8.9111328125,11.1083984375,0.48828125,-1.0601806640625,45.7305908203125,-157.0550537109375
1758876138.323032,-0.6484375,-0.11083984375,0.87744140625,-8.9111328125,11.1083984375,0.48828125,-1.1480712890625,45.8349609375,-157.049560546875
1758876138.3332036,-0.73095703125,-0.10009765625,1.04150390625,-41.8701171875,4.7607421875,3.35693359375,-1.395263671875,45.90087890625,-157.03857421875
1758876138.3430672,-0.73095703125,-0.10009765625,1.04150390625,-41.8701171875,4.7607421875,3.35693359375,-1.7852783203125,45.9283447265625,-157.0166015625
1758876138.3529937,-0.6376953125,0.04443359375,0.88623046875,-36.4990234375,0.54931640625,6.4697265625,-2.1368408203125,45.933837890625,-156.9781494140625
1758876138.3633757,-0.6376953125,0.04443359375,0.88623046875,-36.4990234375,0.54931640625,6.4697265625,-2.4334716796875,45.911865234375,-156.9122314453125
1758876138.3731532,-0.658203125,-0.00830078125,0.52587890625,-13.48876953125,0.79345703125,5.2490234375,-2.6202392578125,45.889892578125,-156.8572998046875
1758876138.3830473,-0.658203125,-0.00830078125,0.52587890625,-13.48876953125,0.79345703125,5.2490234375,-2.6971435546875,45.87890625,-156.8023681640625
1758876138.3930442,-0.7236328125,0.0029296875,0.7421875,-38.0859375,-2.9296875,5.79833984375,-2.889404296875,45.8514404296875,-156.741943359375
1758876138.4031253,-0.7236328125,0.0029296875,0.7421875,-38.0859375,-2.9296875,5.79833984375,-3.197021484375,45.802001953125,-156.6650390625
1758876138.4134793,-0.8271484375,-0.0615234375,0.75439453125,-33.447265625,-2.50244140625,7.14111328125,-3.44970703125,45.76904296875,-156.5716552734375
1758876138.4231195,-0.8271484375,-0.0615234375,0.75439453125,-33.447265625,-2.50244140625,7.14111328125,-3.6968994140625,45.7305908203125,-156.4727783203125
1758876138.4330726,-1.1240234375,-0.12841796875,0.958984375,40.22216796875,-9.46044921875,7.568359375,-3.2080078125,45.6317138671875,-156.3629150390625
1758876138.4430814,-1.1240234375,-0.12841796875,0.958984375,40.22216796875,-9.46044921875,7.568359375,-2.724609375,45.538330078125,-156.2530517578125
1758876138.4534822,-0.81396484375,-0.33544921875,0.6611328125,21.240234375,-5.67626953125,2.86865234375,-2.493896484375,45.4833984375,-156.2200927734375
1758876138.463209,-0.81396484375,-0.33544921875,0.6611328125,21.240234375,-5.67626953125,2.86865234375,-2.2796630859375,45.4339599609375,-156.1981201171875
1758876138.4731355,-0.46435546875,0.1005859375,0.38232421875,-44.189453125,-9.58251953125,7.2021484375,-2.669677734375,45.3460693359375,-156.104736328125
1758876138.4833317,-0.46435546875,0.1005859375,0.38232421875,-44.189453125,-9.58251953125,7.2021484375,-3.0487060546875,45.2581787109375,-156.005859375
1758876138.49362,-0.57470703125,0.271484375,0.68408203125,-32.1044921875,-5.2490234375,7.26318359375,-3.2904052734375,45.2142333984375,-155.89599609375
1758876138.5031803,-0.57470703125,0.271484375,0.68408203125,-32.1044921875,-5.2490234375,7.26318359375,-3.5211181640625,45.1702880859375,-155.7696533203125
1758876138.5132058,-0.60205078125,0.06103515625,0.6611328125,-0.06103515625,-2.50244140625,6.89697265625,-3.427734375,45.15380859375,-155.643310546875
1758876138.5236137,-0.60205078125,0.06103515625,0.6611328125,-0.06103515625,-2.50244140625,6.89697265625,-3.328857421875,45.1318359375,-155.5169677734375
1758876138.5332026,-0.62451171875,-0.1943359375,0.74072265625,-5.43212890625,-3.7841796875,8.23974609375,-3.2794189453125,45.0933837890625,-155.3851318359375
1758876138.5431862,-0.62451171875,-0.1943359375,0.74072265625,-5.43212890625,-3.7841796875,8.23974609375,-3.240966796875,45.054931640625,-155.2587890625
1758876138.5534801,-0.57470703125,-0.09912109375,0.76220703125,14.22119140625,-0.6103515625,7.9345703125,-3.021240234375,45.0439453125,-155.14892578125
1758876138.5636957,-0.57470703125,-0.09912109375,0.76220703125,14.22119140625,-0.6103515625,7.9345703125,-2.801513671875,45.032958984375,-155.050048828125
1758876138.5732527,-0.58740234375,-0.06103515625,0.6484375,16.29638671875,-0.30517578125,3.60107421875,-2.603759765625,45.0164794921875,-155.01708984375
1758876138.5832736,-0.58740234375,-0.06103515625,0.6484375,16.29638671875,-0.30517578125,3.60107421875,-2.4114990234375,45.0,-154.9786376953125
1758876138.5939353,-0.814453125,0.0595703125,1.3271484375,-75.5615234375,-7.62939453125,7.568359375,-3.087158203125,44.9066162109375,-154.88525390625
1758876138.6033337,-0.814453125,0.0595703125,1.3271484375,-75.5615234375,-7.62939453125,7.568359375,-3.75732421875,44.8077392578125,-154.7918701171875
1758876138.6132607,-0.61328125,0.02587890625,0.8603515625,-34.0576171875,-9.09423828125,6.40869140625,-4.0155029296875,44.6868896484375,-154.7149658203125
1758876138.6233425,-0.61328125,0.02587890625,0.8603515625,-34.0576171875,-9.09423828125,6.40869140625,-4.2681884765625,44.5660400390625,-154.632568359375
1758876138.6347291,-1.45068359375,-1.1416015625,0.9326171875,60.1806640625,-20.263671875,9.8876953125,-3.5760498046875,44.351806640625,-154.5172119140625
1758876138.6433094,-1.45068359375,-1.1416015625,0.9326171875,60.1806640625,-20.263671875,9.8876953125,-2.9278564453125,44.1485595703125,-154.4293212890625
1758876138.6533043,-0.400390625,0.25732421875,0.388671875,108.642578125,-8.4228515625,6.103515625,-1.845703125,44.066162109375,-154.40185546875
1758876138.663392,-0.400390625,0.25732421875,0.388671875,108.642578125,-8.4228515625,6.103515625,-0.758056640625,43.978271484375,-154.3634033203125
1758876138.6736665,-0.24365234375,0.09130859375,0.06640625,92.10205078125,-4.69970703125,3.7841796875,0.1373291015625,43.9398193359375,-154.3524169921875
1758876138.6833172,-0.24365234375,0.09130859375,0.06640625,92.10205078125,-4.69970703125,3.7841796875,1.0382080078125,43.9013671875,-154.3359375
1758876138.6933262,-0.31103515625,0.1240234375,0.208984375,-14.404296875,3.7841796875,2.197265625,0.867919921875,43.9508056640625,-154.324951171875
1758876138.7033894,-0.31103515625,0.1240234375,0.208984375,-14.404296875,3.7841796875,2.197265625,0.7086181640625,44.000244140625,-154.3084716796875
1758876138.7138531,-0.31103515625,0.1240234375,0.208984375,-141.54052734375,-0.91552734375,5.4931640625,-0.63720703125,44.000244140625,-154.2095947265625
1758876138.7234685,-1.1689453125,0.8759765625,1.35986328125,-141.54052734375,-0.91552734375,5.4931640625,-1.944580078125,44.000244140625,-154.061279296875
1758876138.733346,-1.15673828125,0.44970703125,2.04736328125,-150.93994140625,-15.380859375,16.29638671875,-3.2080078125,43.846435546875,-153.753662109375
1758876138.7434223,-1.15673828125,0.44970703125,2.04736328125,-150.93994140625,-15.380859375,16.29638671875,-4.4549560546875,43.681640625,-153.446044921875
1758876138.7539268,-0.42333984375,-0.4072265625,0.6767578125,-72.3876953125,-13.36669921875,23.13232421875,-4.866943359375,43.5443115234375,-153.0560302734375
1758876138.7636633,-0.42333984375,-0.4072265625,0.6767578125,-72.3876953125,-13.36669921875,23.13232421875,-5.2899169921875,43.4014892578125,-152.6934814453125
1758876138.7735286,-0.48876953125,-0.279296875,0.0751953125,-23.92578125,-14.70947265625,21.17919921875,-5.2679443359375,43.253173828125,-152.3583984375
1758876138.7836993,-0.48876953125,-0.279296875,0.0751953125,-23.92578125,-14.70947265625,21.17919921875,-5.2569580078125,43.1158447265625,-152.02880859375
1758876138.7937267,-1.3544921875,0.4765625,1.23583984375,121.15478515625,-21.42333984375,28.1982421875,-3.724365234375,42.923583984375,-151.578369140625
1758876138.8037891,-1.3544921875,0.4765625,1.23583984375,121.15478515625,-21.42333984375,28.1982421875,-2.1917724609375,42.7313232421875,-151.116943359375
1758876138.8134148,-0.21630859375,0.29296875,0.37646484375,135.1318359375,-1.15966796875,19.6533203125,-0.604248046875,42.7313232421875,-150.7763671875
1758876138.8234642,-0.21630859375,0.29296875,0.37646484375,135.1318359375,-1.15966796875,19.6533203125,0.9722900390625,42.7203369140625,-150.4302978515625
1758876138.8336778,-0.4677734375,-0.048828125,0.1962890625,-65.5517578125,-4.94384765625,29.84619140625,0.6427001953125,42.6708984375,-149.9468994140625
1758876138.8437588,-0.4677734375,-0.048828125,0.1962890625,-65.5517578125,-4.94384765625,29.84619140625,0.3131103515625,42.6324462890625,-149.468994140625
1758876138.8535357,-1.9384765625,-0.13525390625,0.9150390625,-163.330078125,-6.103515625,22.5830078125,-1.0711669921875,42.6104736328125,-149.08447265625
1758876138.8636463,-1.9384765625,-0.13525390625,0.9150390625,-163.330078125,-6.103515625,22.5830078125,-2.4664306640625,42.6104736328125,-148.699951171875
1758876138.8738637,-0.88623046875,-0.134765625,1.02099609375,-229.67529296875,-17.4560546875,34.5458984375,-4.405517578125,42.506103515625,-148.150634765625
1758876138.883641,-0.88623046875,-0.134765625,1.02099609375,-229.67529296875,-17.4560546875,34.5458984375,-6.3336181640625,42.4127197265625,-147.5958251953125
1758876138.8935962,-0.4560546875,-0.28564453125,-0.109375,-192.0166015625,-16.4794921875,35.7666015625,-7.877197265625,42.3468017578125,-147.030029296875
1758876138.9035842,-0.4560546875,-0.28564453125,-0.109375,-192.0166015625,-16.4794921875,35.7666015625,-9.42626953125,42.3028564453125,-146.4642333984375
1758876138.9138732,-0.37841796875,-0.22802734375,0.36669921875,-82.45849609375,-8.544921875,30.70068359375,-9.9481201171875,42.34130859375,-145.986328125
1758876138.923602,-0.37841796875,-0.22802734375,0.36669921875,-82.45849609375,-8.544921875,30.70068359375,-10.469970703125,42.3687744140625,-145.5194091796875
1758876138.9335334,-0.484375,-0.291015625,0.75146484375,-25.69580078125,-7.2021484375,27.03857421875,-10.4644775390625,42.4017333984375,-145.1129150390625
1758876138.9436514,-0.484375,-0.291015625,0.75146484375,-25.69580078125,-7.2021484375,27.03857421875,-10.469970703125,42.418212890625,-144.7174072265625
1758876138.9539287,-0.4599609375,-0.26416015625,0.77978515625,-30.6396484375,-0.6103515625,30.21240234375,-10.5084228515625,42.4951171875,-144.305419921875
1758876138.9636242,-0.4599609375,-0.26416015625,0.77978515625,-30.6396484375,-0.6103515625,30.21240234375,-10.5523681640625,42.56103515625,-143.9044189453125
1758876138.9736357,-0.5205078125,-0.2646484375,0.73583984375,-9.033203125,-1.0986328125,26.18408203125,-10.4205322265625,42.6104736328125,-143.5638427734375
1758876138.9837391,-0.5205078125,-0.2646484375,0.73583984375,-9.033203125,-1.0986328125,26.18408203125,-10.294189453125,42.64892578125,-143.2342529296875
1758876138.9940598,-0.2392578125,-0.12890625,0.70166015625,-15.625,3.72314453125,25.57373046875,-10.250244140625,42.725830078125,-142.9266357421875
1758876139.003721,-0.2392578125,-0.12890625,0.70166015625,-15.625,3.72314453125,25.57373046875,-10.2008056640625,42.7862548828125,-142.6300048828125
1758876139.0136814,-0.34130859375,-0.2177734375,0.70947265625,-24.90234375,7.62939453125,21.8505859375,-10.2886962890625,42.8741455078125,-142.3992919921875
1758876139.0240166,-0.34130859375,-0.2177734375,0.70947265625,-24.90234375,7.62939453125,21.8505859375,-10.3765869140625,42.9510498046875,-142.1795654296875
1758876139.0342784,-0.2919921875,-0.2255859375,0.9521484375,-17.15087890625,6.8359375,15.19775390625,-10.447998046875,43.00048828125,-142.0587158203125
1758876139.0437741,-0.2919921875,-0.2255859375,0.9521484375,-17.15087890625,6.8359375,15.19775390625,-10.52490234375,43.033447265625,-141.9488525390625
1758876139.0537136,-0.1884765625,-0.171875,0.5068359375,41.259765625,10.31494140625,10.6201171875,-10.0689697265625,43.08837890625,-141.92138671875
1758876139.064041,-0.1884765625,-0.171875,0.5068359375,41.259765625,10.31494140625,10.6201171875,-9.6185302734375,43.1378173828125,-141.9049072265625
1758876139.0740526,-1.3798828125,-0.310546875,1.5615234375,139.70947265625,-3.0517578125,6.9580078125,-8.2012939453125,43.0609130859375,-141.888427734375
1758876139.0837357,-1.3798828125,-0.310546875,1.5615234375,139.70947265625,-3.0517578125,6.9580078125,-6.7840576171875,42.989501953125,-141.866455078125
1758876139.0937443,-0.58984375,-0.01171875,2.1748046875,137.02392578125,-3.11279296875,-5.0048828125,-5.4986572265625,42.890625,-142.0147705078125
1758876139.1041844,-0.58984375,-0.01171875,2.1748046875,137.02392578125,-3.11279296875,-5.0048828125,-4.21875,42.7752685546875,-142.1795654296875
1758876139.1138506,-0.18310546875,-0.1142578125,-0.3203125,60.36376953125,-5.37109375,-3.47900390625,-3.6968994140625,42.6434326171875,-142.31689453125
1758876139.1238143,-0.18310546875,-0.1142578125,-0.3203125,60.36376953125,-5.37109375,-3.47900390625,-3.175048828125,42.5225830078125,-142.4542236328125
1758876139.1337843,-0.32421875,0.009765625,0.22021484375,-30.45654296875,0.0,-9.21630859375,-3.6199951171875,42.462158203125,-142.66845703125
1758876139.144,-0.32421875,0.009765625,0.22021484375,-30.45654296875,0.0,-9.21630859375,-4.053955078125,42.4017333984375,-142.8717041015625
1758876139.1538703,-1.1875,0.26318359375,1.5517578125,50.048828125,-11.41357421875,-1.77001953125,-3.592529296875,42.242431640625,-142.9376220703125
1758876139.1639025,-1.1875,0.26318359375,1.5517578125,50.048828125,-11.41357421875,-1.77001953125,-3.109130859375,42.0831298828125,-142.9815673828125
1758876139.173867,-0.65380859375,0.1328125,1.1806640625,-3.72314453125,-4.33349609375,1.708984375,-3.1256103515625,41.9952392578125,-142.9815673828125
1758876139.1841497,-0.65380859375,0.1328125,1.1806640625,-3.72314453125,-4.33349609375,1.708984375,-3.1365966796875,41.9073486328125,-142.9705810546875
1758876139.193925,-0.5390625,0.0634765625,0.36181640625,-86.12060546875,-10.80322265625,8.056640625,-3.9056396484375,41.759033203125,-142.8607177734375
1758876139.203885,-0.5390625,0.0634765625,0.36181640625,-86.12060546875,-10.80322265625,8.056640625,-4.658203125,41.627197265625,-142.734375
1758876139.21387,-0.46435546875,0.03173828125,0.18798828125,-56.57958984375,-2.13623046875,8.056640625,-5.11962890625,41.5887451171875,-142.6080322265625
1758876139.224147,-0.46435546875,0.03173828125,0.18798828125,-56.57958984375,-2.13623046875,8.056640625,-5.5810546875,41.561279296875,-142.470703125
1758876139.2342873,-0.84716796875,-0.22265625,0.59765625,52.978515625,-0.48828125,6.53076171875,-4.9658203125,41.5557861328125,-142.3553466796875
1758876139.2439883,-0.84716796875,-0.22265625,0.59765625,52.978515625,-0.48828125,6.53076171875,-4.3670654296875,41.561279296875,-142.2454833984375
1758876139.253955,-0.62939453125,-0.21142578125,1.150390625,8.85009765625,3.96728515625,9.70458984375,-4.19677734375,41.605224609375,-142.1136474609375
1758876139.264288,-0.62939453125,-0.21142578125,1.150390625,8.85009765625,3.96728515625,9.70458984375,-4.031982421875,41.63818359375,-141.998291015625
1758876139.2740235,-0.47412109375,-0.1474609375,0.06103515625,57.2509765625,5.67626953125,10.07080078125,-3.3892822265625,41.693115234375,-141.8829345703125
1758876139.2840242,-0.47412109375,-0.1474609375,0.06103515625,57.2509765625,5.67626953125,10.07080078125,-2.757568359375,41.759033203125,-141.767578125
1758876139.2940035,-1.1044921875,-0.16748046875,1.2021484375,54.8095703125,-2.0751953125,8.544921875,-2.1588134765625,41.748046875,-141.668701171875
1758876139.3043919,-1.1044921875,-0.16748046875,1.2021484375,54.8095703125,-2.0751953125,8.544921875,-1.571044921875,41.737060546875,-141.5753173828125
1758876139.3140833,-0.7333984375,0.0986328125,1.33349609375,12.451171875,3.23486328125,8.11767578125,-1.40625,41.77001953125,-141.4874267578125
1758876139.3240137,-0.7333984375,0.0986328125,1.33349609375,12.451171875,3.23486328125,8.11767578125,-1.23046875,41.7919921875,-141.3995361328125
1758876139.3340127,-0.60302734375,0.12646484375,0.54638671875,-10.498046875,-5.4931640625,11.8408203125,-1.241455078125,41.7315673828125,-141.2567138671875
1758876139.3441305,-0.60302734375,0.12646484375,0.54638671875,-10.498046875,-5.4931640625,11.8408203125,-1.2469482421875,41.671142578125,-141.1029052734375
1758876139.3540313,-0.56005859375,0.02490234375,0.55712890625,0.1220703125,-1.64794921875,11.1083984375,-1.1480712890625,41.649169921875,-140.95458984375
1758876139.3641055,-0.56005859375,0.02490234375,0.55712890625,0.1220703125,-1.64794921875,11.1083984375,-1.0491943359375,41.6326904296875,-140.80078125
1758876139.3741734,-0.97802734375,0.06494140625,0.67138671875,-65.49072265625,-3.47900390625,6.103515625,-1.64794921875,41.605224609375,-140.7073974609375
1758876139.3843496,-0.97802734375,0.06494140625,0.67138671875,-65.49072265625,-3.47900390625,6.103515625,-2.2357177734375,41.5887451171875,-140.60302734375
1758876139.394168,-0.77587890625,0.470703125,1.0234375,-203.125,-7.99560546875,22.0947265625,-4.0374755859375,41.5338134765625,-140.25146484375
1758876139.404146,-0.77587890625,0.470703125,1.0234375,-203.125,-7.99560546875,22.0947265625,-5.80078125,41.484375,-139.8779296875
1758876139.414189,-0.423828125,0.0966796875,-0.0908203125,-97.83935546875,-0.9765625,25.0244140625,-6.4874267578125,41.5283203125,-139.4549560546875
1758876139.4246624,-0.423828125,0.0966796875,-0.0908203125,-97.83935546875,-0.9765625,25.0244140625,-7.1685791015625,41.583251953125,-139.0155029296875
1758876139.4341388,-0.560546875,-0.1982421875,0.07275390625,42.66357421875,6.04248046875,22.88818359375,-6.48193359375,41.7205810546875,-138.62548828125
1758876139.4441833,-0.560546875,-0.1982421875,0.07275390625,42.66357421875,6.04248046875,22.88818359375,-5.811767578125,41.8634033203125,-138.240966796875
1758876139.4547727,-1.63720703125,-0.458984375,2.142578125,-13.48876953125,-8.60595703125,11.71875,-5.8062744140625,41.8304443359375,-138.0157470703125
1758876139.4645712,-0.470703125,0.0341796875,0.82568359375,-25.20751953125,-4.21142578125,24.0478515625,-5.8172607421875,41.81396484375,-137.735595703125
1758876139.474187,-0.470703125,0.0341796875,0.82568359375,-25.20751953125,-4.21142578125,24.0478515625,-5.8282470703125,41.81396484375,-137.373046875
1758876139.4842765,-0.7236328125,-0.0693359375,0.6044921875,-26.55029296875,-14.404296875,23.92578125,-5.8447265625,41.759033203125,-137.0050048828125
1758876139.494892,-0.7236328125,-0.0693359375,0.6044921875,-26.55029296875,-14.404296875,23.92578125,-5.86669921875,41.6546630859375,-136.6314697265625
1758876139.5042775,-0.619140625,-0.13818359375,0.3369140625,17.39501953125,-4.21142578125,19.95849609375,-5.69091796875,41.605224609375,-136.29638671875
1758876139.5142531,-0.619140625,-0.13818359375,0.3369140625,17.39501953125,-4.21142578125,19.95849609375,-5.328369140625,41.6107177734375,-135.9942626953125
1758876139.5242953,-0.6474609375,-0.1826171875,0.66796875,61.82861328125,-5.9814453125,17.2119140625,-4.7625732421875,41.605224609375,-135.714111328125
1758876139.5345557,-0.6474609375,-0.1826171875,0.66796875,61.82861328125,-5.9814453125,17.2119140625,-3.9990234375,41.5887451171875,-135.4669189453125
1758876139.5443013,-0.72705078125,0.01708984375,0.771484375,-24.59716796875,-0.79345703125,18.310546875,-3.66943359375,41.59423828125,-135.2197265625
1758876139.5542765,-0.72705078125,0.01708984375,0.771484375,-24.59716796875,-0.79345703125,18.310546875,-3.7628173828125,41.627197265625,-134.9615478515625
1758876139.5643451,-0.74072265625,0.2216796875,0.89599609375,-110.16845703125,-5.7373046875,21.42333984375,-4.2626953125,41.627197265625,-134.6759033203125
1758876139.5748184,-0.74072265625,0.2216796875,0.89599609375,-110.16845703125,-5.7373046875,21.42333984375,-5.152587890625,41.6107177734375,-134.351806640625
1758876139.5842786,-0.87646484375,-0.02392578125,0.66748046875,-33.935546875,-7.87353515625,23.5595703125,-5.6414794921875,41.583251953125,-134.0057373046875
1758876139.594286,-0.87646484375,-0.02392578125,0.66748046875,-33.935546875,-7.87353515625,23.5595703125,-5.7403564453125,41.5557861328125,-133.6376953125
1758876139.6046364,-0.74560546875,-0.4140625,0.97900390625,65.673828125,-6.103515625,18.49365234375,-5.3668212890625,41.5338134765625,-133.30810546875
1758876139.6146665,-0.74560546875,-0.4140625,0.97900390625,65.673828125,-6.103515625,18.49365234375,-4.5428466796875,41.50634765625,-133.04443359375
1758876139.6243322,-0.4765625,-0.2587890625,0.26220703125,29.541015625,-2.685546875,17.27294921875,-3.922119140625,41.495361328125,-132.802734375
1758876139.63437,-0.4765625,-0.2587890625,0.26220703125,29.541015625,-2.685546875,17.27294921875,-3.4991455078125,41.5008544921875,-132.5885009765625
1758876139.6446579,-0.7080078125,-0.05419921875,0.65869140625,44.98291015625,-2.197265625,14.7705078125,-3.021240234375,41.5118408203125,-132.3907470703125
1758876139.6544085,-0.7080078125,-0.05419921875,0.65869140625,44.98291015625,-2.197265625,14.7705078125,-2.4774169921875,41.5228271484375,-132.2149658203125
1758876139.664437,-0.6591796875,0.03857421875,0.99169921875,54.931640625,-0.6103515625,11.8408203125,-1.900634765625,41.539306640625,-132.0556640625
