timestamp,acc_x,acc_y,acc_z,gyro_x,gyro_y,gyro_z,angle_x,angle_y,angle_z
1758876630.2284372,-0.82275390625,-0.07177734375,0.5615234375,0.0,-0.9765625,-0.79345703125,-6.1798095703125,55.1019287109375,-176.7095947265625
1758876630.2423708,-0.82275390625,-0.07177734375,0.5615234375,0.0,-0.9765625,-0.79345703125,-6.1907958984375,55.0909423828125,-176.6986083984375
1758876630.2613854,-0.8291015625,-0.0673828125,0.5673828125,-0.48828125,-0.8544921875,-0.732421875,-6.2017822265625,55.08544921875,-176.6876220703125
1758876630.2752836,-0.8291015625,-0.0673828125,0.5673828125,-0.48828125,-0.8544921875,-0.732421875,-6.21826171875,55.074462890625,-176.6766357421875
1758876630.283262,-0.828125,-0.0673828125,0.56201171875,1.5869140625,-0.79345703125,-0.67138671875,-6.2237548828125,55.0689697265625,-176.6656494140625
1758876630.289581,-0.828125,-0.0673828125,0.56201171875,1.5869140625,-0.79345703125,-0.67138671875,-6.21826171875,55.0634765625,-176.6546630859375
1758876630.2957282,-0.8056640625,-0.08349609375,0.54833984375,3.2958984375,-0.54931640625,-0.79345703125,-6.207275390625,55.0579833984375,-176.649169921875
1758876630.3023384,-0.8056640625,-0.08349609375,0.54833984375,3.2958984375,-0.54931640625,-0.79345703125,-6.1907958984375,55.052490234375,-176.63818359375
1758876630.308594,-0.82177734375,-0.06982421875,0.58740234375,3.84521484375,-0.9765625,-0.3662109375,-6.163330078125,55.0469970703125,-176.6326904296875
1758876630.315895,-0.82177734375,-0.06982421875,0.58740234375,3.84521484375,-0.9765625,-0.3662109375,-6.1358642578125,55.0360107421875,-176.6162109375
1758876630.3258922,-0.81884765625,-0.0478515625,0.5810546875,1.28173828125,-0.732421875,-0.3662109375,-6.119384765625,55.030517578125,-176.605224609375
1758876630.3358827,-0.81884765625,-0.0478515625,0.5810546875,1.28173828125,-0.732421875,-0.3662109375,-6.1138916015625,55.01953125,-176.59423828125
1758876630.345901,-0.818359375,-0.05712890625,0.5634765625,1.52587890625,-0.6103515625,-0.42724609375,-6.1083984375,55.0140380859375,-176.5777587890625
1758876630.3559752,-0.818359375,-0.05712890625,0.5634765625,1.52587890625,-0.6103515625,-0.42724609375,-6.097412109375,55.008544921875,-176.5667724609375
1758876630.3659992,-0.82080078125,-0.07080078125,0.56591796875,0.3662109375,-0.54931640625,-0.30517578125,-6.0919189453125,55.0030517578125,-176.5557861328125
1758876630.3759701,-0.82080078125,-0.07080078125,0.56591796875,0.3662109375,-0.54931640625,-0.30517578125,-6.097412109375,54.99755859375,-176.539306640625
1758876630.3859794,-0.8203125,-0.06689453125,0.56787109375,0.244140625,-0.54931640625,-0.1220703125,-6.097412109375,54.9920654296875,-176.5228271484375
1758876630.396492,-0.8203125,-0.06689453125,0.56787109375,0.244140625,-0.54931640625,-0.1220703125,-6.097412109375,54.986572265625,-176.50634765625
1758876630.4059653,-0.81982421875,-0.06640625,0.5693359375,0.0,-0.67138671875,0.0,-6.1029052734375,54.9810791015625,-176.4898681640625
1758876630.4159734,-0.81982421875,-0.06640625,0.5693359375,0.0,-0.67138671875,0.0,-6.1029052734375,54.9755859375,-176.4678955078125
1758876630.426215,-0.8154296875,-0.0634765625,0.5634765625,-0.1220703125,-0.732421875,-0.1220703125,-6.1083984375,54.9700927734375,-176.451416015625
1758876630.4360318,-0.8154296875,-0.0634765625,0.5634765625,-0.1220703125,-0.732421875,-0.1220703125,-6.1083984375,54.964599609375,-176.4349365234375
1758876630.446055,-0.810546875,-0.05712890625,0.57568359375,0.1220703125,-0.6103515625,-0.3662109375,-6.1138916015625,54.9591064453125,-176.4239501953125
1758876630.4560645,-0.810546875,-0.05712890625,0.57568359375,0.1220703125,-0.6103515625,-0.3662109375,-6.119384765625,54.95361328125,-176.4129638671875
1758876630.4660912,-0.80908203125,-0.0654296875,0.58984375,1.64794921875,-0.48828125,-0.732421875,-6.119384765625,54.9481201171875,-176.407470703125
1758876630.476083,-0.80908203125,-0.0654296875,0.58984375,1.64794921875,-0.48828125,-0.732421875,-6.1138916015625,54.942626953125,-176.4019775390625
1758876630.4861007,-0.7919921875,-0.078125,0.5908203125,6.8359375,-0.6103515625,-1.28173828125,-6.08642578125,54.931640625,-176.407470703125
1758876630.496119,-0.7919921875,-0.078125,0.5908203125,6.8359375,-0.6103515625,-1.28173828125,-6.0369873046875,54.920654296875,-176.4129638671875
1758876630.5061364,-0.7841796875,-0.087890625,0.6162109375,10.55908203125,-0.91552734375,-1.77001953125,-5.9765625,54.90966796875,-176.429443359375
1758876630.516158,-0.7841796875,-0.087890625,0.6162109375,10.55908203125,-0.91552734375,-1.77001953125,-5.899658203125,54.8931884765625,-176.451416015625
1758876630.526161,-0.7900390625,-0.06689453125,0.611328125,12.39013671875,-1.46484375,-2.44140625,-5.8172607421875,54.876708984375,-176.4788818359375
1758876630.5361695,-0.7900390625,-0.06689453125,0.611328125,12.39013671875,-1.46484375,-2.44140625,-5.73486328125,54.8492431640625,-176.517333984375
1758876630.5461843,-0.77880859375,-0.0390625,0.6015625,18.06640625,-2.01416015625,-3.72314453125,-5.6304931640625,54.82177734375,-176.561279296875
1758876630.5561988,-0.77880859375,-0.0390625,0.6015625,18.06640625,-2.01416015625,-3.72314453125,-5.504150390625,54.788818359375,-176.6217041015625
1758876630.566253,-0.751953125,-0.0615234375,0.61328125,20.20263671875,-2.197265625,-4.8828125,-5.3778076171875,54.755859375,-176.6876220703125
1758876630.5762298,-0.751953125,-0.0615234375,0.61328125,20.20263671875,-2.197265625,-4.8828125,-5.2459716796875,54.7174072265625,-176.7645263671875
1758876630.5862305,-0.76416015625,-0.0458984375,0.6474609375,18.00537109375,-2.50244140625,-5.2490234375,-5.1251220703125,54.678955078125,-176.8524169921875
1758876630.596254,-0.76416015625,-0.0458984375,0.6474609375,18.00537109375,-2.50244140625,-5.2490234375,-5.020751953125,54.635009765625,-176.9403076171875
1758876630.6062627,-0.78125,-0.0517578125,0.66845703125,16.11328125,-3.47900390625,-5.2490234375,-4.9273681640625,54.591064453125,-177.0281982421875
1758876630.6162872,-0.78125,-0.0517578125,0.66845703125,16.11328125,-3.47900390625,-5.2490234375,-4.8394775390625,54.5361328125,-177.1160888671875
1758876630.626303,-0.794921875,-0.0390625,0.61181640625,17.39501953125,-4.21142578125,-5.615234375,-4.74609375,54.4757080078125,-177.20947265625
1758876630.6363032,-0.794921875,-0.0390625,0.61181640625,17.39501953125,-4.21142578125,-5.615234375,-4.6527099609375,54.4097900390625,-177.3028564453125
1758876630.6463194,-0.818359375,-0.03466796875,0.63330078125,18.49365234375,-4.82177734375,-6.28662109375,-4.5538330078125,54.349365234375,-177.4072265625
1758876630.656325,-0.818359375,-0.03466796875,0.63330078125,18.49365234375,-4.82177734375,-6.28662109375,-4.449462890625,54.2779541015625,-177.5115966796875
1758876630.6663454,-0.79541015625,-0.03369140625,0.63818359375,20.01953125,-5.18798828125,-6.28662109375,-4.3450927734375,54.2120361328125,-177.6104736328125
1758876630.6763508,-0.79541015625,-0.03369140625,0.63818359375,20.01953125,-5.18798828125,-6.28662109375,-4.2242431640625,54.140625,-177.71484375
1758876630.6863577,-0.76953125,-0.04443359375,0.662109375,21.240234375,-5.859375,-5.55419921875,-4.097900390625,54.063720703125,-177.8082275390625
1758876630.6963828,-0.76953125,-0.04443359375,0.662109375,21.240234375,-5.859375,-5.55419921875,-3.955078125,53.98681640625,-177.901611328125
1758876630.7063985,-0.74462890625,-0.0537109375,0.630859375,19.22607421875,-6.4697265625,-5.37109375,-3.8287353515625,53.909912109375,-177.989501953125
1758876630.7164025,-0.74462890625,-0.0537109375,0.630859375,19.22607421875,-6.4697265625,-5.37109375,-3.7078857421875,53.822021484375,-178.0828857421875
1758876630.7264576,-0.69091796875,-0.05615234375,0.67919921875,10.80322265625,-7.01904296875,-5.31005859375,-3.6309814453125,53.734130859375,-178.1707763671875
1758876630.7364984,-0.69091796875,-0.05615234375,0.67919921875,10.80322265625,-7.01904296875,-5.31005859375,-3.592529296875,53.6407470703125,-178.2696533203125
1758876630.7465844,-0.62353515625,-0.05126953125,0.6982421875,3.11279296875,-7.32421875,-5.615234375,-3.5980224609375,53.5418701171875,-178.3685302734375
1758876630.7565267,-0.62353515625,-0.05126953125,0.6982421875,3.11279296875,-7.32421875,-5.615234375,-3.6419677734375,53.4429931640625,-178.4783935546875
1758876630.7665951,-0.5439453125,-0.041015625,0.71875,12.0849609375,-6.9580078125,-6.40869140625,-3.6474609375,53.3331298828125,-178.5992431640625
1758876630.7766275,-0.5439453125,-0.041015625,0.71875,12.0849609375,-6.9580078125,-6.40869140625,-3.614501953125,53.2232666015625,-178.7310791015625
1758876630.786924,-0.57568359375,-0.03515625,0.80078125,14.58740234375,-7.14111328125,-7.99560546875,-3.5760498046875,53.10791015625,-178.87939453125
1758876630.79665,-0.57568359375,-0.03515625,0.80078125,14.58740234375,-7.14111328125,-7.99560546875,-3.53759765625,52.987060546875,-179.05517578125
1758876630.8069432,-0.78271484375,0.04736328125,0.783203125,-5.55419921875,-7.9345703125,-9.765625,-3.6090087890625,52.855224609375,-179.241943359375
1758876630.816697,-0.78271484375,0.04736328125,0.783203125,-5.55419921875,-7.9345703125,-9.765625,-3.7847900390625,52.723388671875,-179.4342041015625
1758876630.8271096,-0.94287109375,0.115234375,0.88671875,-36.68212890625,-11.16943359375,-9.33837890625,-4.1033935546875,52.569580078125,-179.615478515625
1758876630.8371944,-0.94287109375,0.115234375,0.88671875,-36.68212890625,-11.16943359375,-9.33837890625,-4.559326171875,52.4102783203125,-179.7802734375
1758876630.8470445,-0.72314453125,-0.02587890625,0.6171875,-40.1611328125,-11.71875,-5.9814453125,-5.0042724609375,52.2454833984375,-179.9066162109375
1758876630.8571177,-0.72314453125,-0.02587890625,0.6171875,-40.1611328125,-11.71875,-5.9814453125,-5.438232421875,52.0806884765625,-179.9945068359375
1758876630.867049,-0.6171875,-0.1630859375,0.36181640625,-3.90625,-9.33837890625,-8.056640625,-5.701904296875,51.9378662109375,179.901123046875
1758876630.8780687,-0.6171875,-0.1630859375,0.36181640625,-3.90625,-9.33837890625,-8.056640625,-5.811767578125,51.8060302734375,179.7802734375
1758876630.8869698,-0.78515625,-0.208984375,0.51025390625,21.97265625,-6.9580078125,-10.7421875,-5.811767578125,51.690673828125,179.6429443359375
1758876630.896799,-0.78515625,-0.208984375,0.51025390625,21.97265625,-6.9580078125,-10.7421875,-5.7183837890625,51.5972900390625,179.483642578125
1758876630.9070542,-1.17919921875,0.05126953125,0.67431640625,41.6259765625,-6.8359375,-7.2021484375,-5.504150390625,51.5093994140625,179.351806640625
1758876630.917578,-1.17919921875,0.05126953125,0.67431640625,41.6259765625,-6.8359375,-7.2021484375,-5.1690673828125,51.427001953125,179.2694091796875
1758876630.926912,-1.0615234375,-0.1591796875,0.2412109375,41.1376953125,-7.080078125,-8.11767578125,-4.8394775390625,51.361083984375,179.18701171875
1758876630.9369493,-1.0615234375,-0.1591796875,0.2412109375,41.1376953125,-7.080078125,-8.11767578125,-4.5318603515625,51.30615234375,179.110107421875
1758876630.947532,-1.208984375,-0.1728515625,0.4931640625,61.46240234375,-7.6904296875,-5.92041015625,-4.119873046875,51.26220703125,179.05517578125
1758876630.9572988,-1.208984375,-0.1728515625,0.4931640625,61.46240234375,-7.6904296875,-5.92041015625,-3.5980224609375,51.21826171875,179.0167236328125
1758876630.966983,-0.94775390625,-0.1962890625,0.37109375,71.044921875,-6.53076171875,-4.69970703125,-3.0377197265625,51.1907958984375,178.9837646484375
1758876630.9770527,-0.94775390625,-0.1962890625,0.37109375,71.044921875,-6.53076171875,-4.69970703125,-2.427978515625,51.17431640625,178.956298828125
1758876630.9876769,-0.828125,-0.10009765625,0.25390625,51.45263671875,-2.13623046875,-3.90625,-1.9281005859375,51.185302734375,178.934326171875
1758876630.996954,-0.828125,-0.10009765625,0.25390625,51.45263671875,-2.13623046875,-3.90625,-1.5216064453125,51.2237548828125,178.9178466796875
1758876631.0070689,-0.8740234375,0.017578125,0.28515625,22.52197265625,0.3662109375,-3.173828125,-1.2579345703125,51.2786865234375,178.9068603515625
1758876631.018209,-0.8740234375,0.017578125,0.28515625,22.52197265625,0.3662109375,-3.173828125,-1.1370849609375,51.35009765625,178.9068603515625
1758876631.0280662,-0.89892578125,0.091796875,0.44140625,17.15087890625,2.13623046875,-1.5869140625,-1.0382080078125,51.4434814453125,178.9398193359375
1758876631.037105,-0.89892578125,0.091796875,0.44140625,17.15087890625,2.13623046875,-1.5869140625,-0.933837890625,51.536865234375,178.9837646484375
1758876631.0471575,-0.82470703125,0.05126953125,0.564453125,13.0615234375,2.9296875,-1.0986328125,-0.85693359375,51.6302490234375,179.033203125
1758876631.058383,-0.82470703125,0.05126953125,0.564453125,13.0615234375,2.9296875,-1.0986328125,-0.76904296875,51.7236328125,179.0826416015625
1758876631.0672657,-0.78857421875,-0.00927734375,0.6015625,-5.0048828125,3.23486328125,-0.8544921875,-0.85693359375,51.8115234375,179.132080078125
1758876631.0770936,-0.78857421875,-0.00927734375,0.6015625,-5.0048828125,3.23486328125,-0.8544921875,-0.94482421875,51.8994140625,179.176025390625
1758876631.087333,-0.77490234375,-0.02783203125,0.6357421875,-8.056640625,3.173828125,-0.30517578125,-1.0491943359375,51.976318359375,179.219970703125
1758876631.098402,-0.77490234375,-0.02783203125,0.6357421875,-8.056640625,3.173828125,-0.30517578125,-1.1480712890625,52.0477294921875,179.263916015625
1758876631.1070938,-0.751953125,-0.01806640625,0.70068359375,-8.4228515625,2.74658203125,-0.54931640625,-1.2579345703125,52.1136474609375,179.296875
1758876631.1172493,-0.751953125,-0.01806640625,0.70068359375,-8.4228515625,2.74658203125,-0.54931640625,-1.3623046875,52.1685791015625,179.3243408203125
1758876631.1277065,-0.73681640625,-0.00244140625,0.73876953125,-8.23974609375,2.44140625,-0.79345703125,-1.461181640625,52.2125244140625,179.3408203125
1758876631.1372068,-0.73681640625,-0.00244140625,0.73876953125,-8.23974609375,2.44140625,-0.79345703125,-1.56005859375,52.2509765625,179.351806640625
1758876631.1471906,-0.7255859375,-0.02099609375,0.7548828125,-2.5634765625,1.64794921875,-1.15966796875,-1.60400390625,52.27294921875,179.351806640625
1758876631.1575882,-0.7255859375,-0.02099609375,0.7548828125,-2.5634765625,1.64794921875,-1.15966796875,-1.64794921875,52.2894287109375,179.3463134765625
1758876631.1677928,-0.7294921875,-0.03515625,0.73779296875,4.33349609375,1.28173828125,-1.77001953125,-1.6314697265625,52.3004150390625,179.3243408203125
1758876631.177243,-0.7294921875,-0.03515625,0.73779296875,4.33349609375,1.28173828125,-1.77001953125,-1.614990234375,52.305908203125,179.3023681640625
1758876631.1878679,-0.7548828125,-0.02392578125,0.6669921875,12.5732421875,0.54931640625,-2.38037109375,-1.527099609375,52.3004150390625,179.263916015625
1758876631.1982396,-0.7548828125,-0.02392578125,0.6669921875,12.5732421875,0.54931640625,-2.38037109375,-1.4337158203125,52.294921875,179.2254638671875
1758876631.2073474,-0.78564453125,-0.01171875,0.677734375,18.37158203125,-0.3662109375,-2.44140625,-1.285400390625,52.2784423828125,179.1815185546875
1758876631.2173905,-0.78564453125,-0.01171875,0.677734375,18.37158203125,-0.3662109375,-2.44140625,-1.142578125,52.261962890625,179.14306640625
1758876631.227718,-0.78564453125,-0.02685546875,0.64697265625,27.16064453125,-1.220703125,-2.13623046875,-0.90087890625,52.2344970703125,179.1046142578125
1758876631.238617,-0.78564453125,-0.02685546875,0.64697265625,27.16064453125,-1.220703125,-2.13623046875,-0.6646728515625,52.2125244140625,179.066162109375
1758876631.2473674,-0.7666015625,-0.04052734375,0.60400390625,31.18896484375,-2.25830078125,-2.0751953125,-0.3900146484375,52.1795654296875,179.0277099609375
1758876631.2574039,-0.7666015625,-0.04052734375,0.60400390625,31.18896484375,-2.25830078125,-2.0751953125,-0.120849609375,52.1466064453125,178.9892578125
1758876631.2680302,-0.783203125,0.00146484375,0.62744140625,36.56005859375,-1.953125,-2.62451171875,0.1922607421875,52.1136474609375,178.9453125
1758876631.277402,-0.783203125,0.00146484375,0.62744140625,36.56005859375,-1.953125,-2.62451171875,0.5108642578125,52.086181640625,178.8958740234375
1758876631.2883031,-0.7783203125,0.02587890625,0.61181640625,48.27880859375,-1.8310546875,-3.662109375,0.9283447265625,52.064208984375,178.8299560546875
1758876631.297587,-0.7783203125,0.02587890625,0.61181640625,48.27880859375,-1.8310546875,-3.662109375,1.351318359375,52.0367431640625,178.76953125
1758876631.3074098,-0.7529296875,-0.00146484375,0.6484375,60.36376953125,-2.01416015625,-3.90625,1.8841552734375,52.00927734375,178.70361328125
1758876631.3175695,-0.7529296875,-0.00146484375,0.6484375,60.36376953125,-2.01416015625,-3.90625,2.4169921875,51.9818115234375,178.6322021484375
1758876631.3281736,-0.7470703125,0.01171875,0.6865234375,54.38232421875,-2.38037109375,-4.21142578125,2.8839111328125,51.954345703125,178.5498046875
1758876631.3380764,-0.7470703125,0.01171875,0.6865234375,54.38232421875,-2.38037109375,-4.21142578125,3.350830078125,51.92138671875,178.4674072265625
1758876631.3474517,-0.71044921875,0.07763671875,0.6796875,46.7529296875,-2.9296875,-3.72314453125,3.746337890625,51.8829345703125,178.3905029296875
1758876631.3575177,-0.71044921875,0.07763671875,0.6796875,46.7529296875,-2.9296875,-3.72314453125,4.141845703125,51.8389892578125,178.3135986328125
1758876631.3687885,-0.68359375,0.11376953125,0.66455078125,40.6494140625,-3.60107421875,-2.74658203125,4.493408203125,51.78955078125,178.253173828125
1758876631.3774886,-0.68359375,0.11376953125,0.66455078125,40.6494140625,-3.60107421875,-2.74658203125,4.844970703125,51.7401123046875,178.187255859375
1758876631.3875303,-0.73046875,0.0634765625,0.74560546875,20.08056640625,-5.31005859375,-1.953125,4.998779296875,51.668701171875,178.13232421875
1758876631.398549,-0.73046875,0.0634765625,0.74560546875,20.08056640625,-5.31005859375,-1.953125,5.152587890625,51.591796875,178.077392578125
1758876631.4076653,-0.67333984375,0.06787109375,0.81591796875,5.126953125,-6.7138671875,-1.77001953125,5.16357421875,51.50390625,178.0169677734375
1758876631.417569,-0.67333984375,0.06787109375,0.81591796875,5.126953125,-6.7138671875,-1.77001953125,5.1690673828125,51.405029296875,177.945556640625
1758876631.427577,-0.5986328125,0.07568359375,0.724609375,-4.69970703125,-7.8125,-1.28173828125,5.086669921875,51.295166015625,177.879638671875
1758876631.438763,-0.5986328125,0.07568359375,0.724609375,-4.69970703125,-7.8125,-1.28173828125,5.0042724609375,51.185302734375,177.813720703125
1758876631.4476237,-0.58740234375,0.11083984375,0.6328125,-36.92626953125,-7.2021484375,-0.244140625,4.6197509765625,51.075439453125,177.7642822265625
1758876631.458054,-0.58740234375,0.11083984375,0.6328125,-36.92626953125,-7.2021484375,-0.244140625,4.24072265625,50.965576171875,177.7203369140625
1758876631.4683325,-0.62255859375,0.1220703125,0.8427734375,-48.15673828125,-8.9111328125,-0.42724609375,3.7518310546875,50.833740234375,177.6708984375
1758876631.4780836,-0.62255859375,0.1220703125,0.8427734375,-48.15673828125,-8.9111328125,-0.42724609375,3.2684326171875,50.701904296875,177.6214599609375
1758876631.4877222,-0.609375,0.02587890625,0.70458984375,-49.1943359375,-8.30078125,0.244140625,2.7850341796875,50.570068359375,177.5830078125
1758876631.497638,-0.609375,0.02587890625,0.70458984375,-49.1943359375,-8.30078125,0.244140625,2.30712890625,50.438232421875,177.550048828125
1758876631.508343,-0.7021484375,-0.14697265625,0.58447265625,-34.5458984375,-7.6904296875,-0.732421875,1.95556640625,50.3173828125,177.5006103515625
1758876631.5181196,-0.7021484375,-0.14697265625,0.58447265625,-34.5458984375,-7.6904296875,-0.732421875,1.60400390625,50.2020263671875,177.4566650390625
1758876631.5276868,-1.05517578125,-0.06982421875,0.677734375,4.0283203125,-7.9345703125,-1.220703125,1.6204833984375,50.09765625,177.4127197265625
1758876631.5388217,-1.05517578125,-0.06982421875,0.677734375,4.0283203125,-7.9345703125,-1.220703125,1.636962890625,49.998779296875,177.374267578125
1758876631.5481172,-1.08251953125,0.20458984375,0.7822265625,28.4423828125,-10.8642578125,-0.6103515625,1.91162109375,49.8724365234375,177.36328125
1758876631.5580294,-1.08251953125,0.20458984375,0.7822265625,28.4423828125,-10.8642578125,-0.6103515625,2.1917724609375,49.757080078125,177.3577880859375
1758876631.5678267,-0.919921875,0.06298828125,0.5068359375,12.63427734375,-9.70458984375,1.64794921875,2.340087890625,49.658203125,177.4017333984375
1758876631.5787318,-0.919921875,0.06298828125,0.5068359375,12.63427734375,-9.70458984375,1.64794921875,2.4884033203125,49.5703125,177.4566650390625
1758876631.5878723,-0.76416015625,0.0146484375,0.3720703125,-15.5029296875,-8.11767578125,3.72314453125,2.3785400390625,49.4989013671875,177.550048828125
1758876631.5981789,-0.76416015625,0.0146484375,0.3720703125,-15.5029296875,-8.11767578125,3.72314453125,2.274169921875,49.4384765625,177.64892578125
1758876631.6078782,-0.76611328125,0.03515625,0.40234375,-27.89306640625,-4.82177734375,4.8828125,2.054443359375,49.4110107421875,177.7752685546875
1758876631.6188567,-0.76611328125,0.03515625,0.40234375,-27.89306640625,-4.82177734375,4.8828125,1.8402099609375,49.3890380859375,177.9071044921875
1758876631.6277783,-0.7734375,0.05810546875,0.49365234375,-26.9775390625,-3.23486328125,5.4931640625,1.6424560546875,49.3890380859375,178.055419921875
1758876631.638344,-0.7734375,0.05810546875,0.49365234375,-26.9775390625,-3.23486328125,5.4931640625,1.4447021484375,49.3890380859375,178.209228515625
1758876631.6482925,-0.75830078125,0.02783203125,0.62744140625,-22.76611328125,-3.11279296875,6.4697265625,1.3018798828125,49.3890380859375,178.3740234375
1758876631.65861,-0.75830078125,0.02783203125,0.62744140625,-22.76611328125,-3.11279296875,6.4697265625,1.16455078125,49.383544921875,178.538818359375
1758876631.667911,-0.7138671875,0.01318359375,0.66015625,-24.84130859375,-3.23486328125,6.89697265625,1.0052490234375,49.3780517578125,178.70361328125
1758876631.6782951,-0.7138671875,0.01318359375,0.66015625,-24.84130859375,-3.23486328125,6.89697265625,0.845947265625,49.3670654296875,178.868408203125
1758876631.6886048,-0.63134765625,0.04248046875,0.5283203125,-28.564453125,-0.9765625,7.14111328125,0.6591796875,49.3780517578125,179.0386962890625
1758876631.698289,-0.63134765625,0.04248046875,0.5283203125,-28.564453125,-0.9765625,7.14111328125,0.472412109375,49.383544921875,179.2034912109375
1758876631.7079747,-0.70947265625,0.00439453125,0.634765625,-22.5830078125,-1.0986328125,5.615234375,0.32958984375,49.3890380859375,179.3463134765625
1758876631.7188606,-0.70947265625,0.00439453125,0.634765625,-22.5830078125,-1.0986328125,5.615234375,0.1812744140625,49.39453125,179.483642578125
1758876631.7279081,-0.96630859375,-0.0244140625,0.97119140625,-12.51220703125,-1.64794921875,5.2490234375,0.1318359375,49.3890380859375,179.6099853515625
1758876631.7383554,-0.96630859375,-0.0244140625,0.97119140625,-12.51220703125,-1.64794921875,5.2490234375,0.076904296875,49.3780517578125,179.7308349609375
1758876631.7487411,-0.908203125,-0.06982421875,0.73779296875,-1.15966796875,-4.57763671875,2.99072265625,0.1043701171875,49.3341064453125,179.813232421875
1758876631.7582598,-0.908203125,-0.06982421875,0.73779296875,-1.15966796875,-4.57763671875,2.99072265625,0.1318359375,49.295654296875,179.89013671875
1758876631.768071,-0.82763671875,0.0,0.5244140625,-1.8310546875,-3.11279296875,3.11279296875,0.1483154296875,49.2681884765625,179.9725341796875
1758876631.7784002,-0.82763671875,0.0,0.5244140625,-1.8310546875,-3.11279296875,3.11279296875,0.164794921875,49.251708984375,-179.93408203125
1758876631.7886353,-0.80078125,0.06689453125,0.48095703125,-9.21630859375,-2.0751953125,3.11279296875,0.10986328125,49.2462158203125,-179.835205078125
1758876631.7983692,-0.80078125,0.06689453125,0.48095703125,-9.21630859375,-2.0751953125,3.11279296875,0.0604248046875,49.2462158203125,-179.7308349609375
1758876631.8080719,-0.76708984375,0.07666015625,0.5419921875,-10.3759765625,-0.30517578125,3.96728515625,0.010986328125,49.2681884765625,-179.6099853515625
1758876631.8187513,-0.76708984375,0.07666015625,0.5419921875,-10.3759765625,-0.30517578125,3.96728515625,-0.032958984375,49.28466796875,-179.483642578125
1758876631.8287911,-0.71728515625,-0.07763671875,0.57275390625,-4.5166015625,0.0,3.662109375,-0.0274658203125,49.306640625,-179.3682861328125
1758876631.838428,-0.71728515625,-0.07763671875,0.57275390625,-4.5166015625,0.0,3.662109375,-0.0274658203125,49.32861328125,-179.2584228515625
1758876631.8481228,-0.73388671875,-0.0771484375,0.6884765625,-1.03759765625,-0.9765625,2.99072265625,-0.0054931640625,49.339599609375,-179.1595458984375
1758876631.8584313,-0.73388671875,-0.0771484375,0.6884765625,-1.03759765625,-0.9765625,2.99072265625,0.010986328125,49.3450927734375,-179.0716552734375
1758876631.8689888,-0.72216796875,0.03173828125,0.7509765625,0.48828125,-0.9765625,2.99072265625,0.0439453125,49.3450927734375,-178.9892578125
1758876631.8784826,-0.72216796875,0.03173828125,0.7509765625,0.48828125,-0.9765625,2.99072265625,0.0823974609375,49.339599609375,-178.9068603515625
1758876631.8881855,-0.67431640625,0.03466796875,0.62109375,-5.2490234375,-1.15966796875,3.5400390625,0.0714111328125,49.3341064453125,-178.8189697265625
1758876631.898556,-0.67431640625,0.03466796875,0.62109375,-5.2490234375,-1.15966796875,3.5400390625,0.0604248046875,49.3231201171875,-178.7310791015625
1758876631.9090822,-0.72705078125,0.05224609375,0.7216796875,-14.09912109375,-3.11279296875,2.197265625,-0.0439453125,49.2901611328125,-178.65966796875
1758876631.9185312,-0.72705078125,0.05224609375,0.7216796875,-14.09912109375,-3.11279296875,2.197265625,-0.1483154296875,49.2572021484375,-178.5882568359375
1758876631.9287047,-0.72509765625,0.041015625,0.69873046875,-29.60205078125,-1.46484375,3.41796875,-0.3955078125,49.24072265625,-178.5003662109375
1758876631.9387543,-0.72509765625,0.041015625,0.69873046875,-29.60205078125,-1.46484375,3.41796875,-0.63720703125,49.2242431640625,-178.4124755859375
1758876631.9492428,-0.65185546875,0.03466796875,0.67236328125,-38.02490234375,-2.62451171875,1.46484375,-0.9832763671875,49.1912841796875,-178.3575439453125
1758876631.9584653,-0.65185546875,0.03466796875,0.67236328125,-38.02490234375,-2.62451171875,1.46484375,-1.329345703125,49.15283203125,-178.297119140625
1758876631.9683802,-0.8701171875,-0.03662109375,0.6689453125,-32.04345703125,-2.44140625,3.72314453125,-1.5875244140625,49.1253662109375,-178.2037353515625
1758876631.9790018,-0.8701171875,-0.03662109375,0.6689453125,-32.04345703125,-2.44140625,3.72314453125,-1.845703125,49.097900390625,-178.1048583984375
1758876631.9885519,-0.84375,-0.064453125,0.822265625,-17.822265625,-4.21142578125,3.35693359375,-1.966552734375,49.053955078125,-178.0169677734375
1758876631.9986734,-0.73974609375,-0.07568359375,0.552734375,-13.97705078125,-2.38037109375,4.0283203125,-2.0709228515625,49.0155029296875,-177.923583984375
1758876632.00846,-0.73974609375,-0.07568359375,0.552734375,-13.97705078125,-2.38037109375,4.0283203125,-2.1533203125,48.9935302734375,-177.82470703125
1758876632.0190272,-0.73291015625,0.00390625,0.51806640625,-6.04248046875,-3.11279296875,4.82177734375,-2.197265625,48.966064453125,-177.7203369140625
1758876632.02837,-0.73291015625,0.00390625,0.51806640625,-6.04248046875,-3.11279296875,4.82177734375,-2.1917724609375,48.944091796875,-177.5994873046875
1758876632.0387301,-0.75244140625,0.00341796875,0.72314453125,-5.2490234375,-1.5869140625,5.31005859375,-2.1807861328125,48.9276123046875,-177.4786376953125
1758876632.0492022,-0.75244140625,0.00341796875,0.72314453125,-5.2490234375,-1.5869140625,5.31005859375,-2.164306640625,48.9166259765625,-177.352294921875
1758876632.058717,-0.7109375,-0.02197265625,0.68359375,-10.55908203125,-1.8310546875,6.04248046875,-2.1697998046875,48.9056396484375,-177.220458984375
1758876632.068491,-0.7109375,-0.02197265625,0.68359375,-10.55908203125,-1.8310546875,6.04248046875,-2.197265625,48.88916015625,-177.088623046875
1758876632.07878,-0.6875,-0.02734375,0.640625,-7.32421875,-1.52587890625,6.2255859375,-2.208251953125,48.8726806640625,-176.956787109375
1758876632.0891554,-0.6875,-0.02734375,0.640625,-7.32421875,-1.52587890625,6.2255859375,-2.2027587890625,48.856201171875,-176.824951171875
1758876632.0987487,-0.7841796875,-0.076171875,0.68505859375,7.6904296875,-1.64794921875,6.8359375,-2.120361328125,48.8397216796875,-176.6876220703125
1758876632.1085413,-0.7841796875,-0.076171875,0.68505859375,7.6904296875,-1.64794921875,6.8359375,-1.966552734375,48.8232421875,-176.55029296875
1758876632.1195772,-0.86767578125,-0.125,0.6748046875,30.45654296875,-1.5869140625,5.37109375,-1.7083740234375,48.8067626953125,-176.429443359375
1758876632.1288111,-0.86767578125,-0.125,0.6748046875,30.45654296875,-1.5869140625,5.37109375,-1.351318359375,48.7957763671875,-176.319580078125
1758876632.138845,-0.71240234375,-0.0107421875,0.57421875,27.03857421875,-1.3427734375,4.2724609375,-1.021728515625,48.779296875,-176.220703125
1758876632.1492772,-0.71240234375,-0.0107421875,0.57421875,27.03857421875,-1.3427734375,4.2724609375,-0.7196044921875,48.7738037109375,-176.1328125
1758876632.158769,-0.716796875,0.08837890625,0.61767578125,10.31494140625,-0.79345703125,5.0048828125,-0.494384765625,48.7628173828125,-176.033935546875
1758876632.1686754,-0.716796875,0.08837890625,0.61767578125,10.31494140625,-0.79345703125,5.0048828125,-0.3460693359375,48.7628173828125,-175.924072265625
1758876632.179693,-0.76904296875,0.0546875,0.67041015625,-12.3291015625,-0.54931640625,6.16455078125,-0.296630859375,48.75732421875,-175.80322265625
1758876632.1890388,-0.76904296875,0.0546875,0.67041015625,-12.3291015625,-0.54931640625,6.16455078125,-0.3515625,48.75732421875,-175.6768798828125
1758876632.1989286,-0.7998046875,0.0146484375,0.6572265625,-28.01513671875,-0.79345703125,6.53076171875,-0.4779052734375,48.75732421875,-175.53955078125
1758876632.2087388,-0.7998046875,0.0146484375,0.6572265625,-28.01513671875,-0.79345703125,6.53076171875,-0.68115234375,48.7518310546875,-175.4022216796875
1758876632.2194545,-0.84814453125,-0.00830078125,0.63916015625,-16.6015625,-1.64794921875,7.4462890625,-0.8184814453125,48.746337890625,-175.25390625
1758876632.2289157,-0.84814453125,-0.00830078125,0.63916015625,-16.6015625,-1.64794921875,7.4462890625,-0.8953857421875,48.7408447265625,-175.0946044921875
1758876632.238973,-0.78759765625,-0.0498046875,0.625,8.30078125,-0.8544921875,6.89697265625,-0.8514404296875,48.7408447265625,-174.9407958984375
1758876632.2489185,-0.78759765625,-0.0498046875,0.625,8.30078125,-0.8544921875,6.89697265625,-0.692138671875,48.7408447265625,-174.79248046875
1758876632.2592382,-0.74560546875,-0.05859375,0.57763671875,19.775390625,-0.06103515625,6.4697265625,-0.4779052734375,48.746337890625,-174.649658203125
1758876632.2688577,-0.74560546875,-0.05859375,0.57763671875,19.775390625,-0.06103515625,6.4697265625,-0.2142333984375,48.75732421875,-174.5123291015625
1758876632.2791111,-0.701171875,-0.068359375,0.61328125,38.14697265625,0.9765625,4.8828125,0.1263427734375,48.7738037109375,-174.3914794921875
1758876632.2894382,-0.701171875,-0.068359375,0.61328125,38.14697265625,0.9765625,4.8828125,0.5438232421875,48.7957763671875,-174.287109375
1758876632.2991133,-0.6689453125,-0.0703125,0.6015625,53.8330078125,2.13623046875,3.96728515625,1.03271484375,48.8177490234375,-174.1937255859375
1758876632.3088484,-0.6689453125,-0.0703125,0.6015625,53.8330078125,2.13623046875,3.96728515625,1.593017578125,48.84521484375,-174.111328125
1758876632.3190935,-0.64794921875,0.09423828125,0.6357421875,52.55126953125,2.9296875,2.13623046875,2.13134765625,48.878173828125,-174.04541015625
1758876632.3297555,-0.64794921875,0.09423828125,0.6357421875,52.55126953125,2.9296875,2.13623046875,2.6531982421875,48.9056396484375,-173.9959716796875
1758876632.3390942,-0.6845703125,0.0419921875,0.8466796875,31.79931640625,2.25830078125,4.0283203125,3.087158203125,48.93310546875,-173.9300537109375
1758876632.3488607,-0.6845703125,0.0419921875,0.8466796875,31.79931640625,2.25830078125,4.0283203125,3.4332275390625,48.944091796875,-173.8531494140625
1758876632.3592231,-0.6845703125,0.0419921875,0.8466796875,-0.42724609375,1.77001953125,2.62451171875,3.6090087890625,48.9495849609375,-173.792724609375
1758876632.3694477,-0.66162109375,0.1875,0.74951171875,-0.42724609375,1.77001953125,2.62451171875,3.62548828125,48.955078125,-173.7432861328125
1758876632.3791223,-0.6611328125,0.25244140625,0.70458984375,-29.60205078125,1.03759765625,4.0283203125,3.5101318359375,48.944091796875,-173.682861328125
1758876632.3889449,-0.6611328125,0.25244140625,0.70458984375,-29.60205078125,1.03759765625,4.0283203125,3.27392578125,48.93310546875,-173.6004638671875
1758876632.399024,-0.666015625,0.173828125,0.66357421875,-51.6357421875,0.91552734375,5.2490234375,2.9443359375,48.922119140625,-173.5015869140625
1758876632.4088662,-0.666015625,0.173828125,0.66357421875,-51.6357421875,0.91552734375,5.2490234375,2.515869140625,48.9056396484375,-173.3917236328125
1758876632.4189646,-0.84765625,-0.0400390625,0.79541015625,-36.376953125,-1.28173828125,6.16455078125,2.17529296875,48.8836669921875,-173.2763671875
1758876632.4290469,-0.84765625,-0.0400390625,0.79541015625,-36.376953125,-1.28173828125,6.16455078125,1.91162109375,48.84521484375,-173.155517578125
1758876632.4395716,-0.78173828125,-0.16552734375,0.52294921875,2.5634765625,1.8310546875,3.41796875,1.8182373046875,48.8287353515625,-173.056640625
1758876632.4489863,-0.78173828125,-0.16552734375,0.52294921875,2.5634765625,1.8310546875,3.41796875,1.8951416015625,48.834228515625,-172.979736328125
1758876632.4591854,-0.890625,-0.0732421875,0.6259765625,5.615234375,-1.89208984375,2.44140625,1.966552734375,48.8287353515625,-172.9193115234375
1758876632.4697733,-0.890625,-0.0732421875,0.6259765625,5.615234375,-1.89208984375,2.44140625,2.04345703125,48.8067626953125,-172.85888671875
1758876632.47918,-1.01123046875,0.20166015625,0.849609375,-52.18505859375,-1.220703125,2.25830078125,1.834716796875,48.790283203125,-172.803955078125
1758876632.4890335,-1.01123046875,0.20166015625,0.849609375,-52.18505859375,-1.220703125,2.25830078125,1.34033203125,48.779296875,-172.738037109375
1758876632.4996114,-0.81298828125,0.16650390625,0.3076171875,-85.44921875,-3.11279296875,8.6669921875,0.7305908203125,48.7628173828125,-172.6116943359375
1758876632.5095003,-0.81298828125,0.16650390625,0.3076171875,-85.44921875,-3.11279296875,8.6669921875,0.0054931640625,48.746337890625,-172.41943359375
1758876632.5192425,-0.8037109375,-0.015625,0.64453125,-49.560546875,-2.62451171875,9.521484375,-0.5328369140625,48.746337890625,-172.2052001953125
1758876632.5290906,-0.8037109375,-0.015625,0.64453125,-49.560546875,-2.62451171875,9.521484375,-0.8843994140625,48.7408447265625,-171.990966796875
1758876632.5397584,-0.74365234375,-0.15576171875,0.52392578125,-46.5087890625,-1.28173828125,9.765625,-1.23046875,48.746337890625,-171.7822265625
1758876632.5491643,-0.74365234375,-0.15576171875,0.52392578125,-46.5087890625,-1.28173828125,9.765625,-1.5655517578125,48.75732421875,-171.573486328125
1758876632.5600855,-0.806640625,-0.08837890625,0.56591796875,-35.94970703125,-0.9765625,9.33837890625,-1.8511962890625,48.7738037109375,-171.3702392578125
1758876632.569436,-0.806640625,-0.08837890625,0.56591796875,-35.94970703125,-0.9765625,9.33837890625,-2.098388671875,48.790283203125,-171.177978515625
1758876632.5791895,-0.85009765625,0.01806640625,0.6181640625,-23.193359375,-0.18310546875,8.60595703125,-2.28515625,48.8177490234375,-170.9857177734375
1758876632.589236,-0.85009765625,0.01806640625,0.6181640625,-23.193359375,-0.18310546875,8.60595703125,-2.406005859375,48.84521484375,-170.7989501953125
1758876632.5996304,-0.79736328125,-0.080078125,0.60205078125,-15.80810546875,0.06103515625,8.30078125,-2.4993896484375,48.8726806640625,-170.61767578125
1758876632.6093836,-0.79736328125,-0.080078125,0.60205078125,-15.80810546875,0.06103515625,8.30078125,-2.5543212890625,48.9056396484375,-170.4364013671875
1758876632.6193328,-0.791015625,-0.07666015625,0.61279296875,-10.68115234375,0.18310546875,8.23974609375,-2.5927734375,48.93310546875,-170.2606201171875
1758876632.629806,-0.791015625,-0.07666015625,0.61279296875,-10.68115234375,0.18310546875,8.23974609375,-2.603759765625,48.966064453125,-170.0848388671875
1758876632.6395578,-0.787109375,-0.0322265625,0.6162109375,-6.4697265625,0.42724609375,7.87353515625,-2.5982666015625,48.9935302734375,-169.9200439453125
1758876632.6492658,-0.787109375,-0.0322265625,0.6162109375,-6.4697265625,0.42724609375,7.87353515625,-2.5762939453125,49.0264892578125,-169.749755859375
1758876632.6593745,-0.7734375,-0.0263671875,0.6337890625,-7.26318359375,0.06103515625,7.32421875,-2.559814453125,49.053955078125,-169.5904541015625
1758876632.6707006,-0.7734375,-0.0263671875,0.6337890625,-7.26318359375,0.06103515625,7.32421875,-2.5543212890625,49.0814208984375,-169.43115234375
1758876632.6794026,-0.7607421875,-0.02099609375,0.6640625,-7.6904296875,0.18310546875,7.87353515625,-2.5433349609375,49.1033935546875,-169.2718505859375
1758876632.6894057,-0.7607421875,-0.02099609375,0.6640625,-7.6904296875,0.18310546875,7.87353515625,-2.5323486328125,49.1253662109375,-169.112548828125
1758876632.699848,-0.73779296875,-0.041015625,0.65966796875,-7.4462890625,0.0,7.8125,-2.515869140625,49.141845703125,-168.9532470703125
1758876632.7098007,-0.73779296875,-0.041015625,0.65966796875,-7.4462890625,0.0,7.8125,-2.5048828125,49.1583251953125,-168.7939453125
1758876632.7196717,-0.7451171875,-0.0234375,0.6630859375,-8.1787109375,0.0,7.080078125,-2.493896484375,49.1748046875,-168.6456298828125
1758876632.7294269,-0.7451171875,-0.0234375,0.6630859375,-8.1787109375,0.0,7.080078125,-2.4993896484375,49.185791015625,-168.5028076171875
1758876632.7402003,-0.72705078125,-0.01171875,0.69921875,-5.0048828125,-0.30517578125,6.04248046875,-2.4884033203125,49.19677734375,-168.3709716796875
1758876632.749436,-0.72705078125,-0.01171875,0.69921875,-5.0048828125,-0.30517578125,6.04248046875,-2.4664306640625,49.2022705078125,-168.24462890625
1758876632.7594702,-0.71533203125,-0.02734375,0.7060546875,-3.5400390625,-0.42724609375,5.4931640625,-2.4444580078125,49.2022705078125,-168.123779296875
1758876632.7707446,-0.71533203125,-0.02734375,0.7060546875,-3.5400390625,-0.42724609375,5.4931640625,-2.4114990234375,49.2022705078125,-168.013916015625
1758876632.7796376,-0.708984375,-0.033203125,0.7080078125,2.50244140625,-0.6103515625,4.69970703125,-2.3565673828125,49.19677734375,-167.9095458984375
1758876632.789469,-0.708984375,-0.033203125,0.7080078125,2.50244140625,-0.6103515625,4.69970703125,-2.2796630859375,49.185791015625,-167.816162109375
1758876632.799616,-0.71728515625,-0.04248046875,0.70458984375,10.8642578125,-1.220703125,3.41796875,-2.164306640625,49.1693115234375,-167.7337646484375
1758876632.8106956,-0.71728515625,-0.04248046875,0.70458984375,10.8642578125,-1.220703125,3.41796875,-2.0159912109375,49.15283203125,-167.6678466796875
1758876632.8195372,-0.7216796875,-0.03564453125,0.6962890625,11.77978515625,-1.953125,2.0751953125,-1.8731689453125,49.130859375,-167.607421875
1758876632.8304617,-0.7216796875,-0.03564453125,0.6962890625,11.77978515625,-1.953125,2.0751953125,-1.73583984375,49.097900390625,-167.5634765625
1758876632.840292,-0.70849609375,-0.0078125,0.7021484375,18.24951171875,-2.74658203125,1.3427734375,-1.571044921875,49.06494140625,-167.5250244140625
1758876632.84967,-0.70849609375,-0.0078125,0.7021484375,18.24951171875,-2.74658203125,1.3427734375,-1.3787841796875,49.0264892578125,-167.4920654296875
1758876632.8595297,-0.69677734375,-0.0205078125,0.68212890625,19.83642578125,-2.62451171875,1.3427734375,-1.1810302734375,48.988037109375,-167.4591064453125
1758876632.870591,-0.69677734375,-0.0205078125,0.68212890625,19.83642578125,-2.62451171875,1.3427734375,-0.9722900390625,48.9495849609375,-167.431640625
1758876632.879994,-0.67919921875,-0.037109375,0.69921875,20.44677734375,-3.5400390625,0.1220703125,-0.76904296875,48.9056396484375,-167.4151611328125
1758876632.889623,-0.67919921875,-0.037109375,0.69921875,20.44677734375,-3.5400390625,0.1220703125,-0.5712890625,48.856201171875,-167.40966796875
1758876632.8996964,-0.6943359375,-0.0283203125,0.669921875,20.20263671875,-3.41796875,0.48828125,-0.3790283203125,48.8067626953125,-167.398681640625
1758876632.910714,-0.6943359375,-0.0283203125,0.669921875,20.20263671875,-3.41796875,0.48828125,-0.1812744140625,48.75732421875,-167.3931884765625
1758876632.9196305,-0.7080078125,-0.01904296875,0.76318359375,18.1884765625,-3.60107421875,0.18310546875,0.0,48.7078857421875,-167.3876953125
1758876632.9296198,-0.7080078125,-0.01904296875,0.76318359375,18.1884765625,-3.60107421875,0.18310546875,0.164794921875,48.6529541015625,-167.3876953125
1758876632.9403586,-0.728515625,0.01123046875,0.77783203125,16.845703125,-4.45556640625,0.6103515625,0.32958984375,48.592529296875,-167.3876953125
1758876632.950277,-0.728515625,0.01123046875,0.77783203125,16.845703125,-4.45556640625,0.6103515625,0.4888916015625,48.526611328125,-167.3876953125
1758876632.9596846,-0.66845703125,0.03369140625,0.73193359375,18.98193359375,-4.57763671875,0.0,0.6591796875,48.460693359375,-167.3931884765625
1758876632.9708867,-0.66845703125,0.03369140625,0.73193359375,18.98193359375,-4.57763671875,0.0,0.8349609375,48.394775390625,-167.398681640625
1758876632.9796753,-0.640625,0.03466796875,0.669921875,12.14599609375,-3.7841796875,0.244140625,0.9503173828125,48.3343505859375,-167.4041748046875
1758876632.9897456,-0.640625,0.03466796875,0.669921875,12.14599609375,-3.7841796875,0.244140625,1.065673828125,48.27392578125,-167.40966796875
1758876633.0003195,-0.63232421875,-0.00244140625,0.65673828125,5.67626953125,-2.685546875,-0.54931640625,1.1041259765625,48.2244873046875,-167.4261474609375
1758876633.0098531,-0.63232421875,-0.00244140625,0.65673828125,5.67626953125,-2.685546875,-0.54931640625,1.1480712890625,48.175048828125,-167.442626953125
1758876633.0198064,-0.81494140625,-0.015625,0.7822265625,16.78466796875,-3.0517578125,0.54931640625,1.307373046875,48.1256103515625,-167.4481201171875
1758876633.0307333,-0.81494140625,-0.015625,0.7822265625,16.78466796875,-3.0517578125,0.54931640625,1.47216796875,48.076171875,-167.4481201171875
1758876633.04027,-0.8720703125,-0.06201171875,0.59619140625,22.39990234375,-1.0986328125,-1.15966796875,1.6644287109375,48.0487060546875,-167.4700927734375
1758876633.0502656,-0.8720703125,-0.06201171875,0.59619140625,22.39990234375,-1.0986328125,-1.15966796875,1.856689453125,48.0322265625,-167.4920654296875
1758876633.0599284,-0.88427734375,0.0302734375,0.4345703125,-9.21630859375,-3.0517578125,0.48828125,1.7523193359375,47.999267578125,-167.4810791015625
1758876633.0711427,-0.88427734375,0.0302734375,0.4345703125,-9.21630859375,-3.0517578125,0.48828125,1.6534423828125,47.977294921875,-167.4591064453125
1758876633.0800135,-0.90673828125,0.1708984375,0.6533203125,2.62451171875,-2.3193359375,3.173828125,1.702880859375,47.96630859375,-167.3822021484375
1758876633.0898294,-0.90673828125,0.1708984375,0.6533203125,2.62451171875,-2.3193359375,3.173828125,1.7633056640625,47.9608154296875,-167.3052978515625
1758876633.0999646,-0.90673828125,0.1708984375,0.6533203125,11.5966796875,-0.79345703125,4.69970703125,1.93359375,47.9718017578125,-167.1954345703125
1758876633.111007,-0.8203125,0.08349609375,0.55615234375,11.5966796875,-0.79345703125,4.69970703125,2.109375,47.9827880859375,-167.080078125
1758876633.1199636,-0.7294921875,-0.0205078125,0.60595703125,-20.93505859375,-1.15966796875,6.2255859375,1.9720458984375,47.98828125,-166.9482421875
1758876633.130899,-0.7294921875,-0.0205078125,0.60595703125,-20.93505859375,-1.15966796875,6.2255859375,1.8292236328125,47.999267578125,-166.81640625
1758876633.1404142,-0.79296875,0.06787109375,0.60107421875,-23.25439453125,-0.1220703125,7.75146484375,1.6864013671875,48.0157470703125,-166.66259765625
1758876633.1507134,-0.79296875,0.06787109375,0.60107421875,-23.25439453125,-0.1220703125,7.75146484375,1.549072265625,48.0322265625,-166.5032958984375
1758876633.1600351,-0.759765625,0.0205078125,0.59228515625,-12.51220703125,0.67138671875,6.7138671875,1.505126953125,48.0596923828125,-166.3604736328125
1758876633.1707118,-0.759765625,0.0205078125,0.59228515625,-12.51220703125,0.67138671875,6.7138671875,1.461181640625,48.087158203125,-166.2176513671875
1758876633.1807683,-0.732421875,0.0234375,0.70751953125,-3.23486328125,0.8544921875,7.50732421875,1.51611328125,48.1146240234375,-166.0638427734375
1758876633.190352,-0.732421875,0.0234375,0.70751953125,-3.23486328125,0.8544921875,7.50732421875,1.5765380859375,48.1365966796875,-165.91552734375
1758876633.2001565,-0.7021484375,0.0283203125,0.6826171875,-0.6103515625,0.6103515625,6.77490234375,1.64794921875,48.153076171875,-165.78369140625
1758876633.210982,-0.7021484375,0.0283203125,0.6826171875,-0.6103515625,0.6103515625,6.77490234375,1.724853515625,48.1695556640625,-165.65185546875
1758876633.2205312,-0.6748046875,0.03076171875,0.7412109375,-4.638671875,0.244140625,6.4697265625,1.7578125,48.175048828125,-165.5255126953125
1758876633.2304919,-0.6748046875,0.03076171875,0.7412109375,-4.638671875,0.244140625,6.4697265625,1.7852783203125,48.1805419921875,-165.41015625
1758876633.2402458,-0.62060546875,-0.0068359375,0.72216796875,-6.28662109375,0.732421875,5.4931640625,1.790771484375,48.1805419921875,-165.311279296875
1758876633.2513337,-0.62060546875,-0.0068359375,0.72216796875,-6.28662109375,0.732421875,5.4931640625,1.790771484375,48.1805419921875,-165.2178955078125
1758876633.2601097,-0.52783203125,-0.119140625,0.65673828125,-35.94970703125,2.01416015625,3.23486328125,1.461181640625,48.1915283203125,-165.1629638671875
1758876633.270513,-0.52783203125,-0.119140625,0.65673828125,-35.94970703125,2.01416015625,3.23486328125,1.131591796875,48.197021484375,-165.12451171875
1758876633.2812166,-0.5771484375,0.126953125,0.8154296875,-17.2119140625,0.42724609375,3.84521484375,0.999755859375,48.1805419921875,-165.0750732421875
1758876633.2905612,-0.5771484375,0.126953125,0.8154296875,-17.2119140625,0.42724609375,3.84521484375,0.8734130859375,48.1585693359375,-165.025634765625
1758876633.3001847,-0.71142578125,0.2021484375,0.78076171875,-33.0810546875,-0.18310546875,5.55419921875,0.615234375,48.1256103515625,-164.94873046875
1758876633.3106177,-0.71142578125,0.2021484375,0.78076171875,-33.0810546875,-0.18310546875,5.55419921875,0.37353515625,48.09814453125,-164.86083984375
1758876633.3212671,-0.73046875,0.302734375,0.95263671875,-67.3828125,-2.86865234375,5.92041015625,-0.1922607421875,48.0377197265625,-164.7564697265625
1758876633.3305776,-0.73046875,0.302734375,0.95263671875,-67.3828125,-2.86865234375,5.92041015625,-0.7525634765625,47.9718017578125,-164.6466064453125
1758876633.340329,-0.68505859375,-0.0224609375,0.75,-77.392578125,-4.2724609375,8.60595703125,-1.373291015625,47.8948974609375,-164.498291015625
1758876633.351093,-0.68505859375,-0.0224609375,0.75,-77.392578125,-4.2724609375,8.60595703125,-1.99951171875,47.823486328125,-164.3499755859375
1758876633.3603728,-0.68505859375,-0.0224609375,0.75,-63.17138671875,-5.31005859375,8.11767578125,-2.493896484375,47.7410888671875,-164.2071533203125
1758876633.3716455,-0.689453125,-0.16796875,0.66552734375,-63.17138671875,-5.31005859375,8.11767578125,-2.999267578125,47.6641845703125,-164.0753173828125
1758876633.3807518,-0.77734375,-0.16845703125,0.66455078125,-19.83642578125,-3.90625,8.056640625,-3.0816650390625,47.603759765625,-163.9434814453125
1758876633.39067,-0.77734375,-0.16845703125,0.66455078125,-19.83642578125,-3.90625,8.056640625,-3.1695556640625,47.548828125,-163.817138671875
1758876633.400454,-0.84912109375,-0.0986328125,0.72265625,14.2822265625,-4.82177734375,7.14111328125,-2.933349609375,47.48291015625,-163.7017822265625
1758876633.4112513,-0.84912109375,-0.0986328125,0.72265625,14.2822265625,-4.82177734375,7.14111328125,-2.70263671875,47.4224853515625,-163.5919189453125
1758876633.4208355,-0.79541015625,0.0546875,0.55126953125,31.1279296875,-3.41796875,8.36181640625,-2.2906494140625,47.384033203125,-163.45458984375
1758876633.430667,-0.79541015625,0.0546875,0.55126953125,31.1279296875,-3.41796875,8.36181640625,-1.878662109375,47.35107421875,-163.311767578125
1758876633.4405525,-0.77880859375,-0.01416015625,0.60595703125,11.41357421875,-3.173828125,6.9580078125,-1.680908203125,47.3236083984375,-163.1854248046875
1758876633.4509788,-0.77880859375,-0.01416015625,0.60595703125,11.41357421875,-3.173828125,6.9580078125,-1.4886474609375,47.296142578125,-163.0535888671875
1758876633.460465,-0.7490234375,0.0029296875,0.646484375,-22.5830078125,-2.25830078125,8.056640625,-1.6204833984375,47.2796630859375,-162.9107666015625
1758876633.4707408,-0.7490234375,0.0029296875,0.646484375,-22.5830078125,-2.25830078125,8.056640625,-1.7523193359375,47.26318359375,-162.762451171875
1758876633.4806044,-0.75830078125,0.015625,0.60791015625,-22.5830078125,-2.197265625,7.568359375,-1.8896484375,47.252197265625,-162.61962890625
1758876633.4911993,-0.75830078125,0.015625,0.60791015625,-22.5830078125,-2.197265625,7.568359375,-2.021484375,47.2412109375,-162.476806640625
1758876633.5005422,-0.80859375,-0.02294921875,0.59033203125,-18.798828125,-2.13623046875,7.4462890625,-2.120361328125,47.2357177734375,-162.333984375
1758876633.510828,-0.80859375,-0.02294921875,0.59033203125,-18.798828125,-2.13623046875,7.4462890625,-2.21923828125,47.230224609375,-162.1856689453125
1758876633.5216994,-0.83837890625,-0.0419921875,0.58837890625,-27.7099609375,-2.0751953125,7.87353515625,-2.4005126953125,47.230224609375,-162.0318603515625
1758876633.530824,-0.83837890625,-0.0419921875,0.58837890625,-27.7099609375,-2.0751953125,7.87353515625,-2.5872802734375,47.230224609375,-161.8780517578125
1758876633.540592,-0.78173828125,0.00439453125,0.4521484375,-27.52685546875,-0.67138671875,8.544921875,-2.7630615234375,47.252197265625,-161.707763671875
1758876633.5509324,-0.78173828125,0.00439453125,0.4521484375,-27.52685546875,-0.67138671875,8.544921875,-2.933349609375,47.2796630859375,-161.5374755859375
1758876633.5612445,-0.9091796875,-0.0927734375,0.62890625,-19.10400390625,-1.40380859375,6.34765625,-3.05419921875,47.3016357421875,-161.3946533203125
1758876633.5709023,-0.9091796875,-0.0927734375,0.62890625,-19.10400390625,-1.40380859375,6.34765625,-3.1695556640625,47.3236083984375,-161.25732421875
1758876633.5806644,-0.85888671875,-0.109375,0.53369140625,-23.01025390625,-1.03759765625,7.50732421875,-3.3233642578125,47.35107421875,-161.103515625
1758876633.5909765,-0.85888671875,-0.109375,0.53369140625,-23.01025390625,-1.03759765625,7.50732421875,-3.4771728515625,47.384033203125,-160.94970703125
1758876633.60107,-0.80517578125,-0.083984375,0.46923828125,-13.48876953125,-0.06103515625,6.53076171875,-3.548583984375,47.427978515625,-160.81787109375
1758876633.6106567,-0.80517578125,-0.083984375,0.46923828125,-13.48876953125,-0.06103515625,6.53076171875,-3.6199951171875,47.4774169921875,-160.6805419921875
1758876633.6205575,-0.8017578125,-0.0751953125,0.5224609375,5.55419921875,1.03759765625,5.43212890625,-3.5211181640625,47.5323486328125,-160.5596923828125
1758876633.6313503,-0.8017578125,-0.0751953125,0.5224609375,5.55419921875,1.03759765625,5.43212890625,-3.4222412109375,47.5927734375,-160.4443359375
1758876633.6412132,-0.771484375,-0.04833984375,0.6318359375,11.77978515625,1.89208984375,4.94384765625,-3.262939453125,47.6531982421875,-160.33447265625
1758876633.6510084,-0.771484375,-0.04833984375,0.6318359375,11.77978515625,1.89208984375,4.94384765625,-3.109130859375,47.7191162109375,-160.224609375
1758876633.660827,-0.73095703125,-0.001953125,0.685546875,7.75146484375,1.89208984375,5.06591796875,-2.98828125,47.7740478515625,-160.1202392578125
1758876633.671351,-0.73095703125,-0.001953125,0.685546875,7.75146484375,1.89208984375,5.06591796875,-2.867431640625,47.8289794921875,-160.0103759765625
1758876633.6808712,-0.69921875,-0.00390625,0.72509765625,1.0986328125,1.77001953125,5.18798828125,-2.8070068359375,47.8729248046875,-159.9005126953125
1758876633.6910417,-0.69921875,-0.00390625,0.72509765625,1.0986328125,1.77001953125,5.18798828125,-2.74658203125,47.9168701171875,-159.796142578125
1758876633.7012029,-0.69482421875,-0.02734375,0.7919921875,-6.04248046875,0.9765625,5.31005859375,-2.7520751953125,47.9388427734375,-159.6917724609375
1758876633.711429,-0.69482421875,-0.02734375,0.7919921875,-6.04248046875,0.9765625,5.31005859375,-2.757568359375,47.9608154296875,-159.58740234375
1758876633.7208097,-0.68603515625,-0.0361328125,0.76220703125,-6.4697265625,0.06103515625,4.5166015625,-2.7740478515625,47.9718017578125,-159.5050048828125
1758876633.7316337,-0.68603515625,-0.0361328125,0.76220703125,-6.4697265625,0.06103515625,4.5166015625,-2.79052734375,47.9718017578125,-159.422607421875
1758876633.741241,-0.703125,-0.0458984375,0.7021484375,0.54931640625,0.48828125,3.60107421875,-2.74658203125,47.977294921875,-159.356689453125
1758876633.7511513,-0.703125,-0.0458984375,0.7021484375,0.54931640625,0.48828125,3.60107421875,-2.70263671875,47.9827880859375,-159.2962646484375
1758876633.7609348,-0.73095703125,-0.04833984375,0.6845703125,10.1318359375,1.28173828125,2.3193359375,-2.5762939453125,47.9937744140625,-159.2523193359375
1758876633.7718678,-0.73095703125,-0.04833984375,0.6845703125,10.1318359375,1.28173828125,2.3193359375,-2.4554443359375,47.999267578125,-159.2138671875
1758876633.7812254,-0.74755859375,-0.03125,0.67529296875,20.3857421875,2.0751953125,1.28173828125,-2.2467041015625,48.0157470703125,-159.1864013671875
1758876633.7913144,-0.74755859375,-0.03125,0.67529296875,20.3857421875,2.0751953125,1.28173828125,-2.032470703125,48.0377197265625,-159.1644287109375
1758876633.8017514,-0.7578125,-0.015625,0.666015625,20.93505859375,2.197265625,0.732421875,-1.82373046875,48.05419921875,-159.14794921875
1758876633.8111947,-0.7578125,-0.015625,0.666015625,20.93505859375,2.197265625,0.732421875,-1.614990234375,48.0706787109375,-159.1314697265625
1758876633.821055,-0.76171875,0.0087890625,0.6328125,14.09912109375,2.01416015625,0.9765625,-1.47216796875,48.0926513671875,-159.1094970703125
1758876633.83141,-0.76171875,0.0087890625,0.6328125,14.09912109375,2.01416015625,0.9765625,-1.3238525390625,48.1146240234375,-159.0875244140625
1758876633.8435593,-0.75537109375,-0.01171875,0.62744140625,13.3056640625,2.01416015625,1.708984375,-1.1810302734375,48.131103515625,-159.049072265625
1758876633.8514123,-0.75537109375,-0.01171875,0.62744140625,13.3056640625,2.01416015625,1.708984375,-1.03271484375,48.153076171875,-159.0106201171875
1758876633.8637466,-0.74169921875,-0.04248046875,0.66552734375,13.00048828125,1.64794921875,2.25830078125,-0.8843994140625,48.175048828125,-158.9666748046875
1758876633.8716848,-0.74169921875,-0.04248046875,0.66552734375,13.00048828125,1.64794921875,2.25830078125,-0.7415771484375,48.1915283203125,-158.92822265625
1758876633.8814285,-0.73486328125,-0.03173828125,0.68798828125,17.578125,1.40380859375,2.38037109375,-0.54931640625,48.2080078125,-158.88427734375
1758876633.8918166,-0.73486328125,-0.03173828125,0.68798828125,17.578125,1.40380859375,2.38037109375,-0.3570556640625,48.218994140625,-158.8458251953125
1758876633.9011707,-0.73046875,0.0107421875,0.69384765625,18.37158203125,0.9765625,2.3193359375,-0.1593017578125,48.22998046875,-158.807373046875
1758876633.911342,-0.73046875,0.0107421875,0.69384765625,18.37158203125,0.9765625,2.3193359375,0.032958984375,48.2354736328125,-158.7744140625
1758876633.9217656,-0.7314453125,0.0361328125,0.67919921875,9.765625,0.6103515625,2.50244140625,0.15380859375,48.240966796875,-158.7359619140625
1758876633.931378,-0.7314453125,0.0361328125,0.67919921875,9.765625,0.6103515625,2.50244140625,0.2691650390625,48.240966796875,-158.6920166015625
1758876633.9411669,-0.748046875,0.0234375,0.66064453125,8.11767578125,0.3662109375,2.13623046875,0.3680419921875,48.2464599609375,-158.653564453125
1758876633.9519544,-0.74462890625,-0.00146484375,0.6591796875,13.12255859375,0.42724609375,1.28173828125,0.4888916015625,48.2464599609375,-158.6260986328125
1758876633.9611993,-0.74462890625,-0.00146484375,0.6591796875,13.12255859375,0.42724609375,1.28173828125,0.626220703125,48.2464599609375,-158.6041259765625
1758876633.9714305,-0.73828125,0.00732421875,0.68603515625,15.31982421875,0.48828125,0.54931640625,0.7745361328125,48.251953125,-158.5821533203125
1758876633.982661,-0.73828125,0.00732421875,0.68603515625,15.31982421875,0.48828125,0.54931640625,0.9283447265625,48.251953125,-158.5711669921875
1758876633.9913664,-0.73583984375,0.04248046875,0.681640625,10.3759765625,0.54931640625,-0.1220703125,1.0491943359375,48.251953125,-158.565673828125
1758876634.0018077,-0.73583984375,0.04248046875,0.681640625,10.3759765625,0.54931640625,-0.1220703125,1.1480712890625,48.2574462890625,-158.5601806640625
1758876634.011953,-0.72412109375,0.0419921875,0.6640625,9.33837890625,0.732421875,-0.91552734375,1.2359619140625,48.2574462890625,-158.565673828125
1758876634.0212383,-0.72412109375,0.0419921875,0.6640625,9.33837890625,0.732421875,-0.91552734375,1.318359375,48.262939453125,-158.5711669921875
1758876634.0347276,-0.72607421875,0.02099609375,0.71875,16.845703125,0.9765625,-1.708984375,1.4337158203125,48.2684326171875,-158.5821533203125
1758876634.042943,-0.72607421875,0.02099609375,0.71875,16.845703125,0.9765625,-1.708984375,1.58203125,48.27392578125,-158.6041259765625
1758876634.0514293,-0.71484375,0.01025390625,0.740234375,32.89794921875,0.732421875,-1.77001953125,1.8072509765625,48.27392578125,-158.6260986328125
1758876634.061972,-0.71484375,0.01025390625,0.740234375,32.89794921875,0.732421875,-1.77001953125,2.109375,48.27392578125,-158.653564453125
1758876634.0719333,-0.71240234375,0.017578125,0.7158203125,29.296875,0.1220703125,-2.197265625,2.3895263671875,48.2684326171875,-158.6865234375
1758876634.0813742,-0.71240234375,0.017578125,0.7158203125,29.296875,0.1220703125,-2.197265625,2.6531982421875,48.2574462890625,-158.7249755859375
1758876634.092274,-0.74853515625,0.06884765625,0.66796875,10.92529296875,-0.18310546875,-1.52587890625,2.823486328125,48.2464599609375,-158.7579345703125
1758876634.1014311,-0.74853515625,0.06884765625,0.66796875,10.92529296875,-0.18310546875,-1.52587890625,2.9058837890625,48.2354736328125,-158.785400390625
1758876634.1114745,-0.75537109375,0.08837890625,0.6845703125,-2.685546875,-0.30517578125,-0.91552734375,2.9278564453125,48.2244873046875,-158.807373046875
1758876634.1226234,-0.75537109375,0.08837890625,0.6845703125,-2.685546875,-0.30517578125,-0.91552734375,2.889404296875,48.2135009765625,-158.8238525390625
1758876634.1313682,-0.7451171875,0.0419921875,0.66259765625,0.244140625,-0.732421875,-0.30517578125,2.8729248046875,48.2025146484375,-158.829345703125
1758876634.142628,-0.7451171875,0.0419921875,0.66259765625,0.244140625,-0.732421875,-0.30517578125,2.8729248046875,48.18603515625,-158.829345703125
1758876634.1517186,-0.73193359375,0.01806640625,0.64111328125,0.42724609375,-0.67138671875,-0.3662109375,2.8729248046875,48.175048828125,-158.8348388671875
1758876634.1614537,-0.73193359375,0.01806640625,0.64111328125,0.42724609375,-0.67138671875,-0.3662109375,2.8729248046875,48.1640625,-158.8348388671875
1758876634.1718216,-0.744140625,0.0615234375,0.65087890625,-15.31982421875,-0.54931640625,0.30517578125,2.7960205078125,48.153076171875,-158.8348388671875
1758876634.183125,-0.744140625,0.0615234375,0.65087890625,-15.31982421875,-0.54931640625,0.30517578125,2.6531982421875,48.14208984375,-158.8238525390625
1758876634.1914783,-0.779296875,0.06640625,0.6396484375,-39.48974609375,-0.06103515625,0.9765625,2.3895263671875,48.1365966796875,-158.807373046875
1758876634.201681,-0.779296875,0.06640625,0.6396484375,-39.48974609375,-0.06103515625,0.9765625,2.0159912109375,48.1365966796875,-158.7799072265625
1758876634.2122474,-0.77294921875,0.01953125,0.6220703125,-50.10986328125,-0.18310546875,2.01416015625,1.593017578125,48.131103515625,-158.741455078125
1758876634.2215111,-0.77294921875,0.01953125,0.6220703125,-50.10986328125,-0.18310546875,2.01416015625,1.131591796875,48.1365966796875,-158.6920166015625
1758876634.2320368,-0.76416015625,-0.02783203125,0.5830078125,-35.5224609375,0.18310546875,1.953125,0.7415771484375,48.1365966796875,-158.642578125
1758876634.2427223,-0.76416015625,-0.02783203125,0.5830078125,-35.5224609375,0.18310546875,1.953125,0.41748046875,48.1475830078125,-158.5931396484375
1758876634.251621,-0.7587890625,-0.04248046875,0.62939453125,-29.296875,0.732421875,1.77001953125,0.1263427734375,48.1585693359375,-158.5491943359375
1758876634.2617846,-0.7587890625,-0.04248046875,0.62939453125,-29.296875,0.732421875,1.77001953125,-0.1318359375,48.175048828125,-158.499755859375
1758876634.2724319,-0.73583984375,0.00146484375,0.65625,-28.62548828125,1.220703125,1.220703125,-0.3955078125,48.1915283203125,-158.4613037109375
1758876634.2817082,-0.73583984375,0.00146484375,0.65625,-28.62548828125,1.220703125,1.220703125,-0.6591796875,48.2135009765625,-158.4283447265625
1758876634.291774,-0.720703125,0.01171875,0.7236328125,-21.66748046875,1.708984375,0.732421875,-0.889892578125,48.2354736328125,-158.3953857421875
1758876634.302811,-0.720703125,0.01171875,0.7236328125,-21.66748046875,1.708984375,0.732421875,-1.0821533203125,48.2574462890625,-158.367919921875
1758876634.3116903,-0.71337890625,-0.0126953125,0.763671875,-23.8037109375,1.89208984375,0.91552734375,-1.2908935546875,48.27392578125,-158.3404541015625
1758876634.321845,-0.71337890625,-0.0126953125,0.763671875,-23.8037109375,1.89208984375,0.91552734375,-1.505126953125,48.2904052734375,-158.31298828125
1758876634.3327355,-0.70556640625,-0.021484375,0.728515625,-29.35791015625,1.52587890625,0.42724609375,-1.746826171875,48.3013916015625,-158.291015625
1758876634.3418002,-0.70556640625,-0.021484375,0.728515625,-29.35791015625,1.52587890625,0.42724609375,-2.0269775390625,48.3123779296875,-158.2745361328125
1758876634.3518047,-0.71630859375,-0.02197265625,0.7158203125,-29.6630859375,1.28173828125,-0.06103515625,-2.3016357421875,48.31787109375,-158.2635498046875
1758876634.3617792,-0.71630859375,-0.02197265625,0.7158203125,-29.6630859375,1.28173828125,-0.06103515625,-2.5872802734375,48.31787109375,-158.258056640625
1758876634.372472,-0.72265625,-0.01220703125,0.7529296875,-41.56494140625,1.03759765625,0.42724609375,-2.92236328125,48.31787109375,-158.2470703125
1758876634.3826165,-0.72265625,-0.01220703125,0.7529296875,-41.56494140625,1.03759765625,0.42724609375,-3.31787109375,48.31787109375,-158.2305908203125
1758876634.3920894,-0.6748046875,-0.0166015625,0.71875,-74.5849609375,-0.244140625,1.64794921875,-3.8671875,48.306884765625,-158.2086181640625
1758876634.4028223,-0.6748046875,-0.0166015625,0.71875,-74.5849609375,-0.244140625,1.64794921875,-4.5703125,48.2904052734375,-158.170166015625
1758876634.411898,-0.66552734375,-0.0576171875,0.71142578125,-81.4208984375,-0.91552734375,0.91552734375,-5.306396484375,48.2684326171875,-158.13720703125
1758876634.4219627,-0.66552734375,-0.0576171875,0.71142578125,-81.4208984375,-0.91552734375,0.91552734375,-6.0809326171875,48.240966796875,-158.104248046875
1758876634.4321747,-0.775390625,-0.10498046875,0.79296875,-62.19482421875,-3.0517578125,2.01416015625,-6.74560546875,48.2080078125,-158.0657958984375
1758876634.4419837,-0.775390625,-0.10498046875,0.79296875,-62.19482421875,-3.0517578125,2.01416015625,-7.3114013671875,48.1585693359375,-158.0108642578125
1758876634.4518921,-0.751953125,-0.10302734375,0.76611328125,-59.08203125,-4.638671875,1.46484375,-7.8607177734375,48.1036376953125,-157.9669189453125
1758876634.461953,-0.751953125,-0.10302734375,0.76611328125,-59.08203125,-4.638671875,1.46484375,-8.3935546875,48.043212890625,-157.91748046875
1758876634.4727342,-0.5498046875,-0.12158203125,0.55126953125,-71.044921875,-3.7841796875,0.91552734375,-8.9923095703125,47.9827880859375,-157.8790283203125
1758876634.482192,-0.5498046875,-0.12158203125,0.55126953125,-71.044921875,-3.7841796875,0.91552734375,-9.656982421875,47.9278564453125,-157.840576171875
1758876634.4918845,-0.77294921875,-0.109375,0.68798828125,-49.01123046875,-5.2490234375,0.30517578125,-10.206298828125,47.867431640625,-157.8021240234375
1758876634.505464,-0.77294921875,-0.109375,0.68798828125,-49.01123046875,-5.2490234375,0.30517578125,-10.6512451171875,47.801513671875,-157.763671875
1758876634.5129554,-0.83251953125,-0.15234375,0.8076171875,-19.1650390625,-4.2724609375,-0.67138671875,-10.953369140625,47.7410888671875,-157.7362060546875
1758876634.521966,-0.83251953125,-0.15234375,0.8076171875,-19.1650390625,-4.2724609375,-0.67138671875,-11.1126708984375,47.6806640625,-157.708740234375
1758876634.5322611,-0.71435546875,-0.1748046875,0.6484375,-7.6904296875,-4.45556640625,-2.5634765625,-11.22802734375,47.625732421875,-157.7032470703125
1758876634.5420473,-0.71435546875,-0.1748046875,0.6484375,-7.6904296875,-4.45556640625,-2.5634765625,-11.2994384765625,47.5653076171875,-157.708740234375
1758876634.5520625,-0.6572265625,-0.158203125,0.6484375,12.26806640625,-3.0517578125,-3.7841796875,-11.282958984375,47.5103759765625,-157.7252197265625
1758876634.562779,-0.6572265625,-0.158203125,0.6484375,12.26806640625,-3.0517578125,-3.7841796875,-11.1785888671875,47.4609375,-157.7581787109375
1758876634.5727525,-0.63720703125,-0.1669921875,0.7265625,39.24560546875,-0.8544921875,-5.615234375,-10.9588623046875,47.4224853515625,-157.8076171875
1758876634.5820675,-0.63720703125,-0.1669921875,0.7265625,39.24560546875,-0.8544921875,-5.615234375,-10.6182861328125,47.384033203125,-157.884521484375
1758876634.5922189,-0.63720703125,-0.1669921875,0.7265625,46.69189453125,-0.244140625,-7.01904296875,-10.250244140625,47.35107421875,-157.972412109375
1758876634.6033719,-0.609375,-0.1533203125,0.78125,46.69189453125,-0.244140625,-7.01904296875,-9.8602294921875,47.318115234375,-158.082275390625
1758876634.6122093,-0.56640625,-0.12255859375,0.78125,55.48095703125,-0.91552734375,-6.9580078125,-9.42626953125,47.274169921875,-158.192138671875
1758876634.6225846,-0.56640625,-0.12255859375,0.78125,55.48095703125,-0.91552734375,-6.9580078125,-8.9483642578125,47.2247314453125,-158.3074951171875
1758876634.6332002,-0.5087890625,-0.15576171875,0.744140625,68.359375,-1.0986328125,-6.53076171875,-8.4100341796875,47.1697998046875,-158.4228515625
1758876634.643387,-0.5087890625,-0.15576171875,0.744140625,68.359375,-1.0986328125,-6.53076171875,-7.811279296875,47.1148681640625,-158.5491943359375
1758876634.6522803,-0.47509765625,-0.17822265625,0.70458984375,64.75830078125,-0.79345703125,-6.103515625,-7.2344970703125,47.054443359375,-158.675537109375
1758876634.6627905,-0.47509765625,-0.17822265625,0.70458984375,64.75830078125,-0.79345703125,-6.103515625,-6.6796875,46.99951171875,-158.8128662109375
1758876634.6729121,-0.4853515625,-0.107421875,0.7197265625,48.4619140625,0.0,-5.7373046875,-6.2127685546875,46.944580078125,-158.9556884765625
1758876634.6827595,-0.4853515625,-0.107421875,0.7197265625,48.4619140625,0.0,-5.7373046875,-5.82275390625,46.8896484375,-159.10400390625
1758876634.69223,-0.50244140625,-0.0234375,0.6484375,50.10986328125,1.708984375,-5.859375,-5.4327392578125,46.8402099609375,-159.2523193359375
1758876634.7025697,-0.50244140625,-0.0234375,0.6484375,50.10986328125,1.708984375,-5.859375,-5.03173828125,46.8017578125,-159.4061279296875
1758876634.712807,-0.63720703125,-0.01611328125,0.6748046875,63.720703125,2.38037109375,-5.31005859375,-4.5538330078125,46.768798828125,-159.5489501953125
1758876634.722626,-0.63720703125,-0.01611328125,0.6748046875,63.720703125,2.38037109375,-5.31005859375,-4.0045166015625,46.746826171875,-159.686279296875
1758876634.7321992,-0.72705078125,-0.0595703125,0.7841796875,63.5986328125,2.62451171875,-6.2255859375,-3.4661865234375,46.724853515625,-159.8236083984375
1758876634.742992,-0.72705078125,-0.0595703125,0.7841796875,63.5986328125,2.62451171875,-6.2255859375,-2.9278564453125,46.7083740234375,-159.9664306640625
1758876634.7532492,-0.763671875,-0.0009765625,0.68115234375,57.6171875,2.44140625,-6.4697265625,-2.4224853515625,46.69189453125,-160.1092529296875
1758876634.7625628,-0.763671875,-0.0009765625,0.68115234375,57.6171875,2.44140625,-6.4697265625,-1.944580078125,46.680908203125,-160.24658203125
1758876634.7723832,-0.74462890625,-0.04443359375,0.66943359375,32.89794921875,3.47900390625,-6.7138671875,-1.5875244140625,46.680908203125,-160.3839111328125
1758876634.7832675,-0.74462890625,-0.04443359375,0.66943359375,32.89794921875,3.47900390625,-6.7138671875,-1.3623046875,46.6864013671875,-160.521240234375
1758876634.7925844,-0.9208984375,0.02197265625,0.60693359375,-5.615234375,2.3193359375,-2.5634765625,-1.3018798828125,46.6973876953125,-160.6201171875
1758876634.802704,-0.9208984375,0.02197265625,0.60693359375,-5.615234375,2.3193359375,-2.5634765625,-1.40625,46.7083740234375,-160.675048828125
1758876634.812474,-1.54931640625,0.0322265625,0.7109375,11.23046875,-0.91552734375,0.732421875,-1.4007568359375,46.7138671875,-160.6915283203125
1758876634.8232348,-1.54931640625,0.0322265625,0.7109375,11.23046875,-0.91552734375,0.732421875,-1.29638671875,46.7193603515625,-160.6695556640625
1758876634.8324084,-1.3349609375,-0.09228515625,0.25732421875,2.38037109375,-3.84521484375,0.54931640625,-1.23046875,46.7303466796875,-160.6365966796875
1758876634.8427875,-1.3349609375,-0.09228515625,0.25732421875,2.38037109375,-3.84521484375,0.54931640625,-1.219482421875,46.7413330078125,-160.5926513671875
1758876634.8532624,-0.94091796875,-0.0361328125,0.1083984375,-30.517578125,-2.9296875,0.9765625,-1.373291015625,46.768798828125,-160.5377197265625
1758876634.8629918,-0.94091796875,-0.0361328125,0.1083984375,-30.517578125,-2.9296875,0.9765625,-1.69189453125,46.8182373046875,-160.477294921875
1758876634.8725507,-0.7529296875,0.0087890625,0.21142578125,-14.58740234375,0.8544921875,4.5166015625,-1.91162109375,46.8951416015625,-160.3839111328125
1758876634.8828335,-0.7529296875,0.0087890625,0.21142578125,-14.58740234375,0.8544921875,4.5166015625,-2.0379638671875,46.99951171875,-160.2630615234375
1758876634.893351,-0.73193359375,-0.12890625,0.27392578125,16.05224609375,6.4697265625,6.16455078125,-1.99951171875,47.13134765625,-160.1312255859375
1758876634.9028535,-0.73193359375,-0.12890625,0.27392578125,16.05224609375,6.4697265625,6.16455078125,-1.8072509765625,47.296142578125,-159.993896484375
1758876634.912574,-0.80322265625,-0.1396484375,0.466796875,40.22216796875,8.97216796875,4.21142578125,-1.5106201171875,47.471923828125,-159.8785400390625
1758876634.9234135,-0.80322265625,-0.1396484375,0.466796875,40.22216796875,8.97216796875,4.21142578125,-1.1041259765625,47.65869140625,-159.7796630859375
1758876634.9353216,-0.91015625,0.01025390625,1.0263671875,29.60205078125,4.8828125,2.74658203125,-0.8184814453125,47.7850341796875,-159.708251953125
1758876634.9429212,-0.91015625,0.01025390625,1.0263671875,29.60205078125,4.8828125,2.74658203125,-0.5218505859375,47.900390625,-159.6368408203125
1758876634.9536257,-0.701171875,0.208984375,1.21875,-11.71875,2.62451171875,3.41796875,-0.6207275390625,47.9718017578125,-159.5599365234375
1758876634.9632843,-0.701171875,0.208984375,1.21875,-11.71875,2.62451171875,3.41796875,-0.6976318359375,48.021240234375,-159.4830322265625
1758876634.97326,-0.51953125,0.13037109375,0.64111328125,-24.90234375,0.732421875,5.126953125,-0.8843994140625,48.0487060546875,-159.3841552734375
1758876634.9829261,-0.51953125,0.13037109375,0.64111328125,-24.90234375,0.732421875,5.126953125,-1.0601806640625,48.0706787109375,-159.27978515625
1758876634.9927652,-0.50537109375,0.0,0.6865234375,-26.2451171875,0.732421875,3.60107421875,-1.263427734375,48.0816650390625,-159.202880859375
1758876635.0034132,-0.50537109375,0.0,0.6865234375,-26.2451171875,0.732421875,3.60107421875,-1.47216796875,48.087158203125,-159.1314697265625
1758876635.012697,-0.63916015625,-0.15283203125,0.92626953125,-8.7890625,0.3662109375,0.91552734375,-1.5380859375,48.0816650390625,-159.114990234375
1758876635.0229712,-0.63916015625,-0.15283203125,0.92626953125,-8.7890625,0.3662109375,0.91552734375,-1.6094970703125,48.0706787109375,-159.114990234375
1758876635.03347,-0.7255859375,-0.126953125,0.78125,11.5966796875,0.30517578125,0.18310546875,-1.494140625,48.05419921875,-159.1314697265625
1758876635.043052,-0.7255859375,-0.126953125,0.78125,11.5966796875,0.30517578125,0.18310546875,-1.38427734375,48.0377197265625,-159.1534423828125
1758876635.0528824,-0.77099609375,-0.0048828125,0.57568359375,21.54541015625,-0.48828125,-0.3662109375,-1.1810302734375,48.0157470703125,-159.180908203125
1758876635.063224,-0.77099609375,-0.0048828125,0.57568359375,21.54541015625,-0.48828125,-0.3662109375,-0.977783203125,47.999267578125,-159.202880859375
1758876635.0734832,-0.8427734375,0.013671875,0.59619140625,18.12744140625,-0.244140625,0.1220703125,-0.802001953125,47.98828125,-159.2138671875
1758876635.0830152,-0.8427734375,0.013671875,0.59619140625,18.12744140625,-0.244140625,0.1220703125,-0.626220703125,47.9827880859375,-159.2193603515625
1758876635.0929544,-0.84033203125,-0.005859375,0.58056640625,19.8974609375,0.79345703125,0.42724609375,-0.4339599609375,47.9937744140625,-159.2193603515625
1758876635.1036048,-0.84033203125,-0.005859375,0.58056640625,19.8974609375,0.79345703125,0.42724609375,-0.2362060546875,48.0047607421875,-159.2138671875
1758876635.112813,-0.77685546875,-0.01220703125,0.546875,24.4140625,1.46484375,-0.1220703125,0.0,48.0322265625,-159.2138671875
1758876635.1230943,-0.77685546875,-0.01220703125,0.546875,24.4140625,1.46484375,-0.1220703125,0.2252197265625,48.05419921875,-159.2138671875
1758876635.1330223,-0.73291015625,0.00732421875,0.66357421875,31.31103515625,2.44140625,-1.0986328125,0.516357421875,48.0926513671875,-159.224853515625
1758876635.1435983,-0.73291015625,0.00732421875,0.66357421875,31.31103515625,2.44140625,-1.0986328125,0.802001953125,48.1256103515625,-159.2413330078125
1758876635.1533463,-0.71484375,0.060546875,0.80517578125,17.333984375,2.3193359375,-0.732421875,0.9613037109375,48.153076171875,-159.2523193359375
1758876635.1630423,-0.71484375,0.060546875,0.80517578125,17.333984375,2.3193359375,-0.732421875,1.12060546875,48.1805419921875,-159.268798828125
1758876635.1730018,-0.71728515625,0.0693359375,0.70849609375,2.99072265625,1.89208984375,0.244140625,1.1480712890625,48.197021484375,-159.268798828125
1758876635.183654,-0.71728515625,0.0693359375,0.70849609375,2.99072265625,1.89208984375,0.244140625,1.1810302734375,48.2135009765625,-159.268798828125
1758876635.1929479,-0.73779296875,0.0,0.6240234375,7.4462890625,1.46484375,0.6103515625,1.263427734375,48.2244873046875,-159.2578125
1758876635.2032802,-0.73779296875,0.0,0.6240234375,7.4462890625,1.46484375,0.6103515625,1.34033203125,48.2354736328125,-159.2523193359375
1758876635.2177057,-0.75732421875,-0.02880859375,0.66064453125,14.404296875,1.28173828125,0.244140625,1.483154296875,48.2464599609375,-159.2523193359375
1758876635.2251725,-0.75732421875,-0.02880859375,0.66064453125,14.404296875,1.28173828125,0.244140625,1.6259765625,48.262939453125,-159.2578125
1758876635.2329965,-0.74755859375,0.0185546875,0.6669921875,18.85986328125,1.03759765625,-0.1220703125,1.8017578125,48.2684326171875,-159.268798828125
1758876635.24351,-0.74755859375,0.0185546875,0.6669921875,18.85986328125,1.03759765625,-0.1220703125,1.9830322265625,48.2794189453125,-159.2742919921875
1758876635.25322,-0.740234375,0.04541015625,0.6669921875,20.263671875,0.54931640625,-0.06103515625,2.17529296875,48.284912109375,-159.2852783203125
1758876635.2667112,-0.740234375,0.04541015625,0.6669921875,20.263671875,0.54931640625,-0.06103515625,2.373046875,48.2904052734375,-159.2962646484375
1758876635.2752333,-0.7451171875,0.04638671875,0.6708984375,16.11328125,0.244140625,0.244140625,2.52685546875,48.2904052734375,-159.2962646484375
1758876635.2836878,-0.7451171875,0.04638671875,0.6708984375,16.11328125,0.244140625,0.244140625,2.6861572265625,48.2904052734375,-159.3017578125
1758876635.293358,-0.73388671875,0.02197265625,0.671875,20.20263671875,0.3662109375,0.1220703125,2.8839111328125,48.2958984375,-159.3072509765625
1758876635.3038895,-0.73388671875,0.02197265625,0.671875,20.20263671875,0.3662109375,0.1220703125,3.076171875,48.2958984375,-159.3182373046875
1758876635.315236,-0.7392578125,0.0146484375,0.68798828125,29.23583984375,0.30517578125,-0.30517578125,3.3563232421875,48.2958984375,-159.334716796875
1758876635.3233755,-0.7392578125,0.0146484375,0.68798828125,29.23583984375,0.30517578125,-0.30517578125,3.636474609375,48.3013916015625,-159.356689453125
1758876635.3331585,-0.736328125,0.04052734375,0.7119140625,31.1279296875,-0.3662109375,-0.3662109375,3.9276123046875,48.2904052734375,-159.378662109375
1758876635.3438969,-0.736328125,0.04052734375,0.7119140625,31.1279296875,-0.3662109375,-0.3662109375,4.2242431640625,48.284912109375,-159.400634765625
1758876635.3533537,-0.7421875,0.09521484375,0.63427734375,21.42333984375,-0.8544921875,0.244140625,4.427490234375,48.27392578125,-159.4171142578125
1758876635.3634722,-0.7421875,0.09521484375,0.63427734375,21.42333984375,-0.8544921875,0.244140625,4.6307373046875,48.2574462890625,-159.4281005859375
1758876635.3740187,-0.7490234375,0.109375,0.6328125,20.32470703125,-1.46484375,-0.1220703125,4.8284912109375,48.240966796875,-159.4390869140625
1758876635.3834188,-0.7490234375,0.109375,0.6328125,20.32470703125,-1.46484375,-0.1220703125,5.020751953125,48.22998046875,-159.4500732421875
1758876635.3934903,-0.75390625,0.0673828125,0.66845703125,16.11328125,-1.52587890625,-0.1220703125,5.174560546875,48.2135009765625,-159.4610595703125
1758876635.4039743,-0.75390625,0.0673828125,0.66845703125,16.11328125,-1.52587890625,-0.1220703125,5.328369140625,48.197021484375,-159.4720458984375
1758876635.4133322,-0.75,0.08056640625,0.63720703125,9.33837890625,-1.52587890625,-0.06103515625,5.416259765625,48.1805419921875,-159.4830322265625
1758876635.4236035,-0.75,0.08056640625,0.63720703125,9.33837890625,-1.52587890625,-0.06103515625,5.504150390625,48.1695556640625,-159.4940185546875
1758876635.4339879,-0.75048828125,0.08935546875,0.64599609375,9.27734375,-1.3427734375,-0.48828125,5.5865478515625,48.1585693359375,-159.5050048828125
1758876635.4435587,-0.75048828125,0.08935546875,0.64599609375,9.27734375,-1.3427734375,-0.48828125,5.6744384765625,48.1475830078125,-159.5159912109375
1758876635.4533432,-0.74462890625,0.09130859375,0.66796875,2.8076171875,-1.220703125,-0.54931640625,5.6964111328125,48.1365966796875,-159.5269775390625
1758876635.464235,-0.74462890625,0.09130859375,0.66796875,2.8076171875,-1.220703125,-0.54931640625,5.7183837890625,48.1256103515625,-159.5379638671875
1758876635.4736667,-0.7431640625,0.095703125,0.6484375,-3.2958984375,-1.28173828125,-0.6103515625,5.679931640625,48.1146240234375,-159.5489501953125
1758876635.4835439,-0.7431640625,0.095703125,0.6484375,-3.2958984375,-1.28173828125,-0.6103515625,5.6414794921875,48.1036376953125,-159.5599365234375
1758876635.4934478,-0.75048828125,0.072265625,0.666015625,-0.79345703125,-1.220703125,-0.79345703125,5.6304931640625,48.09814453125,-159.576416015625
1758876635.5041034,-0.75048828125,0.072265625,0.666015625,-0.79345703125,-1.220703125,-0.79345703125,5.614013671875,48.087158203125,-159.5928955078125
1758876635.5134382,-0.73828125,0.0439453125,0.673828125,2.8076171875,-1.0986328125,-1.03759765625,5.635986328125,48.076171875,-159.609375
1758876635.5238528,-0.73828125,0.0439453125,0.673828125,2.8076171875,-1.0986328125,-1.03759765625,5.6524658203125,48.0706787109375,-159.63134765625
1758876635.5357244,-0.72509765625,0.05859375,0.67431640625,8.30078125,-1.3427734375,-1.46484375,5.7183837890625,48.0596923828125,-159.664306640625
1758876635.5436137,-0.72509765625,0.05859375,0.67431640625,8.30078125,-1.3427734375,-1.46484375,5.7843017578125,48.0487060546875,-159.6917724609375
1758876635.5535688,-0.7236328125,0.078125,0.6982421875,12.63427734375,-1.3427734375,-1.708984375,5.888671875,48.0322265625,-159.730224609375
1758876635.5644825,-0.7236328125,0.078125,0.6982421875,12.63427734375,-1.3427734375,-1.708984375,5.9930419921875,48.021240234375,-159.76318359375
1758876635.5737877,-0.7314453125,0.0859375,0.7109375,16.11328125,-1.40380859375,-1.89208984375,6.13037109375,48.0047607421875,-159.80712890625
1758876635.5836115,-0.7314453125,0.0859375,0.7109375,16.11328125,-1.40380859375,-1.89208984375,6.2677001953125,47.98828125,-159.8455810546875
1758876635.5941095,-0.71142578125,0.08251953125,0.72607421875,20.08056640625,-1.89208984375,-1.708984375,6.4434814453125,47.96630859375,-159.8895263671875
1758876635.6038322,-0.71142578125,0.08251953125,0.72607421875,20.08056640625,-1.89208984375,-1.708984375,6.6192626953125,47.9388427734375,-159.9334716796875
1758876635.6136606,-0.67724609375,0.0986328125,0.72314453125,13.916015625,-2.197265625,-1.52587890625,6.734619140625,47.911376953125,-159.971923828125
1758876635.6237512,-0.67724609375,0.0986328125,0.72314453125,13.916015625,-2.197265625,-1.52587890625,6.85546875,47.87841796875,-160.015869140625
1758876635.6341965,-0.669921875,0.09033203125,0.76708984375,20.69091796875,-3.173828125,-1.953125,7.03125,47.8399658203125,-160.07080078125
1758876635.6436586,-0.669921875,0.09033203125,0.76708984375,20.69091796875,-3.173828125,-1.953125,7.20703125,47.7960205078125,-160.1312255859375
1758876635.6537485,-0.64404296875,0.05224609375,0.830078125,45.41015625,-4.150390625,-3.41796875,7.6080322265625,47.735595703125,-160.2191162109375
1758876635.664341,-0.64404296875,0.05224609375,0.830078125,45.41015625,-4.150390625,-3.41796875,8.0035400390625,47.6751708984375,-160.3125
1758876635.673695,-0.55615234375,0.07666015625,0.802734375,64.14794921875,-5.55419921875,-4.69970703125,8.5693359375,47.603759765625,-160.4388427734375
1758876635.6836307,-0.55615234375,0.07666015625,0.802734375,64.14794921875,-5.55419921875,-4.69970703125,9.129638671875,47.5213623046875,-160.5706787109375
1758876635.6937437,-0.50048828125,0.1025390625,0.86328125,48.4619140625,-6.2255859375,-6.34765625,9.503173828125,47.4334716796875,-160.740966796875
1758876635.7043304,-0.50048828125,0.1025390625,0.86328125,48.4619140625,-6.2255859375,-6.34765625,9.8822021484375,47.340087890625,-160.916748046875
1758876635.7136781,-0.546875,0.19482421875,0.90771484375,13.18359375,-7.8125,-8.7890625,9.876708984375,47.2357177734375,-161.136474609375
1758876635.7237744,-0.546875,0.19482421875,0.90771484375,13.18359375,-7.8125,-8.7890625,9.876708984375,47.120361328125,-161.356201171875
1758876635.7350664,-0.49951171875,0.23876953125,0.8125,-0.8544921875,-8.30078125,-9.1552734375,9.73388671875,46.9940185546875,-161.5814208984375
1758876635.7439582,-0.49951171875,0.23876953125,0.8125,-0.8544921875,-8.30078125,-9.1552734375,9.60205078125,46.86767578125,-161.806640625
1758876635.7537954,-0.474609375,0.24609375,0.64404296875,-18.9208984375,-7.01904296875,-9.27734375,9.29443359375,46.7523193359375,-162.0263671875
1758876635.764699,-0.474609375,0.24609375,0.64404296875,-18.9208984375,-7.01904296875,-9.27734375,9.0032958984375,46.636962890625,-162.235107421875
1758876635.77381,-0.66455078125,0.2216796875,0.66357421875,-41.748046875,-6.16455078125,-9.21630859375,8.492431640625,46.5325927734375,-162.432861328125
1758876635.783746,-0.66455078125,0.2216796875,0.66357421875,-41.748046875,-6.16455078125,-9.21630859375,7.987060546875,46.4337158203125,-162.61962890625
1758876635.7949507,-1.00244140625,0.2919921875,0.78662109375,-105.77392578125,-6.591796875,-8.23974609375,6.8719482421875,46.329345703125,-162.7734375
1758876635.8044372,-1.00244140625,0.2919921875,0.78662109375,-105.77392578125,-6.591796875,-8.23974609375,5.767822265625,46.241455078125,-162.9052734375
1758876635.8139188,-0.9951171875,0.2001953125,0.7490234375,-138.97705078125,-11.474609375,-1.28173828125,4.4110107421875,46.0986328125,-162.92724609375
1758876635.8240185,-0.9951171875,0.2001953125,0.7490234375,-138.97705078125,-11.474609375,-1.28173828125,3.0706787109375,45.966796875,-162.92724609375
1758876635.8356473,-0.837890625,0.041015625,0.57861328125,-89.90478515625,-8.9111328125,3.23486328125,2.2686767578125,45.867919921875,-162.850341796875
1758876635.8444457,-0.837890625,0.041015625,0.57861328125,-89.90478515625,-8.9111328125,3.23486328125,1.4666748046875,45.780029296875,-162.762451171875
1758876635.8542569,-0.7890625,-0.11083984375,0.494140625,-6.9580078125,-7.9345703125,4.39453125,1.4996337890625,45.703125,-162.6580810546875
1758876635.8639553,-0.7890625,-0.11083984375,0.494140625,-6.9580078125,-7.9345703125,4.39453125,1.51611328125,45.63720703125,-162.5537109375
1758876635.8752904,-0.822265625,-0.24609375,0.41015625,-4.69970703125,-4.94384765625,2.44140625,1.527099609375,45.6097412109375,-162.4822998046875
1758876635.883975,-0.822265625,-0.24609375,0.41015625,-4.69970703125,-4.94384765625,2.44140625,1.5216064453125,45.5877685546875,-162.4163818359375
1758876635.8939352,-0.82275390625,-0.228515625,0.4423828125,-26.85546875,-3.60107421875,-0.18310546875,1.25244140625,45.5877685546875,-162.388916015625
1758876635.9040368,-0.82568359375,-0.126953125,0.53759765625,-16.05224609375,-2.197265625,-0.18310546875,1.0272216796875,45.5987548828125,-162.3724365234375
1758876635.9153025,-0.82568359375,-0.126953125,0.53759765625,-16.05224609375,-2.197265625,-0.18310546875,0.8514404296875,45.6207275390625,-162.3504638671875
1758876635.9240086,-0.81640625,0.01025390625,0.5947265625,-5.37109375,-1.708984375,0.732421875,0.7305908203125,45.6427001953125,-162.3284912109375
1758876635.9340115,-0.81640625,0.01025390625,0.5947265625,-5.37109375,-1.708984375,0.732421875,0.670166015625,45.670166015625,-162.2955322265625
1758876635.9444442,-0.79736328125,0.076171875,0.65673828125,-4.69970703125,-2.0751953125,1.5869140625,0.6207275390625,45.6976318359375,-162.2515869140625
1758876635.9554734,-0.79736328125,0.076171875,0.65673828125,-4.69970703125,-2.0751953125,1.5869140625,0.582275390625,45.7196044921875,-162.2021484375
1758876635.9639852,-0.7841796875,0.10595703125,0.65673828125,-8.72802734375,-2.197265625,1.953125,0.52734375,45.736083984375,-162.147216796875
1758876635.9741,-0.7841796875,0.10595703125,0.65673828125,-8.72802734375,-2.197265625,1.953125,0.4669189453125,45.758056640625,-162.081298828125
1758876635.9847822,-0.767578125,0.07177734375,0.6181640625,-9.58251953125,-1.28173828125,0.8544921875,0.3955078125,45.780029296875,-162.015380859375
1758876635.9946587,-0.767578125,0.07177734375,0.6181640625,-9.58251953125,-1.28173828125,0.8544921875,0.318603515625,45.802001953125,-161.96044921875
1758876636.0041714,-0.73388671875,0.02685546875,0.66064453125,-12.20703125,-0.244140625,0.6103515625,0.2252197265625,45.8349609375,-161.905517578125
1758876636.0142322,-0.73388671875,0.02685546875,0.66064453125,-12.20703125,-0.244140625,0.6103515625,0.120849609375,45.8624267578125,-161.8505859375
1758876636.0248888,-0.71484375,0.01123046875,0.71142578125,-17.63916015625,0.1220703125,0.6103515625,-0.0054931640625,45.8953857421875,-161.8011474609375
1758876636.034123,-0.71484375,0.01123046875,0.71142578125,-17.63916015625,0.1220703125,0.6103515625,-0.1593017578125,45.9228515625,-161.751708984375
1758876636.0441618,-0.689453125,-0.01611328125,0.7373046875,-15.44189453125,-0.244140625,0.3662109375,-0.3076171875,45.9503173828125,-161.707763671875
1758876636.0552616,-0.689453125,-0.01611328125,0.7373046875,-15.44189453125,-0.244140625,0.3662109375,-0.4449462890625,45.966796875,-161.6748046875
1758876636.0645618,-0.68798828125,-0.0498046875,0.73193359375,-7.62939453125,-0.54931640625,-0.244140625,-0.54931640625,45.977783203125,-161.6473388671875
1758876636.0742104,-0.68798828125,-0.0498046875,0.73193359375,-7.62939453125,-0.54931640625,-0.244140625,-0.6207275390625,45.98876953125,-161.6253662109375
1758876636.0844162,-0.671875,-0.05029296875,0.71923828125,-1.3427734375,-0.67138671875,-0.3662109375,-0.6591796875,45.98876953125,-161.6143798828125
1758876636.0956807,-0.671875,-0.05029296875,0.71923828125,-1.3427734375,-0.67138671875,-0.3662109375,-0.6756591796875,45.9942626953125,-161.60888671875
1758876636.1042542,-0.67138671875,-0.0087890625,0.72705078125,-0.48828125,-0.42724609375,-0.6103515625,-0.6866455078125,45.98876953125,-161.60888671875
1758876636.1147819,-0.67138671875,-0.0087890625,0.72705078125,-0.48828125,-0.42724609375,-0.6103515625,-0.6976318359375,45.98876953125,-161.60888671875
1758876636.1251647,-0.654296875,-0.0029296875,0.734375,-2.44140625,0.0,-1.15966796875,-0.7196044921875,45.98876953125,-161.6143798828125
1758876636.1347756,-0.654296875,-0.0029296875,0.734375,-2.44140625,0.0,-1.15966796875,-0.7525634765625,45.9832763671875,-161.630859375
1758876636.1444113,-0.6474609375,0.00732421875,0.76416015625,-1.77001953125,-0.18310546875,-1.220703125,-0.7855224609375,45.977783203125,-161.6473388671875
1758876636.1547234,-0.6474609375,0.00732421875,0.76416015625,-1.77001953125,-0.18310546875,-1.220703125,-0.81298828125,45.966796875,-161.663818359375
1758876636.1650815,-0.63037109375,0.013671875,0.76513671875,-3.2958984375,-0.18310546875,-1.64794921875,-0.845947265625,45.955810546875,-161.6912841796875
1758876636.174722,-0.63037109375,0.013671875,0.76513671875,-3.2958984375,-0.18310546875,-1.64794921875,-0.889892578125,45.9393310546875,-161.71875
1758876636.185046,-0.60791015625,0.01708984375,0.73388671875,-12.51220703125,0.54931640625,-1.28173828125,-0.977783203125,45.9283447265625,-161.74072265625
1758876636.1951482,-0.60791015625,0.01708984375,0.73388671875,-12.51220703125,0.54931640625,-1.28173828125,-1.109619140625,45.9173583984375,-161.7681884765625
1758876636.2044775,-0.62646484375,-0.0087890625,0.75439453125,-14.83154296875,0.1220703125,-0.8544921875,-1.25244140625,45.90087890625,-161.7901611328125
1758876636.2148108,-0.62646484375,-0.0087890625,0.75439453125,-14.83154296875,0.1220703125,-0.8544921875,-1.4007568359375,45.87890625,-161.8121337890625
1758876636.2249112,-0.6328125,-0.04833984375,0.74853515625,-7.99560546875,0.91552734375,-0.6103515625,-1.5106201171875,45.8624267578125,-161.8341064453125
1758876636.2342544,-0.6328125,-0.04833984375,0.74853515625,-7.99560546875,0.91552734375,-0.6103515625,-1.593017578125,45.845947265625,-161.8560791015625
1758876636.244464,-0.669921875,-0.06103515625,0.72509765625,-0.06103515625,0.79345703125,-0.8544921875,-1.6314697265625,45.8294677734375,-161.883544921875
1758876636.2549384,-0.669921875,-0.06103515625,0.72509765625,-0.06103515625,0.79345703125,-0.8544921875,-1.6424560546875,45.8184814453125,-161.91650390625
1758876636.2652326,-0.763671875,-0.05859375,0.73388671875,12.39013671875,0.6103515625,-1.8310546875,-1.593017578125,45.802001953125,-161.9549560546875
1758876636.274751,-0.763671875,-0.05859375,0.73388671875,12.39013671875,0.6103515625,-1.8310546875,-1.4886474609375,45.7855224609375,-161.993408203125
1758876636.284554,-0.84619140625,-0.0341796875,0.681640625,14.95361328125,0.30517578125,-2.38037109375,-1.3787841796875,45.7745361328125,-162.0428466796875
1758876636.2956448,-0.84619140625,-0.0341796875,0.681640625,14.95361328125,0.30517578125,-2.38037109375,-1.2579345703125,45.7635498046875,-162.0867919921875
1758876636.304627,-0.9111328125,0.0390625,0.67919921875,4.2724609375,-1.40380859375,-2.62451171875,-1.1920166015625,45.7525634765625,-162.125244140625
1758876636.3147857,-0.9111328125,0.0390625,0.67919921875,4.2724609375,-1.40380859375,-2.62451171875,-1.1810302734375,45.736083984375,-162.158203125
1758876636.324724,-0.86376953125,0.0732421875,0.56494140625,-25.08544921875,-1.3427734375,0.54931640625,-1.2908935546875,45.7305908203125,-162.1636962890625
1758876636.3353736,-0.86376953125,0.0732421875,0.56494140625,-25.08544921875,-1.3427734375,0.54931640625,-1.5325927734375,45.72509765625,-162.1307373046875
1758876636.3446088,-0.7451171875,0.02001953125,0.43310546875,-31.982421875,-0.91552734375,1.77001953125,-1.7962646484375,45.7305908203125,-162.0867919921875
1758876636.3549843,-0.7451171875,0.02001953125,0.43310546875,-31.982421875,-0.91552734375,1.77001953125,-2.08740234375,45.7470703125,-162.0208740234375
1758876636.3652673,-0.83056640625,-0.04248046875,0.63232421875,-26.123046875,0.3662109375,2.25830078125,-2.340087890625,45.76904296875,-161.9549560546875
1758876636.3749094,-0.83056640625,-0.04248046875,0.63232421875,-26.123046875,0.3662109375,2.25830078125,-2.57080078125,45.802001953125,-161.883544921875
1758876636.3846467,-0.818359375,-0.08251953125,0.6181640625,-18.37158203125,0.3662109375,2.9296875,-2.7520751953125,45.8404541015625,-161.806640625
1758876636.3949184,-0.818359375,-0.08251953125,0.6181640625,-18.37158203125,0.3662109375,2.9296875,-2.900390625,45.8734130859375,-161.7242431640625
1758876636.4056282,-0.71337890625,-0.16064453125,0.62060546875,-15.07568359375,0.79345703125,2.86865234375,-3.0377197265625,45.911865234375,-161.65283203125
1758876636.41497,-0.71337890625,-0.16064453125,0.62060546875,-15.07568359375,0.79345703125,2.86865234375,-3.1585693359375,45.9503173828125,-161.5814208984375
1758876636.425387,-0.75048828125,-0.09814453125,0.666015625,-1.220703125,1.3427734375,2.38037109375,-3.218994140625,45.98876953125,-161.5264892578125
1758876636.4358284,-0.75048828125,-0.09814453125,0.666015625,-1.220703125,1.3427734375,2.38037109375,-3.218994140625,46.0272216796875,-161.4715576171875
1758876636.4454763,-0.74169921875,-0.03076171875,0.7177734375,-1.8310546875,1.8310546875,3.0517578125,-3.2135009765625,46.0711669921875,-161.422119140625
1758876636.4550369,-0.74169921875,-0.03076171875,0.7177734375,-1.8310546875,1.8310546875,3.0517578125,-3.2135009765625,46.109619140625,-161.3616943359375
1758876636.4646723,-0.72021484375,0.0029296875,0.6748046875,-7.9345703125,1.953125,3.11279296875,-3.2354736328125,46.153564453125,-161.3067626953125
1758876636.4758732,-0.72021484375,0.0029296875,0.6748046875,-7.9345703125,1.953125,3.11279296875,-3.2904052734375,46.1920166015625,-161.246337890625
1758876636.4851882,-0.71630859375,-0.02001953125,0.693359375,-6.89697265625,2.38037109375,2.13623046875,-3.33984375,46.23046875,-161.19140625
1758876636.4950285,-0.71630859375,-0.02001953125,0.693359375,-6.89697265625,2.38037109375,2.13623046875,-3.3892822265625,46.2689208984375,-161.1474609375
1758876636.5049736,-0.703125,-0.03515625,0.72265625,-5.2490234375,2.685546875,1.3427734375,-3.427734375,46.307373046875,-161.1090087890625
1758876636.5157065,-0.703125,-0.03515625,0.72265625,-5.2490234375,2.685546875,1.3427734375,-3.4661865234375,46.34033203125,-161.0760498046875
1758876636.5252118,-0.7060546875,-0.037109375,0.73046875,-8.7890625,2.99072265625,1.220703125,-3.526611328125,46.3787841796875,-161.048583984375
1758876636.5351336,-0.7060546875,-0.037109375,0.73046875,-8.7890625,2.99072265625,1.220703125,-3.5980224609375,46.4117431640625,-161.026611328125
1758876636.545576,-0.70703125,-0.03515625,0.72314453125,-13.85498046875,2.74658203125,1.3427734375,-3.6968994140625,46.4447021484375,-160.9991455078125
1758876636.5551555,-0.70703125,-0.03515625,0.72314453125,-13.85498046875,2.74658203125,1.3427734375,-3.8177490234375,46.47216796875,-160.9771728515625
1758876636.5649574,-0.705078125,-0.0322265625,0.73291015625,-22.76611328125,1.8310546875,1.52587890625,-3.9825439453125,46.494140625,-160.94970703125
1758876636.5756626,-0.705078125,-0.0322265625,0.73291015625,-22.76611328125,1.8310546875,1.52587890625,-4.185791015625,46.51611328125,-160.9222412109375
1758876636.5849006,-0.70458984375,-0.01904296875,0.74072265625,-34.36279296875,0.67138671875,1.8310546875,-4.449462890625,46.5216064453125,-160.8892822265625
1758876636.5959642,-0.70458984375,-0.01904296875,0.74072265625,-34.36279296875,0.67138671875,1.8310546875,-4.7625732421875,46.527099609375,-160.8563232421875
1758876636.6052644,-0.69482421875,0.02392578125,0.7490234375,-49.49951171875,-0.18310546875,2.9296875,-5.1416015625,46.527099609375,-160.8123779296875
1758876636.6152496,-0.69482421875,0.02392578125,0.7490234375,-49.49951171875,-0.18310546875,2.9296875,-5.5810546875,46.51611328125,-160.7574462890625
1758876636.6257684,-0.68798828125,0.02294921875,0.77490234375,-71.59423828125,-1.5869140625,3.662109375,-6.1248779296875,46.505126953125,-160.6915283203125
1758876636.635233,-0.68798828125,0.02294921875,0.77490234375,-71.59423828125,-1.5869140625,3.662109375,-6.767578125,46.483154296875,-160.6146240234375
1758876636.6450236,-0.66455078125,-0.04541015625,0.77587890625,-81.48193359375,-2.50244140625,3.60107421875,-7.4542236328125,46.4501953125,-160.5377197265625
1758876636.6556232,-0.66455078125,-0.04541015625,0.77587890625,-81.48193359375,-2.50244140625,3.60107421875,-8.184814453125,46.417236328125,-160.4608154296875
1758876636.6650867,-0.646484375,-0.0908203125,0.7646484375,-90.33203125,-3.2958984375,3.7841796875,-8.9593505859375,46.3787841796875,-160.37841796875
1758876636.6753466,-0.646484375,-0.0908203125,0.7646484375,-90.33203125,-3.2958984375,3.7841796875,-9.7723388671875,46.3348388671875,-160.29052734375
1758876636.6860182,-0.6025390625,-0.134765625,0.68115234375,-89.41650390625,-3.2958984375,3.41796875,-10.579833984375,46.2908935546875,-160.2081298828125
1758876636.6953623,-0.6025390625,-0.134765625,0.68115234375,-89.41650390625,-3.2958984375,3.41796875,-11.3818359375,46.2469482421875,-160.125732421875
1758876636.705098,-0.67333984375,-0.181640625,0.7451171875,-67.0166015625,-3.0517578125,2.0751953125,-12.0794677734375,46.197509765625,-160.059814453125
1758876636.715679,-0.67333984375,-0.181640625,0.7451171875,-67.0166015625,-3.0517578125,2.0751953125,-12.67822265625,46.153564453125,-159.9993896484375
1758876636.7270186,-0.67431640625,-0.2548828125,0.734375,-50.9033203125,-2.8076171875,1.220703125,-13.2000732421875,46.1041259765625,-159.949951171875
1758876636.7358987,-0.67431640625,-0.2548828125,0.734375,-50.9033203125,-2.8076171875,1.220703125,-13.6505126953125,46.0601806640625,-159.9114990234375
1758876636.7451775,-0.6748046875,-0.248046875,0.74609375,-34.36279296875,-3.173828125,0.1220703125,-14.029541015625,46.0107421875,-159.884033203125
1758876636.7559285,-0.6748046875,-0.248046875,0.74609375,-34.36279296875,-3.173828125,0.1220703125,-14.337158203125,45.955810546875,-159.862060546875
1758876636.7652588,-0.66845703125,-0.232421875,0.724609375,-9.1552734375,-2.685546875,-0.9765625,-14.5294189453125,45.9063720703125,-159.8565673828125
1758876636.7756298,-0.66845703125,-0.232421875,0.724609375,-9.1552734375,-2.685546875,-0.9765625,-14.600830078125,45.8514404296875,-159.862060546875
1758876636.7858722,-0.63818359375,-0.2119140625,0.66552734375,7.2021484375,-2.44140625,-2.197265625,-14.6063232421875,45.802001953125,-159.8785400390625
1758876636.7955484,-0.63818359375,-0.2119140625,0.66552734375,7.2021484375,-2.44140625,-2.197265625,-14.534912109375,45.7470703125,-159.9005126953125
1758876636.8053913,-0.6396484375,-0.1669921875,0.65234375,12.3291015625,-2.50244140625,-2.3193359375,-14.4415283203125,45.6976318359375,-159.927978515625
1758876636.8156002,-0.6396484375,-0.1669921875,0.65234375,12.3291015625,-2.50244140625,-2.3193359375,-14.326171875,45.648193359375,-159.9554443359375
1758876636.825977,-0.6455078125,-0.13134765625,0.66162109375,21.42333984375,-2.01416015625,-2.86865234375,-14.17236328125,45.5987548828125,-159.98291015625
1758876636.8355527,-0.6455078125,-0.13134765625,0.66162109375,21.42333984375,-2.01416015625,-2.86865234375,-13.974609375,45.5548095703125,-160.015869140625
1758876636.8453445,-0.6376953125,-0.1396484375,0.66357421875,29.60205078125,-1.0986328125,-2.685546875,-13.7384033203125,45.516357421875,-160.048828125
1758876636.856286,-0.6376953125,-0.1396484375,0.66357421875,29.60205078125,-1.0986328125,-2.685546875,-13.458251953125,45.4833984375,-160.081787109375
1758876636.8655908,-0.65673828125,-0.21435546875,0.65283203125,35.82763671875,-0.6103515625,-3.2958984375,-13.1561279296875,45.450439453125,-160.1202392578125
1758876636.8755865,-0.65673828125,-0.21435546875,0.65283203125,35.82763671875,-0.6103515625,-3.2958984375,-12.83203125,45.4229736328125,-160.169677734375
1758876636.885521,-0.6982421875,-0.33447265625,0.62158203125,56.15234375,0.48828125,-5.859375,-12.3431396484375,45.4010009765625,-160.2630615234375
1758876636.8961267,-0.6982421875,-0.33447265625,0.62158203125,56.15234375,0.48828125,-5.859375,-11.8597412109375,45.3790283203125,-160.3619384765625
1758876636.9055035,-0.73095703125,-0.3603515625,0.59033203125,94.1162109375,0.91552734375,-8.7890625,-11.0467529296875,45.362548828125,-160.5157470703125
1758876636.915661,-0.73095703125,-0.3603515625,0.59033203125,94.1162109375,0.91552734375,-8.7890625,-10.2447509765625,45.3460693359375,-160.675048828125
1758876636.9260457,-0.72412109375,-0.2890625,0.64892578125,142.08984375,1.953125,-10.986328125,-8.997802734375,45.3460693359375,-160.872802734375
1758876636.9356477,-0.72412109375,-0.2890625,0.64892578125,142.08984375,1.953125,-10.986328125,-7.7618408203125,45.3460693359375,-161.0760498046875
1758876636.9454226,-0.75927734375,-0.16748046875,0.67724609375,159.11865234375,1.89208984375,-12.63427734375,-6.3775634765625,45.3460693359375,-161.3067626953125
1758876636.9557242,-0.75927734375,-0.16748046875,0.67724609375,159.11865234375,1.89208984375,-12.63427734375,-4.9932861328125,45.3570556640625,-161.531982421875
1758876636.966249,-0.77099609375,0.015625,0.71875,121.9482421875,0.54931640625,-12.5732421875,-3.9825439453125,45.3570556640625,-161.7572021484375
1758876636.975716,-0.77099609375,0.015625,0.71875,121.9482421875,0.54931640625,-12.5732421875,-2.9608154296875,45.3570556640625,-161.971435546875
1758876636.9860935,-0.7890625,0.16259765625,0.79931640625,75.13427734375,-0.30517578125,-10.986328125,-2.384033203125,45.3515625,-162.158203125
1758876636.9957697,-0.7890625,0.16259765625,0.79931640625,75.13427734375,-0.30517578125,-10.986328125,-1.790771484375,45.3515625,-162.333984375
1758876637.0054677,-0.7529296875,0.22314453125,0.751953125,20.44677734375,-1.8310546875,-9.8876953125,-1.7193603515625,45.32958984375,-162.476806640625
1758876637.0158744,-0.7529296875,0.22314453125,0.751953125,20.44677734375,-1.8310546875,-9.8876953125,-1.636962890625,45.3131103515625,-162.6141357421875
1758876637.0258539,-0.72705078125,0.2041015625,0.66748046875,-32.89794921875,-2.197265625,-8.23974609375,-2.054443359375,45.296630859375,-162.718505859375
1758876637.0357842,-0.72705078125,0.2041015625,0.66748046875,-32.89794921875,-2.197265625,-8.23974609375,-2.4554443359375,45.274658203125,-162.8118896484375
1758876637.0455391,-0.70751953125,0.1064453125,0.6240234375,-57.06787109375,-1.3427734375,-6.2255859375,-3.0706787109375,45.263671875,-162.8668212890625
1758876637.0558648,-0.70751953125,0.1064453125,0.6240234375,-57.06787109375,-1.3427734375,-6.2255859375,-3.6749267578125,45.2581787109375,-162.916259765625
1758876637.0662684,-0.74658203125,-0.04736328125,0.6494140625,-51.3916015625,-0.67138671875,-5.06591796875,-4.2132568359375,45.2581787109375,-162.94921875
1758876637.075806,-0.74658203125,-0.04736328125,0.6494140625,-51.3916015625,-0.67138671875,-5.06591796875,-4.74609375,45.2581787109375,-162.982177734375
1758876637.0856178,-0.75439453125,-0.2109375,0.6279296875,-29.35791015625,0.30517578125,-5.0048828125,-5.0701904296875,45.274658203125,-163.026123046875
1758876637.0962975,-0.75439453125,-0.2109375,0.6279296875,-29.35791015625,0.30517578125,-5.0048828125,-5.3997802734375,45.28564453125,-163.070068359375
1758876637.1059318,-0.74462890625,-0.27099609375,0.6142578125,-6.53076171875,0.91552734375,-6.16455078125,-5.5206298828125,45.3021240234375,-163.1414794921875
1758876637.1158528,-0.74462890625,-0.27099609375,0.6142578125,-6.53076171875,0.91552734375,-6.16455078125,-5.657958984375,45.3240966796875,-163.223876953125
1758876637.1257617,-0.72900390625,-0.17626953125,0.57275390625,13.73291015625,2.74658203125,-5.0048828125,-5.5810546875,45.362548828125,-163.2952880859375
1758876637.1363387,-0.72900390625,-0.17626953125,0.57275390625,13.73291015625,2.74658203125,-5.0048828125,-5.51513671875,45.4010009765625,-163.3721923828125
1758876637.1457133,-0.7294921875,-0.158203125,0.61474609375,33.14208984375,3.173828125,-6.2255859375,-5.2734375,45.4449462890625,-163.465576171875
1758876637.1558082,-0.7294921875,-0.158203125,0.61474609375,33.14208984375,3.173828125,-6.2255859375,-5.03173828125,45.4888916015625,-163.5589599609375
1758876637.1658008,-0.748046875,-0.15185546875,0.7216796875,41.6259765625,3.7841796875,-5.06591796875,-4.7021484375,45.5438232421875,-163.6468505859375
1758876637.176425,-0.748046875,-0.15185546875,0.7216796875,41.6259765625,3.7841796875,-5.06591796875,-4.37255859375,45.59326171875,-163.7347412109375
1758876637.186933,-0.72900390625,-0.0556640625,0.6904296875,42.1142578125,3.47900390625,-5.18798828125,-4.0374755859375,45.63720703125,-163.8226318359375
1758876637.1958776,-0.72900390625,-0.0556640625,0.6904296875,42.1142578125,3.47900390625,-5.18798828125,-3.702392578125,45.68115234375,-163.9105224609375
1758876637.2070491,-0.73388671875,-0.001953125,0.68310546875,34.11865234375,3.41796875,-4.638671875,-3.438720703125,45.72509765625,-163.9874267578125
1758876637.2160392,-0.73388671875,-0.001953125,0.68310546875,34.11865234375,3.41796875,-4.638671875,-3.175048828125,45.76904296875,-164.0643310546875
1758876637.225825,-0.7333984375,0.0234375,0.68994140625,19.83642578125,3.96728515625,-3.41796875,-3.0377197265625,45.81298828125,-164.1192626953125
1758876637.23591,-0.7333984375,0.0234375,0.68994140625,19.83642578125,3.96728515625,-3.41796875,-2.889404296875,45.8624267578125,-164.1741943359375
1758876637.247214,-0.7314453125,0.03369140625,0.71728515625,7.62939453125,3.35693359375,-2.197265625,-2.8509521484375,45.9063720703125,-164.2071533203125
1758876637.2559159,-0.7314453125,0.03369140625,0.71728515625,7.62939453125,3.35693359375,-2.197265625,-2.8070068359375,45.94482421875,-164.2401123046875
1758876637.2658312,-0.73291015625,0.001953125,0.72021484375,-1.0986328125,3.41796875,-1.64794921875,-2.845458984375,45.9832763671875,-164.2620849609375
1758876637.276876,-0.73291015625,0.001953125,0.72021484375,-1.0986328125,3.41796875,-1.64794921875,-2.87841796875,46.021728515625,-164.2840576171875
1758876637.286198,-0.75634765625,0.0029296875,0.6845703125,-8.544921875,3.41796875,-0.9765625,-2.9718017578125,46.0601806640625,-164.2950439453125
1758876637.2959301,-0.75634765625,0.0029296875,0.6845703125,-8.544921875,3.41796875,-0.9765625,-3.0706787109375,46.1041259765625,-164.3060302734375
1758876637.3060129,-0.75634765625,-0.02392578125,0.6787109375,-15.7470703125,3.23486328125,-1.28173828125,-3.2354736328125,46.142578125,-164.3170166015625
1758876637.3165948,-0.75634765625,-0.02392578125,0.6787109375,-15.7470703125,3.23486328125,-1.28173828125,-3.40576171875,46.175537109375,-164.33349609375
1758876637.3271468,-0.80078125,-0.00537109375,0.66552734375,-23.3154296875,3.2958984375,-0.244140625,-3.636474609375,46.219482421875,-164.3280029296875
1758876637.3361838,-0.80078125,-0.00537109375,0.66552734375,-23.3154296875,3.2958984375,-0.244140625,-3.8616943359375,46.2579345703125,-164.322509765625
1758876637.3471403,-0.8017578125,-0.0234375,0.62744140625,-22.216796875,3.23486328125,0.1220703125,-4.075927734375,46.3018798828125,-164.3060302734375
1758876637.356518,-0.8017578125,-0.0234375,0.62744140625,-22.216796875,3.23486328125,0.1220703125,-4.28466796875,46.351318359375,-164.28955078125
1758876637.3659587,-0.8017578125,-0.0234375,0.62744140625,-25.08544921875,2.8076171875,-0.3662109375,-4.5318603515625,46.395263671875,-164.278564453125
1758876637.3761024,-0.8095703125,-0.0791015625,0.56396484375,-25.08544921875,2.8076171875,-0.3662109375,-4.779052734375,46.439208984375,-164.2620849609375
1758876637.3875375,-0.8193359375,-0.10888671875,0.64306640625,-16.9677734375,2.685546875,0.244140625,-4.94384765625,46.4886474609375,-164.24560546875
1758876637.3960974,-0.8193359375,-0.10888671875,0.64306640625,-16.9677734375,2.685546875,0.244140625,-5.108642578125,46.5380859375,-164.2236328125
1758876637.4064505,-0.779296875,-0.13037109375,0.60888671875,-6.40869140625,2.50244140625,-0.18310546875,-5.174560546875,46.58203125,-164.212646484375
1758876637.4165218,-0.779296875,-0.13037109375,0.60888671875,-6.40869140625,2.50244140625,-0.18310546875,-5.2459716796875,46.6314697265625,-164.20166015625
1758876637.4261327,-0.76318359375,-0.07958984375,0.6162109375,0.54931640625,2.5634765625,-0.42724609375,-5.25146484375,46.680908203125,-164.20166015625
1758876637.4361844,-0.76318359375,-0.07958984375,0.6162109375,0.54931640625,2.5634765625,-0.42724609375,-5.2569580078125,46.724853515625,-164.1961669921875
1758876637.4470813,-0.71826171875,-0.06982421875,0.673828125,10.6201171875,2.86865234375,-0.9765625,-5.1690673828125,46.7742919921875,-164.20166015625
1758876637.4562492,-0.71826171875,-0.06982421875,0.673828125,10.6201171875,2.86865234375,-0.9765625,-5.0811767578125,46.8182373046875,-164.2071533203125
1758876637.466119,-0.70068359375,-0.056640625,0.7353515625,9.3994140625,2.74658203125,-1.15966796875,-5.009765625,46.8621826171875,-164.2236328125
1758876637.4765692,-0.70068359375,-0.056640625,0.7353515625,9.3994140625,2.74658203125,-1.15966796875,-4.932861328125,46.900634765625,-164.2401123046875
1758876637.487242,-0.6845703125,-0.02197265625,0.740234375,5.18798828125,2.62451171875,-1.5869140625,-4.89990234375,46.93359375,-164.2620849609375
1758876637.4961894,-0.6845703125,-0.02197265625,0.740234375,5.18798828125,2.62451171875,-1.5869140625,-4.8724365234375,46.9610595703125,-164.28955078125
1758876637.506211,-0.6875,-0.029296875,0.71337890625,0.48828125,2.62451171875,-2.25830078125,-4.888916015625,46.988525390625,-164.322509765625
1758876637.5166163,-0.6875,-0.029296875,0.71337890625,0.48828125,2.62451171875,-2.25830078125,-4.910888671875,47.010498046875,-164.3609619140625
1758876637.5273778,-0.69873046875,-0.05517578125,0.70849609375,5.9814453125,3.23486328125,-3.35693359375,-4.8834228515625,47.0379638671875,-164.4158935546875
1758876637.536294,-0.69873046875,-0.05517578125,0.70849609375,5.9814453125,3.23486328125,-3.35693359375,-4.8614501953125,47.0654296875,-164.476318359375
1758876637.5462806,-0.71630859375,-0.08154296875,0.70166015625,15.625,3.60107421875,-4.150390625,-4.7515869140625,47.0928955078125,-164.5477294921875
1758876637.556398,-0.71630859375,-0.08154296875,0.70166015625,15.625,3.60107421875,-4.150390625,-4.6417236328125,47.120361328125,-164.619140625
1758876637.5673983,-0.751953125,-0.0595703125,0.697265625,20.01953125,3.5400390625,-4.69970703125,-4.4989013671875,47.1478271484375,-164.7015380859375
1758876637.5763566,-0.751953125,-0.0595703125,0.697265625,20.01953125,3.5400390625,-4.69970703125,-4.3560791015625,47.17529296875,-164.783935546875
1758876637.5864422,-0.75,-0.0244140625,0.689453125,18.6767578125,2.685546875,-3.96728515625,-4.2132568359375,47.1917724609375,-164.8553466796875
1758876637.596961,-0.75,-0.0244140625,0.689453125,18.6767578125,2.685546875,-3.96728515625,-4.075927734375,47.2137451171875,-164.9212646484375
1758876637.6063087,-0.767578125,-0.046875,0.61962890625,9.521484375,2.0751953125,-3.35693359375,-4.02099609375,47.230224609375,-164.9761962890625
1758876637.616762,-0.767578125,-0.046875,0.61962890625,9.521484375,2.0751953125,-3.35693359375,-3.9605712890625,47.2467041015625,-165.0311279296875
1758876637.628472,-0.7646484375,-0.05322265625,0.62939453125,3.90625,2.197265625,-2.50244140625,-3.955078125,47.2686767578125,-165.0750732421875
1758876637.636796,-0.7646484375,-0.05322265625,0.62939453125,3.90625,2.197265625,-2.50244140625,-3.9495849609375,47.296142578125,-165.113525390625
1758876637.6469045,-0.75048828125,-0.07080078125,0.6171875,6.65283203125,2.38037109375,-2.01416015625,-3.9056396484375,47.318115234375,-165.146484375
1758876637.657301,-0.75048828125,-0.07080078125,0.6171875,6.65283203125,2.38037109375,-2.01416015625,-3.8726806640625,47.35107421875,-165.179443359375
1758876637.6663313,-0.7373046875,-0.07666015625,0.662109375,11.90185546875,2.50244140625,-1.708984375,-3.779296875,47.3785400390625,-165.21240234375
1758876637.6766856,-0.7373046875,-0.07666015625,0.662109375,11.90185546875,2.50244140625,-1.708984375,-3.6859130859375,47.406005859375,-165.2398681640625
1758876637.687498,-0.7119140625,-0.05224609375,0.697265625,17.08984375,2.25830078125,-2.01416015625,-3.548583984375,47.4334716796875,-165.2783203125
1758876637.6965966,-0.7119140625,-0.05224609375,0.697265625,17.08984375,2.25830078125,-2.01416015625,-3.4112548828125,47.4554443359375,-165.3167724609375
1758876637.7064488,-0.7060546875,-0.03369140625,0.72802734375,25.20751953125,1.953125,-2.50244140625,-3.197021484375,47.4774169921875,-165.3662109375
1758876637.7176776,-0.7060546875,-0.03369140625,0.72802734375,25.20751953125,1.953125,-2.50244140625,-2.9827880859375,47.493896484375,-165.4156494140625
1758876637.7275376,-0.720703125,-0.0302734375,0.73046875,23.4375,1.46484375,-2.38037109375,-2.7850341796875,47.4993896484375,-165.465087890625
1758876637.7365785,-0.720703125,-0.0302734375,0.73046875,23.4375,1.46484375,-2.38037109375,-2.581787109375,47.5103759765625,-165.5145263671875
1758876637.74712,-0.73388671875,-0.0107421875,0.68701171875,18.9208984375,0.67138671875,-2.13623046875,-2.427978515625,47.5103759765625,-165.56396484375
1758876637.757405,-0.73388671875,-0.0107421875,0.68701171875,18.9208984375,0.67138671875,-2.13623046875,-2.2686767578125,47.5103759765625,-165.60791015625
1758876637.7664983,-0.73095703125,-0.0322265625,0.66943359375,21.30126953125,0.18310546875,-2.01416015625,-2.08740234375,47.5103759765625,-165.65185546875
1758876637.7767107,-0.73095703125,-0.0322265625,0.66943359375,21.30126953125,0.18310546875,-2.01416015625,-1.9061279296875,47.5048828125,-165.7012939453125
1758876637.787984,-0.736328125,-0.04541015625,0.712890625,27.587890625,-0.6103515625,-2.01416015625,-1.658935546875,47.493896484375,-165.7452392578125
1758876637.7966526,-0.736328125,-0.04541015625,0.712890625,27.587890625,-0.6103515625,-2.01416015625,-1.417236328125,47.48291015625,-165.794677734375
1758876637.8075871,-0.72119140625,-0.02587890625,0.71435546875,28.50341796875,-1.5869140625,-2.197265625,-1.1700439453125,47.4609375,-165.8441162109375
1758876637.8170059,-0.72119140625,-0.02587890625,0.71435546875,28.50341796875,-1.5869140625,-2.197265625,-0.9228515625,47.43896484375,-165.8990478515625
1758876637.8270118,-0.70556640625,0.01318359375,0.7158203125,28.6865234375,-2.8076171875,-2.62451171875,-0.6756591796875,47.406005859375,-165.95947265625
1758876637.8373039,-0.69873046875,0.001953125,0.77587890625,40.58837890625,-3.90625,-3.72314453125,-0.3790283203125,47.362060546875,-166.0308837890625
1758876637.8472013,-0.69873046875,0.001953125,0.77587890625,40.58837890625,-3.90625,-3.72314453125,-0.02197265625,47.3126220703125,-166.1077880859375
1758876637.856771,-0.681640625,-0.05615234375,0.8134765625,68.9697265625,-5.55419921875,-4.94384765625,0.4559326171875,47.252197265625,-166.201171875
1758876637.867418,-0.681640625,-0.05615234375,0.8134765625,68.9697265625,-5.55419921875,-4.94384765625,1.0711669921875,47.186279296875,-166.31103515625
1758876637.876804,-0.638671875,-0.07177734375,0.8369140625,92.529296875,-7.568359375,-6.28662109375,1.790771484375,47.1038818359375,-166.4373779296875
1758876637.8871179,-0.638671875,-0.07177734375,0.8369140625,92.529296875,-7.568359375,-6.28662109375,2.6092529296875,47.010498046875,-166.585693359375
1758876637.8971987,-0.5888671875,0.037109375,0.82568359375,77.94189453125,-9.3994140625,-7.6904296875,3.3453369140625,46.9061279296875,-166.75048828125
1758876637.9075873,-0.5888671875,0.037109375,0.82568359375,77.94189453125,-9.3994140625,-7.6904296875,3.9935302734375,46.790771484375,-166.937255859375
1758876637.9167626,-0.537109375,0.1572265625,0.81640625,46.69189453125,-11.1083984375,-7.87353515625,4.482421875,46.6644287109375,-167.1240234375
1758876637.9271483,-0.537109375,0.1572265625,0.81640625,46.69189453125,-11.1083984375,-7.87353515625,4.822998046875,46.527099609375,-167.3162841796875
1758876637.937595,-0.48486328125,0.216796875,0.82275390625,15.869140625,-11.962890625,-8.23974609375,5.009765625,46.38427734375,-167.5140380859375
1758876637.9470944,-0.48486328125,0.216796875,0.82275390625,15.869140625,-11.962890625,-8.23974609375,5.0482177734375,46.23046875,-167.71728515625
1758876637.9568563,-0.49072265625,0.19189453125,0.7275390625,-11.16943359375,-11.5966796875,-7.62939453125,4.9658203125,46.0711669921875,-167.9150390625
1758876637.9674845,-0.49072265625,0.19189453125,0.7275390625,-11.16943359375,-11.5966796875,-7.62939453125,4.7625732421875,45.9173583984375,-168.101806640625
1758876637.9772437,-0.54638671875,0.1357421875,0.6474609375,-27.9541015625,-9.70458984375,-7.62939453125,4.4769287109375,45.7635498046875,-168.2830810546875
1758876637.9871447,-0.54638671875,0.1357421875,0.6474609375,-27.9541015625,-9.70458984375,-7.62939453125,4.119873046875,45.626220703125,-168.453369140625
1758876637.996974,-0.87451171875,0.2939453125,0.67529296875,-56.21337890625,-8.056640625,-6.8359375,3.636474609375,45.4998779296875,-168.6126708984375
1758876638.00794,-0.87451171875,0.2939453125,0.67529296875,-56.21337890625,-8.056640625,-6.8359375,3.0322265625,45.384521484375,-168.739013671875
1758876638.0169444,-1.13525390625,0.25390625,0.529296875,-80.01708984375,-7.2021484375,-7.99560546875,2.318115234375,45.2911376953125,-168.8543701171875
1758876638.0273008,-1.13525390625,0.25390625,0.529296875,-80.01708984375,-7.2021484375,-7.99560546875,1.494140625,45.2142333984375,-168.9422607421875
1758876638.0375996,-0.8271484375,0.1708984375,0.55322265625,-89.2333984375,-7.38525390625,5.55419921875,0.6976318359375,45.15380859375,-168.914794921875
1758876638.0476089,-0.8271484375,0.1708984375,0.55322265625,-89.2333984375,-7.38525390625,5.55419921875,-0.0604248046875,45.0933837890625,-168.77197265625
1758876638.057103,-0.91748046875,-0.091796875,0.5,-94.42138671875,-5.0048828125,6.28662109375,-0.845947265625,45.054931640625,-168.6181640625
1758876638.0672987,-0.91748046875,-0.091796875,0.5,-94.42138671875,-5.0048828125,6.28662109375,-1.658935546875,45.0384521484375,-168.4588623046875
1758876638.0777035,-0.8076171875,-0.3818359375,0.67626953125,-95.947265625,-5.859375,7.8125,-2.48291015625,45.02197265625,-168.2830810546875
1758876638.08737,-0.8076171875,-0.3818359375,0.67626953125,-95.947265625,-5.859375,7.8125,-3.3233642578125,45.0054931640625,-168.1182861328125
1758876638.0970716,-0.7236328125,-0.31298828125,0.6396484375,-72.509765625,-4.0283203125,8.97216796875,-4.053955078125,44.9945068359375,-167.958984375
1758876638.1074505,-0.7236328125,-0.31298828125,0.6396484375,-72.509765625,-4.0283203125,8.97216796875,-4.6746826171875,44.9945068359375,-167.80517578125
1758876638.1178617,-0.7548828125,-0.07958984375,0.50927734375,-35.15625,-3.35693359375,8.11767578125,-5.11962890625,44.9945068359375,-167.662353515625
1758876638.1274147,-0.7548828125,-0.07958984375,0.50927734375,-35.15625,-3.35693359375,8.11767578125,-5.3887939453125,45.0054931640625,-167.51953125
1758876638.1371176,-0.7314453125,0.01416015625,0.57275390625,-30.70068359375,-1.40380859375,7.87353515625,-5.6304931640625,45.0274658203125,-167.3712158203125
1758876638.1476903,-0.7314453125,0.01416015625,0.57275390625,-30.70068359375,-1.40380859375,7.87353515625,-5.8502197265625,45.054931640625,-167.2283935546875
1758876638.1579833,-0.71923828125,-0.07275390625,0.72119140625,-36.62109375,-1.64794921875,7.4462890625,-6.097412109375,45.087890625,-167.080078125
1758876638.1673474,-0.71923828125,-0.07275390625,0.72119140625,-36.62109375,-1.64794921875,7.4462890625,-6.3775634765625,45.10986328125,-166.937255859375
