timestamp,acc_x,acc_y,acc_z,gyro_x,gyro_y,gyro_z,angle_x,angle_y,angle_z
1758525028.7341483,-0.8544921875,-0.01904296875,0.533203125,2.0751953125,0.0,-5.0048828125,-0.1318359375,57.3046875,-29.8443603515625
1758525028.74561,-0.8544921875,-0.01904296875,0.533203125,2.0751953125,0.0,-5.0048828125,-0.186767578125,57.3046875,-29.9322509765625
1758525028.7548702,-0.84716796875,-0.00439453125,0.5263671875,3.47900390625,-1.8310546875,-5.06591796875,-0.2252197265625,57.2882080078125,-30.025634765625
1758525028.766015,-0.84716796875,-0.00439453125,0.5263671875,3.47900390625,-1.8310546875,-5.06591796875,-0.2691650390625,57.271728515625,-30.1190185546875
1758525028.7774282,-0.86572265625,-0.00341796875,0.5166015625,2.197265625,-3.5400390625,-5.0048828125,-0.318603515625,57.23876953125,-30.21240234375
1758525028.7891607,-0.86572265625,-0.00341796875,0.5166015625,2.197265625,-3.5400390625,-5.0048828125,-0.37353515625,57.205810546875,-30.30029296875
1758525028.800255,-0.86572265625,-0.00341796875,0.5166015625,3.0517578125,-4.7607421875,-5.126953125,-0.41748046875,57.161865234375,-30.3936767578125
1758525028.8102033,-0.876953125,-0.013671875,0.51171875,3.0517578125,-4.7607421875,-5.126953125,-0.4669189453125,57.117919921875,-30.4925537109375
1758525028.824037,-0.849609375,-0.01611328125,0.51513671875,6.4697265625,-5.4931640625,-5.0048828125,-0.4779052734375,57.0684814453125,-30.5859375
1758525028.8320153,-0.849609375,-0.01611328125,0.51513671875,6.4697265625,-5.4931640625,-5.0048828125,-0.4888916015625,57.0245361328125,-30.6793212890625
1758525028.838333,-0.82958984375,-0.00244140625,0.5458984375,8.056640625,-5.67626953125,-4.5166015625,-0.4779052734375,56.97509765625,-30.7672119140625
1758525028.844555,-0.82958984375,-0.00244140625,0.5458984375,8.056640625,-5.67626953125,-4.5166015625,-0.46142578125,56.920166015625,-30.849609375
1758525028.851757,-0.837890625,-0.00927734375,0.57177734375,7.26318359375,-5.92041015625,-3.41796875,-0.4449462890625,56.8707275390625,-30.9100341796875
1758525028.8617094,-0.837890625,-0.00927734375,0.57177734375,7.26318359375,-5.92041015625,-3.41796875,-0.4229736328125,56.8157958984375,-30.9759521484375
1758525028.871754,-0.8330078125,-0.02490234375,0.5556640625,5.7373046875,-5.859375,-2.5634765625,-0.406494140625,56.7608642578125,-31.025390625
1758525028.881737,-0.8330078125,-0.02490234375,0.5556640625,5.7373046875,-5.859375,-2.5634765625,-0.3900146484375,56.7059326171875,-31.0748291015625
1758525028.8927262,-0.79443359375,-0.01708984375,0.5498046875,3.173828125,-5.55419921875,-2.0751953125,-0.3900146484375,56.6510009765625,-31.11328125
1758525028.9017985,-0.79443359375,-0.01708984375,0.5498046875,3.173828125,-5.55419921875,-2.0751953125,-0.3955078125,56.5960693359375,-31.1572265625
1758525028.911772,-0.7919921875,0.01025390625,0.57763671875,-1.220703125,-5.55419921875,-1.77001953125,-0.4339599609375,56.5411376953125,-31.190185546875
1758525028.9221287,-0.7919921875,0.01025390625,0.57763671875,-1.220703125,-5.55419921875,-1.77001953125,-0.4779052734375,56.4862060546875,-31.22314453125
1758525028.9320068,-0.8154296875,0.00146484375,0.58447265625,-3.47900390625,-5.55419921875,-1.77001953125,-0.538330078125,56.4312744140625,-31.2506103515625
1758525028.9417906,-0.8154296875,0.00146484375,0.58447265625,-3.47900390625,-5.55419921875,-1.77001953125,-0.5987548828125,56.370849609375,-31.2835693359375
1758525028.9517903,-0.8046875,-0.01220703125,0.5693359375,0.1220703125,-5.43212890625,-2.0751953125,-0.626220703125,56.31591796875,-31.3165283203125
1758525028.9618194,-0.8046875,-0.01220703125,0.5693359375,0.1220703125,-5.43212890625,-2.0751953125,-0.6536865234375,56.260986328125,-31.3494873046875
1758525028.9718134,-0.8232421875,-0.00634765625,0.572265625,2.62451171875,-5.31005859375,-2.197265625,-0.6591796875,56.2005615234375,-31.387939453125
1758525028.981855,-0.8232421875,-0.00634765625,0.572265625,2.62451171875,-5.31005859375,-2.197265625,-0.6646728515625,56.1456298828125,-31.4263916015625
1758525028.9918287,-0.828125,-0.01220703125,0.56396484375,2.197265625,-5.06591796875,-2.01416015625,-0.6756591796875,56.0906982421875,-31.4593505859375
1758525029.0018632,-0.828125,-0.01220703125,0.56396484375,2.197265625,-5.06591796875,-2.01416015625,-0.68115234375,56.041259765625,-31.4923095703125
1758525029.0118556,-0.828125,-0.01123046875,0.55810546875,1.03759765625,-4.8828125,-1.64794921875,-0.6976318359375,55.986328125,-31.519775390625
1758525029.0218747,-0.828125,-0.01123046875,0.55810546875,1.03759765625,-4.8828125,-1.64794921875,-0.7086181640625,55.9368896484375,-31.552734375
1758525029.0318935,-0.84423828125,-0.00732421875,0.5595703125,-1.15966796875,-4.69970703125,-0.91552734375,-0.736083984375,55.8929443359375,-31.5692138671875
1758525029.0418918,-0.84423828125,-0.00732421875,0.5595703125,-1.15966796875,-4.69970703125,-0.91552734375,-0.758056640625,55.843505859375,-31.585693359375
1758525029.0519056,-0.85986328125,-0.021484375,0.5498046875,-1.953125,-4.33349609375,-0.06103515625,-0.780029296875,55.799560546875,-31.585693359375
1758525029.061915,-0.85986328125,-0.021484375,0.5498046875,-1.953125,-4.33349609375,-0.06103515625,-0.802001953125,55.7611083984375,-31.5911865234375
1758525029.0719209,-0.85498046875,-0.02490234375,0.5380859375,-0.732421875,-3.84521484375,0.48828125,-0.802001953125,55.72265625,-31.585693359375
1758525029.0819817,-0.85498046875,-0.02490234375,0.5380859375,-0.732421875,-3.84521484375,0.48828125,-0.802001953125,55.689697265625,-31.585693359375
1758525029.0919485,-0.8271484375,-0.01416015625,0.55908203125,-0.3662109375,-3.60107421875,0.9765625,-0.7965087890625,55.6622314453125,-31.57470703125
1758525029.1019747,-0.8271484375,-0.01416015625,0.55908203125,-0.3662109375,-3.60107421875,0.9765625,-0.7855224609375,55.6292724609375,-31.563720703125
1758525029.1119764,-0.80810546875,-0.0068359375,0.58251953125,-1.220703125,-3.7841796875,1.46484375,-0.780029296875,55.5963134765625,-31.541748046875
1758525029.12198,-0.80810546875,-0.0068359375,0.58251953125,-1.220703125,-3.7841796875,1.46484375,-0.7745361328125,55.557861328125,-31.5252685546875
1758525029.132013,-0.8173828125,-0.01513671875,0.5810546875,-2.01416015625,-4.21142578125,1.89208984375,-0.76904296875,55.5194091796875,-31.497802734375
1758525029.1419976,-0.8173828125,-0.01513671875,0.5810546875,-2.01416015625,-4.21142578125,1.89208984375,-0.7635498046875,55.48095703125,-31.4703369140625
1758525029.152033,-0.826171875,-0.01904296875,0.5625,-1.0986328125,-4.45556640625,2.01416015625,-0.7470703125,55.43701171875,-31.44287109375
1758525029.162021,-0.826171875,-0.01904296875,0.5625,-1.0986328125,-4.45556640625,2.01416015625,-0.7305908203125,55.39306640625,-31.409912109375
1758525029.1720426,-0.8173828125,-0.00146484375,0.56494140625,-0.06103515625,-4.638671875,1.89208984375,-0.7086181640625,55.34912109375,-31.387939453125
1758525029.1820486,-0.8173828125,-0.00146484375,0.56494140625,-0.06103515625,-4.638671875,1.89208984375,-0.68115234375,55.30517578125,-31.3604736328125
1758525029.1920693,-0.81494140625,0.0009765625,0.57763671875,-0.79345703125,-4.638671875,1.708984375,-0.670166015625,55.26123046875,-31.3330078125
1758525029.2020886,-0.81494140625,0.0009765625,0.57763671875,-0.79345703125,-4.638671875,1.708984375,-0.6536865234375,55.21728515625,-31.31103515625
1758525029.2120752,-0.81298828125,-0.00732421875,0.5830078125,-1.03759765625,-4.638671875,1.5869140625,-0.6427001953125,55.17333984375,-31.2835693359375
1758525029.2220871,-0.81298828125,-0.00732421875,0.5830078125,-1.03759765625,-4.638671875,1.5869140625,-0.6317138671875,55.12939453125,-31.2615966796875
1758525029.2321174,-0.8154296875,-0.00634765625,0.58349609375,-0.67138671875,-4.5166015625,1.52587890625,-0.615234375,55.0799560546875,-31.2396240234375
1758525029.2421494,-0.8154296875,-0.00634765625,0.58349609375,-0.67138671875,-4.5166015625,1.52587890625,-0.5987548828125,55.0360107421875,-31.2176513671875
1758525029.2521632,-0.82275390625,-0.00732421875,0.58154296875,-0.9765625,-4.33349609375,1.28173828125,-0.59326171875,54.99755859375,-31.201171875
1758525029.2621417,-0.82275390625,-0.00732421875,0.58154296875,-0.9765625,-4.33349609375,1.28173828125,-0.5877685546875,54.95361328125,-31.17919921875
1758525029.272167,-0.81787109375,-0.00732421875,0.57470703125,-0.48828125,-4.21142578125,0.732421875,-0.582275390625,54.90966796875,-31.1737060546875
1758525029.2822278,-0.81787109375,-0.00732421875,0.57470703125,-0.48828125,-4.21142578125,0.732421875,-0.5767822265625,54.8712158203125,-31.1627197265625
1758525029.2923179,-0.81787109375,-0.00732421875,0.57470703125,0.0,-4.0283203125,0.1220703125,-0.5767822265625,54.832763671875,-31.168212890625
1758525029.3023574,-0.818359375,0.0068359375,0.58056640625,0.0,-4.0283203125,0.1220703125,-0.5712890625,54.788818359375,-31.168212890625
1758525029.3122387,-0.830078125,0.00048828125,0.58154296875,-0.244140625,-3.7841796875,-0.244140625,-0.5767822265625,54.755859375,-31.1737060546875
1758525029.3223379,-0.830078125,0.00048828125,0.58154296875,-0.244140625,-3.7841796875,-0.244140625,-0.582275390625,54.7174072265625,-31.17919921875
1758525029.332271,-0.83154296875,-0.0126953125,0.57763671875,0.30517578125,-3.23486328125,-0.67138671875,-0.5877685546875,54.6844482421875,-31.1956787109375
1758525029.3423758,-0.83154296875,-0.0126953125,0.57763671875,0.30517578125,-3.23486328125,-0.67138671875,-0.59326171875,54.656982421875,-31.212158203125
1758525029.3525615,-0.80810546875,-0.00634765625,0.5849609375,0.9765625,-2.44140625,-0.91552734375,-0.59326171875,54.635009765625,-31.234130859375
1758525029.3624272,-0.80810546875,-0.00634765625,0.5849609375,0.9765625,-2.44140625,-0.91552734375,-0.5987548828125,54.613037109375,-31.2506103515625
1758525029.3723843,-0.79833984375,0.00146484375,0.6044921875,0.0,-1.8310546875,-1.03759765625,-0.6097412109375,54.591064453125,-31.2725830078125
1758525029.3825834,-0.79833984375,0.00146484375,0.6044921875,0.0,-1.8310546875,-1.03759765625,-0.626220703125,54.5745849609375,-31.2945556640625
1758525029.3972652,-0.80322265625,-0.00634765625,0.60107421875,-1.15966796875,-1.3427734375,-1.03759765625,-0.648193359375,54.55810546875,-31.31103515625
1758525029.4039998,-0.80322265625,-0.00634765625,0.60107421875,-1.15966796875,-1.3427734375,-1.03759765625,-0.6756591796875,54.5416259765625,-31.3330078125
1758525029.412369,-0.8095703125,-0.01025390625,0.58935546875,-1.5869140625,-0.9765625,-0.8544921875,-0.703125,54.5306396484375,-31.343994140625
1758525029.4224792,-0.8095703125,-0.01025390625,0.58935546875,-1.5869140625,-0.9765625,-0.8544921875,-0.72509765625,54.5196533203125,-31.3604736328125
1758525029.4330099,-0.8193359375,-0.01123046875,0.5908203125,-2.44140625,-0.79345703125,-0.42724609375,-0.758056640625,54.5086669921875,-31.3714599609375
1758525029.4424376,-0.8193359375,-0.01123046875,0.5908203125,-2.44140625,-0.79345703125,-0.42724609375,-0.7855224609375,54.4976806640625,-31.3824462890625
1758525029.452449,-0.83447265625,-0.02783203125,0.587890625,-1.953125,-0.91552734375,0.0,-0.8074951171875,54.4921875,-31.3824462890625
1758525029.4626508,-0.83447265625,-0.02783203125,0.587890625,-1.953125,-0.91552734375,0.0,-0.823974609375,54.481201171875,-31.387939453125
1758525029.4724526,-0.83251953125,-0.0185546875,0.55712890625,-0.1220703125,-1.46484375,0.06103515625,-0.8294677734375,54.4647216796875,-31.3934326171875
1758525029.482539,-0.83251953125,-0.0185546875,0.55712890625,-0.1220703125,-1.46484375,0.06103515625,-0.8294677734375,54.4482421875,-31.39892578125
1758525029.492929,-0.8291015625,0.0029296875,0.5595703125,-0.67138671875,-1.953125,0.0,-0.8404541015625,54.4317626953125,-31.409912109375
1758525029.5024781,-0.8291015625,0.0029296875,0.5595703125,-0.67138671875,-1.953125,0.0,-0.845947265625,54.415283203125,-31.4154052734375
1758525029.5125532,-0.8037109375,-0.00390625,0.5771484375,-2.685546875,-2.44140625,-0.48828125,-0.87890625,54.393310546875,-31.4263916015625
1758525029.5231495,-0.8037109375,-0.00390625,0.5771484375,-2.685546875,-2.44140625,-0.48828125,-0.911865234375,54.371337890625,-31.44287109375
1758525029.5327475,-0.79296875,-0.00537109375,0.6015625,-2.0751953125,-3.0517578125,-0.91552734375,-0.94482421875,54.3438720703125,-31.4593505859375
1758525029.5427423,-0.79296875,-0.00537109375,0.6015625,-2.0751953125,-3.0517578125,-0.91552734375,-0.9722900390625,54.31640625,-31.4813232421875
1758525029.5529835,-0.7998046875,-0.00830078125,0.60107421875,-1.0986328125,-3.47900390625,-0.9765625,-0.9942626953125,54.2779541015625,-31.497802734375
1758525029.562715,-0.7998046875,-0.00830078125,0.60107421875,-1.0986328125,-3.47900390625,-0.9765625,-1.021728515625,54.2449951171875,-31.5142822265625
1758525029.5727184,-0.80712890625,-0.0244140625,0.5830078125,0.79345703125,-3.84521484375,-1.03759765625,-1.021728515625,54.20654296875,-31.5362548828125
1758525029.583231,-0.80712890625,-0.0244140625,0.5830078125,0.79345703125,-3.84521484375,-1.03759765625,-1.0272216796875,54.1680908203125,-31.5582275390625
1758525029.5928764,-0.82763671875,-0.02294921875,0.58447265625,3.7841796875,-4.0283203125,-1.03759765625,-1.0052490234375,54.1241455078125,-31.5802001953125
1758525029.6028466,-0.82763671875,-0.02294921875,0.58447265625,3.7841796875,-4.0283203125,-1.03759765625,-0.9832763671875,54.085693359375,-31.6021728515625
1758525029.6135507,-0.81640625,-0.01123046875,0.5712890625,5.37109375,-4.45556640625,-0.732421875,-0.9393310546875,54.041748046875,-31.61865234375
1758525029.6228774,-0.81640625,-0.01123046875,0.5712890625,5.37109375,-4.45556640625,-0.732421875,-0.8953857421875,54.0032958984375,-31.6351318359375
1758525029.6326485,-0.80126953125,-0.0087890625,0.58203125,2.74658203125,-4.638671875,-0.30517578125,-0.8734130859375,53.9593505859375,-31.6461181640625
1758525029.6427298,-0.78955078125,-0.01220703125,0.60498046875,0.8544921875,-5.126953125,0.0,-0.8624267578125,53.909912109375,-31.651611328125
1758525029.6527812,-0.78955078125,-0.01220703125,0.60498046875,0.8544921875,-5.126953125,0.0,-0.8514404296875,53.8604736328125,-31.6571044921875
1758525029.6627061,-0.7900390625,-0.0166015625,0.615234375,-0.06103515625,-5.55419921875,0.1220703125,-0.8514404296875,53.81103515625,-31.66259765625
1758525029.6729112,-0.7900390625,-0.0166015625,0.615234375,-0.06103515625,-5.55419921875,0.1220703125,-0.8514404296875,53.756103515625,-31.66259765625
1758525029.6829185,-0.7998046875,-0.00341796875,0.6005859375,0.732421875,-6.103515625,-0.1220703125,-0.845947265625,53.6956787109375,-31.6680908203125
1758525029.692705,-0.7998046875,-0.00341796875,0.6005859375,0.732421875,-6.103515625,-0.1220703125,-0.8404541015625,53.63525390625,-31.673583984375
1758525029.702744,-0.7978515625,-0.00439453125,0.58349609375,2.86865234375,-6.591796875,-0.67138671875,-0.8294677734375,53.5693359375,-31.6845703125
1758525029.713171,-0.7978515625,-0.00439453125,0.58349609375,2.86865234375,-6.591796875,-0.67138671875,-0.8074951171875,53.50341796875,-31.695556640625
1758525029.7228026,-0.8115234375,0.001953125,0.60498046875,3.60107421875,-6.591796875,-0.732421875,-0.7855224609375,53.4375,-31.7120361328125
1758525029.732812,-0.8115234375,0.001953125,0.60498046875,3.60107421875,-6.591796875,-0.732421875,-0.758056640625,53.37158203125,-31.728515625
1758525029.7428184,-0.81591796875,-0.02001953125,0.6083984375,4.150390625,-6.7138671875,0.67138671875,-0.7196044921875,53.3111572265625,-31.728515625
1758525029.7530925,-0.81591796875,-0.02001953125,0.6083984375,4.150390625,-6.7138671875,0.67138671875,-0.670166015625,53.2452392578125,-31.7230224609375
1758525029.7628293,-0.77685546875,-0.04736328125,0.57470703125,1.220703125,-7.26318359375,1.8310546875,-0.626220703125,53.173828125,-31.70654296875
1758525029.772824,-0.77685546875,-0.04736328125,0.57470703125,1.220703125,-7.26318359375,1.8310546875,-0.59326171875,53.10791015625,-31.6845703125
1758525029.7830048,-0.75341796875,-0.00244140625,0.62109375,-2.38037109375,-7.38525390625,2.74658203125,-0.5767822265625,53.0364990234375,-31.6571044921875
1758525029.7928443,-0.75341796875,-0.00244140625,0.62109375,-2.38037109375,-7.38525390625,2.74658203125,-0.5657958984375,52.9595947265625,-31.6241455078125
1758525029.803106,-0.75341796875,-0.00244140625,0.62109375,-5.55419921875,-8.36181640625,3.7841796875,-0.5657958984375,52.8826904296875,-31.57470703125
1758525029.8129413,-0.70166015625,0.0068359375,0.64111328125,-5.55419921875,-8.36181640625,3.7841796875,-0.5767822265625,52.7947998046875,-31.519775390625
1758525029.8228946,-0.67578125,-0.01416015625,0.66015625,-5.9814453125,-9.09423828125,3.96728515625,-0.582275390625,52.7069091796875,-31.453857421875
1758525029.8328555,-0.67578125,-0.01416015625,0.66015625,-5.9814453125,-9.09423828125,3.96728515625,-0.59326171875,52.6080322265625,-31.3934326171875
1758525029.8429854,-0.58642578125,-0.00927734375,0.6845703125,-1.3427734375,-8.97216796875,4.33349609375,-0.5767822265625,52.503662109375,-31.322021484375
1758525029.8530676,-0.58642578125,-0.00927734375,0.6845703125,-1.3427734375,-8.97216796875,4.33349609375,-0.5328369140625,52.3992919921875,-31.2451171875
1758525029.8629668,-0.65869140625,0.01318359375,0.72412109375,2.74658203125,-8.60595703125,5.67626953125,-0.46142578125,52.2894287109375,-31.1572265625
1758525029.8731856,-0.65869140625,0.01318359375,0.72412109375,2.74658203125,-8.60595703125,5.67626953125,-0.362548828125,52.1795654296875,-31.058349609375
1758525029.8831851,-0.68359375,-0.05517578125,0.67138671875,-5.7373046875,-6.28662109375,7.87353515625,-0.2911376953125,52.0806884765625,-30.9375
1758525029.8929741,-0.68359375,-0.05517578125,0.67138671875,-5.7373046875,-6.28662109375,7.87353515625,-0.252685546875,51.9927978515625,-30.8001708984375
1758525029.903049,-0.6708984375,-0.05517578125,0.6875,-4.08935546875,-3.7841796875,10.986328125,-0.186767578125,51.9158935546875,-30.640869140625
1758525029.9130392,-0.6708984375,-0.05517578125,0.6875,-4.08935546875,-3.7841796875,10.986328125,-0.098876953125,51.844482421875,-30.465087890625
1758525029.9230418,-0.80029296875,0.01904296875,0.8525390625,-7.4462890625,-3.7841796875,13.24462890625,-0.0164794921875,51.778564453125,-30.267333984375
1758525029.9329782,-0.80029296875,0.01904296875,0.8525390625,-7.4462890625,-3.7841796875,13.24462890625,0.06591796875,51.7071533203125,-30.047607421875
1758525029.9430816,-0.8056640625,-0.0634765625,0.77978515625,-7.75146484375,-4.39453125,14.70947265625,0.15380859375,51.6302490234375,-29.81689453125
1758525029.9531088,-0.8056640625,-0.0634765625,0.77978515625,-7.75146484375,-4.39453125,14.70947265625,0.252685546875,51.5533447265625,-29.5806884765625
1758525029.9630926,-0.84326171875,-0.00830078125,0.78759765625,-8.72802734375,-7.38525390625,15.56396484375,0.3460693359375,51.4599609375,-29.3389892578125
1758525029.973101,-0.84326171875,-0.00830078125,0.78759765625,-8.72802734375,-7.38525390625,15.56396484375,0.439453125,51.3555908203125,-29.091796875
1758525029.9838426,-0.87548828125,-0.06005859375,0.6904296875,-11.5966796875,-9.033203125,17.63916015625,0.52734375,51.240234375,-28.8336181640625
1758525029.9930804,-0.87548828125,-0.06005859375,0.6904296875,-11.5966796875,-9.033203125,17.63916015625,0.615234375,51.1248779296875,-28.564453125
1758525030.0032287,-0.80908203125,-0.09423828125,0.59228515625,-9.521484375,-8.97216796875,18.9208984375,0.714111328125,51.009521484375,-28.289794921875
1758525030.013148,-0.80908203125,-0.09423828125,0.59228515625,-9.521484375,-8.97216796875,18.9208984375,0.823974609375,50.899658203125,-28.01513671875
1758525030.0231357,-0.77490234375,0.02587890625,0.6201171875,-2.25830078125,-7.87353515625,19.1650390625,0.9722900390625,50.80078125,-27.7459716796875
1758525030.0331154,-0.77490234375,0.02587890625,0.6201171875,-2.25830078125,-7.87353515625,19.1650390625,1.1590576171875,50.7073974609375,-27.476806640625
1758525030.0431995,-0.77734375,0.08056640625,0.7265625,-9.46044921875,-7.62939453125,18.73779296875,1.307373046875,50.614013671875,-27.2076416015625
1758525030.0532086,-0.77734375,0.08056640625,0.7265625,-9.46044921875,-7.62939453125,18.73779296875,1.4227294921875,50.5206298828125,-26.9384765625
1758525030.0632308,-0.68896484375,0.02490234375,0.7958984375,-9.765625,-6.89697265625,17.7001953125,1.527099609375,50.4327392578125,-26.6693115234375
1758525030.0734088,-0.68896484375,0.02490234375,0.7958984375,-9.765625,-6.89697265625,17.7001953125,1.6314697265625,50.3448486328125,-26.4111328125
1758525030.0833795,-0.63671875,0.06005859375,0.90380859375,-6.28662109375,-5.55419921875,15.56396484375,1.73583984375,50.2569580078125,-26.1639404296875
1758525030.0932143,-0.63671875,0.06005859375,0.90380859375,-6.28662109375,-5.55419921875,15.56396484375,1.8511962890625,50.1690673828125,-25.927734375
1758525030.1032817,-0.5986328125,0.12890625,0.97900390625,-0.79345703125,-5.859375,13.0615234375,1.9775390625,50.0701904296875,-25.7025146484375
1758525030.1133585,-0.5986328125,0.12890625,0.97900390625,-0.79345703125,-5.859375,13.0615234375,2.120361328125,49.9658203125,-25.48828125
1758525030.1233225,-0.51904296875,0.15673828125,0.84521484375,-11.5966796875,-6.591796875,10.43701171875,2.2027587890625,49.8504638671875,-25.2850341796875
1758525030.1332438,-0.51904296875,0.15673828125,0.84521484375,-11.5966796875,-6.591796875,10.43701171875,2.21923828125,49.7296142578125,-25.0927734375
1758525030.1433253,-0.36279296875,0.0673828125,0.93994140625,-31.6162109375,-7.99560546875,8.23974609375,2.1258544921875,49.59228515625,-24.906005859375
1758525030.1534123,-0.36279296875,0.0673828125,0.93994140625,-31.6162109375,-7.99560546875,8.23974609375,1.922607421875,49.4439697265625,-24.730224609375
1758525030.163313,-0.32080078125,0.05419921875,0.84326171875,-41.68701171875,-6.89697265625,5.43212890625,1.658935546875,49.2901611328125,-24.5654296875
1758525030.1732478,-0.32080078125,0.05419921875,0.84326171875,-41.68701171875,-6.89697265625,5.43212890625,1.329345703125,49.1363525390625,-24.4171142578125
1758525030.1834261,-0.33984375,0.05517578125,0.95068359375,-44.677734375,-5.55419921875,2.50244140625,0.977783203125,48.9825439453125,-24.2742919921875
1758525030.1932688,-0.33984375,0.05517578125,0.95068359375,-44.677734375,-5.55419921875,2.50244140625,0.59326171875,48.834228515625,-24.14794921875
1758525030.2033556,-0.5654296875,0.26904296875,1.01220703125,-51.33056640625,-5.79833984375,2.197265625,0.186767578125,48.6749267578125,-24.01611328125
1758525030.2134423,-0.5654296875,0.26904296875,1.01220703125,-51.33056640625,-5.79833984375,2.197265625,-0.2362060546875,48.515625,-23.873291015625
1758525030.2233727,-0.55908203125,0.216796875,1.16064453125,-65.673828125,-10.80322265625,1.220703125,-0.736083984375,48.3343505859375,-23.7249755859375
1758525030.2333612,-0.55908203125,0.216796875,1.16064453125,-65.673828125,-10.80322265625,1.220703125,-1.29638671875,48.1256103515625,-23.57666015625
1758525030.2435374,-0.5263671875,-0.02880859375,0.72412109375,-54.443359375,-10.19287109375,1.52587890625,-1.790771484375,47.9168701171875,-23.4228515625
1758525030.253928,-0.5263671875,-0.02880859375,0.72412109375,-54.443359375,-10.19287109375,1.52587890625,-2.2357177734375,47.7191162109375,-23.2745361328125
1758525030.2633815,-0.712890625,-0.1044921875,0.650390625,-36.4990234375,-10.68115234375,-0.8544921875,-2.6092529296875,47.5213623046875,-23.148193359375
1758525030.2735612,-0.712890625,-0.1044921875,0.650390625,-36.4990234375,-10.68115234375,-0.8544921875,-2.911376953125,47.3291015625,-23.0548095703125
1758525030.2847269,-0.71533203125,-0.1328125,0.54345703125,-7.38525390625,-8.11767578125,-1.953125,-3.087158203125,47.164306640625,-22.9833984375
1758525030.2935712,-0.71533203125,-0.1328125,0.54345703125,-7.38525390625,-8.11767578125,-1.953125,-3.131103515625,47.0159912109375,-22.939453125
1758525030.303455,-0.7548828125,-0.1796875,0.49267578125,21.66748046875,-4.69970703125,-3.662109375,-3.05419921875,46.8951416015625,-22.9229736328125
1758525030.3135698,-0.7548828125,-0.1796875,0.49267578125,21.66748046875,-4.69970703125,-3.662109375,-2.8564453125,46.7962646484375,-22.939453125
1758525030.3238049,-0.974609375,-0.22802734375,0.61181640625,50.1708984375,-2.62451171875,-5.06591796875,-2.5323486328125,46.724853515625,-22.9833984375
1758525030.3335915,-0.974609375,-0.22802734375,0.61181640625,50.1708984375,-2.62451171875,-5.06591796875,-2.0928955078125,46.669921875,-23.0657958984375
1758525030.3435526,-1.14453125,-0.1484375,0.95361328125,68.42041015625,-4.33349609375,-6.89697265625,-1.58203125,46.6204833984375,-23.170166015625
1758525030.353751,-1.14453125,-0.1484375,0.95361328125,68.42041015625,-4.33349609375,-6.89697265625,-0.9942626953125,46.5655517578125,-23.2965087890625
1758525030.3637295,-1.15478515625,0.34375,0.85791015625,30.09033203125,-10.986328125,-6.7138671875,-0.59326171875,46.483154296875,-23.4283447265625
1758525030.373675,-1.15478515625,0.34375,0.85791015625,30.09033203125,-10.986328125,-6.7138671875,-0.37353515625,46.3787841796875,-23.5382080078125
1758525030.3835847,-0.74658203125,0.15673828125,0.638671875,-28.6865234375,-12.5732421875,-3.84521484375,-0.4119873046875,46.263427734375,-23.6260986328125
1758525030.3938735,-0.74658203125,0.15673828125,0.638671875,-28.6865234375,-12.5732421875,-3.84521484375,-0.72509765625,46.1480712890625,-23.6810302734375
1758525030.403578,-0.5126953125,-0.072265625,0.41162109375,-39.12353515625,-11.04736328125,-4.45556640625,-1.087646484375,46.0382080078125,-23.741455078125
1758525030.413589,-0.5126953125,-0.072265625,0.41162109375,-39.12353515625,-11.04736328125,-4.45556640625,-1.505126953125,45.9393310546875,-23.807373046875
1758525030.4239464,-0.5205078125,-0.14599609375,0.19873046875,-8.6669921875,-2.86865234375,-6.8359375,-1.7852783203125,45.8843994140625,-23.9007568359375
1758525030.4341762,-0.5205078125,-0.14599609375,0.19873046875,-8.6669921875,-2.86865234375,-6.8359375,-1.93359375,45.8734130859375,-24.01611328125
1758525030.4436245,-0.607421875,-0.1328125,0.38720703125,43.76220703125,3.7841796875,-9.70458984375,-1.8402099609375,45.9063720703125,-24.169921875
1758525030.4536881,-0.607421875,-0.1328125,0.38720703125,43.76220703125,3.7841796875,-9.70458984375,-1.5106201171875,45.9722900390625,-24.3511962890625
1758525030.4638882,-0.798828125,0.02685546875,0.62841796875,56.5185546875,7.87353515625,-10.31494140625,-1.12060546875,46.0601806640625,-24.54345703125
1758525030.473809,-0.798828125,0.02685546875,0.62841796875,56.5185546875,7.87353515625,-10.31494140625,-0.6756591796875,46.1700439453125,-24.7412109375
1758525030.4840817,-0.99609375,0.06884765625,1.2587890625,17.08984375,1.953125,-9.82666015625,-0.4229736328125,46.2469482421875,-24.9224853515625
1758525030.4937582,-0.99609375,0.06884765625,1.2587890625,17.08984375,1.953125,-9.82666015625,-0.3570556640625,46.2799072265625,-25.0927734375
1758525030.504156,-1.08642578125,-0.20849609375,1.34619140625,11.77978515625,-9.033203125,-5.92041015625,-0.3021240234375,46.25244140625,-25.224609375
1758525030.5137434,-1.08642578125,-0.20849609375,1.34619140625,11.77978515625,-9.033203125,-5.92041015625,-0.2581787109375,46.1590576171875,-25.3289794921875
1758525030.5237374,-0.78515625,-0.35986328125,0.50927734375,51.6357421875,-14.5263671875,-10.1318359375,-0.0439453125,46.0382080078125,-25.477294921875
1758525030.5340173,-0.78515625,-0.35986328125,0.50927734375,51.6357421875,-14.5263671875,-10.1318359375,0.3240966796875,45.90087890625,-25.6695556640625
1758525030.5438,-0.61376953125,-0.19287109375,0.37646484375,79.345703125,-12.02392578125,-13.18359375,0.8074951171875,45.780029296875,-25.90576171875
1758525030.5538144,-0.61376953125,-0.19287109375,0.37646484375,79.345703125,-12.02392578125,-13.18359375,1.40625,45.6756591796875,-26.16943359375
1758525030.564022,-0.60009765625,-0.119140625,0.20263671875,65.91796875,-6.53076171875,-13.24462890625,1.9281005859375,45.615234375,-26.4495849609375
1758525030.5738707,-0.60009765625,-0.119140625,0.20263671875,65.91796875,-6.53076171875,-13.24462890625,2.3785400390625,45.5877685546875,-26.7352294921875
1758525030.5838242,-0.59228515625,-0.06884765625,0.42236328125,65.3076171875,2.44140625,-10.55908203125,2.8399658203125,45.6097412109375,-27.0098876953125
1758525030.594305,-0.59228515625,-0.06884765625,0.42236328125,65.3076171875,2.44140625,-10.55908203125,3.31787109375,45.68115234375,-27.257080078125
1758525030.6038723,-0.595703125,-0.0380859375,0.52392578125,48.52294921875,4.82177734375,-9.09423828125,3.71337890625,45.7635498046875,-27.498779296875
1758525030.613917,-0.595703125,-0.0380859375,0.52392578125,48.52294921875,4.82177734375,-9.09423828125,4.0374755859375,45.8624267578125,-27.7294921875
1758525030.6240604,-0.72314453125,-0.029296875,0.64306640625,49.86572265625,7.9345703125,-8.056640625,4.37255859375,45.966796875,-27.9437255859375
1758525030.6339984,-0.72314453125,-0.029296875,0.64306640625,49.86572265625,7.9345703125,-8.056640625,4.72412109375,46.087646484375,-28.14697265625
1758525030.6438854,-0.96923828125,0.3154296875,0.9541015625,19.95849609375,4.638671875,-7.75146484375,4.7900390625,46.1700439453125,-28.3282470703125
1758525030.653923,-0.96923828125,0.3154296875,0.9541015625,19.95849609375,4.638671875,-7.75146484375,4.8779296875,46.241455078125,-28.487548828125
1758525030.6639247,-0.9208984375,0.49755859375,0.7578125,-35.2783203125,0.79345703125,-2.197265625,4.4879150390625,46.2744140625,-28.5479736328125
1758525030.6739595,-0.9208984375,0.49755859375,0.7578125,-35.2783203125,0.79345703125,-2.197265625,4.1253662109375,46.3018798828125,-28.58642578125
1758525030.6839526,-0.890625,0.47900390625,0.626953125,-113.46435546875,-1.3427734375,3.41796875,3.0596923828125,46.307373046875,-28.5260009765625
1758525030.6940143,-0.890625,0.47900390625,0.626953125,-113.46435546875,-1.3427734375,3.41796875,2.021484375,46.318359375,-28.4490966796875
1758525030.7043936,-1.00390625,0.0048828125,0.4599609375,-151.0009765625,-1.40380859375,6.103515625,0.63720703125,46.329345703125,-28.3392333984375
1758525030.7140038,-1.00390625,0.0048828125,0.4599609375,-151.0009765625,-1.40380859375,6.103515625,-0.736083984375,46.3568115234375,-28.23486328125
1758525030.724008,-0.95263671875,-0.21923828125,0.55908203125,-116.88232421875,-2.0751953125,5.92041015625,-1.77978515625,46.3787841796875,-28.1414794921875
1758525030.7340248,-0.95263671875,-0.21923828125,0.55908203125,-116.88232421875,-2.0751953125,5.92041015625,-2.83447265625,46.4117431640625,-28.0645751953125
1758525030.7443078,-0.86865234375,-0.0703125,0.61669921875,-68.84765625,-4.2724609375,5.67626953125,-3.416748046875,46.4227294921875,-27.9931640625
1758525030.7540762,-0.86865234375,-0.0703125,0.61669921875,-68.84765625,-4.2724609375,5.67626953125,-3.9990234375,46.42822265625,-27.9217529296875
1758525030.7640324,-0.7431640625,-0.0908203125,0.6328125,-34.11865234375,-5.55419921875,6.04248046875,-4.229736328125,46.42822265625,-27.8448486328125
1758525030.7740774,-0.7431640625,-0.0908203125,0.6328125,-34.11865234375,-5.55419921875,6.04248046875,-4.471435546875,46.417236328125,-27.7679443359375
1758525030.7842402,-0.66552734375,-0.18701171875,0.6044921875,-2.25830078125,-5.31005859375,5.55419921875,-4.4000244140625,46.4117431640625,-27.70751953125
1758525030.7940865,-0.66552734375,-0.18701171875,0.6044921875,-2.25830078125,-5.31005859375,5.55419921875,-4.3450927734375,46.4007568359375,-27.6470947265625
1758525030.8042412,-0.66552734375,-0.18701171875,0.6044921875,29.78515625,-3.84521484375,2.99072265625,-4.010009765625,46.4007568359375,-27.6361083984375
1758525030.8144157,-0.58251953125,-0.2353515625,0.494140625,29.78515625,-3.84521484375,2.99072265625,-3.680419921875,46.4007568359375,-27.6361083984375
1758525030.824465,-0.52099609375,-0.09814453125,0.431640625,39.4287109375,1.52587890625,0.54931640625,-3.2958984375,46.4501953125,-27.674560546875
1758525030.8341434,-0.52099609375,-0.09814453125,0.431640625,39.4287109375,1.52587890625,0.54931640625,-2.9168701171875,46.4996337890625,-27.7239990234375
1758525030.8441708,-0.64404296875,-0.05126953125,0.44140625,33.69140625,6.7138671875,-0.91552734375,-2.61474609375,46.60400390625,-27.7899169921875
1758525030.8542259,-0.64404296875,-0.05126953125,0.44140625,33.69140625,6.7138671875,-0.91552734375,-2.3126220703125,46.702880859375,-27.861328125
1758525030.8641622,-0.8203125,-0.0888671875,0.67529296875,39.306640625,8.6669921875,-4.08935546875,-1.988525390625,46.82373046875,-27.982177734375
1758525030.8741326,-0.8203125,-0.0888671875,0.67529296875,39.306640625,8.6669921875,-4.08935546875,-1.669921875,46.944580078125,-28.0975341796875
1758525030.8846061,-0.93505859375,-0.06591796875,0.916015625,44.61669921875,5.4931640625,-5.7373046875,-1.3128662109375,47.021484375,-28.23486328125
1758525030.894313,-0.93505859375,-0.06591796875,0.916015625,44.61669921875,5.4931640625,-5.7373046875,-0.955810546875,47.098388671875,-28.36669921875
1758525030.9043283,-0.875,0.22265625,1.0595703125,15.9912109375,-0.18310546875,-4.150390625,-0.8624267578125,47.109375,-28.4600830078125
1758525030.914313,-0.875,0.22265625,1.0595703125,15.9912109375,-0.18310546875,-4.150390625,-0.7525634765625,47.1148681640625,-28.5369873046875
1758525030.9248302,-0.77099609375,0.3798828125,0.77685546875,-54.99267578125,-5.4931640625,-0.67138671875,-1.2908935546875,47.0654296875,-28.54248046875
1758525030.9343302,-0.77099609375,0.3798828125,0.77685546875,-54.99267578125,-5.4931640625,-0.67138671875,-1.812744140625,47.010498046875,-28.5260009765625
1758525030.9442868,-0.73583984375,0.14794921875,0.517578125,-109.0087890625,-5.92041015625,3.41796875,-2.8179931640625,46.9610595703125,-28.443603515625
1758525030.954329,-0.73583984375,0.14794921875,0.517578125,-109.0087890625,-5.92041015625,3.41796875,-3.812255859375,46.91162109375,-28.355712890625
1758525030.9649057,-0.70654296875,0.03662109375,0.357421875,-118.59130859375,-3.96728515625,5.92041015625,-4.866943359375,46.8951416015625,-28.23486328125
1758525030.9743097,-0.70654296875,0.03662109375,0.357421875,-118.59130859375,-3.96728515625,5.92041015625,-5.921630859375,46.8841552734375,-28.114013671875
1758525030.9843152,-0.744140625,-0.17919921875,0.51708984375,-73.42529296875,-0.67138671875,7.14111328125,-6.514892578125,46.91162109375,-27.9931640625
1758525030.9946735,-0.744140625,-0.17919921875,0.51708984375,-73.42529296875,-0.67138671875,7.14111328125,-7.119140625,46.9390869140625,-27.8778076171875
1758525031.004649,-0.759765625,-0.2431640625,0.7060546875,-19.1650390625,-0.3662109375,6.7138671875,-7.196044921875,46.966552734375,-27.7734375
1758525031.014395,-0.759765625,-0.2431640625,0.7060546875,-19.1650390625,-0.3662109375,6.7138671875,-7.283935546875,46.9940185546875,-27.685546875
1758525031.0245411,-0.845703125,-0.3212890625,0.7646484375,18.73779296875,0.30517578125,6.28662109375,-7.0147705078125,47.0269775390625,-27.6141357421875
1758525031.034434,-0.845703125,-0.3212890625,0.7646484375,18.73779296875,0.30517578125,6.28662109375,-6.7620849609375,47.054443359375,-27.5482177734375
1758525031.0444443,-0.751953125,-0.2919921875,0.708984375,45.22705078125,-2.38037109375,3.173828125,-6.2841796875,47.0489501953125,-27.5372314453125
1758525031.0547817,-0.751953125,-0.2919921875,0.708984375,45.22705078125,-2.38037109375,3.173828125,-5.8172607421875,47.04345703125,-27.53173828125
1758525031.0647097,-0.71240234375,0.0244140625,0.57080078125,35.09521484375,-1.220703125,2.9296875,-5.4547119140625,47.0489501953125,-27.5262451171875
1758525031.0744636,-0.71240234375,0.0244140625,0.57080078125,35.09521484375,-1.220703125,2.9296875,-5.0921630859375,47.0489501953125,-27.520751953125
1758525031.084442,-0.6787109375,0.0712890625,0.56005859375,-7.99560546875,-1.953125,3.662109375,-5.1416015625,47.0489501953125,-27.498779296875
1758525031.0949247,-0.6787109375,0.0712890625,0.56005859375,-7.99560546875,-1.953125,3.662109375,-5.185546875,47.0489501953125,-27.4658203125
1758525031.1044471,-0.76513671875,-0.01513671875,0.63916015625,-25.2685546875,0.48828125,4.94384765625,-5.38330078125,47.076416015625,-27.4163818359375
1758525031.114565,-0.76513671875,-0.01513671875,0.63916015625,-25.2685546875,0.48828125,4.94384765625,-5.5810546875,47.1038818359375,-27.366943359375
1758525031.1248825,-0.60107421875,-0.064453125,0.67724609375,-24.658203125,-0.48828125,3.47900390625,-5.7843017578125,47.1148681640625,-27.3284912109375
1758525031.134646,-0.60107421875,-0.064453125,0.67724609375,-24.658203125,-0.48828125,3.47900390625,-5.987548828125,47.120361328125,-27.2955322265625
1758525031.1445992,-0.68212890625,0.12451171875,0.82470703125,-27.7099609375,0.0,4.82177734375,-6.1962890625,47.13134765625,-27.22412109375
1758525031.1546426,-0.68212890625,0.12451171875,0.82470703125,-27.7099609375,0.0,4.82177734375,-6.3995361328125,47.13134765625,-27.147216796875
1758525031.164659,-0.6982421875,0.2763671875,0.958984375,-63.53759765625,-3.5400390625,7.62939453125,-6.9049072265625,47.098388671875,-26.9989013671875
1758525031.174593,-0.6982421875,0.2763671875,0.958984375,-63.53759765625,-3.5400390625,7.62939453125,-7.3992919921875,47.0599365234375,-26.839599609375
1758525031.186151,-0.6142578125,0.083984375,0.7939453125,-85.3271484375,-4.21142578125,12.3291015625,-8.0419921875,47.021484375,-26.5924072265625
1758525031.1949105,-0.6142578125,0.083984375,0.7939453125,-85.3271484375,-4.21142578125,12.3291015625,-8.6846923828125,46.9775390625,-26.34521484375
1758525031.2047958,-0.69482421875,-0.240234375,0.56591796875,-67.56591796875,-3.90625,11.962890625,-9.1571044921875,46.944580078125,-26.1090087890625
1758525031.214666,-0.69482421875,-0.240234375,0.56591796875,-67.56591796875,-3.90625,11.962890625,-9.64599609375,46.91162109375,-25.8837890625
1758525031.2246532,-0.75634765625,-0.4375,0.6943359375,-3.60107421875,-3.23486328125,8.48388671875,-9.547119140625,46.878662109375,-25.72998046875
1758525031.2347202,-0.75634765625,-0.4375,0.6943359375,-3.60107421875,-3.23486328125,8.48388671875,-9.47021484375,46.8511962890625,-25.59814453125
1758525031.2449427,-0.81640625,-0.38427734375,0.76220703125,39.1845703125,-2.197265625,4.7607421875,-9.019775390625,46.82373046875,-25.5322265625
1758525031.2546742,-0.81640625,-0.38427734375,0.76220703125,39.1845703125,-2.197265625,4.7607421875,-8.59130859375,46.7962646484375,-25.4827880859375
1758525031.2646973,-0.89306640625,-0.3916015625,0.60546875,43.15185546875,-0.67138671875,2.8076171875,-8.1573486328125,46.790771484375,-25.477294921875
1758525031.274754,-0.89306640625,-0.3916015625,0.60546875,43.15185546875,-0.67138671875,2.8076171875,-7.7398681640625,46.7852783203125,-25.48828125
1758525031.284714,-1.01318359375,-0.12109375,0.6123046875,20.1416015625,-0.30517578125,3.60107421875,-7.5421142578125,46.790771484375,-25.4937744140625
1758525031.2947352,-1.01318359375,-0.12109375,0.6123046875,20.1416015625,-0.30517578125,3.60107421875,-7.3443603515625,46.8072509765625,-25.499267578125
1758525031.3050354,-0.88525390625,0.1044921875,0.7548828125,6.2255859375,-1.03759765625,4.94384765625,-7.2564697265625,46.8182373046875,-25.477294921875
1758525031.3147416,-0.88525390625,0.1044921875,0.7548828125,6.2255859375,-1.03759765625,4.94384765625,-7.1630859375,46.8292236328125,-25.4443359375
1758525031.3247604,-0.70361328125,0.13720703125,0.61669921875,-9.33837890625,-1.46484375,6.28662109375,-7.196044921875,46.8402099609375,-25.37841796875
1758525031.3348122,-0.70361328125,0.13720703125,0.61669921875,-9.33837890625,-1.46484375,6.28662109375,-7.218017578125,46.845703125,-25.3070068359375
1758525031.3450487,-0.51416015625,-0.10791015625,0.64208984375,-12.26806640625,-0.244140625,7.87353515625,-7.2509765625,46.86767578125,-25.2081298828125
1758525031.3548458,-0.51416015625,-0.10791015625,0.64208984375,-12.26806640625,-0.244140625,7.87353515625,-7.2894287109375,46.878662109375,-25.1092529296875
1758525031.364824,-0.37890625,-0.13671875,0.68115234375,-7.87353515625,2.50244140625,8.48388671875,-7.2784423828125,46.91162109375,-24.9993896484375
1758525031.3751569,-0.37890625,-0.13671875,0.68115234375,-7.87353515625,2.50244140625,8.48388671875,-7.2784423828125,46.9390869140625,-24.89501953125
1758525031.384785,-0.3173828125,-0.033203125,0.71435546875,-13.5498046875,4.82177734375,8.60595703125,-7.327880859375,46.9775390625,-24.7796630859375
1758525031.3948522,-0.3173828125,-0.033203125,0.71435546875,-13.5498046875,4.82177734375,8.60595703125,-7.371826171875,47.0050048828125,-24.6533203125
1758525031.4051673,-0.322265625,0.0673828125,0.67431640625,-30.76171875,6.2255859375,9.521484375,-7.5750732421875,47.04345703125,-24.49951171875
1758525031.4148633,-0.322265625,0.0673828125,0.67431640625,-30.76171875,6.2255859375,9.521484375,-7.7728271484375,47.0709228515625,-24.3402099609375
1758525031.4248278,-0.43017578125,0.0576171875,0.7197265625,-52.978515625,8.6669921875,11.5966796875,-8.1573486328125,47.1258544921875,-24.1424560546875
1758525031.4353685,-0.43017578125,0.0576171875,0.7197265625,-52.978515625,8.6669921875,11.5966796875,-8.536376953125,47.17529296875,-23.9337158203125
1758525031.4449177,-0.7724609375,-0.412109375,0.71630859375,-41.259765625,7.01904296875,9.521484375,-8.8275146484375,47.208251953125,-23.7689208984375
1758525031.4549503,-0.7724609375,-0.412109375,0.71630859375,-41.259765625,7.01904296875,9.521484375,-9.140625,47.2467041015625,-23.62060546875
1758525031.465125,-1.05810546875,-0.45556640625,1.3115234375,18.798828125,-2.25830078125,7.26318359375,-8.876953125,47.186279296875,-23.499755859375
1758525031.475217,-1.05810546875,-0.45556640625,1.3115234375,18.798828125,-2.25830078125,7.26318359375,-8.624267578125,47.1258544921875,-23.3843994140625
1758525031.4849124,-1.05224609375,-0.07568359375,1.23193359375,48.095703125,-10.19287109375,7.75146484375,-8.06396484375,46.988525390625,-23.2415771484375
1758525031.4949973,-1.05224609375,-0.07568359375,1.23193359375,48.095703125,-10.19287109375,7.75146484375,-7.4981689453125,46.8511962890625,-23.104248046875
1758525031.5050247,-0.8994140625,0.19189453125,0.6767578125,12.3291015625,-18.61572265625,8.97216796875,-7.261962890625,46.6424560546875,-22.9229736328125
1758525031.514972,-0.8994140625,0.19189453125,0.6767578125,12.3291015625,-18.61572265625,8.97216796875,-7.0147705078125,46.439208984375,-22.7471923828125
1758525031.52497,-0.8115234375,-0.0380859375,0.48095703125,-11.5966796875,-17.39501953125,8.72802734375,-7.00927734375,46.2579345703125,-22.5823974609375
1758525031.5351176,-0.8115234375,-0.0380859375,0.48095703125,-11.5966796875,-17.39501953125,8.72802734375,-7.0037841796875,46.087646484375,-22.423095703125
1758525031.5449803,-0.73095703125,-0.05859375,0.36962890625,-18.00537109375,-11.29150390625,7.38525390625,-7.086181640625,45.9832763671875,-22.30224609375
1758525031.55499,-0.73095703125,-0.05859375,0.36962890625,-18.00537109375,-11.29150390625,7.38525390625,-7.1685791015625,45.8843994140625,-22.1868896484375
1758525031.5650506,-0.64697265625,-0.24560546875,0.19873046875,4.7607421875,-2.50244140625,5.18798828125,-7.0697021484375,45.8843994140625,-22.137451171875
1758525031.5755436,-0.64697265625,-0.24560546875,0.19873046875,4.7607421875,-2.50244140625,5.18798828125,-6.976318359375,45.889892578125,-22.0989990234375
1758525031.5850687,-0.66845703125,-0.42578125,0.40234375,41.1376953125,3.11279296875,1.220703125,-6.5863037109375,45.9503173828125,-22.1484375
1758525031.595111,-0.66845703125,-0.42578125,0.40234375,41.1376953125,3.11279296875,1.220703125,-6.2127685546875,46.0162353515625,-22.21435546875
1758525031.605251,-0.85009765625,-0.1640625,0.51220703125,60.24169921875,4.638671875,-0.8544921875,-5.6744384765625,46.0986328125,-22.3187255859375
1758525031.6151528,-0.85009765625,-0.1640625,0.51220703125,60.24169921875,4.638671875,-0.8544921875,-5.1416015625,46.1865234375,-22.4285888671875
1758525031.625098,-0.833984375,0.146484375,1.09375,64.75830078125,-0.91552734375,-1.5869140625,-4.5538330078125,46.20849609375,-22.5274658203125
1758525031.6353693,-0.5849609375,0.3271484375,0.83740234375,17.02880859375,-4.2724609375,0.18310546875,-4.1802978515625,46.2030029296875,-22.5823974609375
1758525031.6452448,-0.5849609375,0.3271484375,0.83740234375,17.02880859375,-4.2724609375,0.18310546875,-4.0155029296875,46.1700439453125,-22.598876953125
1758525031.655114,-0.58349609375,0.3408203125,0.6416015625,-61.8896484375,-4.5166015625,4.45556640625,-4.2022705078125,46.1370849609375,-22.56591796875
1758525031.6651266,-0.58349609375,0.3408203125,0.6416015625,-61.8896484375,-4.5166015625,4.45556640625,-4.7406005859375,46.0986328125,-22.4835205078125
1758525031.6754603,-0.6923828125,0.10107421875,0.6396484375,-107.2998046875,-2.74658203125,7.4462890625,-5.47119140625,46.0711669921875,-22.3681640625
1758525031.6851487,-0.6923828125,0.10107421875,0.6396484375,-107.2998046875,-2.74658203125,7.4462890625,-6.405029296875,46.0601806640625,-22.225341796875
1758525031.6951334,-0.66162109375,-0.18408203125,0.70703125,-92.6513671875,-2.9296875,9.1552734375,-7.2564697265625,46.043701171875,-22.071533203125
1758525031.705512,-0.66162109375,-0.18408203125,0.70703125,-92.6513671875,-2.9296875,9.1552734375,-8.0255126953125,46.0272216796875,-21.90673828125
1758525031.7153292,-0.5126953125,-0.17822265625,0.70166015625,-61.09619140625,-1.64794921875,10.8642578125,-8.6407470703125,46.021728515625,-21.741943359375
1758525031.7252245,-0.5126953125,-0.17822265625,0.70166015625,-61.09619140625,-1.64794921875,10.8642578125,-9.0911865234375,46.0162353515625,-21.566162109375
1758525031.7352674,-0.515625,-0.22021484375,0.6259765625,-15.93017578125,0.6103515625,11.5966796875,-9.3218994140625,46.0162353515625,-21.390380859375
1758525031.745641,-0.515625,-0.22021484375,0.6259765625,-15.93017578125,0.6103515625,11.5966796875,-9.3328857421875,46.0272216796875,-21.2200927734375
1758525031.7552516,-0.8271484375,-0.5205078125,0.8203125,48.2177734375,0.732421875,9.21630859375,-9.052734375,46.0382080078125,-21.07177734375
1758525031.765225,-0.8271484375,-0.5205078125,0.8203125,48.2177734375,0.732421875,9.21630859375,-8.4869384765625,46.043701171875,-20.9619140625
1758525031.7753983,-1.23828125,-0.359375,1.2880859375,104.98046875,-5.67626953125,5.06591796875,-7.66845703125,46.0107421875,-20.885009765625
1758525031.7858276,-1.23828125,-0.359375,1.2880859375,104.98046875,-5.67626953125,5.06591796875,-6.602783203125,45.94482421875,-20.841064453125
1758525031.7952704,-1.23828125,-0.359375,1.2880859375,60.9130859375,-13.85498046875,5.615234375,-5.745849609375,45.8404541015625,-20.7861328125
1758525031.8052623,-1.23828125,-0.359375,1.2880859375,60.9130859375,-13.85498046875,5.615234375,-5.09765625,45.6866455078125,-20.709228515625
1758525031.8156233,-0.45166015625,0.07373046875,0.56689453125,-26.42822265625,-14.404296875,8.36181640625,-4.85595703125,45.52734375,-20.599365234375
1758525031.8252656,-0.45166015625,0.07373046875,0.56689453125,-26.42822265625,-14.404296875,8.36181640625,-5.0372314453125,45.3680419921875,-20.467529296875
1758525031.835553,-0.5068359375,-0.2197265625,0.17529296875,-49.13330078125,-9.765625,6.16455078125,-5.33935546875,45.230712890625,-20.3521728515625
1758525031.8455036,-0.5068359375,-0.2197265625,0.17529296875,-49.13330078125,-9.765625,6.16455078125,-5.7733154296875,45.1263427734375,-20.269775390625
1758525031.8553648,-0.6201171875,-0.337890625,0.392578125,17.27294921875,-4.150390625,1.52587890625,-5.9051513671875,45.054931640625,-20.23681640625
1758525031.8653617,-0.6201171875,-0.337890625,0.392578125,17.27294921875,-4.150390625,1.52587890625,-5.7513427734375,45.0164794921875,-20.2587890625
1758525031.8756468,-0.72265625,-0.03271484375,0.4072265625,55.419921875,1.708984375,-0.18310546875,-5.42724609375,45.0164794921875,-20.313720703125
1758525031.8853688,-0.72265625,-0.03271484375,0.4072265625,55.419921875,1.708984375,-0.18310546875,-4.9163818359375,45.0494384765625,-20.3851318359375
1758525031.895514,-0.7509765625,0.28564453125,0.841796875,24.658203125,1.52587890625,0.54931640625,-4.5538330078125,45.0823974609375,-20.445556640625
1758525031.905478,-0.7509765625,0.28564453125,0.841796875,24.658203125,1.52587890625,0.54931640625,-4.317626953125,45.1153564453125,-20.478515625
1758525031.9153998,-0.65283203125,0.38232421875,1.13623046875,-57.6171875,-4.39453125,1.953125,-4.4659423828125,45.10986328125,-20.4730224609375
1758525031.925376,-0.65283203125,0.38232421875,1.13623046875,-57.6171875,-4.39453125,1.953125,-4.98779296875,45.06591796875,-20.4290771484375
1758525031.9354115,-0.5673828125,-0.220703125,0.58447265625,-60.6689453125,-6.34765625,3.90625,-5.504150390625,45.0054931640625,-20.3521728515625
1758525031.945676,-0.5673828125,-0.220703125,0.58447265625,-60.6689453125,-6.34765625,3.90625,-6.031494140625,44.93408203125,-20.269775390625
1758525031.955505,-0.669921875,-0.46875,0.5380859375,37.04833984375,-5.126953125,-1.15966796875,-6.1029052734375,44.8681640625,-20.2313232421875
1758525031.9654245,-0.669921875,-0.46875,0.5380859375,37.04833984375,-5.126953125,-1.15966796875,-5.7403564453125,44.813232421875,-20.2587890625
1758525031.9759018,-0.62890625,-0.22314453125,0.76806640625,100.03662109375,-4.638671875,-6.28662109375,-5.108642578125,44.75830078125,-20.335693359375
1758525031.9854279,-0.62890625,-0.22314453125,0.76806640625,100.03662109375,-4.638671875,-6.28662109375,-4.2022705078125,44.6978759765625,-20.45654296875
1758525031.995587,-0.61767578125,-0.18603515625,0.607421875,111.9384765625,0.0,-6.591796875,-3.2464599609375,44.6649169921875,-20.58837890625
1758525032.0059044,-0.61767578125,-0.18603515625,0.607421875,111.9384765625,0.0,-6.591796875,-2.2412109375,44.6539306640625,-20.731201171875
1758525032.0155988,-0.69873046875,-0.2138671875,0.576171875,115.41748046875,3.23486328125,-9.33837890625,-1.2469482421875,44.6649169921875,-20.9014892578125
1758525032.025528,-0.69873046875,-0.2138671875,0.576171875,115.41748046875,3.23486328125,-9.33837890625,-0.2581787109375,44.6978759765625,-21.0992431640625
1758525032.0355864,-0.79833984375,-0.107421875,0.91064453125,128.60107421875,3.90625,-12.14599609375,0.7745361328125,44.736328125,-21.3299560546875
1758525032.0458639,-0.79833984375,-0.107421875,0.91064453125,128.60107421875,3.90625,-12.14599609375,1.856689453125,44.7802734375,-21.5716552734375
1758525032.0555725,-0.77587890625,0.23388671875,0.94189453125,86.60888671875,1.8310546875,-11.53564453125,2.735595703125,44.813232421875,-21.8023681640625
1758525032.0655327,-0.77587890625,0.23388671875,0.94189453125,86.60888671875,1.8310546875,-11.53564453125,3.4222412109375,44.8297119140625,-22.0166015625
1758525032.0785887,-0.794921875,0.35009765625,0.7109375,-3.2958984375,2.13623046875,-4.57763671875,3.7078857421875,44.84619140625,-22.1649169921875
1758525032.0864768,-0.794921875,0.35009765625,0.7109375,-3.2958984375,2.13623046875,-4.57763671875,3.5980224609375,44.8626708984375,-22.2528076171875
1758525032.0956137,-0.91650390625,-0.34228515625,0.5087890625,-51.08642578125,0.732421875,-5.615234375,3.251953125,44.879150390625,-22.34619140625
1758525032.105762,-0.91650390625,-0.34228515625,0.5087890625,-51.08642578125,0.732421875,-5.615234375,2.6531982421875,44.901123046875,-22.467041015625
1758525032.1155863,-1.2900390625,-0.03662109375,1.001953125,-38.57421875,-2.8076171875,-1.8310546875,2.13134765625,44.9066162109375,-22.576904296875
1758525032.1256566,-1.2900390625,-0.03662109375,1.001953125,-38.57421875,-2.8076171875,-1.8310546875,1.69189453125,44.901123046875,-22.6593017578125
1758525032.1356657,-0.7802734375,0.8505859375,0.82958984375,-108.5205078125,-7.080078125,6.65283203125,0.9613037109375,44.8736572265625,-22.67578125
1758525032.145817,-0.7802734375,0.8505859375,0.82958984375,-108.5205078125,-7.080078125,6.65283203125,-0.032958984375,44.8187255859375,-22.587890625
1758525032.1556768,-0.806640625,0.2451171875,0.4609375,-166.68701171875,-7.87353515625,12.51220703125,-1.2579345703125,44.7637939453125,-22.43408203125
1758525032.1657848,-0.806640625,0.2451171875,0.4609375,-166.68701171875,-7.87353515625,12.51220703125,-2.724609375,44.71435546875,-22.2308349609375
1758525032.1761377,-0.69677734375,-0.28076171875,0.48095703125,-141.90673828125,-2.197265625,12.6953125,-4.06494140625,44.703369140625,-22.0220947265625
1758525032.1856747,-0.69677734375,-0.28076171875,0.48095703125,-141.90673828125,-2.197265625,12.6953125,-5.284423828125,44.7198486328125,-21.8353271484375
1758525032.1958106,-0.67578125,-0.40185546875,0.3466796875,-69.88525390625,5.7373046875,10.43701171875,-6.17431640625,44.7857666015625,-21.676025390625
1758525032.2056818,-0.67578125,-0.40185546875,0.3466796875,-69.88525390625,5.7373046875,10.43701171875,-6.734619140625,44.8956298828125,-21.5606689453125
1758525032.2161295,-0.5537109375,-0.25,0.37548828125,1.77001953125,14.34326171875,6.40869140625,-6.976318359375,45.0439453125,-21.500244140625
1758525032.2257688,-0.5537109375,-0.25,0.37548828125,1.77001953125,14.34326171875,6.40869140625,-6.8994140625,45.2362060546875,-21.478271484375
1758525032.236098,-0.52587890625,-0.072265625,0.48046875,26.91650390625,22.5830078125,1.708984375,-6.734619140625,45.4669189453125,-21.5057373046875
1758525032.2457776,-0.52587890625,-0.072265625,0.48046875,26.91650390625,22.5830078125,1.708984375,-6.470947265625,45.7305908203125,-21.566162109375
1758525032.2557538,-0.73828125,-0.08837890625,0.45263671875,31.55517578125,26.79443359375,0.54931640625,-6.1962890625,46.0162353515625,-21.6375732421875
1758525032.2657933,-0.73828125,-0.08837890625,0.45263671875,31.55517578125,26.79443359375,0.54931640625,-5.91064453125,46.318359375,-21.719970703125
1758525032.276173,-1.46923828125,-0.0048828125,1.3466796875,48.64501953125,15.0146484375,0.91552734375,-5.526123046875,46.5655517578125,-21.7913818359375
1758525032.2857566,-1.46923828125,-0.0048828125,1.3466796875,48.64501953125,15.0146484375,0.91552734375,-5.0482177734375,46.746826171875,-21.8353271484375
1758525032.2957408,-0.90576171875,0.48681640625,1.44775390625,4.21142578125,-2.3193359375,0.6103515625,-4.7735595703125,46.8292236328125,-21.851806640625
1758525032.3058302,-0.90576171875,0.48681640625,1.44775390625,4.21142578125,-2.3193359375,0.6103515625,-4.691162109375,46.812744140625,-21.829833984375
1758525032.3160524,-0.4619140625,0.2509765625,0.75146484375,-83.1298828125,-9.46044921875,5.859375,-4.998779296875,46.7523193359375,-21.7364501953125
1758525032.3258257,-0.4619140625,0.2509765625,0.75146484375,-83.1298828125,-9.46044921875,5.859375,-5.6964111328125,46.658935546875,-21.5936279296875
1758525032.335807,-0.5927734375,-0.03759765625,0.09619140625,-122.802734375,-5.06591796875,4.8828125,-6.5863037109375,46.58203125,-21.4453125
1758525032.3459876,-0.5927734375,-0.03759765625,0.09619140625,-122.802734375,-5.06591796875,4.8828125,-7.679443359375,46.5380859375,-21.3189697265625
1758525032.3558154,-0.86376953125,-0.203125,0.42626953125,-81.48193359375,-1.28173828125,3.84521484375,-8.5748291015625,46.527099609375,-21.214599609375
1758525032.3658454,-0.86376953125,-0.203125,0.42626953125,-81.48193359375,-1.28173828125,3.84521484375,-9.283447265625,46.5435791015625,-21.1322021484375
1758525032.376167,-0.697265625,-0.30419921875,0.5810546875,3.173828125,0.732421875,3.60107421875,-9.580078125,46.571044921875,-21.0662841796875
1758525032.3859463,-0.697265625,-0.30419921875,0.5810546875,3.173828125,0.732421875,3.60107421875,-9.47021484375,46.6094970703125,-21.0223388671875
1758525032.3959339,-0.45947265625,-0.29052734375,0.48046875,53.16162109375,4.39453125,1.0986328125,-9.140625,46.658935546875,-21.005859375
1758525032.4059541,-0.45947265625,-0.29052734375,0.48046875,53.16162109375,4.39453125,1.0986328125,-8.5968017578125,46.7193603515625,-21.0223388671875
1758525032.416162,-0.46435546875,-0.15869140625,0.72119140625,66.162109375,9.09423828125,-1.8310546875,-8.02001953125,46.8017578125,-21.0662841796875
1758525032.4259663,-0.46435546875,-0.15869140625,0.72119140625,66.162109375,9.09423828125,-1.8310546875,-7.3992919921875,46.8896484375,-21.1376953125
1758525032.435934,-0.556640625,-0.09521484375,0.68408203125,62.31689453125,10.92529296875,-3.84521484375,-6.8170166015625,46.9830322265625,-21.2200927734375
1758525032.446476,-0.556640625,-0.09521484375,0.68408203125,62.31689453125,10.92529296875,-3.84521484375,-6.2677001953125,47.076416015625,-21.3134765625
1758525032.4559445,-0.6259765625,-0.16552734375,0.53125,50.23193359375,13.5498046875,-5.43212890625,-5.789794921875,47.1807861328125,-21.4178466796875
1758525032.4660006,-0.6259765625,-0.16552734375,0.53125,50.23193359375,13.5498046875,-5.43212890625,-5.3887939453125,47.3016357421875,-21.544189453125
1758525032.476041,-0.71728515625,-0.10986328125,0.7099609375,44.7998046875,14.7705078125,-5.18798828125,-5.020751953125,47.427978515625,-21.6705322265625
1758525032.4869056,-0.71728515625,-0.10986328125,0.7099609375,44.7998046875,14.7705078125,-5.18798828125,-4.68017578125,47.559814453125,-21.7913818359375
1758525032.4959843,-0.8359375,0.064453125,0.7373046875,27.64892578125,13.18359375,-3.84521484375,-4.4110107421875,47.6861572265625,-21.9012451171875
1758525032.5069478,-0.8359375,0.064453125,0.7373046875,27.64892578125,13.18359375,-3.84521484375,-4.2132568359375,47.801513671875,-21.99462890625
1758525032.5161214,-0.8515625,-0.076171875,0.74462890625,6.2255859375,9.46044921875,-0.30517578125,-4.0924072265625,47.9058837890625,-22.049560546875
1758525032.526418,-0.8515625,-0.076171875,0.74462890625,6.2255859375,9.46044921875,-0.30517578125,-4.0594482421875,47.9937744140625,-22.0770263671875
1758525032.5360801,-0.8740234375,-0.0849609375,0.94775390625,0.18310546875,4.82177734375,0.9765625,-4.04296875,48.05419921875,-22.0989990234375
1758525032.5466309,-0.8740234375,-0.0849609375,0.94775390625,0.18310546875,4.82177734375,0.9765625,-4.053955078125,48.0926513671875,-22.0989990234375
1758525032.5564232,-0.82958984375,0.10595703125,0.7939453125,-23.681640625,-1.220703125,2.685546875,-4.163818359375,48.09814453125,-22.08251953125
1758525032.566166,-0.82958984375,0.10595703125,0.7939453125,-23.681640625,-1.220703125,2.685546875,-4.37255859375,48.076171875,-22.03857421875
1758525032.5761023,-0.86767578125,-0.0419921875,0.74560546875,-40.6494140625,-6.04248046875,6.40869140625,-4.6307373046875,48.0322265625,-21.961669921875
1758525032.5873196,-0.86767578125,-0.0419921875,0.74560546875,-40.6494140625,-6.04248046875,6.40869140625,-4.954833984375,47.96630859375,-21.851806640625
1758525032.5961325,-0.81689453125,-0.08935546875,0.7158203125,-34.36279296875,-11.29150390625,7.99560546875,-5.2294921875,47.87841796875,-21.73095703125
1758525032.606149,-0.81689453125,-0.08935546875,0.7158203125,-34.36279296875,-11.29150390625,7.99560546875,-5.4656982421875,47.7685546875,-21.59912109375
1758525032.6163077,-0.8876953125,-0.19677734375,0.662109375,-16.7236328125,-14.404296875,9.521484375,-5.6085205078125,47.647705078125,-21.4508056640625
1758525032.6262288,-0.8876953125,-0.19677734375,0.662109375,-16.7236328125,-14.404296875,9.521484375,-5.6524658203125,47.515869140625,-21.302490234375
1758525032.636186,-0.75048828125,-0.14892578125,0.71728515625,10.92529296875,-16.7236328125,7.2021484375,-5.5810546875,47.373046875,-21.1761474609375
1758525032.646479,-0.75048828125,-0.14892578125,0.71728515625,10.92529296875,-16.7236328125,7.2021484375,-5.38330078125,47.2137451171875,-21.0662841796875
1758525032.6566095,-0.505859375,-0.02880859375,0.49462890625,12.20703125,-13.916015625,5.9814453125,-5.196533203125,47.0709228515625,-20.972900390625
1758525032.6662781,-0.505859375,-0.02880859375,0.49462890625,12.20703125,-13.916015625,5.9814453125,-5.009765625,46.944580078125,-20.8905029296875
1758525032.6773405,-0.5458984375,-0.10009765625,0.3662109375,-1.40380859375,-7.6904296875,5.79833984375,-4.9658203125,46.878662109375,-20.819091796875
1758525032.6888912,-0.5458984375,-0.10009765625,0.3662109375,-1.40380859375,-7.6904296875,5.79833984375,-4.9273681640625,46.812744140625,-20.7586669921875
1758525032.6962433,-0.5712890625,0.01416015625,0.5576171875,-6.591796875,-2.197265625,4.69970703125,-4.954833984375,46.8072509765625,-20.7147216796875
1758525032.7062695,-0.5712890625,0.01416015625,0.5576171875,-6.591796875,-2.197265625,4.69970703125,-4.976806640625,46.7962646484375,-20.665283203125
1758525032.7165103,-0.46826171875,-0.07568359375,0.6865234375,-2.01416015625,2.62451171875,4.638671875,-4.9603271484375,46.8292236328125,-20.621337890625
1758525032.726261,-0.46826171875,-0.07568359375,0.6865234375,-2.01416015625,2.62451171875,4.638671875,-4.94384765625,46.856689453125,-20.5718994140625
1758525032.7362335,-0.568359375,-0.05322265625,0.73388671875,0.91552734375,6.28662109375,5.126953125,-4.888916015625,46.91162109375,-20.5169677734375
1758525032.7464073,-0.568359375,-0.05322265625,0.73388671875,0.91552734375,6.28662109375,5.126953125,-4.8394775390625,46.9610595703125,-20.45654296875
1758525032.7568579,-0.7783203125,-0.201171875,1.1044921875,14.892578125,0.91552734375,3.2958984375,-4.669189453125,46.9500732421875,-20.41259765625
1758525032.7663245,-0.7783203125,-0.201171875,1.1044921875,14.892578125,0.91552734375,3.2958984375,-4.4989013671875,46.93359375,-20.36865234375
1758525032.7763426,-0.6591796875,-0.01611328125,1.19873046875,53.3447265625,-2.0751953125,2.38037109375,-3.955078125,46.878662109375,-20.32470703125
1758525032.7865205,-0.6591796875,-0.01611328125,1.19873046875,53.3447265625,-2.0751953125,2.38037109375,-3.40576171875,46.812744140625,-20.269775390625
1758525032.796542,-0.6591796875,-0.01611328125,1.19873046875,17.7001953125,-5.126953125,0.54931640625,-3.22998046875,46.7193603515625,-20.247802734375
1758525032.8063648,-0.75927734375,-0.06201171875,0.5419921875,17.7001953125,-5.126953125,0.54931640625,-3.0596923828125,46.636962890625,-20.225830078125
1758525032.8163943,-1.1005859375,-0.05419921875,0.97705078125,-27.77099609375,-8.11767578125,1.52587890625,-3.328857421875,46.527099609375,-20.1983642578125
1758525032.826632,-1.1005859375,-0.05419921875,0.97705078125,-27.77099609375,-8.11767578125,1.52587890625,-3.5980224609375,46.4227294921875,-20.1708984375
1758525032.8363848,-0.61083984375,0.3251953125,0.810546875,-75.5615234375,-13.12255859375,3.2958984375,-4.3011474609375,46.2744140625,-20.0994873046875
1758525032.8464024,-0.61083984375,0.3251953125,0.810546875,-75.5615234375,-13.12255859375,3.2958984375,-4.9822998046875,46.1260986328125,-20.006103515625
1758525032.856375,-0.66455078125,0.06591796875,0.19091796875,-83.8623046875,-11.04736328125,7.080078125,-5.6964111328125,46.0052490234375,-19.86328125
1758525032.8668022,-0.66455078125,0.06591796875,0.19091796875,-83.8623046875,-11.04736328125,7.080078125,-6.405029296875,45.90087890625,-19.720458984375
1758525032.8763857,-0.806640625,0.0322265625,0.26611328125,-74.21875,-6.4697265625,8.23974609375,-7.00927734375,45.8624267578125,-19.57763671875
1758525032.8864255,-0.806640625,0.0322265625,0.26611328125,-74.21875,-6.4697265625,8.23974609375,-7.6080322265625,45.8294677734375,-19.434814453125
1758525032.8964756,-1.14990234375,0.22998046875,0.74560546875,-64.51416015625,-6.16455078125,11.04736328125,-8.0694580078125,45.81298828125,-19.2535400390625
1758525032.9064786,-1.14990234375,0.22998046875,0.74560546875,-64.51416015625,-6.16455078125,11.04736328125,-8.5198974609375,45.8074951171875,-19.061279296875
1758525032.9164736,-0.8505859375,-0.138671875,0.9677734375,-60.1806640625,-11.1083984375,15.56396484375,-8.876953125,45.7525634765625,-18.797607421875
1758525032.9265227,-0.8505859375,-0.138671875,0.9677734375,-60.1806640625,-11.1083984375,15.56396484375,-9.239501953125,45.692138671875,-18.5394287109375
1758525032.9368756,-0.80078125,-0.35205078125,0.62548828125,-9.033203125,-10.1318359375,14.46533203125,-9.11865234375,45.63720703125,-18.30322265625
1758525032.9465163,-0.80078125,-0.35205078125,0.62548828125,-9.033203125,-10.1318359375,14.46533203125,-9.0142822265625,45.5877685546875,-18.0889892578125
1758525032.9565332,-0.8515625,-0.07177734375,0.56640625,2.86865234375,-7.8125,9.33837890625,-8.8494873046875,45.5548095703125,-17.9571533203125
1758525032.9667912,-0.8515625,-0.07177734375,0.56640625,2.86865234375,-7.8125,9.33837890625,-8.690185546875,45.5218505859375,-17.8253173828125
1758525032.9773982,-0.78076171875,0.00048828125,0.47119140625,-33.3251953125,-2.13623046875,9.33837890625,-8.89892578125,45.54931640625,-17.7044677734375
1758525032.9883509,-0.78076171875,0.00048828125,0.47119140625,-33.3251953125,-2.13623046875,9.33837890625,-9.1021728515625,45.582275390625,-17.589111328125
1758525032.996565,-0.74169921875,-0.048828125,0.64892578125,-63.720703125,0.91552734375,11.5966796875,-9.591064453125,45.648193359375,-17.4462890625
1758525033.0067909,-0.74169921875,-0.048828125,0.64892578125,-63.720703125,0.91552734375,11.5966796875,-10.0799560546875,45.714111328125,-17.2979736328125
1758525033.0165386,-0.66943359375,-0.0419921875,0.54833984375,-65.12451171875,1.5869140625,14.46533203125,-10.5523681640625,45.791015625,-17.11669921875
1758525033.0265877,-0.66943359375,-0.0419921875,0.54833984375,-65.12451171875,1.5869140625,14.46533203125,-11.019287109375,45.867919921875,-16.929931640625
1758525033.0368114,-0.6298828125,-0.162109375,0.451171875,-27.83203125,3.11279296875,15.07568359375,-11.1126708984375,45.9613037109375,-16.7376708984375
1758525033.0469506,-0.6298828125,-0.162109375,0.451171875,-27.83203125,3.11279296875,15.07568359375,-11.217041015625,46.0546875,-16.556396484375
1758525033.056588,-0.67822265625,-0.21240234375,0.4775390625,35.0341796875,6.16455078125,15.44189453125,-10.70068359375,46.175537109375,-16.3861083984375
1758525033.0667198,-0.67822265625,-0.21240234375,0.4775390625,35.0341796875,6.16455078125,15.44189453125,-10.1898193359375,46.3018798828125,-16.2158203125
1758525033.0766542,-0.74072265625,-0.13232421875,0.56640625,38.87939453125,7.01904296875,15.7470703125,-9.64599609375,46.42822265625,-16.051025390625
1758525033.086664,-0.74072265625,-0.13232421875,0.56640625,38.87939453125,7.01904296875,15.7470703125,-9.107666015625,46.56005859375,-15.8807373046875
1758525033.0969436,-0.74267578125,-0.16455078125,0.72314453125,1.89208984375,7.26318359375,17.39501953125,-8.9263916015625,46.6864013671875,-15.6884765625
1758525033.1067686,-0.74267578125,-0.16455078125,0.72314453125,1.89208984375,7.26318359375,17.39501953125,-8.7451171875,46.8072509765625,-15.4962158203125
1758525033.1166441,-0.78271484375,-0.02783203125,0.619140625,-36.56005859375,3.5400390625,19.04296875,-8.9208984375,46.8951416015625,-15.27099609375
1758525033.1266894,-0.78271484375,-0.02783203125,0.619140625,-36.56005859375,3.5400390625,19.04296875,-9.0911865234375,46.9830322265625,-15.040283203125
1758525033.1370833,-0.82470703125,0.0498046875,0.658203125,-56.2744140625,1.89208984375,21.3623046875,-9.4207763671875,47.0599365234375,-14.7601318359375
1758525033.1467013,-0.82470703125,0.0498046875,0.658203125,-56.2744140625,1.89208984375,21.3623046875,-9.7393798828125,47.1368408203125,-14.47998046875
1758525033.1567338,-0.82861328125,-0.0615234375,0.58935546875,-56.396484375,0.18310546875,22.5830078125,-10.04150390625,47.2027587890625,-14.1778564453125
1758525033.1667638,-0.82861328125,-0.0615234375,0.58935546875,-56.396484375,0.18310546875,22.5830078125,-10.3436279296875,47.274169921875,-13.8702392578125
1758525033.1767473,-0.9462890625,-0.12744140625,0.4716796875,-39.85595703125,2.50244140625,23.193359375,-10.48095703125,47.3675537109375,-13.568115234375
1758525033.1867893,-0.9462890625,-0.12744140625,0.4716796875,-39.85595703125,2.50244140625,23.193359375,-10.61279296875,47.471923828125,-13.271484375
1758525033.1969843,-0.95947265625,-0.02490234375,0.50927734375,-46.2646484375,4.82177734375,23.193359375,-10.8160400390625,47.603759765625,-12.98583984375
1758525033.2069597,-0.95947265625,-0.02490234375,0.50927734375,-46.2646484375,4.82177734375,23.193359375,-11.0137939453125,47.7410888671875,-12.6947021484375
1758525033.2167761,-0.96484375,-0.05078125,0.35546875,-66.71142578125,6.53076171875,23.74267578125,-11.4093017578125,47.9058837890625,-12.4090576171875
1758525033.2269235,-0.96484375,-0.05078125,0.35546875,-66.71142578125,6.53076171875,23.74267578125,-11.79931640625,48.0706787109375,-12.117919921875
1758525033.2369297,-0.92138671875,-0.3203125,0.529296875,-53.40576171875,4.94384765625,21.6064453125,-12.0904541015625,48.2244873046875,-11.8707275390625
1758525033.246927,-0.92138671875,-0.3203125,0.529296875,-53.40576171875,4.94384765625,21.6064453125,-12.3870849609375,48.3782958984375,-11.6290283203125
1758525033.2568502,-0.92431640625,-0.27685546875,0.40380859375,-21.05712890625,6.591796875,18.00537109375,-12.4090576171875,48.5430908203125,-11.4532470703125
1758525033.2670844,-0.92431640625,-0.27685546875,0.40380859375,-21.05712890625,6.591796875,18.00537109375,-12.4365234375,48.7078857421875,-11.282958984375
1758525033.2769442,-0.88427734375,-0.140625,0.42626953125,-0.30517578125,6.7138671875,14.22119140625,-12.3046875,48.8671875,-11.173095703125
1758525033.286924,-0.88427734375,-0.140625,0.42626953125,-0.30517578125,6.7138671875,14.22119140625,-12.1728515625,49.031982421875,-11.063232421875
1758525033.2968864,-0.8857421875,-0.041015625,0.5556640625,7.38525390625,5.37109375,11.41357421875,-11.986083984375,49.1693115234375,-10.986328125
1758525033.3069906,-0.8857421875,-0.041015625,0.5556640625,7.38525390625,5.37109375,11.41357421875,-11.79931640625,49.3121337890625,-10.8984375
1758525033.3168855,-0.857421875,-0.16015625,0.74462890625,19.95849609375,2.86865234375,10.3759765625,-11.49169921875,49.41650390625,-10.8160400390625
1758525033.3269503,-0.857421875,-0.16015625,0.74462890625,19.95849609375,2.86865234375,10.3759765625,-11.18408203125,49.515380859375,-10.7281494140625
1758525033.3372056,-0.8193359375,-0.16552734375,0.654296875,13.97705078125,-0.9765625,8.97216796875,-10.9478759765625,49.5648193359375,-10.645751953125
1758525033.3478136,-0.8193359375,-0.16552734375,0.654296875,13.97705078125,-0.9765625,8.97216796875,-10.711669921875,49.6142578125,-10.5633544921875
1758525033.3569024,-0.7880859375,-0.15283203125,0.61767578125,1.953125,-3.2958984375,7.26318359375,-10.61279296875,49.6307373046875,-10.5029296875
1758525033.3669972,-0.7880859375,-0.15283203125,0.61767578125,1.953125,-3.2958984375,7.26318359375,-10.513916015625,49.647216796875,-10.43701171875
1758525033.3774266,-0.779296875,-0.11669921875,0.6455078125,10.25390625,-5.126953125,5.92041015625,-10.3436279296875,49.63623046875,-10.382080078125
1758525033.386991,-0.779296875,-0.11669921875,0.6455078125,10.25390625,-5.126953125,5.92041015625,-10.17333984375,49.625244140625,-10.3271484375
1758525033.3969367,-0.80615234375,-0.12451171875,0.64404296875,34.7900390625,-5.79833984375,4.638671875,-9.77783203125,49.603271484375,-10.2886962890625
1758525033.4072924,-0.80615234375,-0.12451171875,0.64404296875,34.7900390625,-5.79833984375,4.638671875,-9.3768310546875,49.581298828125,-10.250244140625
1758525033.4171333,-0.7314453125,-0.05712890625,0.59130859375,28.86962890625,-6.04248046875,4.82177734375,-9.0362548828125,49.5538330078125,-10.206298828125
1758525033.4270823,-0.7314453125,-0.05712890625,0.59130859375,28.86962890625,-6.04248046875,4.82177734375,-8.6956787109375,49.5208740234375,-10.1568603515625
1758525033.4370375,-0.72314453125,-0.2021484375,0.6796875,14.46533203125,-5.31005859375,4.57763671875,-8.50341796875,49.4989013671875,-10.118408203125
1758525033.4471726,-0.72314453125,-0.2021484375,0.6796875,14.46533203125,-5.31005859375,4.57763671875,-8.316650390625,49.4659423828125,-10.0799560546875
1758525033.457091,-0.67578125,-0.15087890625,0.79248046875,31.982421875,-6.8359375,3.7841796875,-7.965087890625,49.4110107421875,-10.0469970703125
1758525033.4673295,-0.67578125,-0.15087890625,0.79248046875,31.982421875,-6.8359375,3.7841796875,-7.6190185546875,49.3560791015625,-10.0140380859375
1758525033.477176,-0.6650390625,-0.0673828125,0.80322265625,50.35400390625,-6.8359375,2.25830078125,-7.1026611328125,49.28466796875,-9.9920654296875
1758525033.4871078,-0.6650390625,-0.0673828125,0.80322265625,50.35400390625,-6.8359375,2.25830078125,-6.591796875,49.2132568359375,-9.9700927734375
1758525033.497085,-0.58837890625,-0.0732421875,0.79345703125,59.9365234375,-5.859375,1.708984375,-5.987548828125,49.141845703125,-9.9591064453125
1758525033.5075743,-0.58837890625,-0.0732421875,0.79345703125,59.9365234375,-5.859375,1.708984375,-5.3887939453125,49.0704345703125,-9.9371337890625
1758525033.5171013,-0.5673828125,-0.10693359375,0.9189453125,39.306640625,-4.39453125,1.77001953125,-4.9932861328125,48.9990234375,-9.9151611328125
1758525033.5271232,-0.5673828125,-0.10693359375,0.9189453125,39.306640625,-4.39453125,1.77001953125,-4.603271484375,48.922119140625,-9.8822021484375
1758525033.5374787,-0.4697265625,-0.1435546875,0.99951171875,37.29248046875,-5.859375,0.06103515625,-4.251708984375,48.8232421875,-9.8712158203125
1758525033.5471227,-0.4697265625,-0.1435546875,0.99951171875,37.29248046875,-5.859375,0.06103515625,-3.9056396484375,48.7078857421875,-9.854736328125
1758525033.5570786,-0.38623046875,0.09228515625,0.94384765625,40.10009765625,-8.23974609375,0.0,-3.515625,48.5650634765625,-9.82177734375
1758525033.5673902,-0.38623046875,0.09228515625,0.94384765625,40.10009765625,-8.23974609375,0.0,-3.1256103515625,48.4112548828125,-9.77783203125
1758525033.5784528,-0.40380859375,-0.0576171875,0.912109375,38.2080078125,-8.7890625,0.42724609375,-2.7410888671875,48.2464599609375,-9.722900390625
1758525033.5889246,-0.40380859375,-0.0576171875,0.912109375,38.2080078125,-8.7890625,0.42724609375,-2.362060546875,48.0706787109375,-9.656982421875
1758525033.5971854,-0.52099609375,-0.109375,0.9375,50.29296875,-8.544921875,0.18310546875,-1.86767578125,47.900390625,-9.60205078125
1758525033.6075234,-0.52099609375,-0.109375,0.9375,50.29296875,-8.544921875,0.18310546875,-1.3787841796875,47.7301025390625,-9.5416259765625
1758525033.6172154,-0.61376953125,0.025390625,1.1103515625,34.7900390625,-11.3525390625,0.79345703125,-1.03271484375,47.5213623046875,-9.4757080078125
1758525033.6272392,-0.61376953125,0.025390625,1.1103515625,34.7900390625,-11.3525390625,0.79345703125,-0.6866455078125,47.318115234375,-9.404296875
1758525033.6372452,-0.50927734375,0.10400390625,1.0654296875,17.63916015625,-11.5966796875,0.91552734375,-0.50537109375,47.109375,-9.327392578125
1758525033.6475356,-0.50927734375,0.10400390625,1.0654296875,17.63916015625,-11.5966796875,0.91552734375,-0.318603515625,46.900634765625,-9.2449951171875
1758525033.6572447,-0.4892578125,0.0771484375,0.7275390625,-3.23486328125,-10.55908203125,0.732421875,-0.3350830078125,46.6973876953125,-9.16259765625
1758525033.6672924,-0.4892578125,0.0771484375,0.7275390625,-3.23486328125,-10.55908203125,0.732421875,-0.3515625,46.4996337890625,-9.0802001953125
1758525033.6781516,-0.66357421875,-0.1708984375,0.8544921875,-10.986328125,-8.1787109375,0.79345703125,-0.450439453125,46.3348388671875,-9.0087890625
1758525033.6874363,-0.66357421875,-0.1708984375,0.8544921875,-10.986328125,-8.1787109375,0.79345703125,-0.5548095703125,46.1700439453125,-8.94287109375
1758525033.697301,-0.654296875,-0.10986328125,0.78271484375,-5.2490234375,-6.89697265625,0.0,-0.615234375,46.021728515625,-8.8934326171875
1758525033.707378,-0.474609375,-0.013671875,0.794921875,2.0751953125,-6.103515625,-0.30517578125,-0.6427001953125,45.87890625,-8.85498046875
1758525033.717707,-0.474609375,-0.013671875,0.794921875,2.0751953125,-6.103515625,-0.30517578125,-0.63720703125,45.7415771484375,-8.8165283203125
1758525033.727363,-0.4345703125,0.0556640625,0.43212890625,-10.25390625,0.06103515625,0.1220703125,-0.6866455078125,45.63720703125,-8.778076171875
1758525033.7373798,-0.4345703125,0.0556640625,0.43212890625,-10.25390625,0.06103515625,0.1220703125,-0.791015625,45.5712890625,-8.734130859375
1758525033.7474844,-0.4287109375,-0.02001953125,0.5517578125,-22.4609375,5.859375,0.1220703125,-0.955810546875,45.5328369140625,-8.6956787109375
1758525033.7573776,-0.4287109375,-0.02001953125,0.5517578125,-22.4609375,5.859375,0.1220703125,-1.1810302734375,45.52734375,-8.6572265625
1758525033.7673728,-0.61083984375,0.1064453125,0.64208984375,-39.6728515625,11.8408203125,2.62451171875,-1.4776611328125,45.5548095703125,-8.6077880859375
1758525033.777519,-0.61083984375,0.1064453125,0.64208984375,-39.6728515625,11.8408203125,2.62451171875,-1.8402099609375,45.615234375,-8.536376953125
1758525033.7874706,-0.771484375,0.19189453125,0.7333984375,-60.1806640625,12.5732421875,5.615234375,-2.2796630859375,45.6866455078125,-8.4429931640625
1758525033.7974012,-0.771484375,0.19189453125,0.7333984375,-60.1806640625,12.5732421875,5.615234375,-2.7960205078125,45.76904296875,-8.3331298828125
1758525033.8076618,-1.208984375,-0.37890625,1.55859375,-36.56005859375,1.708984375,10.498046875,-3.1640625,45.802001953125,-8.1793212890625
1758525033.8176754,-1.208984375,-0.37890625,1.55859375,-36.56005859375,1.708984375,10.498046875,-3.40576171875,45.7855224609375,-8.0035400390625
1758525033.8274949,-0.5283203125,-0.1279296875,1.01611328125,6.28662109375,-3.35693359375,7.62939453125,-3.460693359375,45.736083984375,-7.855224609375
1758525033.8375359,-0.5283203125,-0.1279296875,1.01611328125,6.28662109375,-3.35693359375,7.62939453125,-3.3123779296875,45.6536865234375,-7.7178955078125
1758525033.848,-0.45166015625,0.02685546875,0.17431640625,13.7939453125,0.0,6.103515625,-3.14208984375,45.5877685546875,-7.5970458984375
1758525033.8575099,-0.45166015625,0.02685546875,0.17431640625,13.7939453125,0.0,6.103515625,-2.9443359375,45.5438232421875,-7.4871826171875
1758525033.8676894,-0.8515625,-0.365234375,0.353515625,3.0517578125,7.26318359375,1.0986328125,-2.8289794921875,45.54931640625,-7.4322509765625
1758525033.8788934,-0.8515625,-0.365234375,0.353515625,3.0517578125,7.26318359375,1.0986328125,-2.8125,45.5987548828125,-7.437744140625
1758525033.8892357,-1.2548828125,-0.04736328125,0.71533203125,29.84619140625,10.498046875,3.90625,-2.6641845703125,45.6866455078125,-7.44873046875
1758525033.8975816,-1.2548828125,-0.04736328125,0.71533203125,29.84619140625,10.498046875,3.90625,-2.362060546875,45.7965087890625,-7.4432373046875
1758525033.9077747,-1.5703125,0.50146484375,1.021484375,-7.75146484375,-2.197265625,5.37109375,-2.2247314453125,45.85693359375,-7.4267578125
1758525033.9175632,-1.5703125,0.50146484375,1.021484375,-7.75146484375,-2.197265625,5.37109375,-2.2412109375,45.8624267578125,-7.3773193359375
1758525033.92756,-1.11962890625,0.2353515625,0.97412109375,-76.59912109375,-15.625,9.82666015625,-2.5543212890625,45.802001953125,-7.2784423828125
1758525033.9376335,-1.11962890625,0.2353515625,0.97412109375,-76.59912109375,-15.625,9.82666015625,-3.1805419921875,45.68115234375,-7.1356201171875
1758525033.9478426,-0.4599609375,-0.09912109375,0.806640625,-87.82958984375,-26.30615234375,11.71875,-3.834228515625,45.4998779296875,-6.96533203125
1758525033.9576213,-0.4599609375,-0.09912109375,0.806640625,-87.82958984375,-26.30615234375,11.71875,-4.5318603515625,45.2691650390625,-6.7730712890625
1758525033.967651,-0.458984375,0.14404296875,0.322265625,-100.89111328125,-20.08056640625,9.70458984375,-5.306396484375,45.0604248046875,-6.591796875
1758525033.977988,-0.458984375,0.14404296875,0.322265625,-100.89111328125,-20.08056640625,9.70458984375,-6.141357421875,44.8846435546875,-6.4215087890625
1758525033.9877293,-0.451171875,0.08984375,0.17431640625,-102.05078125,-10.3759765625,7.32421875,-6.9927978515625,44.769287109375,-6.2677001953125
1758525033.997631,-0.451171875,0.08984375,0.17431640625,-102.05078125,-10.3759765625,7.32421875,-7.855224609375,44.703369140625,-6.141357421875
1758525034.007701,-0.29052734375,-0.00146484375,0.1953125,-67.87109375,2.685546875,8.4228515625,-8.54736328125,44.7088623046875,-6.0150146484375
1758525034.0180962,-0.29052734375,-0.00146484375,0.1953125,-67.87109375,2.685546875,8.4228515625,-9.063720703125,44.7802734375,-5.8941650390625
1758525034.0276878,-0.30859375,-0.4326171875,0.3671875,-23.74267578125,14.404296875,6.7138671875,-9.3878173828125,44.912109375,-5.8062744140625
1758525034.0376852,-0.30859375,-0.4326171875,0.3671875,-23.74267578125,14.404296875,6.7138671875,-9.5361328125,45.087890625,-5.7568359375
1758525034.0480738,-0.69287109375,-0.8359375,0.59326171875,37.7197265625,21.42333984375,0.48828125,-9.4427490234375,45.296630859375,-5.7843017578125
1758525034.0577888,-0.69287109375,-0.8359375,0.59326171875,37.7197265625,21.42333984375,0.48828125,-9.129638671875,45.52734375,-5.8941650390625
1758525034.0678341,-1.439453125,-0.42236328125,1.03759765625,144.04296875,16.78466796875,1.89208984375,-8.3001708984375,45.736083984375,-6.009521484375
1758525034.0779483,-1.439453125,-0.42236328125,1.03759765625,144.04296875,16.78466796875,1.89208984375,-6.9378662109375,45.9283447265625,-6.1138916015625
1758525034.088077,-1.09130859375,0.41650390625,1.61767578125,154.96826171875,-2.5634765625,-5.43212890625,-5.5426025390625,46.021728515625,-6.240234375
1758525034.0977762,-1.09130859375,0.41650390625,1.61767578125,154.96826171875,-2.5634765625,-5.43212890625,-4.0869140625,45.999755859375,-6.361083984375
1758525034.1078622,-0.72412109375,0.42578125,0.89208984375,87.0361328125,-13.61083984375,-2.25830078125,-2.9388427734375,45.911865234375,-6.4324951171875
1758525034.1181865,-0.72412109375,0.42578125,0.89208984375,87.0361328125,-13.61083984375,-2.25830078125,-2.08740234375,45.76904296875,-6.4599609375
1758525034.127952,-0.578125,0.1669921875,0.556640625,-27.83203125,-14.70947265625,0.732421875,-1.790771484375,45.6207275390625,-6.4544677734375
1758525034.1377728,-0.578125,0.1669921875,0.556640625,-27.83203125,-14.70947265625,0.732421875,-2.0379638671875,45.4669189453125,-6.427001953125
1758525034.1478527,-0.6787109375,-0.00634765625,0.4013671875,-79.2236328125,-9.033203125,1.8310546875,-2.5323486328125,45.3460693359375,-6.3885498046875
1758525034.1581488,-0.6787109375,-0.00634765625,0.4013671875,-79.2236328125,-9.033203125,1.8310546875,-3.27392578125,45.263671875,-6.35009765625
1758525034.167862,-0.56787109375,-0.18701171875,0.2333984375,-72.8759765625,-3.662109375,-0.244140625,-3.9990234375,45.208740234375,-6.3336181640625
1758525034.1778257,-0.56787109375,-0.18701171875,0.2333984375,-72.8759765625,-3.662109375,-0.244140625,-4.7021484375,45.1922607421875,-6.35009765625
1758525034.1880143,-0.4658203125,-0.19677734375,0.20361328125,-27.03857421875,6.34765625,-0.30517578125,-5.1910400390625,45.230712890625,-6.3775634765625
1758525034.1979463,-0.4658203125,-0.19677734375,0.20361328125,-27.03857421875,6.34765625,-0.30517578125,-5.460205078125,45.3240966796875,-6.427001953125
1758525034.20786,-0.48681640625,-0.1904296875,0.21533203125,22.8271484375,15.93017578125,-1.5869140625,-5.504150390625,45.4669189453125,-6.4984130859375
1758525034.2179284,-0.48681640625,-0.1904296875,0.21533203125,22.8271484375,15.93017578125,-1.5869140625,-5.3173828125,45.6646728515625,-6.602783203125
1758525034.2280328,-0.5888671875,-0.18408203125,0.2119140625,53.466796875,25.5126953125,-4.39453125,-5.0042724609375,45.911865234375,-6.7401123046875
1758525034.2379382,-0.5888671875,-0.18408203125,0.2119140625,53.466796875,25.5126953125,-4.39453125,-4.5648193359375,46.2139892578125,-6.910400390625
1758525034.2480326,-0.73193359375,-0.00244140625,0.24609375,65.673828125,32.71484375,-5.18798828125,-4.0814208984375,46.5545654296875,-7.09716796875
1758525034.2581046,-0.73193359375,-0.00244140625,0.24609375,65.673828125,32.71484375,-5.18798828125,-3.5321044921875,46.944580078125,-7.294921875
1758525034.2679458,-1.294921875,-0.06103515625,0.57861328125,40.4052734375,33.87451171875,-5.126953125,-3.109130859375,47.3455810546875,-7.481689453125
1758525034.2782018,-1.294921875,-0.06103515625,0.57861328125,40.4052734375,33.87451171875,-5.126953125,-2.801513671875,47.7520751953125,-7.6739501953125
1758525034.2882364,-2.90234375,-0.14208984375,1.06689453125,22.705078125,19.83642578125,1.46484375,-2.5433349609375,48.1036376953125,-7.8057861328125
1758525034.2980313,-2.90234375,-0.14208984375,1.06689453125,22.705078125,19.83642578125,1.46484375,-2.318115234375,48.394775390625,-7.8826904296875
1758525034.3080595,-1.07763671875,0.2158203125,0.9990234375,-24.47509765625,-7.75146484375,4.0283203125,-2.30712890625,48.548583984375,-7.9266357421875
1758525034.3181212,-1.07763671875,0.2158203125,0.9990234375,-24.47509765625,-7.75146484375,4.0283203125,-2.5048828125,48.5595703125,-7.93212890625
1758525034.3280594,-0.81689453125,-0.14453125,0.642578125,-44.49462890625,-24.4140625,11.3525390625,-2.7410888671875,48.4771728515625,-7.8607177734375
1758525034.3380532,-0.81689453125,-0.14453125,0.642578125,-44.49462890625,-24.4140625,11.3525390625,-3.043212890625,48.306884765625,-7.7288818359375
1758525034.3483474,-0.6376953125,-0.13232421875,0.4208984375,-56.33544921875,-30.45654296875,13.7939453125,-3.3892822265625,48.109130859375,-7.58056640625
1758525034.358098,-0.6376953125,-0.13232421875,0.4208984375,-56.33544921875,-30.45654296875,13.7939453125,-3.779296875,47.8839111328125,-7.4102783203125
1758525034.3681679,-0.82568359375,-0.04248046875,0.3935546875,-57.92236328125,-27.89306640625,10.07080078125,-4.19677734375,47.669677734375,-7.27294921875
1758525034.3780477,-0.82568359375,-0.04248046875,0.3935546875,-57.92236328125,-27.89306640625,10.07080078125,-4.6417236328125,47.471923828125,-7.1630859375
1758525034.3885202,-0.669921875,0.0185546875,0.2724609375,-31.005859375,-18.49365234375,5.7373046875,-4.9713134765625,47.3291015625,-7.086181640625
1758525034.3980508,-0.669921875,0.0185546875,0.2724609375,-31.005859375,-18.49365234375,5.7373046875,-5.1910400390625,47.2247314453125,-7.0477294921875
1758525034.40804,-0.37646484375,0.005859375,0.29638671875,10.1318359375,-3.60107421875,4.7607421875,-5.218505859375,47.2027587890625,-7.020263671875
1758525034.418255,-0.37646484375,0.005859375,0.29638671875,10.1318359375,-3.60107421875,4.7607421875,-5.0482177734375,47.252197265625,-7.00927734375
1758525034.4281251,-0.4443359375,-0.11474609375,0.92822265625,22.76611328125,0.42724609375,1.28173828125,-4.8394775390625,47.30712890625,-7.0257568359375
1758525034.4380755,-0.4443359375,-0.11474609375,0.92822265625,22.76611328125,0.42724609375,1.28173828125,-4.59228515625,47.3675537109375,-7.0587158203125
1758525034.4481208,-0.46923828125,-0.05029296875,1.578125,7.568359375,-3.173828125,-0.79345703125,-4.4384765625,47.3785400390625,-7.086181640625
1758525034.4584062,-0.46923828125,-0.05029296875,1.578125,7.568359375,-3.173828125,-0.79345703125,-4.37255859375,47.340087890625,-7.108154296875
1758525034.4680898,-0.48193359375,-0.0595703125,1.078125,-9.21630859375,-7.38525390625,-0.18310546875,-4.3780517578125,47.2576904296875,-7.0916748046875
1758525034.4790285,-0.48193359375,-0.0595703125,1.078125,-9.21630859375,-7.38525390625,-0.18310546875,-4.46044921875,47.1478271484375,-7.064208984375
1758525034.4914112,-0.6298828125,-0.22265625,0.826171875,0.0,-10.07080078125,-1.8310546875,-4.50439453125,47.010498046875,-7.042236328125
1758525034.4983306,-0.6298828125,-0.22265625,0.826171875,0.0,-10.07080078125,-1.8310546875,-4.515380859375,46.8621826171875,-7.03125
1758525034.5081868,-0.64892578125,-0.1640625,1.10791015625,54.931640625,-14.22119140625,-3.173828125,-4.2681884765625,46.6864013671875,-7.03125
1758525034.518447,-0.64892578125,-0.1640625,1.10791015625,54.931640625,-14.22119140625,-3.173828125,-3.7518310546875,46.4886474609375,-7.042236328125
1758525034.5282404,-0.40380859375,0.0498046875,0.95166015625,83.31298828125,-16.90673828125,-5.79833984375,-3.1146240234375,46.2689208984375,-7.0697021484375
1758525034.5382144,-0.40380859375,0.0498046875,0.95166015625,83.31298828125,-16.90673828125,-5.79833984375,-2.3455810546875,46.03271484375,-7.1026611328125
1758525034.5482407,-0.40380859375,0.0498046875,0.95166015625,73.05908203125,-13.427734375,-5.67626953125,-1.6314697265625,45.8074951171875,-7.1356201171875
1758525034.558573,-0.14013671875,0.14404296875,0.8876953125,73.05908203125,-13.427734375,-5.67626953125,-0.955810546875,45.5877685546875,-7.152099609375
1758525034.5682755,-0.12353515625,0.15673828125,0.46044921875,12.14599609375,-9.1552734375,-3.2958984375,-0.5712890625,45.384521484375,-7.1466064453125
1758525034.5782468,-0.12353515625,0.15673828125,0.46044921875,12.14599609375,-9.1552734375,-3.2958984375,-0.472412109375,45.19775390625,-7.1136474609375
1758525034.588592,-0.2255859375,0.03857421875,0.4775390625,-43.45703125,-0.3662109375,-1.3427734375,-0.6317138671875,45.054931640625,-7.0587158203125
1758525034.5982447,-0.2255859375,0.03857421875,0.4775390625,-43.45703125,-0.3662109375,-1.3427734375,-1.0546875,44.9560546875,-6.9927978515625
1758525034.608263,-0.32275390625,-0.01171875,0.5205078125,-59.9365234375,7.87353515625,3.2958984375,-1.5325927734375,44.8956298828125,-6.8939208984375
1758525034.6184978,-0.32275390625,-0.01171875,0.5205078125,-59.9365234375,7.87353515625,3.2958984375,-2.0709228515625,44.879150390625,-6.767578125
1758525034.628244,-0.55615234375,-0.486328125,0.3037109375,-14.0380859375,15.19775390625,2.8076171875,-2.3895263671875,44.9066162109375,-6.65771484375
1758525034.6383493,-0.55615234375,-0.486328125,0.3037109375,-14.0380859375,15.19775390625,2.8076171875,-2.515869140625,44.9835205078125,-6.580810546875
1758525034.648317,-1.93603515625,-1.58984375,1.6064453125,213.5009765625,2.25830078125,3.662109375,-1.5435791015625,45.0054931640625,-6.5423583984375
1758525034.6585615,-1.93603515625,-1.58984375,1.6064453125,213.5009765625,2.25830078125,3.662109375,0.4888916015625,44.9945068359375,-6.56982421875
1758525034.6683636,-0.369140625,0.2392578125,1.3740234375,360.65673828125,-9.27734375,-19.59228515625,3.1146240234375,44.93408203125,-6.78955078125
1758525034.6786416,-0.369140625,0.2392578125,1.3740234375,360.65673828125,-9.27734375,-19.59228515625,6.361083984375,44.813232421875,-7.1466064453125
1758525034.6883764,-0.7802734375,1.24462890625,1.17138671875,82.70263671875,-18.61572265625,-5.79833984375,8.2891845703125,44.6319580078125,-7.3883056640625
1758525034.6983764,-0.7802734375,1.24462890625,1.17138671875,82.70263671875,-18.61572265625,-5.79833984375,8.9483642578125,44.395751953125,-7.5091552734375
1758525034.7087018,-0.8623046875,0.2900390625,0.61328125,-114.56298828125,-23.0712890625,0.30517578125,8.690185546875,44.1375732421875,-7.569580078125
1758525034.7185369,-0.8623046875,0.2900390625,0.61328125,-114.56298828125,-23.0712890625,0.30517578125,7.4871826171875,43.868408203125,-7.5860595703125
1758525034.728377,-0.65234375,0.169921875,0.59912109375,-174.1943359375,-18.37158203125,0.6103515625,6.0205078125,43.626708984375,-7.5970458984375
1758525034.7384412,-0.65234375,0.169921875,0.59912109375,-174.1943359375,-18.37158203125,0.6103515625,4.273681640625,43.41796875,-7.5860595703125
1758525034.748789,-0.73583984375,0.18505859375,0.37939453125,-154.052734375,-15.44189453125,-0.67138671875,2.7410888671875,43.2421875,-7.591552734375
1758525034.7584379,-0.73583984375,0.18505859375,0.37939453125,-154.052734375,-15.44189453125,-0.67138671875,1.2249755859375,43.0828857421875,-7.5860595703125
1758525034.7684112,-1.177734375,0.58251953125,0.95166015625,-178.955078125,-14.0380859375,1.8310546875,-0.4779052734375,42.945556640625,-7.53662109375
1758525034.7798831,-1.177734375,0.58251953125,0.95166015625,-178.955078125,-14.0380859375,1.8310546875,-2.164306640625,42.813720703125,-7.470703125
1758525034.7905822,-0.64306640625,0.1650390625,1.0615234375,-178.466796875,-18.85986328125,12.02392578125,-3.7298583984375,42.637939453125,-7.2454833984375
1758525034.7985842,-0.64306640625,0.1650390625,1.0615234375,-178.466796875,-18.85986328125,12.02392578125,-5.284423828125,42.4566650390625,-7.0147705078125
1758525034.8087075,-0.5107421875,-0.41357421875,0.16357421875,-106.50634765625,-13.3056640625,11.29150390625,-6.1358642578125,42.34130859375,-6.8060302734375
1758525034.8191123,-0.5107421875,-0.41357421875,0.16357421875,-106.50634765625,-13.3056640625,11.29150390625,-7.0037841796875,42.2369384765625,-6.61376953125
1758525034.8285003,-0.7421875,0.0986328125,0.3388671875,-10.009765625,-0.732421875,9.94873046875,-6.9378662109375,42.264404296875,-6.4654541015625
1758525034.838603,-0.7421875,0.0986328125,0.3388671875,-10.009765625,-0.732421875,9.94873046875,-6.866455078125,42.3028564453125,-6.3226318359375
1758525034.8487864,-0.96435546875,0.048828125,0.5234375,6.16455078125,5.92041015625,10.07080078125,-6.646728515625,42.4127197265625,-6.1907958984375
1758525034.858554,-0.96435546875,0.048828125,0.5234375,6.16455078125,5.92041015625,10.07080078125,-6.4215087890625,42.528076171875,-6.064453125
1758525034.8685076,-0.904296875,-0.005859375,0.875,-53.466796875,9.70458984375,15.9912109375,-6.7510986328125,42.6873779296875,-5.8612060546875
1758525034.878978,-0.904296875,-0.005859375,0.875,-53.466796875,9.70458984375,15.9912109375,-7.0806884765625,42.8466796875,-5.6634521484375
1758525034.888538,-0.83349609375,-0.56689453125,0.8525390625,-12.20703125,5.18798828125,17.76123046875,-6.998291015625,42.95654296875,-5.44921875
1758525034.8986106,-0.83349609375,-0.56689453125,0.8525390625,-12.20703125,5.18798828125,17.76123046875,-6.9378662109375,43.0609130859375,-5.2459716796875
1758525034.9085696,-0.59765625,-0.37841796875,0.62744140625,30.76171875,5.126953125,12.63427734375,-6.514892578125,43.154296875,-5.1251220703125
1758525034.9190874,-0.59765625,-0.37841796875,0.62744140625,30.76171875,5.126953125,12.63427734375,-6.1083984375,43.2476806640625,-5.009765625
1758525034.928797,-0.60986328125,0.029296875,0.31103515625,32.5927734375,7.14111328125,10.68115234375,-5.701904296875,43.3575439453125,-4.9273681640625
1758525034.9386942,-0.60986328125,0.029296875,0.31103515625,32.5927734375,7.14111328125,10.68115234375,-5.29541015625,43.4783935546875,-4.844970703125
1758525034.948677,-0.67626953125,0.05126953125,0.462890625,7.75146484375,10.25390625,12.26806640625,-5.11962890625,43.626708984375,-4.7406005859375
1758525034.9592047,-0.67626953125,0.05126953125,0.462890625,7.75146484375,10.25390625,12.26806640625,-4.9383544921875,43.780517578125,-4.6307373046875
1758525034.9686804,-0.64208984375,0.1201171875,0.6201171875,-22.3388671875,10.07080078125,16.845703125,-5.0042724609375,43.934326171875,-4.4549560546875
1758525034.9787047,-0.64208984375,0.1201171875,0.6201171875,-22.3388671875,10.07080078125,16.845703125,-5.0592041015625,44.0826416015625,-4.2626953125
1758525034.9887288,-0.71533203125,-0.15087890625,0.7783203125,-37.41455078125,5.9814453125,19.95849609375,-5.2349853515625,44.1925048828125,-4.0264892578125
1758525034.9991908,-0.71533203125,-0.15087890625,0.7783203125,-37.41455078125,5.9814453125,19.95849609375,-5.416259765625,44.296875,-3.790283203125
1758525035.0087225,-0.9013671875,-0.4169921875,0.7177734375,-9.6435546875,3.41796875,19.04296875,-5.33935546875,44.373779296875,-3.5760498046875
1758525035.0187278,-0.9013671875,-0.4169921875,0.7177734375,-9.6435546875,3.41796875,19.04296875,-5.2734375,44.45068359375,-3.372802734375
1758525035.0289721,-1.11376953125,-0.498046875,0.7431640625,58.04443359375,-3.662109375,14.5263671875,-4.5867919921875,44.4561767578125,-3.2354736328125
1758525035.038813,-1.11376953125,-0.498046875,0.7431640625,58.04443359375,-3.662109375,14.5263671875,-3.922119140625,44.4671630859375,-3.1201171875
1758525035.0487938,-0.794921875,0.068359375,0.74609375,80.13916015625,-8.36181640625,10.6201171875,-3.065185546875,44.4287109375,-3.0487060546875
1758525035.0592015,-0.794921875,0.068359375,0.74609375,80.13916015625,-8.36181640625,10.6201171875,-2.208251953125,44.384765625,-2.9718017578125
1758525035.0688663,-0.7265625,0.24560546875,0.51025390625,17.63916015625,-6.04248046875,11.77978515625,-1.95556640625,44.36279296875,-2.867431640625
1758525035.0788434,-0.7265625,0.24560546875,0.51025390625,17.63916015625,-6.04248046875,11.77978515625,-1.6864013671875,44.3463134765625,-2.757568359375
1758525035.0892756,-0.69970703125,0.1279296875,0.46337890625,-52.24609375,-3.7841796875,11.3525390625,-2.109375,44.351806640625,-2.647705078125
1758525035.0988333,-0.69970703125,0.1279296875,0.46337890625,-52.24609375,-3.7841796875,11.3525390625,-2.5213623046875,44.36279296875,-2.537841796875
1758525035.1088336,-0.6572265625,-0.08447265625,0.5244140625,-60.791015625,0.6103515625,9.765625,-3.0322265625,44.417724609375,-2.449951171875
1758525035.1189592,-0.6572265625,-0.08447265625,0.5244140625,-60.791015625,0.6103515625,9.765625,-3.5430908203125,44.47265625,-2.362060546875
1758525035.1287835,-0.52197265625,-0.20556640625,0.69189453125,-21.8505859375,2.62451171875,7.4462890625,-3.69140625,44.53857421875,-2.3126220703125
1758525035.1388156,-0.52197265625,-0.20556640625,0.69189453125,-21.8505859375,2.62451171875,7.4462890625,-3.8507080078125,44.5989990234375,-2.2576904296875
1758525035.1489289,-0.50439453125,-0.1123046875,0.7060546875,31.79931640625,4.45556640625,6.16455078125,-3.49365234375,44.67041015625,-2.2247314453125
1758525035.1592228,-0.50439453125,-0.1123046875,0.7060546875,31.79931640625,4.45556640625,6.16455078125,-3.14208984375,44.7308349609375,-2.186279296875
1758525035.1688318,-0.42333984375,0.0986328125,0.8662109375,45.10498046875,7.01904296875,3.60107421875,-2.6751708984375,44.80224609375,-2.1697998046875
1758525035.178968,-0.42333984375,0.0986328125,0.8662109375,45.10498046875,7.01904296875,3.60107421875,-2.2027587890625,44.8681640625,-2.1368408203125
1758525035.1894042,-0.4248046875,0.20458984375,0.65771484375,13.61083984375,10.31494140625,2.86865234375,-2.04345703125,44.9560546875,-2.1038818359375
1758525035.1989586,-0.4248046875,0.20458984375,0.65771484375,13.61083984375,10.31494140625,2.86865234375,-1.8731689453125,45.0384521484375,-2.0599365234375
1758525035.2089467,-0.60302734375,0.046875,0.595703125,-26.55029296875,16.357421875,3.173828125,-2.098388671875,45.1812744140625,-2.0050048828125
1758525035.2192323,-0.60302734375,0.046875,0.595703125,-26.55029296875,16.357421875,3.173828125,-2.318115234375,45.3240966796875,-1.95556640625
1758525035.2292085,-0.9521484375,-0.2900390625,1.16162109375,-9.8876953125,12.39013671875,3.662109375,-2.3785400390625,45.428466796875,-1.900634765625
1758525035.2389653,-0.9521484375,-0.2900390625,1.16162109375,-9.8876953125,12.39013671875,3.662109375,-2.449951171875,45.52734375,-1.8511962890625
1758525035.2490664,-0.84423828125,-0.23046875,1.1279296875,31.43310546875,6.89697265625,1.64794921875,-2.1368408203125,45.5657958984375,-1.834716796875
1758525035.25927,-0.84423828125,-0.23046875,1.1279296875,31.43310546875,6.89697265625,1.64794921875,-1.8292236328125,45.604248046875,-1.812744140625
1758525035.2691135,-0.59130859375,-0.1162109375,0.73779296875,41.56494140625,1.8310546875,-0.06103515625,-1.439208984375,45.5877685546875,-1.8182373046875
1758525035.2789886,-0.59130859375,-0.1162109375,0.73779296875,41.56494140625,1.8310546875,-0.06103515625,-1.0601806640625,45.5712890625,-1.82373046875
1758525035.2893944,-0.86474609375,0.12109375,0.61669921875,15.0146484375,1.8310546875,-0.48828125,-0.9393310546875,45.560302734375,-1.834716796875
1758525035.2991028,-0.86474609375,0.12109375,0.61669921875,15.0146484375,1.8310546875,-0.48828125,-0.81298828125,45.560302734375,-1.845703125
1758525035.3090491,-0.95458984375,0.2705078125,0.50439453125,-41.259765625,1.89208984375,1.52587890625,-1.219482421875,45.5712890625,-1.8292236328125
1758525035.3190904,-0.95458984375,0.2705078125,0.50439453125,-41.259765625,1.89208984375,1.52587890625,-1.60400390625,45.59326171875,-1.812744140625
1758525035.3295019,-0.994140625,0.31005859375,0.51806640625,-83.984375,-1.3427734375,5.7373046875,-2.3565673828125,45.59326171875,-1.7303466796875
1758525035.3391109,-0.994140625,0.31005859375,0.51806640625,-83.984375,-1.3427734375,5.7373046875,-3.0926513671875,45.604248046875,-1.6424560546875
1758525035.3492253,-0.99609375,-0.00439453125,0.45947265625,-108.88671875,-3.96728515625,7.568359375,-4.0484619140625,45.5987548828125,-1.5325927734375
1758525035.3591208,-0.99609375,-0.00439453125,0.45947265625,-108.88671875,-3.96728515625,7.568359375,-5.0042724609375,45.604248046875,-1.4227294921875
1758525035.3693738,-0.81103515625,-0.16748046875,0.857421875,-113.8916015625,-11.3525390625,7.75146484375,-6.0040283203125,45.5328369140625,-1.307373046875
1758525035.3797114,-0.81103515625,-0.16748046875,0.857421875,-113.8916015625,-11.3525390625,7.75146484375,-7.0037841796875,45.46142578125,-1.1920166015625
1758525035.3907819,-0.7470703125,-0.33837890625,0.60400390625,-93.68896484375,-13.73291015625,7.4462890625,-7.8057861328125,45.362548828125,-1.0821533203125
1758525035.39946,-0.7470703125,-0.33837890625,0.60400390625,-93.68896484375,-13.73291015625,7.4462890625,-8.624267578125,45.2691650390625,-0.977783203125
1758525035.4092045,-0.72607421875,-0.37353515625,0.4462890625,-32.470703125,-14.6484375,4.57763671875,-8.865966796875,45.1702880859375,-0.9228515625
1758525035.419256,-0.72607421875,-0.37353515625,0.4462890625,-32.470703125,-14.6484375,4.57763671875,-9.11865234375,45.06591796875,-0.87890625
1758525035.4296412,-0.69873046875,-0.1494140625,0.55615234375,15.07568359375,-10.986328125,3.11279296875,-8.9208984375,45.0054931640625,-0.867919921875
1758525035.439283,-0.69873046875,-0.1494140625,0.55615234375,15.07568359375,-10.986328125,3.11279296875,-8.734130859375,44.9395751953125,-0.85693359375
1758525035.4492939,-0.60107421875,-0.03759765625,0.62890625,20.32470703125,-8.36181640625,3.41796875,-8.492431640625,44.8956298828125,-0.8404541015625
1758525035.4593434,-0.60107421875,-0.03759765625,0.62890625,20.32470703125,-8.36181640625,3.41796875,-8.2452392578125,44.8516845703125,-0.823974609375
1758525035.4693086,-0.57958984375,-0.14208984375,0.8046875,11.77978515625,-5.9814453125,4.5166015625,-8.0804443359375,44.82421875,-0.7855224609375
1758525035.4792206,-0.57958984375,-0.14208984375,0.8046875,11.77978515625,-5.9814453125,4.5166015625,-7.921142578125,44.7857666015625,-0.7470703125
1758525035.489662,-0.58251953125,-0.17529296875,0.73583984375,7.080078125,-4.150390625,4.7607421875,-7.811279296875,44.7637939453125,-0.7086181640625
1758525035.499232,-0.58251953125,-0.17529296875,0.73583984375,7.080078125,-4.150390625,4.7607421875,-7.701416015625,44.736328125,-0.6646728515625
1758525035.509265,-0.53564453125,-0.17138671875,0.931640625,12.8173828125,-4.150390625,3.7841796875,-7.547607421875,44.6978759765625,-0.626220703125
1758525035.5195541,-0.53564453125,-0.17138671875,0.931640625,12.8173828125,-4.150390625,3.7841796875,-7.393798828125,44.6484375,-0.582275390625
1758525035.5297048,-0.47900390625,-0.05322265625,0.6748046875,19.59228515625,-1.708984375,4.33349609375,-7.174072265625,44.6209716796875,-0.5328369140625
1758525035.5392754,-0.47900390625,-0.05322265625,0.6748046875,19.59228515625,-1.708984375,4.33349609375,-6.9488525390625,44.593505859375,-0.4779052734375
1758525035.5492795,-0.47900390625,-0.05322265625,0.6748046875,15.80810546875,1.28173828125,5.43212890625,-6.756591796875,44.5880126953125,-0.406494140625
1758525035.5597885,-0.43798828125,-0.09228515625,0.7197265625,15.80810546875,1.28173828125,5.43212890625,-6.558837890625,44.5770263671875,-0.32958984375
1758525035.569267,-0.40576171875,-0.20751953125,0.64501953125,20.751953125,6.9580078125,5.2490234375,-6.328125,44.615478515625,-0.2691650390625
1758525035.5794163,-0.40576171875,-0.20751953125,0.64501953125,20.751953125,6.9580078125,5.2490234375,-6.1029052734375,44.6539306640625,-0.2032470703125
1758525035.58966,-0.35791015625,-0.19775390625,0.5556640625,39.00146484375,14.5263671875,4.82177734375,-5.712890625,44.7637939453125,-0.1593017578125
1758525035.599452,-0.35791015625,-0.19775390625,0.5556640625,39.00146484375,14.5263671875,4.82177734375,-5.3338623046875,44.8681640625,-0.1153564453125
1758525035.6093407,-0.45263671875,-0.0185546875,0.42041015625,29.541015625,20.81298828125,3.72314453125,-5.0592041015625,45.032958984375,-0.0933837890625
1758525035.619456,-0.45263671875,-0.0185546875,0.42041015625,29.541015625,20.81298828125,3.72314453125,-4.7845458984375,45.2032470703125,-0.06591796875
1758525035.629845,-0.63134765625,-0.05712890625,0.46435546875,17.4560546875,28.1982421875,2.62451171875,-4.6417236328125,45.450439453125,-0.0714111328125
1758525035.6394246,-0.63134765625,-0.05712890625,0.46435546875,17.4560546875,28.1982421875,2.62451171875,-4.50439453125,45.7086181640625,-0.0823974609375
1758525035.6494403,-0.953125,0.42529296875,0.904296875,-17.822265625,27.9541015625,6.7138671875,-4.647216796875,45.966796875,-0.0164794921875
1758525035.659928,-0.953125,0.42529296875,0.904296875,-17.822265625,27.9541015625,6.7138671875,-4.757080078125,46.2359619140625,0.054931640625
1758525035.6694026,-1.12939453125,0.078125,2.4921875,-56.640625,4.45556640625,6.77490234375,-5.2239990234375,46.241455078125,0.1922607421875
1758525035.6812518,-1.12939453125,0.078125,2.4921875,-56.640625,4.45556640625,6.77490234375,-5.679931640625,46.2359619140625,0.3460693359375
1758525035.69211,-0.578125,-0.0986328125,0.8037109375,-94.78759765625,-4.8828125,12.02392578125,-6.448974609375,46.1370849609375,0.59326171875
1758525035.6996775,-0.578125,-0.0986328125,0.8037109375,-94.78759765625,-4.8828125,12.02392578125,-7.218017578125,46.043701171875,0.8404541015625
1758525035.709417,-0.4951171875,0.0068359375,0.61328125,-141.11328125,-8.4228515625,13.97705078125,-8.41552734375,45.9173583984375,1.12060546875
1758525035.7195573,-0.4951171875,0.0068359375,0.61328125,-141.11328125,-8.4228515625,13.97705078125,-9.6075439453125,45.802001953125,1.4007568359375
1758525035.729732,-0.77001953125,-0.33447265625,0.29296875,-132.99560546875,-3.662109375,11.5966796875,-10.755615234375,45.7415771484375,1.6259765625
1758525035.7396846,-0.77001953125,-0.33447265625,0.29296875,-132.99560546875,-3.662109375,11.5966796875,-11.9146728515625,45.692138671875,1.834716796875
1758525035.7495124,-0.96875,-0.3271484375,0.4775390625,-15.07568359375,0.6103515625,11.3525390625,-11.920166015625,45.703125,2.010498046875
1758525035.7596622,-0.96875,-0.3271484375,0.4775390625,-15.07568359375,0.6103515625,11.3525390625,-11.942138671875,45.7196044921875,2.164306640625
1758525035.7698033,-0.6845703125,-0.10498046875,0.53515625,80.078125,6.28662109375,8.85009765625,-11.05224609375,45.7965087890625,2.26318359375
1758525035.7795672,-0.80029296875,-0.17431640625,0.58544921875,102.35595703125,14.5263671875,5.7373046875,-10.0799560546875,45.911865234375,2.3291015625
1758525035.7895455,-0.80029296875,-0.17431640625,0.58544921875,102.35595703125,14.5263671875,5.7373046875,-9.0252685546875,46.065673828125,2.3565673828125
1758525035.7995708,-0.80029296875,-0.17431640625,0.58544921875,55.17578125,16.6015625,0.0,-8.2452392578125,46.23046875,2.3455810546875
1758525035.8099425,-1.03515625,0.10107421875,0.87451171875,55.17578125,16.6015625,0.0,-7.7178955078125,46.4007568359375,2.296142578125
1758525035.8195524,-1.02294921875,0.19091796875,1.05908203125,-17.333984375,8.9111328125,0.0,-7.53662109375,46.5325927734375,2.2686767578125
1758525035.829661,-1.02294921875,0.19091796875,1.05908203125,-17.333984375,8.9111328125,0.0,-7.701416015625,46.6259765625,2.252197265625
1758525035.8398182,-0.6962890625,-0.03466796875,0.5849609375,-62.744140625,2.5634765625,3.5400390625,-8.0584716796875,46.6864013671875,2.2796630859375
1758525035.8495913,-0.6962890625,-0.03466796875,0.5849609375,-62.744140625,2.5634765625,3.5400390625,-8.6187744140625,46.7193603515625,2.3345947265625
1758525035.8595955,-0.65234375,-0.08154296875,0.5703125,-88.134765625,-2.74658203125,3.60107421875,-9.29443359375,46.7303466796875,2.39501953125
1758525035.8699934,-0.65234375,-0.08154296875,0.5703125,-88.134765625,-2.74658203125,3.60107421875,-10.0909423828125,46.7138671875,2.4664306640625
1758525035.8797941,-0.49609375,-0.23486328125,0.4765625,-76.35498046875,-3.72314453125,5.67626953125,-10.821533203125,46.6973876953125,2.5433349609375
1758525035.8896372,-0.49609375,-0.23486328125,0.4765625,-76.35498046875,-3.72314453125,5.67626953125,-11.480712890625,46.6754150390625,2.6422119140625
1758525035.89973,-0.52587890625,-0.41357421875,0.4208984375,-21.728515625,-2.38037109375,6.2255859375,-11.876220703125,46.658935546875,2.7301025390625
1758525035.9096956,-0.52587890625,-0.41357421875,0.4208984375,-21.728515625,-2.38037109375,6.2255859375,-12.01904296875,46.6534423828125,2.8125
1758525035.9197023,-0.5341796875,-0.19580078125,0.39111328125,16.78466796875,3.2958984375,5.67626953125,-11.986083984375,46.6754150390625,2.867431640625
1758525035.929963,-0.5341796875,-0.19580078125,0.39111328125,16.78466796875,3.2958984375,5.67626953125,-11.77734375,46.724853515625,2.9058837890625
1758525035.9399726,-0.615234375,0.09521484375,0.32763671875,-10.498046875,11.16943359375,8.6669921875,-11.700439453125,46.8182373046875,2.955322265625
1758525035.949705,-0.615234375,0.09521484375,0.32763671875,-10.498046875,11.16943359375,8.6669921875,-11.744384765625,46.9610595703125,3.0157470703125
1758525035.9597147,-0.830078125,-0.03955078125,0.3779296875,-72.265625,16.9677734375,12.26806640625,-12.073974609375,47.142333984375,3.0926513671875
1758525035.9698608,-0.830078125,-0.03955078125,0.3779296875,-72.265625,16.9677734375,12.26806640625,-12.6947021484375,47.362060546875,3.1805419921875
1758525035.979727,-1.08740234375,-0.72216796875,1.36181640625,11.474609375,9.8876953125,11.474609375,-12.8924560546875,47.548828125,3.27392578125
1758525035.9897914,-1.08740234375,-0.72216796875,1.36181640625,11.474609375,9.8876953125,11.474609375,-12.6947021484375,47.6806640625,3.3673095703125
1758525035.9999034,-1.07958984375,-0.5234375,1.23876953125,93.6279296875,1.5869140625,7.87353515625,-12.1124267578125,47.757568359375,3.44970703125
1758525036.0099673,-1.07958984375,-0.5234375,1.23876953125,93.6279296875,1.5869140625,7.87353515625,-11.14013671875,47.779541015625,3.5211181640625
1758525036.0198143,-0.75341796875,-0.19384765625,0.73974609375,118.65234375,-7.4462890625,4.7607421875,-10.0579833984375,47.74658203125,3.58154296875
1758525036.0298083,-0.75341796875,-0.19384765625,0.73974609375,118.65234375,-7.4462890625,4.7607421875,-8.865966796875,47.669677734375,3.636474609375
1758525036.0402982,-0.75341796875,-0.19384765625,0.73974609375,100.15869140625,-8.48388671875,3.662109375,-7.7783203125,47.581787109375,3.680419921875
1758525036.0498233,-0.66650390625,0.07275390625,0.58642578125,100.15869140625,-8.48388671875,3.662109375,-6.778564453125,47.493896484375,3.71337890625
1758525036.0598457,-0.53369140625,0.02099609375,0.41748046875,51.33056640625,-3.96728515625,3.5400390625,-6.0260009765625,47.427978515625,3.746337890625
1758525036.0701592,-0.53369140625,0.02099609375,0.41748046875,51.33056640625,-3.96728515625,3.5400390625,-5.5206298828125,47.3895263671875,3.779296875
1758525036.0800097,-0.5791015625,0.0107421875,0.0654296875,-9.94873046875,5.43212890625,3.41796875,-5.3228759765625,47.4005126953125,3.7957763671875
1758525036.089861,-0.5791015625,0.0107421875,0.0654296875,-9.94873046875,5.43212890625,3.41796875,-5.4327392578125,47.471923828125,3.7957763671875
1758525036.099886,-0.544921875,-0.06005859375,-0.06298828125,-54.5654296875,16.845703125,3.41796875,-5.767822265625,47.6092529296875,3.779296875
1758525036.1102357,-0.544921875,-0.06005859375,-0.06298828125,-54.5654296875,16.845703125,3.41796875,-6.328125,47.823486328125,3.7353515625
1758525036.1198692,-0.73046875,-0.37109375,0.21435546875,-37.7197265625,25.87890625,3.173828125,-6.8170166015625,48.087158203125,3.66943359375
1758525036.1299515,-0.73046875,-0.37109375,0.21435546875,-37.7197265625,25.87890625,3.173828125,-7.239990234375,48.4112548828125,3.570556640625
1758525036.14002,-1.58154296875,-0.5859375,1.423828125,143.4326171875,16.78466796875,2.25830078125,-6.778564453125,48.6859130859375,3.460693359375
1758525036.1503837,-1.58154296875,-0.5859375,1.423828125,143.4326171875,16.78466796875,2.25830078125,-5.416259765625,48.900146484375,3.36181640625
1758525036.1599398,-0.70458984375,-0.00244140625,1.18115234375,244.62890625,7.2021484375,-5.92041015625,-3.603515625,49.0484619140625,3.2244873046875
1758525036.1699338,-0.70458984375,-0.00244140625,1.18115234375,244.62890625,7.2021484375,-5.92041015625,-1.318359375,49.130859375,3.05419921875
1758525036.1801307,-0.58740234375,0.3173828125,0.84326171875,187.31689453125,-2.99072265625,-5.859375,0.6756591796875,49.1473388671875,2.911376953125
1758525036.190049,-0.58740234375,0.3173828125,0.84326171875,187.31689453125,-2.99072265625,-5.859375,2.406005859375,49.1143798828125,2.7850341796875
1758525036.1999722,-0.6943359375,0.33203125,0.52392578125,122.802734375,-1.77001953125,-4.2724609375,3.8287353515625,49.0814208984375,2.6861572265625
1758525036.210139,-0.6943359375,0.33203125,0.52392578125,122.802734375,-1.77001953125,-4.2724609375,4.954833984375,49.0594482421875,2.6092529296875
1758525036.2202249,-0.9501953125,0.7216796875,0.32861328125,-88.68408203125,0.54931640625,1.708984375,5.07568359375,49.0484619140625,2.5872802734375
1758525036.2303388,-0.9501953125,0.7216796875,0.32861328125,-88.68408203125,0.54931640625,1.708984375,4.21875,49.06494140625,2.625732421875
1758525036.240086,-1.0703125,0.29052734375,0.11962890625,-205.2001953125,3.41796875,8.30078125,2.8564453125,49.097900390625,2.7301025390625
1758525036.2505388,-1.0703125,0.29052734375,0.11962890625,-205.2001953125,3.41796875,8.30078125,0.966796875,49.1693115234375,2.87841796875
1758525036.2600007,-1.07275390625,-0.474609375,0.69091796875,-203.30810546875,-0.42724609375,7.87353515625,-0.90087890625,49.2352294921875,3.021240234375
1758525036.2700148,-1.07275390625,-0.474609375,0.69091796875,-203.30810546875,-0.42724609375,7.87353515625,-2.7850341796875,49.28466796875,3.131103515625
1758525036.2828887,-0.693359375,-0.2333984375,0.9501953125,-136.474609375,-5.37109375,10.19287109375,-4.339599609375,49.306640625,3.2464599609375
1758525036.292318,-0.693359375,-0.2333984375,0.9501953125,-136.474609375,-5.37109375,10.19287109375,-5.548095703125,49.295654296875,3.3892822265625
1758525036.3001685,-0.50830078125,0.02197265625,0.63623046875,-138.73291015625,-11.23046875,13.00048828125,-6.74560546875,49.251708984375,3.5650634765625
1758525036.310123,-0.50830078125,0.02197265625,0.63623046875,-138.73291015625,-11.23046875,13.00048828125,-7.93212890625,49.1693115234375,3.7738037109375
1758525036.3202167,-0.66796875,-0.029296875,0.39453125,-148.98681640625,-9.82666015625,13.97705078125,-9.151611328125,49.1033935546875,4.0045166015625
1758525036.330217,-0.66796875,-0.029296875,0.39453125,-148.98681640625,-9.82666015625,13.97705078125,-10.4095458984375,49.0484619140625,4.24072265625
1758525036.3405974,-0.74267578125,-0.11376953125,0.3330078125,-117.24853515625,-7.01904296875,13.671875,-11.5081787109375,49.0155029296875,4.471435546875
1758525036.3503563,-0.74267578125,-0.11376953125,0.3330078125,-117.24853515625,-7.01904296875,13.671875,-12.4530029296875,49.0045166015625,4.691162109375
1758525036.360148,-0.6953125,-0.2294921875,0.41064453125,-72.998046875,-2.13623046875,14.404296875,-13.18359375,49.02099609375,4.89990234375
1758525036.3701353,-0.6953125,-0.2294921875,0.41064453125,-72.998046875,-2.13623046875,14.404296875,-13.699951171875,49.0704345703125,5.1031494140625
1758525036.3804252,-0.845703125,-0.48876953125,0.95166015625,15.44189453125,-0.30517578125,14.95361328125,-13.787841796875,49.1253662109375,5.29541015625
1758525036.3901305,-0.845703125,-0.48876953125,0.95166015625,15.44189453125,-0.30517578125,14.95361328125,-13.4527587890625,49.1802978515625,5.4876708984375
1758525036.4002097,-0.83203125,-0.45166015625,1.06689453125,84.1064453125,-3.84521484375,10.43701171875,-12.8155517578125,49.19677734375,5.6524658203125
1758525036.410278,-0.83203125,-0.45166015625,1.06689453125,84.1064453125,-3.84521484375,10.43701171875,-11.865234375,49.1802978515625,5.789794921875
1758525036.42022,-0.63232421875,-0.02783203125,0.986328125,101.37939453125,-9.1552734375,6.77490234375,-10.8599853515625,49.1253662109375,5.9161376953125
1758525036.4302619,-0.63232421875,-0.02783203125,0.986328125,101.37939453125,-9.1552734375,6.77490234375,-9.7723388671875,49.0264892578125,6.031494140625
1758525036.4405549,-0.6376953125,0.021484375,0.6943359375,59.50927734375,-12.87841796875,5.4931640625,-8.89892578125,48.900146484375,6.15234375
1758525036.450269,-0.6376953125,0.021484375,0.6943359375,59.50927734375,-12.87841796875,5.4931640625,-8.23974609375,48.75732421875,6.2677001953125
1758525036.4602635,-0.783203125,0.03271484375,0.85693359375,-6.53076171875,-13.916015625,5.31005859375,-7.9046630859375,48.603515625,6.3885498046875
1758525036.4704,-0.783203125,0.03271484375,0.85693359375,-6.53076171875,-13.916015625,5.31005859375,-7.8936767578125,48.44970703125,6.5093994140625
1758525036.4804199,-0.591796875,0.02490234375,0.71923828125,-57.0068359375,-17.15087890625,5.92041015625,-8.1243896484375,48.2794189453125,6.6412353515625
1758525036.4903932,-0.591796875,0.02490234375,0.71923828125,-57.0068359375,-17.15087890625,5.92041015625,-8.5858154296875,48.0926513671875,6.78955078125
1758525036.5003538,-0.53173828125,-0.2060546875,0.56982421875,-48.583984375,-16.05224609375,7.01904296875,-8.997802734375,47.911376953125,6.9488525390625
1758525036.5105746,-0.53173828125,-0.2060546875,0.56982421875,-48.583984375,-16.05224609375,7.01904296875,-9.3658447265625,47.735595703125,7.108154296875
1758525036.5203016,-0.59716796875,-0.26318359375,0.564453125,17.27294921875,-11.53564453125,6.65283203125,-9.415283203125,47.5872802734375,7.2564697265625
1758525036.530402,-0.59716796875,-0.26318359375,0.564453125,17.27294921875,-11.53564453125,6.65283203125,-9.1571044921875,47.4554443359375,7.3883056640625
1758525036.5403998,-0.521484375,-0.14794921875,0.38818359375,64.14794921875,-4.5166015625,3.41796875,-8.6956787109375,47.362060546875,7.4761962890625
1758525036.5504293,-0.521484375,-0.14794921875,0.38818359375,64.14794921875,-4.5166015625,3.41796875,-8.031005859375,47.30712890625,7.5311279296875
1758525036.5603542,-0.59619140625,-0.18212890625,0.2373046875,66.650390625,5.2490234375,3.0517578125,-7.3773193359375,47.3016357421875,7.5640869140625
1758525036.5703626,-0.59619140625,-0.18212890625,0.2373046875,66.650390625,5.2490234375,3.0517578125,-6.7236328125,47.35107421875,7.569580078125
1758525036.5831673,-1.76025390625,-0.578125,1.1845703125,170.7763671875,0.18310546875,6.34765625,-5.5426025390625,47.3895263671875,7.5860595703125
1758525036.592441,-1.76025390625,-0.578125,1.1845703125,170.7763671875,0.18310546875,6.34765625,-3.8397216796875,47.4114990234375,7.613525390625
1758525036.600421,-0.6552734375,0.333984375,1.546875,159.48486328125,-13.7939453125,-0.6103515625,-2.2357177734375,47.362060546875,7.5970458984375
1758525036.6104732,-0.6552734375,0.333984375,1.546875,159.48486328125,-13.7939453125,-0.6103515625,-0.7086181640625,47.2137451171875,7.5640869140625
1758525036.620829,-0.619140625,0.373046875,0.81640625,10.3759765625,-20.8740234375,6.77490234375,0.120849609375,47.021484375,7.6025390625
1758525036.6304677,-0.619140625,0.373046875,0.81640625,10.3759765625,-20.8740234375,6.77490234375,0.2691650390625,46.790771484375,7.7069091796875
1758525036.6405196,-0.66357421875,0.0234375,0.4228515625,-84.28955078125,-20.5078125,9.8876953125,-0.02197265625,46.56005859375,7.8387451171875
1758525036.6504564,-0.66357421875,0.0234375,0.4228515625,-84.28955078125,-20.5078125,9.8876953125,-0.7635498046875,46.34033203125,7.987060546875
1758525036.6610901,-0.8603515625,-0.0595703125,0.416015625,-105.52978515625,-16.05224609375,9.521484375,-1.6094970703125,46.153564453125,8.1353759765625
1758525036.670447,-0.8603515625,-0.0595703125,0.416015625,-105.52978515625,-16.05224609375,9.521484375,-2.559814453125,45.999755859375,8.272705078125
1758525036.6804938,-0.66943359375,-0.11328125,0.333984375,-73.2421875,-11.474609375,11.04736328125,-3.3343505859375,45.8843994140625,8.4100341796875
1758525036.6905913,-0.66943359375,-0.11328125,0.333984375,-73.2421875,-11.474609375,11.04736328125,-3.9385986328125,45.7965087890625,8.5528564453125
