timestamp,acc_x,acc_y,acc_z,gyro_x,gyro_y,gyro_z,angle_x,angle_y,angle_z
1759066363.9830227,-0.71728515625,0.00146484375,0.69677734375,-0.244140625,0.244140625,0.0,0.428466796875,45.8404541015625,92.3455810546875
1759066363.9940665,-0.71728515625,0.00146484375,0.69677734375,-0.244140625,0.244140625,0.0,0.4229736328125,45.8404541015625,92.3455810546875
1759066364.004171,-0.716796875,0.0009765625,0.697265625,-0.06103515625,0.244140625,0.0,0.4229736328125,45.8404541015625,92.3455810546875
1759066364.0148861,-0.716796875,0.0009765625,0.697265625,-0.06103515625,0.244140625,0.0,0.4229736328125,45.845947265625,92.340087890625
1759066364.0249648,-0.7177734375,0.0029296875,0.69580078125,0.1220703125,0.244140625,0.0,0.4229736328125,45.845947265625,92.340087890625
1759066364.034574,-0.7177734375,0.0029296875,0.69580078125,0.1220703125,0.244140625,0.0,0.4229736328125,45.845947265625,92.340087890625
1759066364.0418453,-0.71875,0.00390625,0.6962890625,0.30517578125,0.3662109375,0.0,0.4229736328125,45.8514404296875,92.340087890625
1759066364.051484,-0.71875,0.00390625,0.6962890625,0.30517578125,0.3662109375,0.0,0.4229736328125,45.85693359375,92.340087890625
1759066364.0615633,-0.71533203125,0.00439453125,0.69873046875,0.06103515625,0.3662109375,0.0,0.428466796875,45.85693359375,92.340087890625
1759066364.0715027,-0.71533203125,0.00439453125,0.69873046875,0.06103515625,0.3662109375,0.0,0.428466796875,45.8624267578125,92.340087890625
1759066364.081511,-0.71337890625,0.0048828125,0.69873046875,-0.1220703125,0.244140625,0.0,0.4229736328125,45.8624267578125,92.340087890625
1759066364.0918987,-0.71337890625,0.0048828125,0.69873046875,-0.1220703125,0.244140625,0.0,0.4229736328125,45.8624267578125,92.3345947265625
1759066364.101568,-0.7158203125,0.00537109375,0.69970703125,-0.18310546875,0.1220703125,0.0,0.4229736328125,45.867919921875,92.3345947265625
1759066364.1115751,-0.7158203125,0.00537109375,0.69970703125,-0.18310546875,0.1220703125,0.0,0.41748046875,45.867919921875,92.3345947265625
1759066364.121547,-0.7158203125,0.00537109375,0.69775390625,-0.18310546875,0.06103515625,0.0,0.41748046875,45.867919921875,92.3345947265625
1759066364.132053,-0.7158203125,0.00537109375,0.69775390625,-0.18310546875,0.06103515625,0.0,0.4119873046875,45.867919921875,92.3345947265625
1759066364.1415608,-0.7177734375,0.00390625,0.69580078125,-0.244140625,0.0,0.0,0.4119873046875,45.867919921875,92.3345947265625
1759066364.151587,-0.7177734375,0.00390625,0.69580078125,-0.244140625,0.0,0.0,0.406494140625,45.867919921875,92.3291015625
1759066364.1616914,-0.72119140625,0.00537109375,0.6953125,-0.244140625,0.0,0.0,0.406494140625,45.8624267578125,92.3291015625
1759066364.1716754,-0.72119140625,0.00537109375,0.6953125,-0.244140625,0.0,0.0,0.4010009765625,45.8624267578125,92.3291015625
1759066364.181613,-0.72216796875,0.005859375,0.69091796875,-0.06103515625,0.0,0.0,0.4010009765625,45.8624267578125,92.3291015625
1759066364.1916237,-0.72216796875,0.005859375,0.69091796875,-0.06103515625,0.0,0.0,0.4010009765625,45.8624267578125,92.3291015625
1759066364.2016604,-0.72216796875,0.005859375,0.6904296875,-0.06103515625,0.0,0.0,0.4010009765625,45.8624267578125,92.3291015625
1759066364.2116525,-0.72216796875,0.005859375,0.6904296875,-0.06103515625,0.0,0.0,0.4010009765625,45.8624267578125,92.3291015625
1759066364.2217152,-0.72265625,0.00439453125,0.69140625,0.0,-0.06103515625,0.0,0.4010009765625,45.8624267578125,92.3291015625
1759066364.2317054,-0.72265625,0.00439453125,0.69140625,0.0,-0.06103515625,0.0,0.4010009765625,45.867919921875,92.3291015625
1759066364.2417994,-0.72314453125,0.001953125,0.6923828125,0.0,0.06103515625,0.0,0.4010009765625,45.867919921875,92.3291015625
1759066364.251694,-0.72314453125,0.001953125,0.6923828125,0.0,0.06103515625,0.0,0.4010009765625,45.867919921875,92.3291015625
1759066364.261752,-0.7236328125,0.00146484375,0.69384765625,0.732421875,0.3662109375,0.0,0.4010009765625,45.8734130859375,92.3291015625
1759066364.2718248,-0.7236328125,0.00146484375,0.69384765625,0.732421875,0.3662109375,0.0,0.4119873046875,45.8734130859375,92.3291015625
1759066364.2893748,-0.72412109375,0.0029296875,0.6904296875,1.15966796875,0.48828125,0.0,0.41748046875,45.8843994140625,92.3291015625
1759066364.295355,-0.72412109375,0.0029296875,0.6904296875,1.15966796875,0.48828125,0.0,0.428466796875,45.889892578125,92.3236083984375
1759066364.301757,-0.728515625,0.00537109375,0.68701171875,1.220703125,0.79345703125,0.0,0.439453125,45.8953857421875,92.3236083984375
1759066364.311777,-0.728515625,0.00537109375,0.68701171875,1.220703125,0.79345703125,0.0,0.450439453125,45.9063720703125,92.3236083984375
1759066364.3217738,-0.73388671875,0.00439453125,0.681640625,0.54931640625,1.03759765625,0.30517578125,0.46142578125,45.9173583984375,92.3236083984375
1759066364.3318124,-0.73388671875,0.00439453125,0.681640625,0.54931640625,1.03759765625,0.30517578125,0.4669189453125,45.9283447265625,92.3291015625
1759066364.3418033,-0.734375,0.00634765625,0.677734375,-0.06103515625,1.220703125,0.3662109375,0.472412109375,45.94482421875,92.3345947265625
1759066364.3518276,-0.734375,0.00634765625,0.677734375,-0.06103515625,1.220703125,0.3662109375,0.4779052734375,45.9613037109375,92.340087890625
1759066364.361903,-0.72802734375,0.00634765625,0.68408203125,-0.06103515625,1.28173828125,0.48828125,0.4779052734375,45.977783203125,92.3455810546875
1759066364.3718703,-0.72802734375,0.00634765625,0.68408203125,-0.06103515625,1.28173828125,0.48828125,0.4833984375,45.9942626953125,92.35107421875
1759066364.3818786,-0.71728515625,0.00537109375,0.6962890625,0.48828125,1.28173828125,0.54931640625,0.494384765625,46.0052490234375,92.362060546875
1759066364.391894,-0.71728515625,0.00537109375,0.6962890625,0.48828125,1.28173828125,0.54931640625,0.50537109375,46.021728515625,92.3675537109375
1759066364.401884,-0.71435546875,0.005859375,0.7021484375,-0.244140625,1.220703125,0.79345703125,0.5108642578125,46.0382080078125,92.3785400390625
1759066364.411906,-0.71435546875,0.005859375,0.7021484375,-0.244140625,1.220703125,0.79345703125,0.516357421875,46.0491943359375,92.3895263671875
1759066364.4219115,-0.7158203125,0.00634765625,0.69970703125,-1.40380859375,1.220703125,1.03759765625,0.5108642578125,46.065673828125,92.406005859375
1759066364.4319155,-0.7158203125,0.00634765625,0.69970703125,-1.40380859375,1.220703125,1.03759765625,0.50537109375,46.07666015625,92.4224853515625
1759066364.4419413,-0.720703125,0.0029296875,0.6953125,-1.64794921875,1.3427734375,1.3427734375,0.50537109375,46.0931396484375,92.43896484375
1759066364.4519477,-0.720703125,0.0029296875,0.6953125,-1.64794921875,1.3427734375,1.3427734375,0.4998779296875,46.1041259765625,92.4609375
1759066364.4620318,-0.7197265625,0.00146484375,0.69140625,-1.46484375,1.46484375,1.52587890625,0.50537109375,46.12060546875,92.48291015625
1759066364.4719641,-0.7197265625,0.00146484375,0.69140625,-1.46484375,1.46484375,1.52587890625,0.50537109375,46.131591796875,92.5048828125
1759066364.4819863,-0.71826171875,0.00244140625,0.69677734375,-1.220703125,1.46484375,1.64794921875,0.50537109375,46.1480712890625,92.52685546875
1759066364.4919956,-0.71826171875,0.00244140625,0.69677734375,-1.220703125,1.46484375,1.64794921875,0.5108642578125,46.16455078125,92.548828125
1759066364.5020046,-0.71484375,0.005859375,0.69970703125,-1.64794921875,1.52587890625,1.708984375,0.5108642578125,46.175537109375,92.5762939453125
1759066364.51201,-0.71484375,0.005859375,0.69970703125,-1.64794921875,1.52587890625,1.708984375,0.5108642578125,46.1920166015625,92.5982666015625
1759066364.5220258,-0.716796875,0.005859375,0.7001953125,-2.25830078125,1.5869140625,1.89208984375,0.5108642578125,46.2030029296875,92.625732421875
1759066364.5320337,-0.716796875,0.005859375,0.7001953125,-2.25830078125,1.5869140625,1.89208984375,0.50537109375,46.219482421875,92.6531982421875
1759066364.5420442,-0.7197265625,0.005859375,0.6953125,-2.44140625,1.64794921875,1.89208984375,0.4998779296875,46.2359619140625,92.6751708984375
1759066364.5521219,-0.7197265625,0.005859375,0.6953125,-2.44140625,1.64794921875,1.89208984375,0.494384765625,46.2469482421875,92.70263671875
1759066364.5621908,-0.72314453125,0.00634765625,0.69140625,-2.25830078125,1.8310546875,1.89208984375,0.4888916015625,46.263427734375,92.7301025390625
1759066364.572122,-0.72314453125,0.00634765625,0.69140625,-2.25830078125,1.8310546875,1.89208984375,0.4888916015625,46.2799072265625,92.757568359375
1759066364.5821483,-0.7236328125,0.00634765625,0.6904296875,-2.13623046875,2.13623046875,1.953125,0.4888916015625,46.3018798828125,92.7850341796875
1759066364.592131,-0.7236328125,0.00634765625,0.6904296875,-2.13623046875,2.13623046875,1.953125,0.4833984375,46.318359375,92.8125
1759066364.602164,-0.720703125,0.00439453125,0.69384765625,-2.50244140625,2.25830078125,2.01416015625,0.4833984375,46.34033203125,92.8399658203125
1759066364.6121411,-0.720703125,0.00439453125,0.69384765625,-2.50244140625,2.25830078125,2.01416015625,0.4779052734375,46.3623046875,92.867431640625
1759066364.6221704,-0.7236328125,0.00439453125,0.6953125,-2.86865234375,2.44140625,2.13623046875,0.472412109375,46.38427734375,92.900390625
1759066364.632163,-0.7236328125,0.00439453125,0.6953125,-2.86865234375,2.44140625,2.13623046875,0.4669189453125,46.40625,92.9278564453125
1759066364.6421883,-0.72509765625,0.00390625,0.68701171875,-2.50244140625,2.44140625,2.01416015625,0.46142578125,46.42822265625,92.9608154296875
1759066364.6521766,-0.72509765625,0.00390625,0.68701171875,-2.50244140625,2.44140625,2.01416015625,0.4559326171875,46.4501953125,92.98828125
1759066364.6622715,-0.728515625,0.00537109375,0.6865234375,-2.197265625,2.50244140625,1.953125,0.4559326171875,46.47216796875,93.0157470703125
1759066364.6722536,-0.728515625,0.00537109375,0.6865234375,-2.197265625,2.50244140625,1.953125,0.4559326171875,46.4996337890625,93.043212890625
1759066364.6823087,-0.7294921875,0.0078125,0.68603515625,-2.3193359375,2.62451171875,1.8310546875,0.450439453125,46.5216064453125,93.0706787109375
1759066364.692357,-0.7294921875,0.0078125,0.68603515625,-2.3193359375,2.62451171875,1.8310546875,0.4449462890625,46.549072265625,93.09814453125
1759066364.7023058,-0.7294921875,0.0078125,0.68603515625,-2.44140625,2.8076171875,1.708984375,0.439453125,46.5765380859375,93.1201171875
1759066364.712324,-0.73046875,0.00634765625,0.68359375,-2.44140625,2.8076171875,1.708984375,0.4339599609375,46.60400390625,93.1475830078125
1759066364.7223377,-0.73095703125,0.0068359375,0.68505859375,-2.0751953125,2.99072265625,1.46484375,0.428466796875,46.6314697265625,93.1695556640625
1759066364.7322886,-0.73095703125,0.0068359375,0.68505859375,-2.0751953125,2.99072265625,1.46484375,0.4229736328125,46.658935546875,93.1915283203125
1759066364.7423642,-0.72900390625,0.00732421875,0.68505859375,-1.46484375,3.11279296875,1.28173828125,0.4229736328125,46.69189453125,93.2080078125
1759066364.752313,-0.72900390625,0.00732421875,0.68505859375,-1.46484375,3.11279296875,1.28173828125,0.4229736328125,46.7193603515625,93.2244873046875
1759066364.7624335,-0.732421875,0.0068359375,0.68310546875,-0.6103515625,3.2958984375,0.91552734375,0.428466796875,46.7523193359375,93.240966796875
1759066364.772384,-0.732421875,0.0068359375,0.68310546875,-0.6103515625,3.2958984375,0.91552734375,0.4339599609375,46.7852783203125,93.251953125
1759066364.7823834,-0.73291015625,0.00537109375,0.68017578125,0.06103515625,3.2958984375,0.732421875,0.4449462890625,46.8182373046875,93.262939453125
1759066364.792419,-0.73291015625,0.00537109375,0.68017578125,0.06103515625,3.2958984375,0.732421875,0.450439453125,46.8511962890625,93.27392578125
1759066364.8025012,-0.732421875,0.0078125,0.6787109375,0.42724609375,3.173828125,0.3662109375,0.46142578125,46.878662109375,93.2794189453125
1759066364.8125951,-0.732421875,0.0078125,0.6787109375,0.42724609375,3.173828125,0.3662109375,0.4669189453125,46.91162109375,93.284912109375
1759066364.8229086,-0.732421875,0.00830078125,0.67919921875,0.48828125,2.86865234375,0.1220703125,0.4779052734375,46.9390869140625,93.2904052734375
1759066364.8324459,-0.732421875,0.00830078125,0.67919921875,0.48828125,2.86865234375,0.1220703125,0.4833984375,46.966552734375,93.2904052734375
1759066364.8425448,-0.72998046875,0.0087890625,0.68115234375,0.244140625,2.5634765625,0.0,0.4833984375,46.9940185546875,93.2904052734375
1759066364.8524916,-0.72998046875,0.0087890625,0.68115234375,0.244140625,2.5634765625,0.0,0.4888916015625,47.0159912109375,93.2904052734375
1759066364.862613,-0.7275390625,0.00830078125,0.68017578125,-0.06103515625,2.13623046875,-0.244140625,0.4888916015625,47.0379638671875,93.2904052734375
1759066364.8724744,-0.7275390625,0.00830078125,0.68017578125,-0.06103515625,2.13623046875,-0.244140625,0.4833984375,47.0599365234375,93.2904052734375
1759066364.8825526,-0.72802734375,0.00732421875,0.68505859375,0.06103515625,1.64794921875,-0.48828125,0.4833984375,47.076416015625,93.284912109375
1759066364.892487,-0.72802734375,0.00732421875,0.68505859375,0.06103515625,1.64794921875,-0.48828125,0.4779052734375,47.08740234375,93.27392578125
1759066364.9027405,-0.72412109375,0.0048828125,0.68603515625,0.3662109375,1.220703125,-0.67138671875,0.472412109375,47.098388671875,93.2684326171875
1759066364.9126866,-0.72412109375,0.0048828125,0.68603515625,0.3662109375,1.220703125,-0.67138671875,0.472412109375,47.109375,93.2574462890625
1759066364.9225805,-0.7236328125,0.005859375,0.68896484375,0.54931640625,0.91552734375,-0.79345703125,0.4669189453125,47.120361328125,93.2464599609375
1759066364.9325197,-0.7236328125,0.005859375,0.68896484375,0.54931640625,0.91552734375,-0.79345703125,0.4669189453125,47.1258544921875,93.2354736328125
1759066364.9426014,-0.72509765625,0.00634765625,0.68701171875,0.67138671875,0.6103515625,-1.03759765625,0.46142578125,47.1258544921875,93.2244873046875
1759066364.9592197,-0.72509765625,0.00634765625,0.68701171875,0.67138671875,0.6103515625,-1.03759765625,0.46142578125,47.13134765625,93.2080078125
1759066364.9655674,-0.72998046875,0.0087890625,0.68408203125,0.42724609375,0.42724609375,-1.15966796875,0.450439453125,47.13134765625,93.1915283203125
1759066364.9726183,-0.72998046875,0.0087890625,0.68408203125,0.42724609375,0.42724609375,-1.15966796875,0.4449462890625,47.1368408203125,93.175048828125
1759066364.9827218,-0.736328125,0.009765625,0.677734375,0.1220703125,0.48828125,-1.3427734375,0.4339599609375,47.1368408203125,93.1585693359375
1759066364.9993365,-0.736328125,0.009765625,0.677734375,0.1220703125,0.48828125,-1.3427734375,0.41748046875,47.142333984375,93.1365966796875
1759066365.0055165,-0.73974609375,0.0048828125,0.67578125,0.30517578125,0.732421875,-1.52587890625,0.406494140625,47.1478271484375,93.1146240234375
1759066365.0126343,-0.73974609375,0.0048828125,0.67578125,0.30517578125,0.732421875,-1.52587890625,0.3955078125,47.1533203125,93.0926513671875
1759066365.0226626,-0.73876953125,0.00048828125,0.67578125,1.15966796875,1.03759765625,-1.64794921875,0.3900146484375,47.164306640625,93.0706787109375
1759066365.0392866,-0.73876953125,0.00048828125,0.67578125,1.15966796875,1.03759765625,-1.64794921875,0.384521484375,47.17529296875,93.043212890625
1759066365.0458922,-0.7373046875,0.00244140625,0.677734375,2.38037109375,1.28173828125,-1.8310546875,0.3900146484375,47.186279296875,93.021240234375
1759066365.0527236,-0.7373046875,0.00244140625,0.677734375,2.38037109375,1.28173828125,-1.8310546875,0.3955078125,47.197265625,92.9937744140625
1759066365.0628355,-0.73486328125,0.00341796875,0.677734375,2.8076171875,1.40380859375,-1.77001953125,0.4010009765625,47.2137451171875,92.96630859375
1759066365.0789962,-0.73486328125,0.00341796875,0.677734375,2.8076171875,1.40380859375,-1.77001953125,0.4119873046875,47.2247314453125,92.9388427734375
1759066365.086169,-0.73681640625,0.00439453125,0.677734375,2.25830078125,1.40380859375,-1.5869140625,0.41748046875,47.2412109375,92.9168701171875
1759066365.0927505,-0.73681640625,0.00439453125,0.677734375,2.25830078125,1.40380859375,-1.5869140625,0.4229736328125,47.252197265625,92.8948974609375
1759066365.102839,-0.74169921875,0.00390625,0.673828125,1.46484375,1.46484375,-1.3427734375,0.4229736328125,47.2686767578125,92.8729248046875
1759066365.11777,-0.74169921875,0.00390625,0.673828125,1.46484375,1.46484375,-1.3427734375,0.4229736328125,47.28515625,92.8509521484375
1759066365.123871,-0.7548828125,0.0009765625,0.66455078125,1.953125,1.89208984375,-1.220703125,0.428466796875,47.3016357421875,92.83447265625
1759066365.1327991,-0.7548828125,0.0009765625,0.66455078125,1.953125,1.89208984375,-1.220703125,0.4339599609375,47.3236083984375,92.8179931640625
1759066365.1495214,-0.75634765625,-0.0048828125,0.6572265625,3.35693359375,2.44140625,-1.03759765625,0.4559326171875,47.35107421875,92.801513671875
1759066365.156061,-0.75634765625,-0.0048828125,0.6572265625,3.35693359375,2.44140625,-1.03759765625,0.4779052734375,47.3785400390625,92.7850341796875
1759066365.1628945,-0.75634765625,0.005859375,0.6533203125,2.50244140625,2.8076171875,-0.732421875,0.494384765625,47.4114990234375,92.7740478515625
1759066365.172878,-0.75634765625,0.005859375,0.6533203125,2.50244140625,2.8076171875,-0.732421875,0.5108642578125,47.43896484375,92.7630615234375
1759066365.1895761,-0.74658203125,0.021484375,0.6611328125,1.708984375,2.8076171875,-0.79345703125,0.516357421875,47.471923828125,92.7520751953125
1759066365.1956682,-0.74658203125,0.021484375,0.6611328125,1.708984375,2.8076171875,-0.79345703125,0.52734375,47.5048828125,92.7410888671875
1759066365.2028878,-0.73974609375,0.01416015625,0.67626953125,-0.42724609375,2.5634765625,-0.54931640625,0.516357421875,47.5323486328125,92.7301025390625
1759066365.2129123,-0.73974609375,0.01416015625,0.67626953125,-0.42724609375,2.5634765625,-0.54931640625,0.50537109375,47.5653076171875,92.724609375
1759066365.2259495,-0.72998046875,0.00439453125,0.68017578125,-2.44140625,2.13623046875,-0.244140625,0.4833984375,47.5872802734375,92.7191162109375
1759066365.2328908,-0.72998046875,0.00439453125,0.68017578125,-2.44140625,2.13623046875,-0.244140625,0.4559326171875,47.6092529296875,92.7191162109375
1759066365.2429554,-0.7275390625,-0.0029296875,0.6806640625,-1.708984375,1.708984375,-0.1220703125,0.439453125,47.625732421875,92.713623046875
1759066365.252925,-0.7275390625,-0.0029296875,0.6806640625,-1.708984375,1.708984375,-0.1220703125,0.41748046875,47.6422119140625,92.713623046875
1759066365.2673125,-0.7255859375,-0.005859375,0.68310546875,-0.244140625,1.15966796875,0.0,0.41748046875,47.65869140625,92.713623046875
1759066365.273404,-0.7255859375,-0.005859375,0.68310546875,-0.244140625,1.15966796875,0.0,0.4119873046875,47.6641845703125,92.713623046875
1759066365.2830021,-0.72314453125,-0.00146484375,0.68798828125,0.30517578125,0.67138671875,0.1220703125,0.41748046875,47.669677734375,92.713623046875
1759066365.2930596,-0.72314453125,-0.00146484375,0.68798828125,0.30517578125,0.67138671875,0.1220703125,0.4229736328125,47.6751708984375,92.7191162109375
1759066365.3062384,-0.72802734375,0.005859375,0.6875,-0.1220703125,0.30517578125,0.30517578125,0.4229736328125,47.6751708984375,92.7191162109375
1759066365.313072,-0.72802734375,0.005859375,0.6875,-0.1220703125,0.30517578125,0.30517578125,0.4229736328125,47.6751708984375,92.724609375
1759066365.3230257,-0.73681640625,0.0087890625,0.6767578125,-0.6103515625,0.244140625,0.30517578125,0.41748046875,47.6751708984375,92.7301025390625
1759066365.333088,-0.73681640625,0.0087890625,0.6767578125,-0.6103515625,0.244140625,0.30517578125,0.41748046875,47.6751708984375,92.7301025390625
1759066365.3460796,-0.740234375,0.0068359375,0.66943359375,-0.42724609375,0.30517578125,0.1220703125,0.4119873046875,47.6751708984375,92.7301025390625
1759066365.3530622,-0.740234375,0.0068359375,0.66943359375,-0.42724609375,0.30517578125,0.1220703125,0.4119873046875,47.6806640625,92.735595703125
1759066365.3631394,-0.7412109375,0.00732421875,0.67333984375,0.1220703125,0.48828125,-0.18310546875,0.406494140625,47.6806640625,92.7301025390625
1759066365.379348,-0.7412109375,0.00732421875,0.67333984375,0.1220703125,0.48828125,-0.18310546875,0.406494140625,47.6861572265625,92.724609375
1759066365.3858428,-0.73876953125,0.00927734375,0.67578125,0.18310546875,0.6103515625,-0.42724609375,0.406494140625,47.691650390625,92.7191162109375
1759066365.3930662,-0.73876953125,0.00927734375,0.67578125,0.18310546875,0.6103515625,-0.42724609375,0.4010009765625,47.691650390625,92.713623046875
1759066365.40936,-0.7392578125,0.00830078125,0.673828125,-0.244140625,0.67138671875,-0.54931640625,0.3955078125,47.6971435546875,92.70263671875
1759066365.4154463,-0.73779296875,0.00634765625,0.673828125,-0.48828125,0.8544921875,-0.79345703125,0.384521484375,47.70263671875,92.691650390625
1759066365.423157,-0.73779296875,0.00634765625,0.673828125,-0.48828125,0.8544921875,-0.79345703125,0.37353515625,47.713623046875,92.6806640625
1759066365.4333587,-0.73583984375,0.00537109375,0.6767578125,-0.42724609375,0.8544921875,-0.9765625,0.3570556640625,47.7191162109375,92.669677734375
1759066365.4462626,-0.73583984375,0.00537109375,0.6767578125,-0.42724609375,0.8544921875,-0.9765625,0.3460693359375,47.724609375,92.6531982421875
1759066365.453287,-0.73583984375,0.00341796875,0.68017578125,-0.18310546875,0.8544921875,-1.0986328125,0.32958984375,47.735595703125,92.6422119140625
1759066365.4635594,-0.73583984375,0.00341796875,0.68017578125,-0.18310546875,0.8544921875,-1.0986328125,0.318603515625,47.7410888671875,92.625732421875
1759066365.4738622,-0.73583984375,0.00146484375,0.6767578125,0.06103515625,0.8544921875,-1.220703125,0.3076171875,47.74658203125,92.603759765625
1759066365.483562,-0.73583984375,0.00146484375,0.6767578125,0.06103515625,0.8544921875,-1.220703125,0.296630859375,47.7520751953125,92.5872802734375
1759066365.4933395,-0.736328125,0.001953125,0.67236328125,0.9765625,0.79345703125,-1.3427734375,0.28564453125,47.7630615234375,92.57080078125
1759066365.5042667,-0.736328125,0.001953125,0.67236328125,0.9765625,0.79345703125,-1.3427734375,0.2801513671875,47.7685546875,92.548828125
1759066365.513394,-0.73583984375,0.0009765625,0.67529296875,1.953125,0.6103515625,-1.46484375,0.2801513671875,47.7740478515625,92.52685546875
1759066365.5236228,-0.73583984375,0.0009765625,0.67529296875,1.953125,0.6103515625,-1.46484375,0.28564453125,47.7740478515625,92.5048828125
1759066365.5333235,-0.73193359375,0.0,0.677734375,2.3193359375,0.30517578125,-1.40380859375,0.2911376953125,47.779541015625,92.48291015625
1759066365.5444365,-0.73193359375,0.0,0.677734375,2.3193359375,0.30517578125,-1.40380859375,0.296630859375,47.779541015625,92.4609375
1759066365.5533104,-0.73095703125,0.00048828125,0.68017578125,1.77001953125,-0.06103515625,-1.0986328125,0.3076171875,47.779541015625,92.43896484375
1759066365.5637262,-0.73095703125,0.00048828125,0.68017578125,1.77001953125,-0.06103515625,-1.0986328125,0.3076171875,47.7740478515625,92.4224853515625
1759066365.574598,-0.73388671875,0.0029296875,0.68115234375,0.79345703125,-0.42724609375,-0.67138671875,0.3131103515625,47.7685546875,92.4114990234375
1759066365.58545,-0.73388671875,0.0029296875,0.68115234375,0.79345703125,-0.42724609375,-0.67138671875,0.3131103515625,47.7630615234375,92.4005126953125
1759066365.5935876,-0.73828125,0.00244140625,0.67138671875,-0.244140625,-0.6103515625,-0.42724609375,0.3076171875,47.757568359375,92.3895263671875
1759066365.6037974,-0.73828125,0.00244140625,0.67138671875,-0.244140625,-0.6103515625,-0.42724609375,0.3021240234375,47.74658203125,92.384033203125
1759066365.6140268,-0.74169921875,0.00048828125,0.6689453125,-0.06103515625,-0.6103515625,-0.244140625,0.296630859375,47.7410888671875,92.3785400390625
1759066365.623972,-0.74169921875,0.00048828125,0.6689453125,-0.06103515625,-0.6103515625,-0.244140625,0.2911376953125,47.7301025390625,92.373046875
1759066365.6334026,-0.74169921875,-0.001953125,0.67333984375,0.30517578125,-0.54931640625,-0.244140625,0.2911376953125,47.724609375,92.3675537109375
1759066365.644901,-0.74169921875,-0.001953125,0.67333984375,0.30517578125,-0.54931640625,-0.244140625,0.2911376953125,47.7191162109375,92.362060546875
1759066365.6534343,-0.7421875,0.0,0.67333984375,0.54931640625,-0.3662109375,-0.1220703125,0.2911376953125,47.713623046875,92.3565673828125
1759066365.664054,-0.7421875,0.0,0.67333984375,0.54931640625,-0.3662109375,-0.1220703125,0.2911376953125,47.7081298828125,92.3565673828125
1759066365.6739323,-0.7421875,0.0048828125,0.6689453125,0.67138671875,-0.30517578125,-0.1220703125,0.296630859375,47.70263671875,92.35107421875
1759066365.684657,-0.7421875,0.0048828125,0.6689453125,0.67138671875,-0.30517578125,-0.1220703125,0.3021240234375,47.70263671875,92.35107421875
1759066365.6934803,-0.74169921875,0.00537109375,0.6728515625,0.06103515625,-0.244140625,0.0,0.3021240234375,47.6971435546875,92.3455810546875
1759066365.7042916,-0.74169921875,0.00537109375,0.6728515625,0.06103515625,-0.244140625,0.0,0.3021240234375,47.691650390625,92.3455810546875
1759066365.7138796,-0.74169921875,0.00439453125,0.67138671875,-0.9765625,-0.244140625,0.18310546875,0.296630859375,47.691650390625,92.3455810546875
1759066365.724738,-0.74169921875,0.00439453125,0.67138671875,-0.9765625,-0.244140625,0.18310546875,0.2911376953125,47.691650390625,92.3455810546875
1759066365.7334864,-0.74267578125,0.0029296875,0.66845703125,-1.15966796875,-0.244140625,0.30517578125,0.2801513671875,47.6861572265625,92.3455810546875
1759066365.7448509,-0.74267578125,0.0029296875,0.66845703125,-1.15966796875,-0.244140625,0.30517578125,0.274658203125,47.6861572265625,92.35107421875
1759066365.7539868,-0.74072265625,-0.0009765625,0.67041015625,-0.732421875,-0.30517578125,0.3662109375,0.2691650390625,47.6806640625,92.3565673828125
1759066365.7645757,-0.74072265625,-0.0009765625,0.67041015625,-0.732421875,-0.30517578125,0.3662109375,0.263671875,47.6806640625,92.3565673828125
1759066365.7736025,-0.73779296875,-0.0009765625,0.6748046875,-0.42724609375,-0.42724609375,0.48828125,0.263671875,47.6751708984375,92.362060546875
1759066365.7845576,-0.73779296875,-0.0009765625,0.6748046875,-0.42724609375,-0.42724609375,0.48828125,0.263671875,47.6751708984375,92.3675537109375
1759066365.7942913,-0.7373046875,0.001953125,0.67431640625,-0.3662109375,-0.54931640625,0.54931640625,0.263671875,47.669677734375,92.3785400390625
1759066365.8039584,-0.7373046875,0.001953125,0.67431640625,-0.3662109375,-0.54931640625,0.54931640625,0.263671875,47.6641845703125,92.384033203125
1759066365.8142188,-0.740234375,0.00390625,0.6728515625,-0.67138671875,-0.6103515625,0.6103515625,0.263671875,47.65869140625,92.39501953125
1759066365.8239625,-0.740234375,0.00390625,0.6728515625,-0.67138671875,-0.6103515625,0.6103515625,0.263671875,47.6531982421875,92.4005126953125
1759066365.8336494,-0.73876953125,0.00439453125,0.673828125,-1.0986328125,-0.732421875,0.67138671875,0.263671875,47.647705078125,92.4114990234375
1759066365.8439734,-0.73876953125,0.00439453125,0.673828125,-1.0986328125,-0.732421875,0.67138671875,0.2581787109375,47.63671875,92.4169921875
1759066365.8540487,-0.7392578125,0.001953125,0.67431640625,-0.9765625,-0.91552734375,0.732421875,0.252685546875,47.6312255859375,92.427978515625
1759066365.8640401,-0.7392578125,0.001953125,0.67431640625,-0.9765625,-0.91552734375,0.732421875,0.252685546875,47.6202392578125,92.43896484375
1759066365.8737242,-0.73779296875,0.0029296875,0.671875,-0.6103515625,-0.9765625,0.6103515625,0.252685546875,47.61474609375,92.449951171875
1759066365.8840678,-0.73779296875,0.0029296875,0.671875,-0.6103515625,-0.9765625,0.6103515625,0.252685546875,47.603759765625,92.4554443359375
1759066365.894849,-0.73974609375,0.001953125,0.67431640625,-0.3662109375,-1.03759765625,0.54931640625,0.252685546875,47.5927734375,92.4609375
1759066365.9040904,-0.73974609375,0.001953125,0.67431640625,-0.3662109375,-1.03759765625,0.54931640625,0.2581787109375,47.581787109375,92.471923828125
1759066365.9138048,-0.7412109375,0.0029296875,0.67822265625,-0.6103515625,-0.91552734375,0.6103515625,0.2581787109375,47.5762939453125,92.4774169921875
1759066365.924639,-0.7412109375,0.0029296875,0.67822265625,-0.6103515625,-0.91552734375,0.6103515625,0.2581787109375,47.5653076171875,92.4884033203125
1759066365.9337952,-0.7412109375,0.0029296875,0.67822265625,-0.732421875,-0.732421875,0.48828125,0.2581787109375,47.559814453125,92.493896484375
1759066365.9442394,-0.74072265625,0.00830078125,0.6728515625,-0.732421875,-0.732421875,0.48828125,0.252685546875,47.5543212890625,92.4993896484375
1759066365.9538515,-0.74072265625,0.00439453125,0.6708984375,-0.54931640625,-0.6103515625,0.48828125,0.252685546875,47.5433349609375,92.5048828125
1759066365.9643366,-0.74072265625,0.00439453125,0.6708984375,-0.54931640625,-0.6103515625,0.48828125,0.252685546875,47.5433349609375,92.5103759765625
1759066365.9738824,-0.740234375,0.00244140625,0.67333984375,-0.732421875,-0.3662109375,0.48828125,0.252685546875,47.537841796875,92.515869140625
1759066365.9842489,-0.740234375,0.00244140625,0.67333984375,-0.732421875,-0.3662109375,0.48828125,0.252685546875,47.5323486328125,92.5213623046875
1759066365.995527,-0.73779296875,0.00439453125,0.67529296875,-0.67138671875,-0.1220703125,0.54931640625,0.252685546875,47.5323486328125,92.5323486328125
1759066366.0041895,-0.73779296875,0.00439453125,0.67529296875,-0.67138671875,-0.1220703125,0.54931640625,0.2471923828125,47.5323486328125,92.537841796875
1759066366.0140042,-0.73876953125,0.0029296875,0.6787109375,-0.91552734375,0.0,0.54931640625,0.2471923828125,47.5323486328125,92.5433349609375
1759066366.0247083,-0.73876953125,0.0029296875,0.6787109375,-0.91552734375,0.0,0.54931640625,0.2471923828125,47.5323486328125,92.5543212890625
1759066366.0342913,-0.7392578125,0.00439453125,0.673828125,-1.89208984375,0.0,0.6103515625,0.2362060546875,47.5323486328125,92.559814453125
1759066366.044563,-0.7392578125,0.00439453125,0.673828125,-1.89208984375,0.0,0.6103515625,0.2252197265625,47.5323486328125,92.5653076171875
1759066366.055691,-0.74169921875,0.0009765625,0.6708984375,-2.74658203125,0.0,0.67138671875,0.208740234375,47.5323486328125,92.5762939453125
1759066366.0642529,-0.74169921875,0.0009765625,0.6708984375,-2.74658203125,0.0,0.67138671875,0.1922607421875,47.537841796875,92.581787109375
1759066366.0746682,-0.744140625,0.001953125,0.669921875,-2.5634765625,0.0,0.732421875,0.1702880859375,47.537841796875,92.5927734375
1759066366.08474,-0.744140625,0.001953125,0.669921875,-2.5634765625,0.0,0.732421875,0.15380859375,47.537841796875,92.603759765625
1759066366.0948217,-0.7451171875,-0.0009765625,0.66650390625,-1.708984375,0.1220703125,0.6103515625,0.142822265625,47.537841796875,92.61474609375
1759066366.104301,-0.7451171875,-0.0009765625,0.66650390625,-1.708984375,0.1220703125,0.6103515625,0.1318359375,47.5433349609375,92.6202392578125
1759066366.1156998,-0.74755859375,-0.00146484375,0.6650390625,-0.67138671875,0.1220703125,0.54931640625,0.1263427734375,47.5433349609375,92.6312255859375
1759066366.1243289,-0.74755859375,-0.00146484375,0.6650390625,-0.67138671875,0.1220703125,0.54931640625,0.1263427734375,47.548828125,92.63671875
1759066366.1348035,-0.74609375,0.00146484375,0.66455078125,0.3662109375,0.1220703125,0.54931640625,0.1318359375,47.548828125,92.647705078125
1759066366.145267,-0.74609375,0.00146484375,0.66455078125,0.3662109375,0.1220703125,0.54931640625,0.142822265625,47.5543212890625,92.6531982421875
1759066366.154771,-0.74365234375,0.00146484375,0.66748046875,0.3662109375,0.1220703125,0.48828125,0.1483154296875,47.559814453125,92.65869140625
1759066366.1644664,-0.74365234375,0.00146484375,0.66748046875,0.3662109375,0.1220703125,0.48828125,0.1593017578125,47.559814453125,92.669677734375
1759066366.1776059,-0.744140625,0.00146484375,0.669921875,-0.67138671875,0.0,0.67138671875,0.164794921875,47.5653076171875,92.6751708984375
1759066366.1858847,-0.744140625,0.00146484375,0.669921875,-0.67138671875,0.0,0.67138671875,0.164794921875,47.57080078125,92.6861572265625
1759066366.1956158,-0.74658203125,0.00439453125,0.66552734375,-0.8544921875,-0.06103515625,0.6103515625,0.164794921875,47.57080078125,92.6971435546875
1759066366.2049448,-0.74658203125,0.00439453125,0.66552734375,-0.8544921875,-0.06103515625,0.6103515625,0.1593017578125,47.57080078125,92.70263671875
1759066366.2146683,-0.74609375,0.0009765625,0.6630859375,-0.244140625,-0.1220703125,0.54931640625,0.1593017578125,47.5762939453125,92.713623046875
1759066366.2245073,-0.74609375,0.0009765625,0.6630859375,-0.244140625,-0.1220703125,0.54931640625,0.164794921875,47.5762939453125,92.7191162109375
1759066366.235747,-0.74560546875,0.00244140625,0.66748046875,-0.3662109375,0.0,0.54931640625,0.1702880859375,47.581787109375,92.7301025390625
1759066366.2446501,-0.74560546875,0.00244140625,0.66748046875,-0.3662109375,0.0,0.54931640625,0.1702880859375,47.581787109375,92.735595703125
1759066366.2542655,-0.74560546875,0.00244140625,0.66943359375,-0.732421875,0.06103515625,0.6103515625,0.1702880859375,47.5872802734375,92.74658203125
1759066366.264742,-0.74560546875,0.00244140625,0.66943359375,-0.732421875,0.06103515625,0.6103515625,0.1702880859375,47.5872802734375,92.7520751953125
1759066366.2742164,-0.74365234375,0.00146484375,0.66796875,-0.9765625,0.18310546875,0.6103515625,0.1702880859375,47.5927734375,92.7630615234375
1759066366.2848656,-0.74365234375,0.00146484375,0.66796875,-0.9765625,0.18310546875,0.6103515625,0.164794921875,47.5982666015625,92.7685546875
1759066366.2957757,-0.74462890625,0.00146484375,0.669921875,-0.79345703125,0.30517578125,0.6103515625,0.164794921875,47.603759765625,92.779541015625
1759066366.3044639,-0.74462890625,0.00146484375,0.669921875,-0.79345703125,0.30517578125,0.6103515625,0.164794921875,47.6092529296875,92.7850341796875
1759066366.3147879,-0.744140625,0.00146484375,0.66845703125,-1.03759765625,0.3662109375,0.67138671875,0.1593017578125,47.61474609375,92.7960205078125
1759066366.3245294,-0.744140625,0.00146484375,0.66845703125,-1.03759765625,0.3662109375,0.67138671875,0.1593017578125,47.625732421875,92.8070068359375
1759066366.3343372,-0.74365234375,0.00341796875,0.6689453125,-1.77001953125,0.54931640625,0.732421875,0.1483154296875,47.6312255859375,92.8179931640625
1759066366.3459108,-0.74365234375,0.00341796875,0.6689453125,-1.77001953125,0.54931640625,0.732421875,0.142822265625,47.63671875,92.8289794921875
1759066366.3543086,-0.7431640625,0.00048828125,0.671875,-1.64794921875,0.732421875,0.79345703125,0.1318359375,47.647705078125,92.83447265625
1759066366.364512,-0.7431640625,0.00048828125,0.671875,-1.64794921875,0.732421875,0.79345703125,0.1263427734375,47.65869140625,92.8509521484375
1759066366.3753521,-0.74169921875,-0.0009765625,0.67041015625,-1.46484375,0.732421875,0.91552734375,0.120849609375,47.6641845703125,92.8619384765625
1759066366.3844466,-0.74169921875,-0.0009765625,0.67041015625,-1.46484375,0.732421875,0.91552734375,0.1153564453125,47.6751708984375,92.8729248046875
1759066366.3958964,-0.7412109375,-0.0009765625,0.671875,-1.220703125,0.79345703125,0.91552734375,0.10986328125,47.6861572265625,92.8839111328125
1759066366.4049737,-0.7412109375,-0.0009765625,0.671875,-1.220703125,0.79345703125,0.91552734375,0.10986328125,47.6971435546875,92.900390625
1759066366.41446,-0.73974609375,0.0009765625,0.67138671875,-1.03759765625,0.732421875,0.9765625,0.10986328125,47.70263671875,92.911376953125
1759066366.4251325,-0.73974609375,0.0009765625,0.67138671875,-1.03759765625,0.732421875,0.9765625,0.10986328125,47.713623046875,92.9278564453125
1759066366.4346027,-0.73974609375,0.00146484375,0.67138671875,-1.28173828125,0.54931640625,1.03759765625,0.10986328125,47.7191162109375,92.9388427734375
1759066366.4450245,-0.73974609375,0.00146484375,0.67138671875,-1.28173828125,0.54931640625,1.03759765625,0.1043701171875,47.7301025390625,92.955322265625
1759066366.455344,-0.740234375,0.00244140625,0.6728515625,-1.77001953125,0.48828125,1.03759765625,0.098876953125,47.735595703125,92.9718017578125
1759066366.464993,-0.740234375,0.00244140625,0.6728515625,-1.77001953125,0.48828125,1.03759765625,0.0933837890625,47.7410888671875,92.9827880859375
1759066366.4757435,-0.73828125,0.00244140625,0.673828125,-1.46484375,0.48828125,0.91552734375,0.087890625,47.74658203125,92.999267578125
1759066366.48861,-0.73828125,0.00244140625,0.673828125,-1.46484375,0.48828125,0.91552734375,0.0823974609375,47.7520751953125,93.01025390625
1759066366.4962883,-0.73779296875,0.00048828125,0.677734375,-1.0986328125,0.42724609375,0.79345703125,0.0823974609375,47.7520751953125,93.021240234375
1759066366.5049942,-0.73779296875,0.00048828125,0.677734375,-1.0986328125,0.42724609375,0.79345703125,0.0823974609375,47.757568359375,93.0377197265625
1759066366.51605,-0.736328125,0.0009765625,0.67578125,-1.03759765625,0.3662109375,0.6103515625,0.076904296875,47.7630615234375,93.043212890625
1759066366.5258627,-0.736328125,0.0009765625,0.67578125,-1.03759765625,0.3662109375,0.6103515625,0.0714111328125,47.7630615234375,93.05419921875
1759066366.5345159,-0.73681640625,0.00244140625,0.6728515625,-0.79345703125,0.244140625,0.54931640625,0.0714111328125,47.7685546875,93.0596923828125
1759066366.5463102,-0.73681640625,0.00244140625,0.6728515625,-0.79345703125,0.244140625,0.54931640625,0.0714111328125,47.7685546875,93.0706787109375
1759066366.5547268,-0.73779296875,0.001953125,0.6767578125,-0.42724609375,0.244140625,0.42724609375,0.0714111328125,47.7685546875,93.076171875
1759066366.5645595,-0.73779296875,0.001953125,0.6767578125,-0.42724609375,0.244140625,0.42724609375,0.0714111328125,47.7740478515625,93.0816650390625
1759066366.575593,-0.73779296875,0.0,0.67822265625,0.0,0.30517578125,0.244140625,0.076904296875,47.7740478515625,93.087158203125
1759066366.5845666,-0.73779296875,0.0,0.67822265625,0.0,0.30517578125,0.244140625,0.076904296875,47.779541015625,93.087158203125
1759066366.5946345,-0.73681640625,0.00244140625,0.67333984375,0.244140625,0.244140625,0.18310546875,0.0823974609375,47.779541015625,93.0926513671875
1759066366.6050754,-0.73681640625,0.00244140625,0.67333984375,0.244140625,0.244140625,0.18310546875,0.087890625,47.779541015625,93.0926513671875
1759066366.6146572,-0.7392578125,0.00537109375,0.6748046875,-0.6103515625,0.244140625,0.06103515625,0.0823974609375,47.779541015625,93.09814453125
1759066366.6246643,-0.7392578125,0.00537109375,0.6748046875,-0.6103515625,0.244140625,0.06103515625,0.076904296875,47.7850341796875,93.09814453125
1759066366.6346462,-0.7392578125,0.00390625,0.67431640625,-2.0751953125,0.18310546875,0.18310546875,0.0604248046875,47.7850341796875,93.1036376953125
1759066366.6452148,-0.7392578125,0.00390625,0.67431640625,-2.0751953125,0.18310546875,0.18310546875,0.0384521484375,47.7850341796875,93.1036376953125
1759066366.654624,-0.740234375,-0.00048828125,0.671875,-2.5634765625,0.1220703125,0.244140625,0.0164794921875,47.7850341796875,93.109130859375
1759066366.664848,-0.740234375,-0.00048828125,0.671875,-2.5634765625,0.1220703125,0.244140625,0.0,47.7850341796875,93.1146240234375
1759066366.6755714,-0.73974609375,-0.00390625,0.6708984375,-1.89208984375,0.06103515625,0.18310546875,-0.010986328125,47.7850341796875,93.1201171875
1759066366.6846359,-0.73974609375,-0.00390625,0.6708984375,-1.89208984375,0.06103515625,0.18310546875,-0.0274658203125,47.7850341796875,93.1201171875
1759066366.6949418,-0.7421875,-0.0048828125,0.669921875,-1.0986328125,0.1220703125,0.18310546875,-0.0384521484375,47.7850341796875,93.1256103515625
1759066366.7049844,-0.7421875,-0.0048828125,0.669921875,-1.0986328125,0.1220703125,0.18310546875,-0.0494384765625,47.7850341796875,93.131103515625
1759066366.714792,-0.74462890625,-0.00390625,0.66552734375,0.0,0.30517578125,0.06103515625,-0.0439453125,47.79052734375,93.131103515625
1759066366.7247055,-0.74462890625,-0.00390625,0.66552734375,0.0,0.30517578125,0.06103515625,-0.0439453125,47.79052734375,93.131103515625
1759066366.734765,-0.74658203125,-0.00439453125,0.6669921875,1.28173828125,0.54931640625,-0.06103515625,-0.032958984375,47.7960205078125,93.131103515625
1759066366.7452853,-0.74658203125,-0.00439453125,0.6669921875,1.28173828125,0.54931640625,-0.06103515625,-0.02197265625,47.801513671875,93.131103515625
1759066366.7548187,-0.7470703125,-0.001953125,0.6669921875,2.25830078125,0.67138671875,-0.1220703125,0.0,47.8125,93.131103515625
1759066366.7650714,-0.7470703125,-0.001953125,0.6669921875,2.25830078125,0.67138671875,-0.1220703125,0.010986328125,47.8179931640625,93.1256103515625
1759066366.7758846,-0.74853515625,0.001953125,0.66748046875,1.8310546875,0.732421875,-0.1220703125,0.0274658203125,47.823486328125,93.1256103515625
1759066366.7847807,-0.74853515625,0.001953125,0.66748046875,1.8310546875,0.732421875,-0.1220703125,0.0439453125,47.83447265625,93.1256103515625
1759066366.7954364,-0.74658203125,0.00732421875,0.6669921875,0.244140625,0.79345703125,-0.06103515625,0.0439453125,47.845458984375,93.1256103515625
1759066366.8051095,-0.74658203125,0.00732421875,0.6669921875,0.244140625,0.79345703125,-0.06103515625,0.0494384765625,47.8509521484375,93.1256103515625
1759066366.815504,-0.74658203125,0.00439453125,0.66455078125,-1.220703125,0.6103515625,0.0,0.0384521484375,47.8619384765625,93.1256103515625
1759066366.8248117,-0.74658203125,0.00439453125,0.66455078125,-1.220703125,0.6103515625,0.0,0.02197265625,47.867431640625,93.1256103515625
1759066366.8355794,-0.74609375,-0.00146484375,0.66455078125,-1.8310546875,0.48828125,0.1220703125,0.0054931640625,47.8729248046875,93.1256103515625
1759066366.8454309,-0.74609375,-0.00146484375,0.66455078125,-1.8310546875,0.48828125,0.1220703125,-0.0054931640625,47.87841796875,93.131103515625
1759066366.8556,-0.7470703125,-0.00390625,0.666015625,-1.5869140625,0.30517578125,0.18310546875,-0.0164794921875,47.8839111328125,93.131103515625
1759066366.8652434,-0.7470703125,-0.00390625,0.666015625,-1.5869140625,0.30517578125,0.18310546875,-0.0274658203125,47.889404296875,93.1365966796875
1759066366.8765204,-0.748046875,-0.0029296875,0.662109375,-0.8544921875,0.244140625,0.1220703125,-0.0384521484375,47.8948974609375,93.1365966796875
1759066366.8849003,-0.748046875,-0.0029296875,0.662109375,-0.8544921875,0.244140625,0.1220703125,-0.0439453125,47.900390625,93.1365966796875
1759066366.8962245,-0.75048828125,-0.00048828125,0.66162109375,-0.244140625,0.30517578125,0.06103515625,-0.0439453125,47.900390625,93.14208984375
1759066366.905133,-0.75048828125,-0.00048828125,0.66162109375,-0.244140625,0.30517578125,0.06103515625,-0.0494384765625,47.9058837890625,93.14208984375
1759066366.9158168,-0.74951171875,0.00146484375,0.6640625,-0.06103515625,0.42724609375,0.0,-0.0494384765625,47.9168701171875,93.14208984375
1759066366.9251606,-0.74951171875,0.00146484375,0.6640625,-0.06103515625,0.42724609375,0.0,-0.0494384765625,47.92236328125,93.14208984375
1759066366.9356964,-0.74951171875,0.00146484375,0.6640625,0.1220703125,0.48828125,-0.06103515625,-0.0494384765625,47.9278564453125,93.14208984375
1759066366.9455245,-0.74853515625,0.0,0.66357421875,0.1220703125,0.48828125,-0.06103515625,-0.0494384765625,47.933349609375,93.14208984375
1759066366.9551747,-0.74609375,-0.00146484375,0.666015625,0.54931640625,0.48828125,-0.1220703125,-0.0439453125,47.9443359375,93.14208984375
1759066366.9652765,-0.74609375,-0.00146484375,0.666015625,0.54931640625,0.48828125,-0.1220703125,-0.0384521484375,47.9498291015625,93.1365966796875
1759066366.976577,-0.744140625,-0.001953125,0.6669921875,1.0986328125,0.48828125,-0.18310546875,-0.0274658203125,47.955322265625,93.1365966796875
1759066366.985017,-0.744140625,-0.001953125,0.6669921875,1.0986328125,0.48828125,-0.18310546875,-0.02197265625,47.96630859375,93.131103515625
1759066366.9960253,-0.74609375,-0.001953125,0.666015625,1.3427734375,0.3662109375,-0.1220703125,-0.010986328125,47.9718017578125,93.131103515625
1759066367.0051975,-0.74609375,-0.001953125,0.666015625,1.3427734375,0.3662109375,-0.1220703125,0.0,47.977294921875,93.131103515625
1759066367.0150578,-0.74609375,-0.001953125,0.666015625,1.15966796875,0.30517578125,-0.18310546875,0.0054931640625,47.9827880859375,93.1256103515625
1759066367.0250936,-0.74658203125,0.0009765625,0.6650390625,1.15966796875,0.30517578125,-0.18310546875,0.0164794921875,47.9827880859375,93.1256103515625
1759066367.0351603,-0.74658203125,0.00244140625,0.6669921875,0.8544921875,0.244140625,-0.244140625,0.02197265625,47.98828125,93.1201171875
1759066367.0456562,-0.74658203125,0.00244140625,0.6669921875,0.8544921875,0.244140625,-0.244140625,0.0274658203125,47.9937744140625,93.1146240234375
1759066367.055183,-0.74609375,0.00048828125,0.6669921875,0.79345703125,0.244140625,-0.244140625,0.032958984375,47.999267578125,93.109130859375
1759066367.0652485,-0.74609375,0.00048828125,0.6669921875,0.79345703125,0.244140625,0.0,0.0384521484375,47.999267578125,93.109130859375
1759066367.0753582,-0.74560546875,0.0,0.66455078125,0.48828125,0.1220703125,0.0,0.0439453125,48.0047607421875,93.109130859375
1759066367.0873706,-0.74560546875,0.0,0.66455078125,0.48828125,0.1220703125,0.0,0.0494384765625,48.0047607421875,93.109130859375
1759066367.0960093,-0.74609375,0.00048828125,0.66552734375,0.0,0.06103515625,0.0,0.0439453125,48.01025390625,93.109130859375
1759066367.1056654,-0.74609375,0.00048828125,0.66552734375,0.0,0.06103515625,0.0,0.0439453125,48.01025390625,93.109130859375
1759066367.1152678,-0.74365234375,0.0009765625,0.66845703125,-0.30517578125,0.0,0.0,0.0439453125,48.01025390625,93.109130859375
1759066367.1251779,-0.74365234375,0.0009765625,0.66845703125,-0.30517578125,0.0,0.0,0.0384521484375,48.0157470703125,93.109130859375
1759066367.1352856,-0.74365234375,0.0,0.66943359375,-0.79345703125,0.0,0.0,0.032958984375,48.0157470703125,93.109130859375
1759066367.1456397,-0.74365234375,0.0,0.66943359375,-0.79345703125,0.0,0.0,0.02197265625,48.0157470703125,93.109130859375
1759066367.1553237,-0.7431640625,-0.00146484375,0.66845703125,-0.54931640625,0.0,0.0,0.0164794921875,48.0157470703125,93.109130859375
1759066367.1653228,-0.7431640625,-0.00146484375,0.66845703125,-0.54931640625,0.0,0.0,0.010986328125,48.0157470703125,93.109130859375
1759066367.1760092,-0.744140625,-0.001953125,0.66943359375,-0.1220703125,0.0,0.0,0.010986328125,48.021240234375,93.109130859375
1759066367.1852477,-0.744140625,-0.001953125,0.66943359375,-0.1220703125,0.0,0.0,0.010986328125,48.021240234375,93.109130859375
1759066367.1955664,-0.744140625,-0.0009765625,0.66845703125,0.3662109375,0.1220703125,0.0,0.010986328125,48.021240234375,93.109130859375
1759066367.205454,-0.744140625,-0.0009765625,0.66845703125,0.3662109375,0.1220703125,0.0,0.0164794921875,48.021240234375,93.109130859375
1759066367.2153828,-0.7470703125,-0.00048828125,0.6669921875,0.54931640625,0.244140625,0.0,0.02197265625,48.0267333984375,93.109130859375
1759066367.225311,-0.7470703125,-0.00048828125,0.6669921875,0.54931640625,0.244140625,0.0,0.0274658203125,48.0267333984375,93.109130859375
1759066367.2354286,-0.7490234375,0.00048828125,0.6640625,0.3662109375,0.30517578125,0.0,0.0274658203125,48.0322265625,93.109130859375
1759066367.2457464,-0.7490234375,0.00048828125,0.6640625,0.3662109375,0.30517578125,0.0,0.032958984375,48.0377197265625,93.1036376953125
1759066367.2554264,-0.7490234375,0.0,0.6630859375,0.18310546875,0.3662109375,0.0,0.032958984375,48.043212890625,93.1036376953125
1759066367.265529,-0.7490234375,0.0,0.6630859375,0.18310546875,0.3662109375,0.0,0.0384521484375,48.0487060546875,93.1036376953125
1759066367.2759318,-0.74755859375,-0.00146484375,0.66162109375,0.0,0.30517578125,0.0,0.032958984375,48.0487060546875,93.1036376953125
1759066367.285385,-0.74755859375,-0.00146484375,0.66162109375,0.0,0.30517578125,0.0,0.032958984375,48.05419921875,93.1036376953125
1759066367.295778,-0.748046875,-0.0029296875,0.6630859375,-0.54931640625,0.244140625,0.42724609375,0.032958984375,48.0596923828125,93.109130859375
1759066367.3057728,-0.748046875,-0.0029296875,0.6630859375,-0.54931640625,0.244140625,0.42724609375,0.032958984375,48.065185546875,93.1201171875
1759066367.3155653,-0.74951171875,-0.001953125,0.6640625,-0.67138671875,0.244140625,0.67138671875,0.032958984375,48.065185546875,93.1256103515625
1759066367.3255665,-0.74951171875,-0.001953125,0.6640625,-0.67138671875,0.244140625,0.67138671875,0.032958984375,48.0706787109375,93.1365966796875
1759066367.3356209,-0.74853515625,-0.001953125,0.66455078125,-0.30517578125,0.3662109375,0.79345703125,0.0384521484375,48.076171875,93.1475830078125
1759066367.3460186,-0.74853515625,-0.001953125,0.66455078125,-0.30517578125,0.3662109375,0.79345703125,0.0439453125,48.0816650390625,93.1585693359375
1759066367.3556569,-0.74609375,0.00048828125,0.66796875,-0.30517578125,0.54931640625,0.79345703125,0.0494384765625,48.087158203125,93.1695556640625
1759066367.3656058,-0.74609375,0.00048828125,0.66796875,-0.30517578125,0.54931640625,0.79345703125,0.0494384765625,48.09814453125,93.18603515625
1759066367.376125,-0.7421875,0.00146484375,0.66748046875,0.1220703125,0.6103515625,0.67138671875,0.0604248046875,48.1036376953125,93.1915283203125
1759066367.3871932,-0.7421875,0.00146484375,0.66748046875,0.1220703125,0.6103515625,0.67138671875,0.06591796875,48.109130859375,93.2025146484375
1759066367.3962932,-0.7421875,0.0,0.67333984375,-0.06103515625,0.6103515625,0.67138671875,0.076904296875,48.1146240234375,93.2135009765625
1759066367.4060068,-0.7421875,0.0,0.67333984375,-0.06103515625,0.6103515625,0.67138671875,0.0823974609375,48.1256103515625,93.2244873046875
1759066367.4156897,-0.7412109375,0.00048828125,0.6708984375,-0.48828125,0.6103515625,0.67138671875,0.0823974609375,48.131103515625,93.2354736328125
1759066367.425567,-0.7412109375,0.00048828125,0.6708984375,-0.48828125,0.6103515625,0.67138671875,0.0823974609375,48.1365966796875,93.2464599609375
1759066367.4356706,-0.74365234375,0.0009765625,0.66748046875,-0.30517578125,0.48828125,0.6103515625,0.087890625,48.14208984375,93.251953125
1759066367.4460492,-0.74365234375,0.0009765625,0.66748046875,-0.30517578125,0.48828125,0.6103515625,0.087890625,48.1475830078125,93.262939453125
1759066367.455693,-0.74462890625,0.00244140625,0.6669921875,0.0,0.48828125,0.42724609375,0.0933837890625,48.1475830078125,93.2684326171875
1759066367.4660797,-0.74462890625,0.00244140625,0.6669921875,0.0,0.48828125,0.42724609375,0.098876953125,48.153076171875,93.27392578125
1759066367.4761736,-0.7431640625,0.001953125,0.6689453125,0.0,0.48828125,0.30517578125,0.1043701171875,48.1585693359375,93.2794189453125
1759066367.485584,-0.74462890625,0.00390625,0.669921875,0.0,0.48828125,0.06103515625,0.1043701171875,48.1640625,93.2794189453125
1759066367.4959562,-0.74462890625,0.00390625,0.669921875,0.0,0.48828125,0.06103515625,0.1043701171875,48.1695556640625,93.284912109375
1759066367.5060668,-0.74462890625,0.00390625,0.669921875,-0.06103515625,0.48828125,-0.06103515625,0.1043701171875,48.175048828125,93.284912109375
1759066367.5157669,-0.74365234375,0.00537109375,0.66650390625,-0.06103515625,0.48828125,-0.06103515625,0.1043701171875,48.175048828125,93.2794189453125
1759066367.5257,-0.74462890625,0.0029296875,0.66650390625,0.1220703125,0.48828125,-0.18310546875,0.1043701171875,48.1805419921875,93.2794189453125
1759066367.5357816,-0.74462890625,0.0029296875,0.66650390625,0.1220703125,0.48828125,-0.18310546875,0.1043701171875,48.18603515625,93.2794189453125
1759066367.5460613,-0.74462890625,-0.00146484375,0.66748046875,0.1220703125,0.6103515625,-0.1220703125,0.1043701171875,48.1915283203125,93.27392578125
1759066367.5558515,-0.74462890625,-0.00146484375,0.66748046875,0.1220703125,0.6103515625,-0.1220703125,0.1043701171875,48.197021484375,93.27392578125
1759066367.565734,-0.74169921875,-0.001953125,0.67138671875,0.244140625,0.6103515625,-0.06103515625,0.1043701171875,48.2025146484375,93.27392578125
1759066367.576277,-0.74169921875,-0.001953125,0.67138671875,0.244140625,0.6103515625,-0.06103515625,0.1043701171875,48.2080078125,93.27392578125
1759066367.585723,-0.74267578125,-0.0009765625,0.671875,0.18310546875,0.6103515625,0.06103515625,0.1043701171875,48.2135009765625,93.27392578125
1759066367.596065,-0.74267578125,-0.0009765625,0.671875,0.18310546875,0.6103515625,0.06103515625,0.10986328125,48.218994140625,93.27392578125
1759066367.6061225,-0.74560546875,0.001953125,0.66796875,-0.30517578125,0.6103515625,0.1220703125,0.10986328125,48.2244873046875,93.27392578125
1759066367.6159086,-0.74560546875,0.001953125,0.66796875,-0.30517578125,0.6103515625,0.1220703125,0.10986328125,48.2244873046875,93.27392578125
1759066367.6257849,-0.7490234375,0.00341796875,0.66162109375,-0.30517578125,0.67138671875,0.1220703125,0.1043701171875,48.22998046875,93.27392578125
1759066367.6359515,-0.7490234375,0.00341796875,0.66162109375,-0.30517578125,0.67138671875,0.1220703125,0.1043701171875,48.240966796875,93.2794189453125
1759066367.6461852,-0.75146484375,0.0,0.65966796875,-0.30517578125,0.79345703125,0.1220703125,0.1043701171875,48.2464599609375,93.2794189453125
1759066367.6559536,-0.75146484375,0.0,0.65966796875,-0.30517578125,0.79345703125,0.1220703125,0.098876953125,48.251953125,93.2794189453125
1759066367.6658413,-0.751953125,-0.00048828125,0.66015625,-0.244140625,0.79345703125,0.18310546875,0.098876953125,48.262939453125,93.284912109375
1759066367.676363,-0.751953125,-0.00048828125,0.66015625,-0.244140625,0.79345703125,0.18310546875,0.098876953125,48.2684326171875,93.284912109375
1759066367.685909,-0.7529296875,0.0,0.66015625,-0.3662109375,0.732421875,0.244140625,0.098876953125,48.2794189453125,93.2904052734375
1759066367.69597,-0.7529296875,0.0,0.66015625,-0.3662109375,0.732421875,0.244140625,0.098876953125,48.284912109375,93.2904052734375
1759066367.7062283,-0.75390625,0.00146484375,0.6552734375,-0.79345703125,0.732421875,0.18310546875,0.0933837890625,48.2904052734375,93.2958984375
1759066367.71607,-0.75390625,0.00146484375,0.6552734375,-0.79345703125,0.732421875,0.18310546875,0.087890625,48.3013916015625,93.2958984375
1759066367.7259245,-0.75390625,0.00048828125,0.65576171875,-1.03759765625,0.67138671875,0.244140625,0.0823974609375,48.3123779296875,93.3013916015625
1759066367.7361135,-0.75390625,0.00048828125,0.65576171875,-1.03759765625,0.67138671875,0.244140625,0.0714111328125,48.31787109375,93.3013916015625
1759066367.7462466,-0.7529296875,0.0,0.658203125,-1.220703125,0.54931640625,0.30517578125,0.06591796875,48.3233642578125,93.306884765625
1759066367.756088,-0.7529296875,0.0,0.658203125,-1.220703125,0.54931640625,0.30517578125,0.054931640625,48.3343505859375,93.3123779296875
1759066367.766617,-0.75244140625,0.0,0.65869140625,-0.9765625,0.42724609375,0.244140625,0.0494384765625,48.33984375,93.3123779296875
1759066367.776559,-0.75244140625,0.0,0.65869140625,-0.9765625,0.42724609375,0.244140625,0.0384521484375,48.3453369140625,93.31787109375
1759066367.7860076,-0.75048828125,-0.0009765625,0.65966796875,-0.6103515625,0.18310546875,0.244140625,0.032958984375,48.350830078125,93.31787109375
1759066367.796195,-0.75048828125,-0.0009765625,0.65966796875,-0.6103515625,0.18310546875,0.244140625,0.032958984375,48.3563232421875,93.3233642578125
1759066367.8062983,-0.74951171875,-0.00341796875,0.6591796875,-0.91552734375,0.0,0.30517578125,0.0274658203125,48.3563232421875,93.328857421875
1759066367.816177,-0.74951171875,-0.00341796875,0.6591796875,-0.91552734375,0.0,0.30517578125,0.02197265625,48.36181640625,93.3343505859375
1759066367.82605,-0.751953125,0.00146484375,0.6591796875,-0.91552734375,-0.30517578125,0.244140625,0.0164794921875,48.36181640625,93.3343505859375
1759066367.836171,-0.751953125,0.00146484375,0.6591796875,-0.91552734375,-0.30517578125,0.244140625,0.0054931640625,48.36181640625,93.33984375
1759066367.8464935,-0.7509765625,0.00048828125,0.65673828125,-0.732421875,-0.48828125,0.06103515625,0.0,48.3563232421875,93.3453369140625
1759066367.8562424,-0.7509765625,0.00048828125,0.65673828125,-0.732421875,-0.48828125,0.06103515625,0.0,48.3563232421875,93.3453369140625
1759066367.8661191,-0.75341796875,0.0009765625,0.66064453125,-0.06103515625,-0.6103515625,-0.1220703125,-0.0054931640625,48.350830078125,93.3453369140625
1759066367.8765752,-0.75341796875,0.0009765625,0.66064453125,-0.06103515625,-0.6103515625,-0.1220703125,-0.0054931640625,48.3453369140625,93.3453369140625
1759066367.8861773,-0.75439453125,0.0,0.6572265625,0.30517578125,-0.67138671875,-0.244140625,-0.0054931640625,48.3453369140625,93.33984375
1759066367.8962445,-0.75439453125,0.0,0.6572265625,0.30517578125,-0.67138671875,-0.244140625,-0.0054931640625,48.33984375,93.3343505859375
1759066367.9064043,-0.75439453125,0.001953125,0.6533203125,0.30517578125,-0.732421875,-0.42724609375,-0.0054931640625,48.3343505859375,93.328857421875
1759066367.9163232,-0.75439453125,0.001953125,0.6533203125,0.30517578125,-0.732421875,-0.42724609375,-0.0054931640625,48.328857421875,93.3233642578125
1759066367.9261956,-0.75244140625,0.001953125,0.6591796875,0.6103515625,-0.67138671875,-0.67138671875,-0.010986328125,48.3233642578125,93.31787109375
1759066367.9366136,-0.75244140625,0.001953125,0.6591796875,0.6103515625,-0.67138671875,-0.67138671875,-0.010986328125,48.3233642578125,93.306884765625
1759066367.9464593,-0.748046875,0.0,0.6650390625,0.732421875,-0.6103515625,-0.79345703125,-0.010986328125,48.31787109375,93.2958984375
1759066367.9563756,-0.748046875,0.0,0.6650390625,0.732421875,-0.6103515625,-0.79345703125,-0.010986328125,48.31787109375,93.2794189453125
1759066367.9662597,-0.74658203125,0.0,0.66552734375,0.732421875,-0.6103515625,-0.91552734375,-0.0164794921875,48.3123779296875,93.2684326171875
1759066367.9776797,-0.74658203125,0.0,0.66552734375,0.732421875,-0.6103515625,-0.91552734375,-0.0164794921875,48.306884765625,93.2574462890625
1759066367.9880416,-0.74560546875,-0.0009765625,0.666015625,0.9765625,-0.67138671875,-0.8544921875,-0.0164794921875,48.3013916015625,93.240966796875
1759066367.9972649,-0.74560546875,-0.0009765625,0.666015625,0.9765625,-0.67138671875,-0.8544921875,-0.0164794921875,48.2958984375,93.22998046875
1759066368.006382,-0.74658203125,-0.00244140625,0.6650390625,0.9765625,-0.67138671875,-0.8544921875,-0.0164794921875,48.2958984375,93.2135009765625
1759066368.0167413,-0.74658203125,-0.00244140625,0.6650390625,0.9765625,-0.67138671875,-0.8544921875,-0.0164794921875,48.2904052734375,93.2025146484375
1759066368.0264225,-0.74853515625,-0.0009765625,0.66357421875,0.8544921875,-0.6103515625,-0.79345703125,-0.0164794921875,48.284912109375,93.1915283203125
1759066368.0364673,-0.74853515625,-0.0009765625,0.66357421875,0.8544921875,-0.6103515625,-0.79345703125,-0.0164794921875,48.2794189453125,93.175048828125
1759066368.0469368,-0.74755859375,-0.00048828125,0.6650390625,0.91552734375,-0.48828125,-0.8544921875,-0.0164794921875,48.27392578125,93.1640625
1759066368.0565133,-0.74755859375,-0.00048828125,0.6650390625,0.91552734375,-0.48828125,-0.8544921875,-0.0164794921875,48.2684326171875,93.1475830078125
1759066368.0663948,-0.74755859375,0.0,0.66748046875,0.91552734375,-0.244140625,-0.79345703125,-0.0164794921875,48.2684326171875,93.1365966796875
1759066368.076855,-0.74755859375,0.0,0.66748046875,0.91552734375,-0.244140625,-0.79345703125,-0.0164794921875,48.2684326171875,93.1256103515625
1759066368.086441,-0.7451171875,-0.0009765625,0.66650390625,1.15966796875,-0.1220703125,-0.732421875,-0.0164794921875,48.2684326171875,93.1146240234375
1759066368.0964746,-0.7451171875,-0.0009765625,0.66650390625,1.15966796875,-0.1220703125,-0.732421875,-0.010986328125,48.262939453125,93.1036376953125
1759066368.1066618,-0.74169921875,-0.00146484375,0.67041015625,1.28173828125,-0.06103515625,-0.6103515625,-0.010986328125,48.262939453125,93.0926513671875
1759066368.1165185,-0.74169921875,-0.00146484375,0.67041015625,1.28173828125,-0.06103515625,-0.6103515625,-0.0054931640625,48.262939453125,93.0816650390625
1759066368.1264315,-0.74267578125,-0.00244140625,0.67138671875,0.79345703125,0.0,-0.3662109375,0.0,48.262939453125,93.076171875
1759066368.136619,-0.74267578125,-0.00244140625,0.67138671875,0.79345703125,0.0,-0.3662109375,0.0,48.262939453125,93.0706787109375
1759066368.1467319,-0.74560546875,-0.00146484375,0.66845703125,0.30517578125,0.0,-0.18310546875,0.0,48.262939453125,93.065185546875
1759066368.1565287,-0.74560546875,-0.00146484375,0.66845703125,0.30517578125,0.0,-0.18310546875,0.0,48.262939453125,93.0596923828125
1759066368.1666908,-0.74658203125,-0.00048828125,0.666015625,0.3662109375,0.06103515625,-0.18310546875,0.0,48.262939453125,93.0596923828125
1759066368.176922,-0.74658203125,-0.00048828125,0.666015625,0.3662109375,0.06103515625,-0.18310546875,0.0054931640625,48.262939453125,93.05419921875
1759066368.186537,-0.74755859375,-0.00048828125,0.6650390625,0.0,0.1220703125,-0.1220703125,0.0054931640625,48.262939453125,93.05419921875
1759066368.1967099,-0.74755859375,-0.00048828125,0.6650390625,0.0,0.1220703125,-0.1220703125,0.0,48.2684326171875,93.0487060546875
1759066368.206812,-0.74462890625,0.0,0.66455078125,0.0,0.06103515625,-0.1220703125,0.0,48.2684326171875,93.0487060546875
1759066368.2166584,-0.74462890625,0.0,0.66455078125,0.0,0.06103515625,-0.1220703125,0.0,48.2684326171875,93.043212890625
1759066368.226734,-0.744140625,-0.0029296875,0.66845703125,0.48828125,0.0,-0.06103515625,0.0,48.2684326171875,93.043212890625
1759066368.2368143,-0.744140625,-0.0029296875,0.66845703125,0.48828125,0.0,-0.06103515625,0.0,48.2684326171875,93.043212890625
1759066368.2467613,-0.7421875,-0.00341796875,0.6708984375,0.244140625,-0.244140625,0.0,0.0054931640625,48.262939453125,93.043212890625
1759066368.2566695,-0.7421875,-0.00341796875,0.6708984375,0.244140625,-0.244140625,0.0,0.0054931640625,48.262939453125,93.0377197265625
1759066368.2665725,-0.744140625,0.0,0.666015625,0.18310546875,-0.30517578125,0.0,0.0054931640625,48.2574462890625,93.0377197265625
1759066368.2773666,-0.744140625,0.0,0.666015625,0.18310546875,-0.30517578125,0.0,0.010986328125,48.2574462890625,93.0377197265625
1759066368.2881145,-0.74462890625,0.00146484375,0.666015625,0.18310546875,-0.3662109375,0.0,0.010986328125,48.251953125,93.0377197265625
1759066368.296846,-0.74462890625,0.00146484375,0.666015625,0.18310546875,-0.3662109375,0.0,0.010986328125,48.2464599609375,93.0377197265625
1759066368.306731,-0.74169921875,0.0009765625,0.671875,0.18310546875,-0.42724609375,-0.1220703125,0.010986328125,48.240966796875,93.0377197265625
1759066368.3172626,-0.74169921875,0.0009765625,0.671875,0.18310546875,-0.42724609375,-0.1220703125,0.010986328125,48.2354736328125,93.0322265625
1759066368.3266947,-0.7392578125,-0.0009765625,0.673828125,0.732421875,-0.48828125,-0.18310546875,0.0164794921875,48.22998046875,93.0322265625
1759066368.3368456,-0.7392578125,-0.0009765625,0.673828125,0.732421875,-0.48828125,-0.18310546875,0.02197265625,48.2244873046875,93.0267333984375
1759066368.3468597,-0.74072265625,-0.0009765625,0.67236328125,0.9765625,-0.48828125,-0.18310546875,0.0274658203125,48.218994140625,93.021240234375
1759066368.3567793,-0.74072265625,-0.0009765625,0.67236328125,0.9765625,-0.48828125,-0.18310546875,0.032958984375,48.2135009765625,93.021240234375
1759066368.3667057,-0.7392578125,0.00341796875,0.67041015625,0.91552734375,-0.6103515625,-0.244140625,0.0384521484375,48.2080078125,93.0157470703125
1759066368.3774316,-0.7392578125,0.00341796875,0.67041015625,0.91552734375,-0.6103515625,-0.244140625,0.0439453125,48.197021484375,93.01025390625
1759066368.3867393,-0.73486328125,0.001953125,0.67626953125,1.52587890625,-0.6103515625,-0.3662109375,0.054931640625,48.1915283203125,93.0047607421875
1759066368.3970335,-0.73486328125,0.001953125,0.67626953125,1.52587890625,-0.6103515625,-0.3662109375,0.06591796875,48.1805419921875,92.999267578125
1759066368.4070446,-0.7333984375,0.00341796875,0.68115234375,1.40380859375,-0.79345703125,-0.3662109375,0.076904296875,48.175048828125,92.9937744140625
1759066368.416849,-0.7333984375,0.00341796875,0.68115234375,1.40380859375,-0.79345703125,-0.3662109375,0.0823974609375,48.1640625,92.98828125
1759066368.4268649,-0.73779296875,0.00537109375,0.6806640625,-0.79345703125,-0.8544921875,-0.30517578125,0.0823974609375,48.153076171875,92.9827880859375
1759066368.4371276,-0.73779296875,0.00537109375,0.6806640625,-0.79345703125,-0.8544921875,-0.30517578125,0.0714111328125,48.14208984375,92.977294921875
1759066368.4469879,-0.7373046875,0.001953125,0.67724609375,-2.197265625,-0.9765625,-0.244140625,0.054931640625,48.131103515625,92.977294921875
1759066368.4568748,-0.7373046875,0.001953125,0.67724609375,-2.197265625,-0.9765625,-0.244140625,0.032958984375,48.1146240234375,92.9718017578125
1759066368.466832,-0.7392578125,-0.0029296875,0.67236328125,-1.953125,-0.9765625,-0.3662109375,0.010986328125,48.1036376953125,92.96630859375
1759066368.47748,-0.7392578125,-0.0029296875,0.67236328125,-1.953125,-0.9765625,-0.3662109375,-0.010986328125,48.0926513671875,92.9608154296875
1759066368.4868875,-0.73779296875,-0.00732421875,0.671875,0.06103515625,-1.0986328125,-0.54931640625,-0.02197265625,48.076171875,92.955322265625
1759066368.4975033,-0.73779296875,-0.00732421875,0.671875,0.06103515625,-1.0986328125,-0.54931640625,-0.0274658203125,48.065185546875,92.9443359375
1759066368.5071204,-0.73779296875,-0.00732421875,0.671875,1.46484375,-1.0986328125,-0.54931640625,-0.0274658203125,48.0487060546875,92.9388427734375
1759066368.516965,-0.7412109375,-0.0078125,0.67626953125,1.46484375,-1.0986328125,-0.54931640625,-0.0164794921875,48.0377197265625,92.9278564453125
1759066368.5269709,-0.7412109375,-0.00146484375,0.66845703125,2.197265625,-0.9765625,-0.6103515625,-0.0054931640625,48.0267333984375,92.92236328125
1759066368.5371425,-0.7412109375,-0.00146484375,0.66845703125,2.197265625,-0.9765625,-0.6103515625,0.0054931640625,48.01025390625,92.911376953125
1759066368.5476604,-0.7451171875,0.0009765625,0.67041015625,1.8310546875,-0.79345703125,-0.6103515625,0.0164794921875,48.0047607421875,92.900390625
1759066368.5569828,-0.7451171875,0.0009765625,0.67041015625,1.8310546875,-0.79345703125,-0.6103515625,0.0274658203125,47.9937744140625,92.889404296875
1759066368.5673082,-0.7421875,0.0009765625,0.6689453125,1.3427734375,-0.54931640625,-0.6103515625,0.032958984375,47.98828125,92.8839111328125
1759066368.5775707,-0.7421875,0.0009765625,0.6689453125,1.3427734375,-0.54931640625,-0.6103515625,0.0384521484375,47.977294921875,92.8729248046875
1759066368.5870483,-0.74267578125,-0.0009765625,0.67431640625,1.15966796875,-0.30517578125,-0.54931640625,0.0439453125,47.977294921875,92.8619384765625
1759066368.5971868,-0.74267578125,-0.0009765625,0.67431640625,1.15966796875,-0.30517578125,-0.54931640625,0.0494384765625,47.9718017578125,92.8509521484375
1759066368.6074405,-0.74072265625,-0.0009765625,0.67333984375,1.3427734375,-0.18310546875,-0.42724609375,0.054931640625,47.96630859375,92.845458984375
1759066368.6171312,-0.74072265625,-0.0009765625,0.67333984375,1.3427734375,-0.18310546875,-0.42724609375,0.06591796875,47.96630859375,92.8399658203125
1759066368.627032,-0.75244140625,0.001953125,0.671875,1.28173828125,-0.18310546875,-0.1220703125,0.0714111328125,47.9608154296875,92.83447265625
1759066368.6372223,-0.75244140625,0.001953125,0.671875,1.28173828125,-0.18310546875,-0.1220703125,0.0823974609375,47.9608154296875,92.83447265625
1759066368.6471913,-0.7470703125,0.0078125,0.6533203125,1.03759765625,-0.06103515625,-0.06103515625,0.0933837890625,47.9608154296875,92.8289794921875
1759066368.657116,-0.7470703125,0.0078125,0.6533203125,1.03759765625,-0.06103515625,-0.06103515625,0.1043701171875,47.9608154296875,92.8289794921875
1759066368.6670043,-0.75341796875,-0.00732421875,0.65576171875,1.77001953125,0.0,0.0,0.120849609375,47.9608154296875,92.8289794921875
1759066368.677591,-0.75341796875,-0.00732421875,0.65576171875,1.77001953125,0.0,0.0,0.1373291015625,47.9608154296875,92.8289794921875
1759066368.687177,-0.7578125,-0.00732421875,0.66064453125,2.50244140625,0.06103515625,0.244140625,0.164794921875,47.9608154296875,92.8289794921875
1759066368.697129,-0.7578125,-0.00732421875,0.66064453125,2.50244140625,0.06103515625,0.244140625,0.1922607421875,47.96630859375,92.83447265625
1759066368.707455,-0.7578125,-0.00244140625,0.65625,3.0517578125,0.0,0.18310546875,0.2197265625,47.96630859375,92.83447265625
1759066368.7173407,-0.7578125,-0.00244140625,0.65625,3.0517578125,0.0,0.18310546875,0.252685546875,47.9718017578125,92.83447265625
1759066368.7271743,-0.759765625,0.00146484375,0.6474609375,2.8076171875,0.06103515625,0.3662109375,0.2801513671875,47.977294921875,92.8399658203125
1759066368.73753,-0.759765625,0.00146484375,0.6474609375,2.8076171875,0.06103515625,0.3662109375,0.3076171875,47.9827880859375,92.845458984375
1759066368.7474208,-0.75732421875,0.005859375,0.65087890625,2.44140625,0.06103515625,0.42724609375,0.3350830078125,47.98828125,92.8509521484375
1759066368.7571876,-0.75732421875,0.005859375,0.65087890625,2.44140625,0.06103515625,0.42724609375,0.362548828125,47.98828125,92.8564453125
1759066368.7671695,-0.75732421875,0.005859375,0.658203125,1.0986328125,0.0,0.48828125,0.3790283203125,47.9937744140625,92.8619384765625
1759066368.7773159,-0.75732421875,0.005859375,0.658203125,1.0986328125,0.0,0.48828125,0.3900146484375,47.999267578125,92.867431640625
1759066368.787343,-0.7529296875,0.0048828125,0.6552734375,0.244140625,0.0,0.67138671875,0.4010009765625,48.0047607421875,92.87841796875
1759066368.7974174,-0.7529296875,0.0048828125,0.6552734375,0.244140625,0.0,0.67138671875,0.4119873046875,48.01025390625,92.8839111328125
1759066368.8076208,-0.75048828125,0.00341796875,0.6572265625,0.67138671875,-0.18310546875,0.79345703125,0.4229736328125,48.0157470703125,92.8948974609375
1759066368.817287,-0.75048828125,0.00341796875,0.6572265625,0.67138671875,-0.18310546875,0.79345703125,0.439453125,48.0157470703125,92.9058837890625
1759066368.8273818,-0.75634765625,0.0,0.6572265625,0.79345703125,-0.244140625,0.8544921875,0.450439453125,48.021240234375,92.9168701171875
1759066368.8377056,-0.75634765625,0.0,0.6572265625,0.79345703125,-0.244140625,0.8544921875,0.4669189453125,48.021240234375,92.933349609375
1759066368.847953,-0.755859375,-0.001953125,0.65283203125,0.8544921875,-0.18310546875,0.91552734375,0.4833984375,48.0267333984375,92.9443359375
1759066368.8572872,-0.755859375,-0.001953125,0.65283203125,0.8544921875,-0.18310546875,0.91552734375,0.4998779296875,48.0267333984375,92.955322265625
1759066368.8673964,-0.75341796875,0.00537109375,0.65673828125,2.9296875,-0.244140625,0.54931640625,0.5328369140625,48.0322265625,92.96630859375
1759066368.8776784,-0.75341796875,0.00537109375,0.65673828125,2.9296875,-0.244140625,0.54931640625,0.5657958984375,48.0377197265625,92.9718017578125
1759066368.8894331,-0.75,0.00634765625,0.662109375,3.84521484375,-0.18310546875,0.18310546875,0.604248046875,48.0377197265625,92.9718017578125
1759066368.8974218,-0.75,0.00634765625,0.662109375,3.84521484375,-0.18310546875,0.18310546875,0.6427001953125,48.043212890625,92.977294921875
1759066368.9076846,-0.74560546875,0.0087890625,0.666015625,3.41796875,-0.18310546875,0.244140625,0.6756591796875,48.043212890625,92.977294921875
1759066368.9174528,-0.74560546875,0.0087890625,0.666015625,3.41796875,-0.18310546875,0.244140625,0.714111328125,48.0487060546875,92.977294921875
1759066368.9275315,-0.744140625,0.01318359375,0.669921875,2.8076171875,-0.18310546875,0.244140625,0.7415771484375,48.0487060546875,92.9827880859375
1759066368.9379094,-0.744140625,0.01318359375,0.669921875,2.8076171875,-0.18310546875,0.244140625,0.76904296875,48.0487060546875,92.9827880859375
1759066368.9475594,-0.74365234375,0.01171875,0.66943359375,2.44140625,-0.244140625,0.244140625,0.7965087890625,48.0487060546875,92.98828125
1759066368.95742,-0.74365234375,0.01171875,0.66943359375,2.44140625,-0.244140625,0.244140625,0.823974609375,48.0487060546875,92.98828125
1759066368.9677227,-0.744140625,0.0087890625,0.66796875,1.8310546875,-0.3662109375,0.42724609375,0.8404541015625,48.0487060546875,92.9937744140625
1759066368.9781396,-0.744140625,0.0087890625,0.66796875,1.8310546875,-0.3662109375,0.42724609375,0.8624267578125,48.0487060546875,92.999267578125
1759066368.9875655,-0.74560546875,0.009765625,0.66552734375,1.46484375,-0.30517578125,0.48828125,0.8843994140625,48.0487060546875,93.01025390625
1759066368.9974775,-0.74560546875,0.009765625,0.66552734375,1.46484375,-0.30517578125,0.48828125,0.90087890625,48.0487060546875,93.0157470703125
1759066369.0078394,-0.7451171875,0.00830078125,0.666015625,1.89208984375,-0.244140625,0.48828125,0.9228515625,48.043212890625,93.021240234375
1759066369.017529,-0.7451171875,0.00830078125,0.666015625,1.89208984375,-0.244140625,0.48828125,0.94482421875,48.043212890625,93.0267333984375
1759066369.0277245,-0.7451171875,0.0078125,0.6689453125,2.25830078125,-0.1220703125,0.54931640625,0.9722900390625,48.043212890625,93.0377197265625
1759066369.0380082,-0.7451171875,0.0078125,0.6689453125,2.25830078125,-0.1220703125,0.54931640625,0.999755859375,48.043212890625,93.043212890625
1759066369.0477333,-0.74560546875,0.0107421875,0.66796875,2.0751953125,-0.1220703125,0.732421875,1.0272216796875,48.0487060546875,93.05419921875
1759066369.0575607,-0.74560546875,0.0107421875,0.66796875,2.0751953125,-0.1220703125,0.732421875,1.0546875,48.0487060546875,93.065185546875
1759066369.0676925,-0.74462890625,0.01416015625,0.66650390625,1.708984375,0.0,0.732421875,1.07666015625,48.0487060546875,93.076171875
1759066369.0781083,-0.74462890625,0.01416015625,0.66650390625,1.708984375,0.0,0.732421875,1.0986328125,48.0487060546875,93.087158203125
1759066369.0877054,-0.74560546875,0.015625,0.66845703125,1.8310546875,0.06103515625,0.732421875,1.1260986328125,48.0487060546875,93.0926513671875
1759066369.0977905,-0.74560546875,0.015625,0.66845703125,1.8310546875,0.06103515625,0.732421875,1.1480712890625,48.05419921875,93.1036376953125
1759066369.107914,-0.7451171875,0.01611328125,0.66796875,1.40380859375,0.1220703125,0.732421875,1.1700439453125,48.05419921875,93.1146240234375
1759066369.1176183,-0.7451171875,0.01611328125,0.66796875,1.40380859375,0.1220703125,0.732421875,1.1920166015625,48.05419921875,93.1256103515625
1759066369.127806,-0.74658203125,0.01513671875,0.66552734375,0.732421875,0.18310546875,0.79345703125,1.20849609375,48.0596923828125,93.1365966796875
1759066369.1381521,-0.74658203125,0.01513671875,0.66552734375,0.732421875,0.18310546875,0.79345703125,1.2249755859375,48.0596923828125,93.1475830078125
1759066369.1479502,-0.74658203125,0.017578125,0.6640625,0.42724609375,0.244140625,0.67138671875,1.2359619140625,48.065185546875,93.1585693359375
1759066369.157685,-0.74658203125,0.017578125,0.6640625,0.42724609375,0.244140625,0.67138671875,1.2469482421875,48.065185546875,93.1695556640625
1759066369.167906,-0.7451171875,0.0166015625,0.66650390625,0.91552734375,0.244140625,0.48828125,1.2579345703125,48.0706787109375,93.175048828125
1759066369.178054,-0.7451171875,0.0166015625,0.66650390625,0.91552734375,0.244140625,0.48828125,1.2744140625,48.076171875,93.1805419921875
1759066369.1882672,-0.744140625,0.01513671875,0.669921875,1.0986328125,0.30517578125,0.48828125,1.2908935546875,48.076171875,93.18603515625
1759066369.1977139,-0.744140625,0.01513671875,0.669921875,1.0986328125,0.30517578125,0.48828125,1.307373046875,48.0816650390625,93.197021484375
1759066369.2082012,-0.74267578125,0.01513671875,0.6708984375,1.0986328125,0.30517578125,0.3662109375,1.318359375,48.087158203125,93.2025146484375
1759066369.2178514,-0.74267578125,0.01513671875,0.6708984375,1.0986328125,0.30517578125,0.3662109375,1.3348388671875,48.087158203125,93.2080078125
1759066369.2279031,-0.7421875,0.015625,0.66845703125,1.46484375,0.30517578125,0.244140625,1.351318359375,48.0926513671875,93.2080078125
1759066369.2385004,-0.7421875,0.015625,0.66845703125,1.46484375,0.30517578125,0.244140625,1.3677978515625,48.0926513671875,93.2135009765625
1759066369.2479405,-0.74560546875,0.01806640625,0.66796875,1.52587890625,0.18310546875,0.18310546875,1.38427734375,48.09814453125,93.2135009765625
1759066369.2577887,-0.74560546875,0.01806640625,0.66796875,1.52587890625,0.18310546875,0.18310546875,1.4007568359375,48.09814453125,93.218994140625
1759066369.2678998,-0.744140625,0.02001953125,0.6630859375,1.5869140625,0.06103515625,0.0,1.417236328125,48.09814453125,93.218994140625
1759066369.2782784,-0.744140625,0.02001953125,0.6630859375,1.5869140625,0.06103515625,0.0,1.4337158203125,48.09814453125,93.218994140625
1759066369.287924,-0.744140625,0.01904296875,0.671875,1.5869140625,0.06103515625,0.0,1.4447021484375,48.09814453125,93.2135009765625
1759066369.2978604,-0.744140625,0.01904296875,0.671875,1.5869140625,0.06103515625,0.0,1.461181640625,48.1036376953125,93.2135009765625
1759066369.3082364,-0.74609375,0.01708984375,0.669921875,1.708984375,0.06103515625,-0.06103515625,1.4776611328125,48.1036376953125,93.2135009765625
1759066369.317839,-0.74609375,0.01708984375,0.669921875,1.708984375,0.06103515625,-0.06103515625,1.494140625,48.1036376953125,93.2135009765625
1759066369.327962,-0.7470703125,0.017578125,0.65966796875,2.197265625,0.0,-0.244140625,1.51611328125,48.1036376953125,93.2080078125
1759066369.33826,-0.7470703125,0.017578125,0.65966796875,2.197265625,0.0,-0.244140625,1.5325927734375,48.1036376953125,93.2025146484375
1759066369.3480818,-0.74658203125,0.01904296875,0.66259765625,2.50244140625,0.0,-0.30517578125,1.5545654296875,48.1036376953125,93.197021484375
1759066369.35794,-0.74658203125,0.01904296875,0.66259765625,2.50244140625,0.0,-0.30517578125,1.5765380859375,48.1036376953125,93.1915283203125
1759066369.3682983,-0.7451171875,0.0205078125,0.6689453125,2.13623046875,-0.06103515625,-0.30517578125,1.593017578125,48.1036376953125,93.18603515625
1759066369.3783777,-0.7451171875,0.0205078125,0.6689453125,2.13623046875,-0.06103515625,-0.30517578125,1.6094970703125,48.1036376953125,93.18603515625
1759066369.388061,-0.74560546875,0.02099609375,0.66796875,1.5869140625,-0.1220703125,-0.244140625,1.6204833984375,48.1036376953125,93.1805419921875
1759066369.3979716,-0.74560546875,0.02099609375,0.66796875,1.5869140625,-0.1220703125,-0.244140625,1.636962890625,48.1036376953125,93.175048828125
1759066369.4083717,-0.7470703125,0.02001953125,0.66552734375,0.8544921875,-0.06103515625,-0.1220703125,1.6424560546875,48.1036376953125,93.175048828125
1759066369.4179778,-0.7470703125,0.02001953125,0.66552734375,0.8544921875,-0.06103515625,-0.1220703125,1.64794921875,48.1036376953125,93.1695556640625
1759066369.428133,-0.7451171875,0.02099609375,0.66455078125,0.732421875,0.0,-0.1220703125,1.6534423828125,48.1036376953125,93.1695556640625
1759066369.438354,-0.7451171875,0.02099609375,0.66455078125,0.732421875,0.0,-0.1220703125,1.658935546875,48.1036376953125,93.1695556640625
1759066369.4480932,-0.74658203125,0.017578125,0.666015625,0.732421875,0.0,-0.06103515625,1.669921875,48.1036376953125,93.1695556640625
1759066369.458044,-0.74658203125,0.017578125,0.666015625,0.732421875,0.0,-0.06103515625,1.6754150390625,48.1036376953125,93.1640625
1759066369.4680638,-0.74462890625,0.02099609375,0.6640625,0.3662109375,-0.06103515625,0.0,1.6754150390625,48.1036376953125,93.1640625
1759066369.478576,-0.74462890625,0.02099609375,0.6640625,0.3662109375,-0.06103515625,0.0,1.680908203125,48.1036376953125,93.1640625
1759066369.4881701,-0.7431640625,0.0205078125,0.6728515625,0.1220703125,0.0,0.06103515625,1.680908203125,48.1036376953125,93.1640625
1759066369.4983222,-0.7431640625,0.0205078125,0.6728515625,0.1220703125,0.0,0.06103515625,1.6864013671875,48.1036376953125,93.1695556640625
1759066369.5085862,-0.74072265625,0.02099609375,0.67578125,-0.54931640625,-0.06103515625,0.3662109375,1.680908203125,48.1036376953125,93.175048828125
1759066369.5181727,-0.74072265625,0.02099609375,0.67578125,-0.54931640625,-0.06103515625,0.3662109375,1.680908203125,48.1036376953125,93.175048828125
1759066369.5282576,-0.74072265625,0.0166015625,0.671875,-0.79345703125,-0.06103515625,0.3662109375,1.6754150390625,48.1036376953125,93.1805419921875
1759066369.5384653,-0.74072265625,0.0166015625,0.671875,-0.79345703125,-0.06103515625,0.3662109375,1.6754150390625,48.1036376953125,93.18603515625
1759066369.5482504,-0.7421875,0.015625,0.67431640625,-1.0986328125,0.0,0.6103515625,1.669921875,48.1036376953125,93.197021484375
1759066369.558172,-0.744140625,0.02001953125,0.67138671875,-0.6103515625,0.06103515625,0.67138671875,1.6644287109375,48.09814453125,93.2080078125
1759066369.5682242,-0.744140625,0.02001953125,0.67138671875,-0.6103515625,0.06103515625,0.67138671875,1.669921875,48.09814453125,93.2135009765625
1759066369.5788016,-0.74609375,0.0185546875,0.66748046875,-1.03759765625,0.1220703125,0.732421875,1.669921875,48.09814453125,93.2244873046875
1759066369.5882466,-0.74609375,0.0185546875,0.66748046875,-1.03759765625,0.1220703125,0.732421875,1.6644287109375,48.09814453125,93.2354736328125
1759066369.598177,-0.74462890625,0.025390625,0.666015625,-1.46484375,0.3662109375,0.732421875,1.658935546875,48.1036376953125,93.2464599609375
1759066369.6086621,-0.74462890625,0.025390625,0.666015625,-1.46484375,0.3662109375,0.732421875,1.6534423828125,48.1036376953125,93.2574462890625
1759066369.6182203,-0.7451171875,0.02099609375,0.671875,-1.953125,0.54931640625,0.8544921875,1.64794921875,48.109130859375,93.2684326171875
1759066369.6283154,-0.7451171875,0.02099609375,0.671875,-1.953125,0.54931640625,0.8544921875,1.636962890625,48.1146240234375,93.284912109375
1759066369.638515,-0.7431640625,0.01806640625,0.67138671875,-2.25830078125,0.732421875,0.91552734375,1.6259765625,48.1201171875,93.2958984375
1759066369.6483908,-0.7431640625,0.01806640625,0.67138671875,-2.25830078125,0.732421875,0.91552734375,1.614990234375,48.1256103515625,93.3123779296875
1759066369.6582446,-0.74560546875,0.01806640625,0.6689453125,-3.11279296875,0.732421875,0.9765625,1.5985107421875,48.131103515625,93.328857421875
1759066369.6687229,-0.74560546875,0.01806640625,0.6689453125,-3.11279296875,0.732421875,0.9765625,1.58203125,48.1365966796875,93.33984375
1759066369.678881,-0.74609375,0.01953125,0.6650390625,-2.50244140625,0.732421875,0.9765625,1.5655517578125,48.14208984375,93.3563232421875
1759066369.6883676,-0.74609375,0.01953125,0.6650390625,-2.50244140625,0.732421875,0.9765625,1.549072265625,48.1475830078125,93.372802734375
1759066369.698308,-0.74951171875,0.01513671875,0.66015625,-0.9765625,0.79345703125,0.79345703125,1.5435791015625,48.1585693359375,93.3892822265625
1759066369.7088053,-0.74951171875,0.01513671875,0.66015625,-0.9765625,0.79345703125,0.79345703125,1.5435791015625,48.1640625,93.4002685546875
1759066369.7183676,-0.74951171875,0.013671875,0.6591796875,0.18310546875,0.79345703125,0.67138671875,1.549072265625,48.175048828125,93.4112548828125
1759066369.7286682,-0.74951171875,0.013671875,0.6591796875,0.18310546875,0.79345703125,0.67138671875,1.56005859375,48.1805419921875,93.4222412109375
1759066369.738599,-0.74951171875,0.01904296875,0.65869140625,0.732421875,0.67138671875,0.48828125,1.571044921875,48.18603515625,93.4332275390625
1759066369.7485347,-0.74951171875,0.01904296875,0.65869140625,0.732421875,0.67138671875,0.48828125,1.58203125,48.197021484375,93.438720703125
1759066369.7584038,-0.74951171875,0.02685546875,0.65966796875,-0.06103515625,0.54931640625,0.42724609375,1.593017578125,48.2025146484375,93.44970703125
1759066369.7684934,-0.74951171875,0.02685546875,0.65966796875,-0.06103515625,0.54931640625,0.42724609375,1.593017578125,48.2080078125,93.4552001953125
1759066369.7787125,-0.7490234375,0.0263671875,0.6611328125,-1.89208984375,0.30517578125,0.3662109375,1.593017578125,48.2135009765625,93.460693359375
1759066369.7887664,-0.7490234375,0.0263671875,0.6611328125,-1.89208984375,0.30517578125,0.3662109375,1.5765380859375,48.218994140625,93.4661865234375
1759066369.7984176,-0.74755859375,0.02197265625,0.6650390625,-2.44140625,0.244140625,0.244140625,1.56005859375,48.218994140625,93.4716796875
1759066369.8088276,-0.74755859375,0.02197265625,0.6650390625,-2.44140625,0.244140625,0.244140625,1.5380859375,48.2244873046875,93.4771728515625
1759066369.8186057,-0.7470703125,0.013671875,0.6650390625,-1.3427734375,0.18310546875,0.1220703125,1.527099609375,48.22998046875,93.482666015625
1759066369.82857,-0.7470703125,0.013671875,0.6650390625,-1.3427734375,0.18310546875,0.1220703125,1.51611328125,48.22998046875,93.482666015625
1759066369.838732,-0.74658203125,0.01025390625,0.66015625,0.18310546875,-0.06103515625,0.0,1.5106201171875,48.22998046875,93.4881591796875
1759066369.8485453,-0.74658203125,0.01025390625,0.66015625,0.18310546875,-0.06103515625,0.0,1.5106201171875,48.2354736328125,93.4881591796875
1759066369.858566,-0.74658203125,0.01220703125,0.66162109375,0.42724609375,-0.3662109375,0.1220703125,1.51611328125,48.22998046875,93.4881591796875
1759066369.8686533,-0.74658203125,0.01220703125,0.66162109375,0.42724609375,-0.3662109375,0.1220703125,1.5216064453125,48.22998046875,93.4881591796875
1759066369.8791096,-0.74609375,0.02099609375,0.66455078125,0.79345703125,-0.30517578125,0.0,1.527099609375,48.2244873046875,93.4881591796875
1759066369.8886833,-0.74609375,0.02099609375,0.66455078125,0.79345703125,-0.30517578125,0.0,1.5380859375,48.2244873046875,93.4881591796875
1759066369.8988814,-0.74609375,0.0224609375,0.669921875,1.220703125,-0.244140625,-0.18310546875,1.5435791015625,48.2244873046875,93.4881591796875
1759066369.9092247,-0.74609375,0.0224609375,0.669921875,1.220703125,-0.244140625,-0.18310546875,1.5545654296875,48.218994140625,93.4881591796875
1759066369.9185607,-0.744140625,0.021484375,0.6708984375,1.52587890625,-0.18310546875,-0.3662109375,1.5655517578125,48.218994140625,93.482666015625
1759066369.9287627,-0.744140625,0.021484375,0.6708984375,1.52587890625,-0.18310546875,-0.3662109375,1.5765380859375,48.218994140625,93.4771728515625
1759066369.9396002,-0.744140625,0.021484375,0.6708984375,1.28173828125,-0.244140625,-0.3662109375,1.5875244140625,48.218994140625,93.4716796875
1759066369.9487598,-0.7451171875,0.017578125,0.6689453125,1.28173828125,-0.244140625,-0.3662109375,1.5985107421875,48.2135009765625,93.4661865234375
1759066369.958671,-0.74755859375,0.02001953125,0.66455078125,0.6103515625,-0.30517578125,-0.42724609375,1.5985107421875,48.2135009765625,93.460693359375
1759066369.9686933,-0.74755859375,0.02001953125,0.66455078125,0.6103515625,-0.30517578125,-0.42724609375,1.60400390625,48.2080078125,93.44970703125
1759066369.9792461,-0.74462890625,0.0234375,0.6640625,0.18310546875,-0.06103515625,-0.3662109375,1.60400390625,48.2080078125,93.4442138671875
1759066369.9887168,-0.74462890625,0.0234375,0.6640625,0.18310546875,-0.06103515625,-0.3662109375,1.5985107421875,48.2080078125,93.4442138671875
1759066369.9989092,-0.740234375,0.0166015625,0.67431640625,0.54931640625,0.18310546875,0.0,1.60400390625,48.2080078125,93.438720703125
1759066370.0092669,-0.740234375,0.0166015625,0.67431640625,0.54931640625,0.18310546875,0.0,1.6094970703125,48.2080078125,93.438720703125
1759066370.0187616,-0.7373046875,-0.00390625,0.68408203125,1.64794921875,0.42724609375,0.3662109375,1.6204833984375,48.2135009765625,93.4442138671875
1759066370.028779,-0.7373046875,-0.00390625,0.68408203125,1.64794921875,0.42724609375,0.3662109375,1.6424560546875,48.2135009765625,93.44970703125
1759066370.038982,-0.73779296875,0.00439453125,0.6806640625,2.25830078125,0.54931640625,0.9765625,1.6644287109375,48.218994140625,93.460693359375
1759066370.048771,-0.73779296875,0.00439453125,0.6806640625,2.25830078125,0.54931640625,0.9765625,1.6973876953125,48.218994140625,93.4716796875
1759066370.0588045,-0.74365234375,0.02490234375,0.67724609375,2.685546875,0.6103515625,1.28173828125,1.7303466796875,48.2244873046875,93.4881591796875
1759066370.0687642,-0.74365234375,0.02490234375,0.67724609375,2.685546875,0.6103515625,1.28173828125,1.768798828125,48.22998046875,93.5101318359375
1759066370.0790992,-0.74658203125,0.0283203125,0.66943359375,1.28173828125,0.67138671875,1.3427734375,1.8017578125,48.22998046875,93.526611328125
1759066370.0892355,-0.74658203125,0.0283203125,0.66943359375,1.28173828125,0.67138671875,1.3427734375,1.82373046875,48.2354736328125,93.548583984375
1759066370.0989835,-0.7509765625,0.025390625,0.66064453125,-0.30517578125,0.732421875,1.40380859375,1.845703125,48.240966796875,93.570556640625
1759066370.109476,-0.7509765625,0.025390625,0.66064453125,-0.30517578125,0.732421875,1.40380859375,1.856689453125,48.2464599609375,93.5870361328125
1759066370.1188986,-0.75146484375,0.02099609375,0.65234375,-0.30517578125,0.67138671875,1.3427734375,1.86767578125,48.251953125,93.6090087890625
1759066370.129232,-0.75146484375,0.02099609375,0.65234375,-0.30517578125,0.67138671875,1.3427734375,1.878662109375,48.2574462890625,93.6309814453125
1759066370.1391916,-0.75439453125,0.02392578125,0.658203125,-0.3662109375,0.91552734375,1.220703125,1.8896484375,48.262939453125,93.6474609375
1759066370.1489985,-0.75439453125,0.02392578125,0.658203125,-0.3662109375,0.91552734375,1.220703125,1.8951416015625,48.27392578125,93.66943359375
1759066370.1589737,-0.75439453125,0.029296875,0.65771484375,-1.3427734375,1.0986328125,1.03759765625,1.900634765625,48.2794189453125,93.6859130859375
1759066370.1688995,-0.75439453125,0.029296875,0.65771484375,-1.3427734375,1.0986328125,1.03759765625,1.900634765625,48.2904052734375,93.702392578125
1759066370.1796944,-0.7509765625,0.0322265625,0.6552734375,-2.3193359375,1.0986328125,0.79345703125,1.8896484375,48.306884765625,93.71337890625
1759066370.1889112,-0.7509765625,0.0322265625,0.6552734375,-2.3193359375,1.0986328125,0.79345703125,1.878662109375,48.31787109375,93.7298583984375
1759066370.199045,-0.75,0.02392578125,0.65966796875,-2.99072265625,0.79345703125,0.6103515625,1.8621826171875,48.328857421875,93.7408447265625
1759066370.2091982,-0.75,0.02392578125,0.65966796875,-2.99072265625,0.79345703125,0.6103515625,1.8402099609375,48.3343505859375,93.7518310546875
1759066370.2190292,-0.74951171875,0.01806640625,0.65771484375,-3.11279296875,0.42724609375,0.6103515625,1.8182373046875,48.33984375,93.7628173828125
1759066370.2293048,-0.74951171875,0.01806640625,0.65771484375,-3.11279296875,0.42724609375,0.6103515625,1.7962646484375,48.3453369140625,93.768310546875
1759066370.2392669,-0.75048828125,0.01904296875,0.654296875,-2.5634765625,0.06103515625,0.54931640625,1.7742919921875,48.350830078125,93.779296875
1759066370.2492058,-0.75048828125,0.01904296875,0.654296875,-2.5634765625,0.06103515625,0.54931640625,1.7578125,48.350830078125,93.7847900390625
1759066370.2591333,-0.75146484375,0.02001953125,0.6533203125,-1.64794921875,-0.1220703125,0.42724609375,1.7413330078125,48.3563232421875,93.7957763671875
1759066370.269084,-0.75146484375,0.02001953125,0.6533203125,-1.64794921875,-0.1220703125,0.42724609375,1.7303466796875,48.3563232421875,93.80126953125
1759066370.2797968,-0.751953125,0.02099609375,0.658203125,-0.48828125,-0.1220703125,0.18310546875,1.724853515625,48.3563232421875,93.8067626953125
1759066370.2891417,-0.751953125,0.02099609375,0.658203125,-0.48828125,-0.1220703125,0.18310546875,1.7193603515625,48.3563232421875,93.812255859375
1759066370.299341,-0.74658203125,0.02001953125,0.66162109375,0.244140625,-0.244140625,0.0,1.724853515625,48.3563232421875,93.812255859375
1759066370.309295,-0.74658203125,0.02001953125,0.66162109375,0.244140625,-0.244140625,0.0,1.724853515625,48.3563232421875,93.812255859375
1759066370.3191254,-0.74609375,0.02001953125,0.6708984375,0.30517578125,-0.244140625,0.0,1.7303466796875,48.3563232421875,93.812255859375
1759066370.3291824,-0.74609375,0.02001953125,0.6708984375,0.30517578125,-0.244140625,0.0,1.7303466796875,48.3563232421875,93.812255859375
1759066370.3391476,-0.74609375,0.021484375,0.67041015625,-0.06103515625,-0.18310546875,0.0,1.73583984375,48.350830078125,93.812255859375
1759066370.3521338,-0.74609375,0.021484375,0.67041015625,-0.06103515625,-0.18310546875,0.0,1.73583984375,48.350830078125,93.812255859375
1759066370.3591611,-0.74755859375,0.02099609375,0.66748046875,-0.732421875,-0.06103515625,0.0,1.7303466796875,48.350830078125,93.8177490234375
1759066370.3692534,-0.74755859375,0.02099609375,0.66748046875,-0.732421875,-0.06103515625,0.0,1.724853515625,48.350830078125,93.8177490234375
1759066370.3800185,-0.74658203125,0.0166015625,0.666015625,-0.06103515625,0.1220703125,0.06103515625,1.7193603515625,48.350830078125,93.8177490234375
1759066370.3892465,-0.74658203125,0.0166015625,0.666015625,-0.06103515625,0.1220703125,0.06103515625,1.7193603515625,48.350830078125,93.8177490234375
1759066370.3993335,-0.74560546875,0.009765625,0.66357421875,2.13623046875,0.244140625,0.18310546875,1.73583984375,48.3563232421875,93.8232421875
1759066370.4122894,-0.74560546875,0.009765625,0.66357421875,2.13623046875,0.244140625,0.18310546875,1.7578125,48.3563232421875,93.8232421875
1759066370.4212096,-0.74609375,0.009765625,0.6611328125,3.23486328125,0.1220703125,0.48828125,1.7852783203125,48.36181640625,93.8287353515625
1759066370.4292731,-0.74609375,0.009765625,0.6611328125,3.23486328125,0.1220703125,0.48828125,1.82373046875,48.36181640625,93.834228515625
1759066370.4392905,-0.74755859375,0.0234375,0.66845703125,2.197265625,0.30517578125,0.91552734375,1.856689453125,48.36181640625,93.84521484375
1759066370.4498682,-0.74755859375,0.0234375,0.66845703125,2.197265625,0.30517578125,0.91552734375,1.8841552734375,48.3673095703125,93.8616943359375
1759066370.4593449,-0.74658203125,0.02734375,0.67529296875,0.3662109375,0.67138671875,1.15966796875,1.9061279296875,48.3673095703125,93.8726806640625
1759066370.4694247,-0.74658203125,0.02734375,0.67529296875,0.3662109375,0.67138671875,1.15966796875,1.922607421875,48.3782958984375,93.8946533203125
1759066370.480272,-0.74462890625,0.02734375,0.67626953125,-1.46484375,0.8544921875,1.220703125,1.9281005859375,48.3837890625,93.9111328125
1759066370.4894948,-0.74462890625,0.02734375,0.67626953125,-1.46484375,0.8544921875,1.220703125,1.9281005859375,48.3892822265625,93.9276123046875
1759066370.4997723,-0.74365234375,0.02685546875,0.67138671875,-3.11279296875,0.732421875,1.28173828125,1.9171142578125,48.394775390625,93.9495849609375
1759066370.5096054,-0.74365234375,0.02685546875,0.67138671875,-3.11279296875,0.732421875,1.28173828125,1.900634765625,48.4002685546875,93.966064453125
1759066370.519421,-0.74755859375,0.02490234375,0.666015625,-4.45556640625,0.6103515625,1.28173828125,1.878662109375,48.40576171875,93.988037109375
1759066370.5296555,-0.74755859375,0.02490234375,0.666015625,-4.45556640625,0.6103515625,1.28173828125,1.8511962890625,48.4112548828125,94.010009765625
1759066370.5394225,-0.748046875,0.0234375,0.66357421875,-4.7607421875,0.48828125,1.15966796875,1.8182373046875,48.4112548828125,94.0264892578125
1759066370.549992,-0.748046875,0.0234375,0.66357421875,-4.7607421875,0.48828125,1.15966796875,1.7852783203125,48.416748046875,94.04296875
1759066370.5594392,-0.74365234375,0.02685546875,0.67333984375,-5.2490234375,0.18310546875,1.0986328125,1.746826171875,48.416748046875,94.0594482421875
1759066370.5697381,-0.74365234375,0.02685546875,0.67333984375,-5.2490234375,0.18310546875,1.0986328125,1.7083740234375,48.416748046875,94.0814208984375
1759066370.5800688,-0.73876953125,0.01806640625,0.6748046875,-3.7841796875,-0.1220703125,0.732421875,1.680908203125,48.4112548828125,94.0924072265625
1759066370.5894766,-0.73876953125,0.01806640625,0.6748046875,-3.7841796875,-0.1220703125,0.732421875,1.6534423828125,48.4112548828125,94.1033935546875
1759066370.599661,-0.73095703125,0.00830078125,0.68896484375,-1.5869140625,-0.54931640625,0.54931640625,1.6424560546875,48.4002685546875,94.10888671875
1759066370.6100636,-0.73095703125,0.00830078125,0.68896484375,-1.5869140625,-0.54931640625,0.54931640625,1.636962890625,48.394775390625,94.119873046875
1759066370.6196663,-0.7197265625,0.01220703125,0.7216796875,0.30517578125,-1.3427734375,0.3662109375,1.6424560546875,48.372802734375,94.119873046875
1759066370.6296735,-0.7197265625,0.01220703125,0.7216796875,0.30517578125,-1.3427734375,0.3662109375,1.64794921875,48.3563232421875,94.1253662109375
1759066370.639648,-0.7275390625,0.0224609375,0.70751953125,-0.30517578125,-1.77001953125,0.42724609375,1.64794921875,48.328857421875,94.130859375
1759066370.65018,-0.7275390625,0.0224609375,0.70751953125,-0.30517578125,-1.77001953125,0.42724609375,1.64794921875,48.3013916015625,94.1363525390625
1759066370.6596885,-0.72509765625,0.029296875,0.71142578125,0.18310546875,-2.197265625,0.0,1.6534423828125,48.27392578125,94.1363525390625
1759066370.6697936,-0.72509765625,0.029296875,0.71142578125,0.18310546875,-2.197265625,0.0,1.6534423828125,48.240966796875,94.1363525390625
1759066370.6802669,-0.73095703125,0.01953125,0.697265625,0.54931640625,-2.44140625,-0.42724609375,1.6534423828125,48.2080078125,94.130859375
1759066370.6901588,-0.73095703125,0.01953125,0.697265625,0.54931640625,-2.44140625,-0.42724609375,1.6534423828125,48.175048828125,94.119873046875
1759066370.69985,-0.7294921875,0.015625,0.6923828125,-0.54931640625,-2.685546875,-0.6103515625,1.6424560546875,48.1365966796875,94.1143798828125
1759066370.7105968,-0.7294921875,0.015625,0.6923828125,-0.54931640625,-2.685546875,-0.6103515625,1.6259765625,48.1036376953125,94.1033935546875
1759066370.7201343,-0.74267578125,0.02587890625,0.6728515625,-0.9765625,-2.50244140625,-0.79345703125,1.6094970703125,48.0706787109375,94.0869140625
1759066370.7303638,-0.74267578125,0.02587890625,0.6728515625,-0.9765625,-2.50244140625,-0.79345703125,1.5875244140625,48.0377197265625,94.075927734375
1759066370.7401426,-0.740234375,0.02099609375,0.66357421875,0.48828125,-2.25830078125,-1.220703125,1.58203125,48.01025390625,94.0594482421875
1759066370.7507284,-0.740234375,0.02099609375,0.66357421875,0.48828125,-2.25830078125,-1.220703125,1.571044921875,47.9827880859375,94.0374755859375
1759066370.759926,-0.73828125,0.00830078125,0.64990234375,2.5634765625,-2.01416015625,-1.220703125,1.5875244140625,47.955322265625,94.02099609375
1759066370.7707112,-0.73828125,0.00830078125,0.64990234375,2.5634765625,-2.01416015625,-1.220703125,1.5985107421875,47.933349609375,94.0045166015625
1759066370.7811182,-0.74267578125,0.0029296875,0.65234375,5.31005859375,-1.77001953125,-0.9765625,1.636962890625,47.911376953125,93.988037109375
1759066370.7903824,-0.74267578125,0.0029296875,0.65234375,5.31005859375,-1.77001953125,-0.9765625,1.6754150390625,47.8948974609375,93.9715576171875
1759066370.8000178,-0.74169921875,0.0107421875,0.66650390625,8.056640625,-1.708984375,-0.732421875,1.746826171875,47.8729248046875,93.9605712890625
1759066370.8111925,-0.74169921875,0.0107421875,0.66650390625,8.056640625,-1.708984375,-0.732421875,1.812744140625,47.8564453125,93.9495849609375
1759066370.8199573,-0.74560546875,0.015625,0.65966796875,8.7890625,-1.5869140625,-0.42724609375,1.8951416015625,47.8399658203125,93.944091796875
1759066370.830917,-0.74560546875,0.015625,0.65966796875,8.7890625,-1.5869140625,-0.42724609375,1.9720458984375,47.823486328125,93.9385986328125
1759066370.8399603,-0.7529296875,0.02783203125,0.65380859375,7.26318359375,-1.52587890625,-0.30517578125,2.0379638671875,47.8125,93.93310546875
1759066370.8510013,-0.7529296875,0.02783203125,0.65380859375,7.26318359375,-1.52587890625,-0.30517578125,2.1038818359375,47.7960205078125,93.9276123046875
1759066370.8600392,-0.74609375,0.03564453125,0.654296875,5.0048828125,-1.708984375,-0.3662109375,2.142333984375,47.779541015625,93.922119140625
1759066370.8707507,-0.74609375,0.03564453125,0.654296875,5.0048828125,-1.708984375,-0.3662109375,2.186279296875,47.7685546875,93.9166259765625
1759066370.8810043,-0.74951171875,0.03173828125,0.6513671875,2.9296875,-1.40380859375,-0.1220703125,2.2137451171875,47.757568359375,93.9111328125
1759066370.8906476,-0.74951171875,0.03173828125,0.6513671875,2.9296875,-1.40380859375,-0.1220703125,2.2357177734375,47.74658203125,93.9111328125
1759066370.9001381,-0.74853515625,0.029296875,0.64697265625,1.5869140625,-1.15966796875,-0.06103515625,2.252197265625,47.735595703125,93.9111328125
1759066370.9114692,-0.74853515625,0.029296875,0.64697265625,1.5869140625,-1.15966796875,-0.06103515625,2.26318359375,47.7301025390625,93.9111328125
1759066370.9200678,-0.7451171875,0.02001953125,0.6669921875,2.685546875,-0.8544921875,-0.06103515625,2.2906494140625,47.724609375,93.9056396484375
1759066370.9300888,-0.7451171875,0.02001953125,0.6669921875,2.685546875,-0.8544921875,-0.06103515625,2.3126220703125,47.7191162109375,93.9056396484375
1759066370.9402382,-0.7451171875,0.02001953125,0.6669921875,4.57763671875,-0.91552734375,-0.244140625,2.3565673828125,47.713623046875,93.900146484375
1759066370.950454,-0.7314453125,0.0302734375,0.6767578125,4.57763671875,-0.91552734375,-0.244140625,2.39501953125,47.7081298828125,93.900146484375
1759066370.9601674,-0.728515625,0.02685546875,0.6826171875,6.28662109375,-1.03759765625,-0.42724609375,2.449951171875,47.70263671875,93.88916015625
1759066370.9703152,-0.728515625,0.02685546875,0.6826171875,6.28662109375,-1.03759765625,-0.42724609375,2.5048828125,47.691650390625,93.8836669921875
1759066370.9805691,-0.732421875,0.029296875,0.666015625,5.18798828125,-1.15966796875,-0.54931640625,2.548828125,47.6861572265625,93.878173828125
1759066370.990577,-0.732421875,0.029296875,0.666015625,5.18798828125,-1.15966796875,-0.54931640625,2.5927734375,47.6751708984375,93.8671875
1759066371.0004437,-0.72509765625,0.03466796875,0.6884765625,6.103515625,-1.28173828125,-0.8544921875,2.6422119140625,47.6641845703125,93.856201171875
1759066371.010757,-0.72509765625,0.03466796875,0.6884765625,6.103515625,-1.28173828125,-0.8544921875,2.691650390625,47.647705078125,93.8397216796875
1759066371.0202587,-0.7265625,0.0302734375,0.6865234375,6.103515625,-1.0986328125,-0.91552734375,2.7410888671875,47.63671875,93.8287353515625
1759066371.0301797,-0.7265625,0.0302734375,0.6865234375,6.103515625,-1.0986328125,-0.91552734375,2.7850341796875,47.625732421875,93.812255859375
1759066371.0402796,-0.73046875,0.0380859375,0.6826171875,3.96728515625,-1.0986328125,-1.0986328125,2.8125,47.61474609375,93.7957763671875
1759066371.050648,-0.73046875,0.0380859375,0.6826171875,3.96728515625,-1.0986328125,-1.0986328125,2.83447265625,47.603759765625,93.779296875
1759066371.0603397,-0.7392578125,0.04931640625,0.68017578125,1.15966796875,-0.9765625,-1.220703125,2.83447265625,47.5927734375,93.75732421875
1759066371.070699,-0.7392578125,0.04931640625,0.68017578125,1.15966796875,-0.9765625,-1.220703125,2.8289794921875,47.581787109375,93.7408447265625
1759066371.080846,-0.74462890625,0.0537109375,0.66015625,-0.9765625,-0.91552734375,-1.40380859375,2.8070068359375,47.57080078125,93.7188720703125
1759066371.0903018,-0.74462890625,0.0537109375,0.66015625,-0.9765625,-0.91552734375,-1.40380859375,2.7850341796875,47.5653076171875,93.6968994140625
1759066371.1005335,-0.75390625,0.041015625,0.65283203125,-2.50244140625,-0.732421875,-1.3427734375,2.74658203125,47.5543212890625,93.680419921875
1759066371.1108897,-0.75390625,0.041015625,0.65283203125,-2.50244140625,-0.732421875,-1.3427734375,2.7081298828125,47.548828125,93.658447265625
1759066371.1203341,-0.75439453125,0.03173828125,0.6552734375,-3.72314453125,-0.79345703125,-1.3427734375,2.65869140625,47.548828125,93.6419677734375
1759066371.1302657,-0.75439453125,0.03173828125,0.6552734375,-3.72314453125,-0.79345703125,-1.3427734375,2.6092529296875,47.5433349609375,93.6199951171875
1759066371.1405084,-0.75927734375,0.0234375,0.65234375,-3.90625,-0.732421875,-1.03759765625,2.559814453125,47.537841796875,93.6090087890625
1759066371.1506336,-0.75927734375,0.0234375,0.65234375,-3.90625,-0.732421875,-1.03759765625,2.515869140625,47.537841796875,93.592529296875
1759066371.1604793,-0.7578125,0.017578125,0.64404296875,-3.5400390625,-0.79345703125,-0.91552734375,2.471923828125,47.5323486328125,93.58154296875
1759066371.170348,-0.7578125,0.017578125,0.64404296875,-3.5400390625,-0.79345703125,-0.91552734375,2.427978515625,47.5323486328125,93.5650634765625
1759066371.1814554,-0.7646484375,0.01611328125,0.640625,-1.46484375,-0.67138671875,-0.8544921875,2.406005859375,47.5323486328125,93.5540771484375
1759066371.1904023,-0.7646484375,0.01611328125,0.640625,-1.46484375,-0.67138671875,-0.8544921875,2.3785400390625,47.5323486328125,93.5430908203125
1759066371.201199,-0.76416015625,0.01513671875,0.6357421875,1.708984375,-0.48828125,-0.91552734375,2.384033203125,47.537841796875,93.526611328125
1759066371.2110033,-0.76416015625,0.01513671875,0.6357421875,1.708984375,-0.48828125,-0.91552734375,2.39501953125,47.5433349609375,93.515625
1759066371.2208693,-0.7607421875,0.0146484375,0.64208984375,4.69970703125,-0.42724609375,-0.91552734375,2.427978515625,47.548828125,93.4991455078125
1759066371.2306433,-0.7607421875,0.0146484375,0.64208984375,4.69970703125,-0.42724609375,-0.91552734375,2.4609375,47.5543212890625,93.4881591796875
1759066371.2408605,-0.76220703125,0.0166015625,0.6474609375,6.4697265625,-0.1220703125,-0.79345703125,2.515869140625,47.559814453125,93.4716796875
1759066371.2507591,-0.76220703125,0.0166015625,0.6474609375,6.4697265625,-0.1220703125,-0.79345703125,2.57080078125,47.57080078125,93.460693359375
1759066371.2608852,-0.75732421875,0.02587890625,0.6474609375,8.056640625,0.0,-0.67138671875,2.63671875,47.581787109375,93.44970703125
1759066371.270454,-0.75732421875,0.02587890625,0.6474609375,8.056640625,0.0,-0.67138671875,2.7081298828125,47.5927734375,93.4442138671875
1759066371.2817037,-0.75,0.02880859375,0.666015625,9.033203125,0.0,-0.6103515625,2.7850341796875,47.603759765625,93.4332275390625
1759066371.290493,-0.75,0.02880859375,0.666015625,9.033203125,0.0,-0.6103515625,2.867431640625,47.61474609375,93.4222412109375
1759066371.3010345,-0.74365234375,0.03564453125,0.67041015625,7.2021484375,0.06103515625,-0.18310546875,2.933349609375,47.6202392578125,93.4222412109375
1759066371.3112853,-0.74365234375,0.03564453125,0.67041015625,7.2021484375,0.06103515625,-0.18310546875,2.999267578125,47.6312255859375,93.416748046875
1759066371.3211596,-0.73583984375,0.04296875,0.68017578125,4.39453125,0.0,0.06103515625,3.0377197265625,47.63671875,93.416748046875
1759066371.3308167,-0.73583984375,0.04296875,0.68017578125,4.39453125,0.0,0.06103515625,3.0816650390625,47.6422119140625,93.416748046875
1759066371.341313,-0.728515625,0.04638671875,0.68408203125,2.685546875,-0.1220703125,0.0,3.1036376953125,47.647705078125,93.416748046875
1759066371.3508964,-0.728515625,0.04638671875,0.68408203125,2.685546875,-0.1220703125,0.0,3.131103515625,47.647705078125,93.416748046875
1759066371.3605995,-0.7265625,0.03955078125,0.6884765625,2.13623046875,-0.06103515625,0.0,3.1475830078125,47.6531982421875,93.416748046875
1759066371.3708477,-0.7265625,0.03955078125,0.6884765625,2.13623046875,-0.06103515625,0.0,3.1695556640625,47.6531982421875,93.416748046875
1759066371.3810463,-0.728515625,0.03759765625,0.6904296875,1.40380859375,-0.06103515625,0.0,3.1805419921875,47.6531982421875,93.416748046875
1759066371.3906045,-0.728515625,0.03759765625,0.6904296875,1.40380859375,-0.06103515625,0.0,3.1915283203125,47.6531982421875,93.416748046875
1759066371.4009843,-0.7275390625,0.04345703125,0.68408203125,1.40380859375,0.0,-0.244140625,3.2025146484375,47.6531982421875,93.4112548828125
1759066371.41132,-0.7275390625,0.04345703125,0.68408203125,1.40380859375,0.0,-0.244140625,3.2135009765625,47.6531982421875,93.4112548828125
1759066371.420723,-0.72705078125,0.0419921875,0.67578125,2.01416015625,-0.1220703125,-0.54931640625,3.2244873046875,47.647705078125,93.4002685546875
1759066371.4309232,-0.72705078125,0.0419921875,0.67578125,2.01416015625,-0.1220703125,-0.54931640625,3.240966796875,47.647705078125,93.394775390625
1759066371.4408176,-0.72998046875,0.03955078125,0.6845703125,2.25830078125,-0.244140625,-0.8544921875,3.251953125,47.6422119140625,93.3782958984375
1759066371.4510531,-0.72998046875,0.03955078125,0.6845703125,2.25830078125,-0.244140625,-0.8544921875,3.2684326171875,47.6422119140625,93.3673095703125
1759066371.460827,-0.73046875,0.0400390625,0.68701171875,2.9296875,-0.30517578125,-1.15966796875,3.2794189453125,47.63671875,93.350830078125
1759066371.470786,-0.73046875,0.0400390625,0.68701171875,2.9296875,-0.30517578125,-1.15966796875,3.2958984375,47.6312255859375,93.328857421875
1759066371.4812863,-0.73291015625,0.0400390625,0.67138671875,3.5400390625,-0.3662109375,-1.40380859375,3.31787109375,47.625732421875,93.3123779296875
1759066371.4908373,-0.73291015625,0.0400390625,0.67138671875,3.5400390625,-0.3662109375,-1.40380859375,3.3343505859375,47.6202392578125,93.2904052734375
1759066371.5010028,-0.73193359375,0.03955078125,0.66650390625,4.82177734375,-0.54931640625,-1.5869140625,3.3673095703125,47.61474609375,93.262939453125
1759066371.5114002,-0.73193359375,0.03955078125,0.66650390625,4.82177734375,-0.54931640625,-1.5869140625,3.394775390625,47.603759765625,93.240966796875
1759066371.520848,-0.736328125,0.03125,0.67138671875,7.14111328125,-0.732421875,-1.77001953125,3.4442138671875,47.5982666015625,93.2135009765625
1759066371.531206,-0.736328125,0.03125,0.67138671875,7.14111328125,-0.732421875,-1.77001953125,3.49365234375,47.5927734375,93.18603515625
1759066371.5409498,-0.73681640625,0.0263671875,0.67431640625,10.3759765625,-0.732421875,-1.953125,3.5760498046875,47.581787109375,93.1585693359375
1759066371.5512683,-0.73681640625,0.0263671875,0.67431640625,10.3759765625,-0.732421875,-1.953125,3.6529541015625,47.5762939453125,93.1256103515625
1759066371.5609288,-0.7353515625,0.03369140625,0.66552734375,12.5732421875,-0.54931640625,-2.13623046875,3.7518310546875,47.57080078125,93.0926513671875
1759066371.5714228,-0.7353515625,0.03369140625,0.66552734375,12.5732421875,-0.54931640625,-2.13623046875,3.84521484375,47.5653076171875,93.0596923828125
1759066371.5819998,-0.7314453125,0.0439453125,0.66943359375,15.5029296875,-0.42724609375,-2.25830078125,3.9715576171875,47.5653076171875,93.0267333984375
1759066371.5915513,-0.72607421875,0.04052734375,0.6748046875,17.88330078125,-0.48828125,-2.197265625,4.10888671875,47.559814453125,92.9937744140625
1759066371.601358,-0.72607421875,0.04052734375,0.6748046875,17.88330078125,-0.48828125,-2.197265625,4.2572021484375,47.5543212890625,92.9608154296875
1759066371.6123493,-0.73291015625,0.04345703125,0.68017578125,18.24951171875,-0.54931640625,-2.01416015625,4.405517578125,47.548828125,92.9278564453125
1759066371.6212447,-0.73291015625,0.04345703125,0.68017578125,18.24951171875,-0.54931640625,-2.01416015625,4.559326171875,47.5433349609375,92.8948974609375
1759066371.6320796,-0.7431640625,0.05810546875,0.67138671875,17.08984375,-0.54931640625,-1.953125,4.7076416015625,47.537841796875,92.867431640625
1759066371.64128,-0.7431640625,0.05810546875,0.67138671875,17.08984375,-0.54931640625,-1.953125,4.844970703125,47.537841796875,92.83447265625
1759066371.652047,-0.74755859375,0.0712890625,0.66796875,14.83154296875,-0.42724609375,-1.953125,4.976806640625,47.5323486328125,92.8070068359375
1759066371.6612005,-0.74755859375,0.0712890625,0.66796875,14.83154296875,-0.42724609375,-1.953125,5.09765625,47.52685546875,92.7740478515625
1759066371.6714501,-0.744140625,0.07763671875,0.6611328125,13.3056640625,-0.3662109375,-1.77001953125,5.20751953125,47.52685546875,92.74658203125
1759066371.6814837,-0.744140625,0.07763671875,0.6611328125,13.3056640625,-0.3662109375,-1.77001953125,5.3173828125,47.52685546875,92.7191162109375
1759066371.6918516,-0.74267578125,0.06982421875,0.66455078125,10.07080078125,-0.42724609375,-1.40380859375,5.4107666015625,47.5213623046875,92.691650390625
1759066371.7012537,-0.74267578125,0.06982421875,0.66455078125,10.07080078125,-0.42724609375,-1.40380859375,5.4931640625,47.5213623046875,92.669677734375
1759066371.7125158,-0.73779296875,0.06591796875,0.67919921875,7.38525390625,-0.48828125,-0.8544921875,5.55908203125,47.5213623046875,92.6531982421875
1759066371.7212057,-0.73779296875,0.06591796875,0.67919921875,7.38525390625,-0.48828125,-0.8544921875,5.6195068359375,47.515869140625,92.6422119140625
1759066371.732215,-0.7353515625,0.06640625,0.67236328125,6.591796875,-0.42724609375,-0.54931640625,5.679931640625,47.515869140625,92.6312255859375
1759066371.7424073,-0.7353515625,0.06640625,0.67236328125,6.591796875,-0.42724609375,-0.54931640625,5.73486328125,47.5103759765625,92.6202392578125
1759066371.7525556,-0.736328125,0.0654296875,0.669921875,7.080078125,-0.3662109375,-0.42724609375,5.789794921875,47.5048828125,92.6092529296875
1759066371.7611182,-0.736328125,0.0654296875,0.669921875,7.080078125,-0.3662109375,-0.42724609375,5.855712890625,47.5048828125,92.603759765625
1759066371.7713299,-0.7353515625,0.0673828125,0.6728515625,7.01904296875,-0.244140625,-0.30517578125,5.9161376953125,47.5048828125,92.5982666015625
1759066371.7817235,-0.7353515625,0.0673828125,0.6728515625,7.01904296875,-0.244140625,-0.30517578125,5.9765625,47.4993896484375,92.5927734375
1759066371.7914164,-0.736328125,0.072265625,0.6728515625,6.4697265625,-0.1220703125,-0.30517578125,6.0369873046875,47.4993896484375,92.581787109375
1759066371.8017032,-0.736328125,0.072265625,0.6728515625,6.4697265625,-0.1220703125,-0.30517578125,6.0919189453125,47.4993896484375,92.5762939453125
1759066371.81792,-0.73486328125,0.0791015625,0.6728515625,5.9814453125,-0.06103515625,-0.30517578125,6.1468505859375,47.4993896484375,92.57080078125
1759066371.8244812,-0.73486328125,0.0791015625,0.6728515625,5.9814453125,-0.06103515625,-0.30517578125,6.2017822265625,47.4993896484375,92.5653076171875
1759066371.8311923,-0.7373046875,0.07861328125,0.67333984375,4.82177734375,0.0,-0.3662109375,6.2457275390625,47.4993896484375,92.559814453125
1759066371.84767,-0.7373046875,0.07861328125,0.67333984375,4.82177734375,0.0,-0.3662109375,6.2896728515625,47.4993896484375,92.5543212890625
1759066371.8543012,-0.73974609375,0.08056640625,0.67041015625,3.2958984375,0.06103515625,-0.3662109375,6.3226318359375,47.4993896484375,92.548828125
1759066371.8612366,-0.73974609375,0.08056640625,0.67041015625,3.2958984375,0.06103515625,-0.3662109375,6.35009765625,47.4993896484375,92.5433349609375
1759066371.871535,-0.74072265625,0.08349609375,0.66650390625,2.8076171875,0.0,-0.42724609375,6.3720703125,47.4993896484375,92.537841796875
1759066371.884887,-0.74072265625,0.08349609375,0.66650390625,2.8076171875,0.0,-0.42724609375,6.39404296875,47.4993896484375,92.5323486328125
1759066371.8927112,-0.7392578125,0.07958984375,0.66650390625,2.44140625,0.0,-0.48828125,6.416015625,47.5048828125,92.5213623046875
1759066371.9016619,-0.7392578125,0.07958984375,0.66650390625,2.44140625,0.0,-0.48828125,6.43798828125,47.5048828125,92.515869140625
1759066371.9120283,-0.7431640625,0.07666015625,0.6650390625,2.86865234375,0.0,-0.48828125,6.4544677734375,47.5048828125,92.5103759765625
1759066371.9216077,-0.7431640625,0.07666015625,0.6650390625,2.86865234375,0.0,-0.48828125,6.4764404296875,47.5048828125,92.4993896484375
1759066371.9313946,-0.74560546875,0.06982421875,0.6611328125,3.90625,0.0,-0.54931640625,6.50390625,47.5103759765625,92.493896484375
1759066371.9420652,-0.74560546875,0.06982421875,0.6611328125,3.90625,0.0,-0.54931640625,6.536865234375,47.5103759765625,92.48291015625
1759066371.9515738,-0.74658203125,0.06591796875,0.65771484375,5.06591796875,0.0,-0.6103515625,6.5753173828125,47.5103759765625,92.471923828125
1759066371.9614758,-0.74658203125,0.06591796875,0.65771484375,5.06591796875,0.0,-0.6103515625,6.6192626953125,47.515869140625,92.4609375
1759066371.9714231,-0.74462890625,0.05712890625,0.6513671875,9.82666015625,0.0,-0.732421875,6.6796875,47.515869140625,92.449951171875
1759066371.9820733,-0.74462890625,0.05712890625,0.6513671875,9.82666015625,0.0,-0.732421875,6.767578125,47.5213623046875,92.43896484375
1759066371.992221,-0.75,0.1484375,0.65380859375,10.8642578125,-0.06103515625,-1.8310546875,6.85546875,47.52685546875,92.4169921875
1759066372.0017154,-0.75,0.1484375,0.65380859375,10.8642578125,-0.06103515625,-1.8310546875,6.943359375,47.5323486328125,92.3895263671875
1759066372.0132756,-0.75390625,0.076171875,0.70263671875,-0.1220703125,0.0,0.6103515625,6.9873046875,47.537841796875,92.384033203125
1759066372.0221715,-0.75390625,0.076171875,0.70263671875,-0.1220703125,0.0,0.6103515625,6.998291015625,47.537841796875,92.3895263671875
1759066372.0319102,-0.75,0.08349609375,0.6484375,1.77001953125,-0.06103515625,-1.0986328125,7.0037841796875,47.537841796875,92.384033203125
1759066372.042731,-0.75,0.08349609375,0.6484375,1.77001953125,-0.06103515625,-1.0986328125,7.00927734375,47.5433349609375,92.3675537109375
1759066372.051881,-0.7568359375,0.09375,0.64599609375,-1.28173828125,-0.244140625,-0.48828125,7.0037841796875,47.5433349609375,92.3565673828125
1759066372.062138,-0.7568359375,0.09375,0.64599609375,-1.28173828125,-0.244140625,-0.48828125,6.9873046875,47.548828125,92.3455810546875
1759066372.0715888,-0.75634765625,0.09130859375,0.662109375,-2.197265625,-0.244140625,-0.18310546875,6.96533203125,47.548828125,92.340087890625
1759066372.0828102,-0.75634765625,0.09130859375,0.662109375,-2.197265625,-0.244140625,-0.18310546875,6.943359375,47.5543212890625,92.340087890625
1759066372.09226,-0.75830078125,0.08984375,0.65576171875,-1.64794921875,-0.30517578125,-0.244140625,6.9268798828125,47.5543212890625,92.3345947265625
1759066372.1024008,-0.75830078125,0.08984375,0.65576171875,-1.64794921875,-0.30517578125,-0.244140625,6.910400390625,47.559814453125,92.3291015625
1759066372.1121361,-0.7607421875,0.083984375,0.6474609375,-2.38037109375,-0.3662109375,-0.1220703125,6.888427734375,47.559814453125,92.3291015625
1759066372.1222727,-0.7607421875,0.083984375,0.6474609375,-2.38037109375,-0.3662109375,-0.1220703125,6.866455078125,47.559814453125,92.3236083984375
1759066372.1316743,-0.7568359375,0.08349609375,0.65283203125,-1.89208984375,-0.3662109375,-0.18310546875,6.8499755859375,47.5653076171875,92.318115234375
1759066372.1433403,-0.7568359375,0.08349609375,0.65283203125,-1.89208984375,-0.3662109375,-0.18310546875,6.8280029296875,47.5653076171875,92.318115234375
1759066372.1519978,-0.75390625,0.0849609375,0.6572265625,0.1220703125,-0.244140625,-0.244140625,6.822509765625,47.57080078125,92.3126220703125
1759066372.1622708,-0.75390625,0.0849609375,0.6572265625,0.1220703125,-0.244140625,-0.244140625,6.822509765625,47.5762939453125,92.30712890625
1759066372.171828,-0.751953125,0.08154296875,0.65869140625,0.42724609375,-0.18310546875,-0.06103515625,6.8280029296875,47.581787109375,92.3016357421875
1759066372.182886,-0.751953125,0.08154296875,0.65869140625,0.42724609375,-0.18310546875,-0.06103515625,6.83349609375,47.5872802734375,92.3016357421875
1759066372.192202,-0.74951171875,0.08251953125,0.66552734375,-0.18310546875,-0.06103515625,0.06103515625,6.8389892578125,47.5927734375,92.3016357421875
1759066372.2023435,-0.74951171875,0.08251953125,0.66552734375,-0.18310546875,-0.06103515625,0.06103515625,6.8389892578125,47.5982666015625,92.3016357421875
1759066372.2122228,-0.74658203125,0.08544921875,0.66552734375,-1.15966796875,-0.1220703125,0.18310546875,6.8389892578125,47.5982666015625,92.3016357421875
1759066372.2219152,-0.74658203125,0.08544921875,0.66552734375,-1.15966796875,-0.1220703125,0.18310546875,6.83349609375,47.603759765625,92.3016357421875
1759066372.2320082,-0.7470703125,0.08544921875,0.66455078125,-2.50244140625,-0.1220703125,0.30517578125,6.8170166015625,47.6092529296875,92.30712890625
1759066372.2429793,-0.7470703125,0.08544921875,0.66455078125,-2.50244140625,-0.1220703125,0.30517578125,6.800537109375,47.6092529296875,92.30712890625
1759066372.2520883,-0.7470703125,0.08544921875,0.66455078125,-2.74658203125,-0.1220703125,0.3662109375,6.778564453125,47.61474609375,92.3126220703125
