timestamp,acc_x,acc_y,acc_z,gyro_x,gyro_y,gyro_z,angle_x,angle_y,angle_z
1760837699.8009334,-0.54296875,-0.029296875,0.841796875,0.0,-0.3662109375,0.244140625,-1.5380859375,32.662353515625,177.1929931640625
1760837699.8092275,-0.5458984375,-0.02685546875,0.83984375,0.42724609375,-0.42724609375,0.3662109375,-1.5380859375,32.6568603515625,177.198486328125
1760837699.8197443,-0.5458984375,-0.02685546875,0.83984375,0.42724609375,-0.42724609375,0.3662109375,-1.5325927734375,32.6568603515625,177.2039794921875
1760837699.8302798,-0.54296875,-0.02294921875,0.84326171875,1.28173828125,-0.54931640625,0.3662109375,-1.5216064453125,32.6513671875,177.20947265625
1760837699.8408575,-0.54296875,-0.02294921875,0.84326171875,1.28173828125,-0.54931640625,0.3662109375,-1.505126953125,32.6458740234375,177.2149658203125
1760837699.8496075,-0.54150390625,-0.02001953125,0.8466796875,0.91552734375,-0.67138671875,0.30517578125,-1.494140625,32.640380859375,177.2149658203125
1760837699.8593366,-0.54150390625,-0.02001953125,0.8466796875,0.91552734375,-0.67138671875,0.30517578125,-1.483154296875,32.6348876953125,177.220458984375
1760837699.8692245,-0.54052734375,-0.01611328125,0.84716796875,0.30517578125,-0.54931640625,0.244140625,-1.4776611328125,32.6348876953125,177.2259521484375
1760837699.8791685,-0.54052734375,-0.01611328125,0.84716796875,0.30517578125,-0.54931640625,0.244140625,-1.47216796875,32.62939453125,177.2314453125
1760837699.8892405,-0.5400390625,-0.01904296875,0.84228515625,-0.244140625,-0.30517578125,0.244140625,-1.47216796875,32.6239013671875,177.2314453125
1760837699.8991678,-0.5400390625,-0.01904296875,0.84228515625,-0.244140625,-0.30517578125,0.244140625,-1.47216796875,32.6239013671875,177.2369384765625
1760837699.9087892,-0.53857421875,-0.0244140625,0.8447265625,-0.06103515625,-0.1220703125,0.1220703125,-1.47216796875,32.618408203125,177.242431640625
1760837699.9188237,-0.53857421875,-0.0244140625,0.8447265625,-0.06103515625,-0.1220703125,0.1220703125,-1.47216796875,32.618408203125,177.242431640625
1760837699.9287515,-0.5341796875,-0.02001953125,0.84765625,0.0,-0.18310546875,0.0,-1.47216796875,32.618408203125,177.242431640625
1760837699.939177,-0.5341796875,-0.02001953125,0.84765625,0.0,-0.18310546875,0.0,-1.47216796875,32.618408203125,177.2369384765625
1760837699.9491742,-0.537109375,-0.01806640625,0.85595703125,-0.1220703125,-0.3662109375,-0.1220703125,-1.47216796875,32.6129150390625,177.2369384765625
1760837699.9589105,-0.537109375,-0.01806640625,0.85595703125,-0.1220703125,-0.3662109375,-0.1220703125,-1.47216796875,32.607421875,177.2314453125
1760837699.9688704,-0.53759765625,-0.0205078125,0.84521484375,-0.54931640625,-0.3662109375,-0.18310546875,-1.4776611328125,32.607421875,177.2259521484375
1760837699.9788597,-0.53759765625,-0.0205078125,0.84521484375,-0.54931640625,-0.3662109375,-0.18310546875,-1.483154296875,32.6019287109375,177.2259521484375
1760837699.9888926,-0.53759765625,-0.025390625,0.84228515625,-0.42724609375,-0.3662109375,-0.06103515625,-1.4886474609375,32.596435546875,177.220458984375
1760837699.99888,-0.53759765625,-0.025390625,0.84228515625,-0.42724609375,-0.3662109375,-0.06103515625,-1.494140625,32.5909423828125,177.220458984375
1760837700.0088584,-0.5400390625,-0.02490234375,0.849609375,-0.42724609375,-0.48828125,0.0,-1.4996337890625,32.5909423828125,177.220458984375
1760837700.0188775,-0.5400390625,-0.02490234375,0.849609375,-0.42724609375,-0.48828125,0.0,-1.4996337890625,32.58544921875,177.220458984375
1760837700.0288906,-0.54052734375,-0.01953125,0.84130859375,-0.30517578125,-0.42724609375,0.0,-1.505126953125,32.5799560546875,177.220458984375
1760837700.0389037,-0.54052734375,-0.01953125,0.84130859375,-0.30517578125,-0.42724609375,0.0,-1.5106201171875,32.574462890625,177.220458984375
1760837700.0489295,-0.54443359375,-0.02294921875,0.84814453125,-0.244140625,-0.48828125,0.06103515625,-1.5106201171875,32.5689697265625,177.220458984375
1760837700.0589347,-0.54443359375,-0.02294921875,0.84814453125,-0.244140625,-0.48828125,0.06103515625,-1.5106201171875,32.5634765625,177.220458984375
1760837700.0690072,-0.54296875,-0.02685546875,0.8427734375,-0.06103515625,-0.48828125,0.1220703125,-1.5106201171875,32.5579833984375,177.220458984375
1760837700.0789683,-0.54296875,-0.02685546875,0.8427734375,-0.06103515625,-0.48828125,0.1220703125,-1.5106201171875,32.552490234375,177.220458984375
1760837700.0890865,-0.54345703125,-0.025390625,0.83740234375,0.1220703125,-0.3662109375,0.18310546875,-1.5106201171875,32.552490234375,177.2259521484375
1760837700.0990124,-0.54345703125,-0.025390625,0.83740234375,0.1220703125,-0.3662109375,0.18310546875,-1.5106201171875,32.5469970703125,177.2259521484375
1760837700.1090012,-0.54345703125,-0.0224609375,0.84423828125,0.1220703125,-0.244140625,0.244140625,-1.505126953125,32.5469970703125,177.2314453125
1760837700.1190104,-0.54345703125,-0.0224609375,0.84423828125,0.1220703125,-0.244140625,0.244140625,-1.505126953125,32.54150390625,177.2314453125
1760837700.129055,-0.54150390625,-0.02197265625,0.84423828125,0.06103515625,-0.244140625,0.3662109375,-1.505126953125,32.54150390625,177.2369384765625
1760837700.1390452,-0.54150390625,-0.02197265625,0.84423828125,0.06103515625,-0.244140625,0.3662109375,-1.4996337890625,32.54150390625,177.242431640625
1760837700.1490483,-0.54150390625,-0.0205078125,0.841796875,0.0,-0.244140625,0.42724609375,-1.4996337890625,32.54150390625,177.2479248046875
1760837700.1590478,-0.54150390625,-0.0205078125,0.841796875,0.0,-0.244140625,0.42724609375,-1.494140625,32.5360107421875,177.25341796875
1760837700.169077,-0.54443359375,-0.01904296875,0.84765625,-0.1220703125,-0.18310546875,0.42724609375,-1.494140625,32.5360107421875,177.2589111328125
1760837700.1790814,-0.54443359375,-0.01904296875,0.84765625,-0.1220703125,-0.18310546875,0.42724609375,-1.4886474609375,32.5360107421875,177.264404296875
1760837700.1890974,-0.54345703125,-0.0224609375,0.8427734375,-0.244140625,-0.1220703125,0.30517578125,-1.4886474609375,32.5360107421875,177.2698974609375
1760837700.199111,-0.54345703125,-0.0224609375,0.8427734375,-0.244140625,-0.1220703125,0.30517578125,-1.4886474609375,32.5360107421875,177.275390625
1760837700.209115,-0.5390625,-0.02294921875,0.837890625,-0.18310546875,0.06103515625,0.18310546875,-1.494140625,32.5360107421875,177.275390625
1760837700.2191322,-0.5390625,-0.02294921875,0.837890625,-0.18310546875,0.06103515625,0.18310546875,-1.494140625,32.5360107421875,177.2808837890625
1760837700.2291365,-0.53662109375,-0.0234375,0.84716796875,0.3662109375,0.1220703125,0.06103515625,-1.4886474609375,32.54150390625,177.2808837890625
1760837700.2391493,-0.53662109375,-0.0234375,0.84716796875,0.3662109375,0.1220703125,0.06103515625,-1.4886474609375,32.54150390625,177.2808837890625
1760837700.2491431,-0.53466796875,-0.02099609375,0.8486328125,1.03759765625,0.0,0.0,-1.4776611328125,32.54150390625,177.2808837890625
1760837700.2591271,-0.53466796875,-0.02099609375,0.8486328125,1.03759765625,0.0,0.0,-1.47216796875,32.54150390625,177.2808837890625
1760837700.2691934,-0.53515625,-0.01708984375,0.85009765625,1.40380859375,0.0,-0.244140625,-1.461181640625,32.54150390625,177.275390625
1760837700.2791915,-0.53515625,-0.01708984375,0.85009765625,1.40380859375,0.0,-0.244140625,-1.4447021484375,32.54150390625,177.275390625
1760837700.2892125,-0.5380859375,-0.02001953125,0.8515625,0.91552734375,0.0,-0.6103515625,-1.439208984375,32.54150390625,177.264404296875
1760837700.299275,-0.5380859375,-0.02001953125,0.8515625,0.91552734375,0.0,-0.6103515625,-1.4337158203125,32.54150390625,177.2589111328125
1760837700.3092644,-0.53369140625,-0.01806640625,0.84228515625,0.0,0.06103515625,-0.67138671875,-1.4337158203125,32.54150390625,177.2479248046875
1760837700.3192737,-0.53369140625,-0.01806640625,0.84228515625,0.0,0.06103515625,-0.67138671875,-1.4337158203125,32.54150390625,177.242431640625
1760837700.3294442,-0.53515625,-0.01806640625,0.849609375,0.244140625,0.06103515625,-0.54931640625,-1.439208984375,32.54150390625,177.2369384765625
1760837700.3393712,-0.53515625,-0.01806640625,0.849609375,0.244140625,0.06103515625,-0.54931640625,-1.439208984375,32.54150390625,177.2259521484375
1760837700.3493829,-0.54150390625,-0.02734375,0.849609375,0.244140625,0.0,-0.67138671875,-1.439208984375,32.54150390625,177.220458984375
1760837700.3593445,-0.54150390625,-0.02734375,0.849609375,0.244140625,0.0,-0.67138671875,-1.439208984375,32.54150390625,177.2149658203125
1760837700.369492,-0.5439453125,-0.025390625,0.8388671875,0.91552734375,0.06103515625,-0.67138671875,-1.439208984375,32.5360107421875,177.2039794921875
1760837700.3794,-0.5439453125,-0.025390625,0.8388671875,0.91552734375,0.06103515625,-0.67138671875,-1.4337158203125,32.54150390625,177.198486328125
1760837700.3896122,-0.5478515625,-0.02490234375,0.8349609375,1.5869140625,0.1220703125,-0.42724609375,-1.42822265625,32.54150390625,177.1875
1760837700.3996568,-0.5478515625,-0.02490234375,0.8349609375,1.5869140625,0.1220703125,-0.42724609375,-1.4117431640625,32.54150390625,177.1875
1760837700.4095972,-0.54296875,-0.02392578125,0.84326171875,1.5869140625,0.06103515625,-0.30517578125,-1.4007568359375,32.54150390625,177.1820068359375
1760837700.419572,-0.54296875,-0.02392578125,0.84326171875,1.5869140625,0.06103515625,-0.30517578125,-1.3897705078125,32.54150390625,177.1820068359375
1760837700.4293978,-0.53564453125,-0.01806640625,0.8447265625,1.64794921875,-0.06103515625,-0.244140625,-1.373291015625,32.5469970703125,177.176513671875
1760837700.4408605,-0.53564453125,-0.01806640625,0.8447265625,1.64794921875,-0.06103515625,-0.244140625,-1.3623046875,32.5469970703125,177.176513671875
1760837700.449489,-0.5458984375,-0.01513671875,0.849609375,0.732421875,-0.18310546875,-0.30517578125,-1.351318359375,32.54150390625,177.1710205078125
1760837700.4595964,-0.5458984375,-0.01513671875,0.849609375,0.732421875,-0.18310546875,-0.30517578125,-1.3458251953125,32.54150390625,177.1710205078125
1760837700.475996,-0.548828125,-0.013671875,0.83935546875,0.0,-0.244140625,-0.18310546875,-1.3458251953125,32.54150390625,177.16552734375
1760837700.4826708,-0.548828125,-0.013671875,0.83935546875,0.0,-0.244140625,-0.18310546875,-1.3458251953125,32.54150390625,177.16552734375
1760837700.4900672,-0.54443359375,-0.021484375,0.830078125,0.48828125,-0.06103515625,-0.18310546875,-1.3458251953125,32.5360107421875,177.16552734375
1760837700.4999006,-0.54443359375,-0.021484375,0.830078125,0.48828125,-0.06103515625,-0.18310546875,-1.34033203125,32.54150390625,177.1600341796875
1760837700.5143998,-0.5400390625,-0.0244140625,0.84716796875,0.54931640625,0.06103515625,-0.244140625,-1.3348388671875,32.54150390625,177.1600341796875
1760837700.521691,-0.5400390625,-0.0244140625,0.84716796875,0.54931640625,0.06103515625,-0.244140625,-1.3348388671875,32.54150390625,177.154541015625
1760837700.5300157,-0.54248046875,-0.01318359375,0.8486328125,0.42724609375,0.0,-0.3662109375,-1.329345703125,32.5469970703125,177.1490478515625
1760837700.5467355,-0.54248046875,-0.01318359375,0.8486328125,0.42724609375,0.0,-0.3662109375,-1.329345703125,32.5469970703125,177.1490478515625
1760837700.554351,-0.544921875,-0.01904296875,0.85009765625,1.3427734375,-0.06103515625,-0.48828125,-1.318359375,32.5469970703125,177.1435546875
1760837700.5611296,-0.544921875,-0.01904296875,0.85009765625,1.3427734375,-0.06103515625,-0.48828125,-1.307373046875,32.5469970703125,177.1380615234375
1760837700.5696943,-0.54345703125,-0.021484375,0.8359375,0.732421875,0.18310546875,-0.67138671875,-1.307373046875,32.5469970703125,177.1270751953125
1760837700.5800567,-0.54345703125,-0.021484375,0.8359375,0.732421875,0.18310546875,-0.67138671875,-1.3018798828125,32.552490234375,177.12158203125
1760837700.598816,-0.54345703125,-0.021484375,0.8359375,1.0986328125,0.6103515625,-0.732421875,-1.29638671875,32.5579833984375,177.110595703125
1760837700.6127095,-0.541015625,-0.0185546875,0.83984375,1.0986328125,0.6103515625,-0.732421875,-1.2908935546875,32.5689697265625,177.1051025390625
1760837700.6197035,-0.54248046875,-0.01953125,0.8466796875,0.91552734375,0.79345703125,-0.79345703125,-1.285400390625,32.574462890625,177.0941162109375
1760837700.6271076,-0.54248046875,-0.01953125,0.8466796875,0.91552734375,0.79345703125,-0.79345703125,-1.285400390625,32.58544921875,177.0831298828125
1760837700.6354334,-0.54052734375,-0.01611328125,0.845703125,0.42724609375,0.732421875,-0.732421875,-1.285400390625,32.5909423828125,177.07763671875
1760837700.6434834,-0.54052734375,-0.01611328125,0.845703125,0.42724609375,0.732421875,-0.732421875,-1.285400390625,32.6019287109375,177.066650390625
1760837700.6503713,-0.5400390625,-0.01708984375,0.84375,0.0,0.54931640625,-0.732421875,-1.2908935546875,32.607421875,177.0556640625
1760837700.6609588,-0.5400390625,-0.01708984375,0.84375,0.0,0.54931640625,-0.732421875,-1.2908935546875,32.6129150390625,177.0501708984375
1760837700.6709652,-0.5458984375,-0.02392578125,0.84130859375,0.48828125,0.244140625,-0.67138671875,-1.2908935546875,32.6129150390625,177.0391845703125
1760837700.6807327,-0.5458984375,-0.02392578125,0.84130859375,0.48828125,0.244140625,-0.67138671875,-1.2908935546875,32.618408203125,177.03369140625
1760837700.6901553,-0.55078125,-0.017578125,0.83642578125,0.732421875,0.1220703125,-0.732421875,-1.2908935546875,32.618408203125,177.0281982421875
1760837700.6998608,-0.55078125,-0.017578125,0.83642578125,0.732421875,0.1220703125,-0.732421875,-1.285400390625,32.6239013671875,177.0172119140625
1760837700.7101371,-0.548828125,-0.02099609375,0.8349609375,0.8544921875,0.0,-0.67138671875,-1.285400390625,32.6239013671875,177.01171875
1760837700.7207906,-0.548828125,-0.02099609375,0.8349609375,0.8544921875,0.0,-0.67138671875,-1.2799072265625,32.6239013671875,177.0062255859375
1760837700.730013,-0.54931640625,-0.021484375,0.84033203125,1.03759765625,-0.06103515625,-0.67138671875,-1.2744140625,32.62939453125,177.000732421875
1760837700.7447903,-0.54931640625,-0.021484375,0.84033203125,1.03759765625,-0.06103515625,-0.67138671875,-1.2689208984375,32.62939453125,176.9952392578125
1760837700.7526495,-0.5400390625,-0.01708984375,0.8369140625,0.67138671875,-0.18310546875,-0.732421875,-1.2689208984375,32.62939453125,176.98974609375
1760837700.7606966,-0.5400390625,-0.01708984375,0.8369140625,0.67138671875,-0.18310546875,-0.732421875,-1.263427734375,32.62939453125,176.9842529296875
1760837700.7704604,-0.54248046875,-0.013671875,0.8515625,0.67138671875,-0.3662109375,-0.79345703125,-1.263427734375,32.62939453125,176.9732666015625
1760837700.780412,-0.54248046875,-0.013671875,0.8515625,0.67138671875,-0.3662109375,-0.79345703125,-1.263427734375,32.6239013671875,176.9677734375
1760837700.7903981,-0.54296875,-0.017578125,0.841796875,0.06103515625,-0.30517578125,-0.9765625,-1.2689208984375,32.6239013671875,176.956787109375
1760837700.81865,-0.54296875,-0.017578125,0.841796875,0.06103515625,-0.30517578125,-0.9765625,-1.2744140625,32.618408203125,176.94580078125
1760837700.8278399,-0.5458984375,-0.013671875,0.8388671875,0.06103515625,-0.18310546875,-1.03759765625,-1.2799072265625,32.618408203125,176.934814453125
1760837700.837775,-0.5458984375,-0.013671875,0.8388671875,0.06103515625,-0.18310546875,-1.03759765625,-1.285400390625,32.618408203125,176.9293212890625
1760837700.8472636,-0.5419921875,-0.0224609375,0.84375,0.48828125,-0.18310546875,-1.15966796875,-1.285400390625,32.618408203125,176.912841796875
1760837700.8569674,-0.5419921875,-0.0224609375,0.84375,0.48828125,-0.18310546875,-1.15966796875,-1.285400390625,32.618408203125,176.90185546875
1760837700.8678477,-0.53955078125,-0.02099609375,0.8447265625,0.9765625,-0.1220703125,-1.28173828125,-1.285400390625,32.618408203125,176.890869140625
1760837700.8753986,-0.53955078125,-0.02099609375,0.8447265625,0.9765625,-0.1220703125,-1.28173828125,-1.285400390625,32.618408203125,176.8743896484375
1760837700.8833022,-0.54150390625,-0.01611328125,0.8427734375,1.03759765625,-0.1220703125,-1.40380859375,-1.285400390625,32.618408203125,176.8634033203125
1760837700.8915873,-0.54150390625,-0.01611328125,0.8427734375,1.03759765625,-0.1220703125,-1.40380859375,-1.2799072265625,32.618408203125,176.846923828125
1760837700.9015083,-0.54833984375,-0.01708984375,0.85107421875,0.8544921875,-0.1220703125,-1.40380859375,-1.2799072265625,32.618408203125,176.8304443359375
1760837700.9112325,-0.54833984375,-0.01708984375,0.85107421875,0.8544921875,-0.1220703125,-1.40380859375,-1.2799072265625,32.618408203125,176.81396484375
1760837700.919314,-0.55029296875,-0.015625,0.83349609375,0.48828125,0.0,-1.46484375,-1.285400390625,32.618408203125,176.802978515625
1760837700.9268744,-0.55029296875,-0.015625,0.83349609375,0.48828125,0.0,-1.46484375,-1.2908935546875,32.618408203125,176.7864990234375
1760837700.9353566,-0.548828125,-0.02294921875,0.8330078125,0.48828125,0.244140625,-1.40380859375,-1.2908935546875,32.6239013671875,176.77001953125
1760837700.9433765,-0.548828125,-0.02294921875,0.8330078125,0.48828125,0.244140625,-1.40380859375,-1.29638671875,32.62939453125,176.759033203125
1760837700.950305,-0.546875,-0.0283203125,0.84326171875,1.28173828125,0.30517578125,-1.28173828125,-1.2908935546875,32.62939453125,176.7425537109375
1760837700.9602644,-0.546875,-0.0283203125,0.84326171875,1.28173828125,0.30517578125,-1.28173828125,-1.2908935546875,32.6348876953125,176.7315673828125
1760837700.9702039,-0.5458984375,-0.02197265625,0.841796875,1.64794921875,0.06103515625,-1.15966796875,-1.2799072265625,32.640380859375,176.7205810546875
1760837700.9802594,-0.5458984375,-0.02197265625,0.841796875,1.64794921875,0.06103515625,-1.15966796875,-1.2744140625,32.640380859375,176.7041015625
1760837700.9910376,-0.5537109375,-0.021484375,0.8388671875,1.8310546875,0.0,-0.91552734375,-1.2579345703125,32.6458740234375,176.6986083984375
1760837701.000583,-0.5537109375,-0.021484375,0.8388671875,1.8310546875,0.0,-0.91552734375,-1.2469482421875,32.6458740234375,176.6876220703125
1760837701.0143645,-0.5517578125,-0.01513671875,0.83203125,1.28173828125,0.1220703125,-0.732421875,-1.241455078125,32.6513671875,176.68212890625
1760837701.0230763,-0.5517578125,-0.01513671875,0.83203125,1.28173828125,0.1220703125,-0.732421875,-1.2359619140625,32.6513671875,176.6766357421875
1760837701.0301425,-0.55029296875,-0.01708984375,0.83935546875,0.91552734375,0.30517578125,-0.54931640625,-1.23046875,32.6568603515625,176.671142578125
1760837701.0405343,-0.55029296875,-0.01708984375,0.83935546875,0.91552734375,0.30517578125,-0.54931640625,-1.2249755859375,32.6678466796875,176.671142578125
1760837701.050279,-0.5458984375,-0.0205078125,0.8466796875,0.91552734375,0.42724609375,-0.42724609375,-1.219482421875,32.67333984375,176.6656494140625
1760837701.0608816,-0.5458984375,-0.0205078125,0.8466796875,0.91552734375,0.42724609375,-0.42724609375,-1.2139892578125,32.6788330078125,176.6656494140625
1760837701.070604,-0.5390625,-0.015625,0.8466796875,0.732421875,0.48828125,-0.42724609375,-1.20849609375,32.684326171875,176.66015625
1760837701.0814857,-0.5390625,-0.015625,0.8466796875,0.732421875,0.48828125,-0.42724609375,-1.2030029296875,32.6953125,176.66015625
1760837701.0936518,-0.5390625,-0.01416015625,0.8447265625,0.0,0.54931640625,-0.42724609375,-1.20849609375,32.7008056640625,176.6546630859375
1760837701.1006367,-0.5390625,-0.01416015625,0.8447265625,0.0,0.54931640625,-0.42724609375,-1.20849609375,32.706298828125,176.649169921875
1760837701.111274,-0.54248046875,-0.013671875,0.841796875,-0.1220703125,0.6103515625,-0.3662109375,-1.2139892578125,32.7117919921875,176.6436767578125
1760837701.1209075,-0.54248046875,-0.013671875,0.841796875,-0.1220703125,0.6103515625,-0.3662109375,-1.219482421875,32.7227783203125,176.63818359375
1760837701.1304667,-0.5419921875,-0.0224609375,0.84423828125,-0.244140625,0.67138671875,-0.42724609375,-1.2249755859375,32.728271484375,176.6326904296875
1760837701.1414466,-0.5419921875,-0.0224609375,0.84423828125,-0.244140625,0.67138671875,-0.42724609375,-1.23046875,32.7337646484375,176.627197265625
1760837701.150694,-0.546875,-0.0205078125,0.841796875,0.30517578125,0.732421875,-0.54931640625,-1.23046875,32.7447509765625,176.6162109375
1760837701.1645741,-0.546875,-0.0205078125,0.841796875,0.30517578125,0.732421875,-0.54931640625,-1.23046875,32.750244140625,176.6107177734375
1760837701.1713808,-0.5498046875,-0.01611328125,0.84033203125,0.54931640625,0.732421875,-0.48828125,-1.2249755859375,32.76123046875,176.605224609375
1760837701.1801987,-0.5498046875,-0.01611328125,0.84033203125,0.54931640625,0.732421875,-0.48828125,-1.2249755859375,32.7667236328125,176.5997314453125
1760837701.1903746,-0.54541015625,-0.01611328125,0.83544921875,0.0,0.732421875,-0.48828125,-1.23046875,32.7777099609375,176.59423828125
1760837701.2076375,-0.54541015625,-0.01611328125,0.83544921875,0.0,0.732421875,-0.48828125,-1.23046875,32.783203125,176.5887451171875
1760837701.2169137,-0.5458984375,-0.02197265625,0.83837890625,0.42724609375,0.732421875,-0.3662109375,-1.23046875,32.794189453125,176.583251953125
1760837701.2250574,-0.5458984375,-0.02197265625,0.83837890625,0.42724609375,0.732421875,-0.3662109375,-1.23046875,32.7996826171875,176.5777587890625
1760837701.2325628,-0.546875,-0.02099609375,0.84423828125,0.79345703125,0.6103515625,-0.3662109375,-1.2249755859375,32.80517578125,176.5777587890625
1760837701.2422032,-0.546875,-0.02099609375,0.84423828125,0.79345703125,0.6103515625,-0.3662109375,-1.219482421875,32.816162109375,176.572265625
1760837701.250377,-0.5458984375,-0.0185546875,0.84130859375,1.220703125,0.244140625,-0.30517578125,-1.20849609375,32.816162109375,176.5667724609375
1760837701.260375,-0.5458984375,-0.0185546875,0.84130859375,1.220703125,0.244140625,-0.30517578125,-1.197509765625,32.8216552734375,176.561279296875
1760837701.2753322,-0.5439453125,-0.01611328125,0.83740234375,0.91552734375,0.18310546875,-0.244140625,-1.1920166015625,32.8216552734375,176.561279296875
1760837701.282982,-0.5439453125,-0.01611328125,0.83740234375,0.91552734375,0.18310546875,-0.244140625,-1.1865234375,32.8271484375,176.561279296875
1760837701.2908225,-0.54052734375,-0.0185546875,0.841796875,1.0986328125,0.244140625,-0.244140625,-1.175537109375,32.8271484375,176.5557861328125
1760837701.3008184,-0.54052734375,-0.0185546875,0.841796875,1.0986328125,0.244140625,-0.244140625,-1.16455078125,32.8326416015625,176.5557861328125
1760837701.313576,-0.544921875,-0.02099609375,0.84521484375,1.52587890625,0.3662109375,-0.30517578125,-1.153564453125,32.838134765625,176.55029296875
1760837701.3244627,-0.544921875,-0.02099609375,0.84521484375,1.52587890625,0.3662109375,-0.30517578125,-1.142578125,32.8436279296875,176.5447998046875
1760837701.3320668,-0.544921875,-0.013671875,0.8466796875,1.77001953125,0.3662109375,-0.3662109375,-1.1260986328125,32.8436279296875,176.539306640625
1760837701.3407621,-0.544921875,-0.013671875,0.8466796875,1.77001953125,0.3662109375,-0.3662109375,-1.1151123046875,32.84912109375,176.5338134765625
1760837701.3509438,-0.541015625,-0.01513671875,0.84130859375,0.9765625,0.54931640625,-0.42724609375,-1.1041259765625,32.8546142578125,176.5283203125
1760837701.3613522,-0.541015625,-0.01513671875,0.84130859375,0.9765625,0.54931640625,-0.42724609375,-1.0986328125,32.860107421875,176.517333984375
1760837701.3707476,-0.5400390625,-0.01416015625,0.841796875,0.79345703125,0.6103515625,-0.42724609375,-1.0931396484375,32.8656005859375,176.5118408203125
1760837701.381476,-0.5400390625,-0.01416015625,0.841796875,0.79345703125,0.6103515625,-0.42724609375,-1.087646484375,32.87109375,176.50634765625
1760837701.391041,-0.53857421875,-0.017578125,0.8505859375,0.42724609375,0.54931640625,-0.3662109375,-1.087646484375,32.8765869140625,176.495361328125
1760837701.4007776,-0.53857421875,-0.017578125,0.8505859375,0.42724609375,0.54931640625,-0.3662109375,-1.087646484375,32.882080078125,176.4898681640625
1760837701.4112723,-0.54541015625,-0.015625,0.8388671875,0.3662109375,0.30517578125,-0.18310546875,-1.087646484375,32.882080078125,176.484375
1760837701.4311094,-0.54541015625,-0.015625,0.8388671875,0.3662109375,0.30517578125,-0.18310546875,-1.0821533203125,32.8875732421875,176.4788818359375
1760837701.4399395,-0.548828125,-0.01806640625,0.841796875,1.03759765625,0.3662109375,-0.18310546875,-1.07666015625,32.8875732421875,176.473388671875
1760837701.449732,-0.548828125,-0.01806640625,0.841796875,1.03759765625,0.3662109375,-0.18310546875,-1.065673828125,32.89306640625,176.46240234375
1760837701.4652727,-0.54345703125,-0.01318359375,0.84326171875,1.03759765625,0.48828125,-0.30517578125,-1.0601806640625,32.8985595703125,176.4569091796875
1760837701.4755018,-0.54345703125,-0.01318359375,0.84326171875,1.03759765625,0.48828125,-0.30517578125,-1.0491943359375,32.8985595703125,176.451416015625
1760837701.4827368,-0.544921875,-0.017578125,0.8427734375,1.15966796875,0.67138671875,-0.42724609375,-1.043701171875,32.904052734375,176.4404296875
1760837701.4905248,-0.544921875,-0.017578125,0.8427734375,1.15966796875,0.67138671875,-0.42724609375,-1.03271484375,32.9150390625,176.4349365234375
1760837701.506526,-0.55322265625,-0.01513671875,0.84130859375,1.28173828125,0.732421875,-0.3662109375,-1.021728515625,32.9205322265625,176.4239501953125
1760837701.528697,-0.55322265625,-0.01513671875,0.84130859375,1.28173828125,0.732421875,-0.3662109375,-1.0107421875,32.926025390625,176.41845703125
1760837701.5357523,-0.55078125,-0.015625,0.833984375,0.6103515625,0.8544921875,-0.30517578125,-1.0107421875,32.93701171875,176.4129638671875
1760837701.548691,-0.55078125,-0.015625,0.833984375,0.6103515625,0.8544921875,-0.30517578125,-1.0052490234375,32.9425048828125,176.407470703125
1760837701.565823,-0.55126953125,-0.0166015625,0.83056640625,0.30517578125,1.0986328125,-0.30517578125,-1.0052490234375,32.958984375,176.4019775390625
1760837701.5902097,-0.55126953125,-0.0166015625,0.83056640625,0.30517578125,1.0986328125,-0.30517578125,-1.0052490234375,32.969970703125,176.396484375
1760837701.6061473,-0.55712890625,-0.021484375,0.8408203125,2.01416015625,1.03759765625,-0.1220703125,-0.98876953125,32.98095703125,176.396484375
1760837701.6287825,-0.55859375,-0.01513671875,0.837890625,2.197265625,0.79345703125,-0.1220703125,-0.966796875,32.991943359375,176.3909912109375
1760837701.63736,-0.55859375,-0.01513671875,0.837890625,2.197265625,0.79345703125,-0.1220703125,-0.9503173828125,32.9974365234375,176.3909912109375
1760837701.6658428,-0.55419921875,-0.0078125,0.82421875,2.50244140625,0.67138671875,-0.18310546875,-0.9283447265625,33.0084228515625,176.385498046875
1760837701.6749718,-0.55419921875,-0.0078125,0.82421875,2.50244140625,0.67138671875,-0.18310546875,-0.9063720703125,33.0194091796875,176.385498046875
1760837701.6889632,-0.544921875,-0.0126953125,0.84228515625,2.25830078125,0.6103515625,-0.3662109375,-0.8843994140625,33.02490234375,176.385498046875
1760837701.6985254,-0.544921875,-0.0126953125,0.84228515625,2.25830078125,0.6103515625,-0.3662109375,-0.8624267578125,33.035888671875,176.3800048828125
1760837701.7058258,-0.54052734375,-0.00732421875,0.84130859375,0.91552734375,0.54931640625,-0.54931640625,-0.8514404296875,33.0413818359375,176.37451171875
1760837701.7121756,-0.54052734375,-0.00732421875,0.84130859375,0.91552734375,0.54931640625,-0.54931640625,-0.845947265625,33.046875,176.363525390625
1760837701.7308116,-0.541015625,-0.00390625,0.8486328125,1.03759765625,0.3662109375,-0.6103515625,-0.8404541015625,33.0523681640625,176.3580322265625
1760837701.753937,-0.541015625,-0.00390625,0.8486328125,1.03759765625,0.3662109375,-0.6103515625,-0.8349609375,33.057861328125,176.3470458984375
1760837701.76083,-0.5380859375,-0.00830078125,0.85205078125,0.79345703125,0.18310546875,-0.79345703125,-0.8294677734375,33.057861328125,176.3360595703125
1760837701.77861,-0.5380859375,-0.00830078125,0.85205078125,0.79345703125,0.18310546875,-0.79345703125,-0.823974609375,33.057861328125,176.319580078125
1760837701.7860975,-0.5322265625,-0.00537109375,0.84716796875,0.0,0.30517578125,-1.03759765625,-0.8294677734375,33.0633544921875,176.30859375
1760837701.8017712,-0.5322265625,-0.00537109375,0.84716796875,0.0,0.30517578125,-1.03759765625,-0.8349609375,33.0633544921875,176.2921142578125
1760837701.8089442,-0.529296875,-0.00439453125,0.84765625,-0.6103515625,0.54931640625,-1.3427734375,-0.845947265625,33.0633544921875,176.2701416015625
1760837701.8154552,-0.529296875,-0.00439453125,0.84765625,-0.6103515625,0.54931640625,-1.3427734375,-0.85693359375,33.06884765625,176.253662109375
1760837701.8226626,-0.5341796875,-0.0146484375,0.85302734375,-1.64794921875,0.67138671875,-1.5869140625,-0.87890625,33.06884765625,176.2261962890625
1760837701.8304534,-0.5341796875,-0.0146484375,0.85302734375,-1.64794921875,0.67138671875,-1.5869140625,-0.90087890625,33.0743408203125,176.2042236328125
1760837701.8460963,-0.548828125,-0.015625,0.84765625,-1.52587890625,0.732421875,-1.5869140625,-0.9283447265625,33.079833984375,176.1767578125
1760837701.8534665,-0.548828125,-0.015625,0.84765625,-1.52587890625,0.732421875,-1.5869140625,-0.9503173828125,33.079833984375,176.15478515625
1760837701.860692,-0.55810546875,-0.02099609375,0.8349609375,-0.06103515625,0.732421875,-1.46484375,-0.966796875,33.0853271484375,176.1328125
1760837701.8672273,-0.55810546875,-0.02099609375,0.8349609375,-0.06103515625,0.732421875,-1.46484375,-0.977783203125,33.0908203125,176.1053466796875
1760837701.873444,-0.560546875,-0.0244140625,0.82958984375,0.732421875,0.732421875,-1.52587890625,-0.9832763671875,33.0963134765625,176.0833740234375
1760837701.88057,-0.560546875,-0.0244140625,0.82958984375,0.732421875,0.732421875,-1.52587890625,-0.9832763671875,33.101806640625,176.0614013671875
1760837701.8875446,-0.56396484375,-0.0166015625,0.82373046875,1.15966796875,0.732421875,-1.52587890625,-0.98876953125,33.1072998046875,176.0394287109375
1760837701.9020033,-0.56396484375,-0.0166015625,0.82373046875,1.15966796875,0.732421875,-1.52587890625,-0.9832763671875,33.1182861328125,176.02294921875
1760837701.9086344,-0.57470703125,-0.01220703125,0.82275390625,1.3427734375,0.79345703125,-1.28173828125,-0.9832763671875,33.123779296875,176.0009765625
1760837701.915357,-0.57470703125,-0.01220703125,0.82275390625,1.3427734375,0.79345703125,-1.28173828125,-0.977783203125,33.134765625,175.9844970703125
1760837701.922188,-0.57568359375,-0.01220703125,0.82373046875,0.54931640625,0.8544921875,-0.91552734375,-0.977783203125,33.145751953125,175.9735107421875
1760837701.9291906,-0.57568359375,-0.01220703125,0.82373046875,0.54931640625,0.8544921875,-0.91552734375,-0.977783203125,33.15673828125,175.968017578125
1760837701.935342,-0.572265625,-0.01025390625,0.8203125,0.18310546875,1.03759765625,-0.732421875,-0.977783203125,33.1732177734375,175.9625244140625
1760837701.9493425,-0.572265625,-0.01025390625,0.8203125,0.18310546875,1.03759765625,-0.732421875,-0.9832763671875,33.189697265625,175.95703125
1760837701.9560385,-0.56201171875,-0.017578125,0.830078125,1.28173828125,1.15966796875,-0.732421875,-0.977783203125,33.20068359375,175.9515380859375
1760837701.9627502,-0.56201171875,-0.017578125,0.830078125,1.28173828125,1.15966796875,-0.732421875,-0.9722900390625,33.2171630859375,175.946044921875
1760837701.9699326,-0.5498046875,-0.0107421875,0.84326171875,0.67138671875,0.9765625,-0.732421875,-0.966796875,33.233642578125,175.9405517578125
1760837701.976819,-0.5498046875,-0.0107421875,0.84326171875,0.67138671875,0.9765625,-0.732421875,-0.9613037109375,33.2501220703125,175.93505859375
1760837701.988126,-0.54736328125,-0.00830078125,0.8388671875,-0.1220703125,0.732421875,-0.732421875,-0.966796875,33.2611083984375,175.9295654296875
1760837702.0026636,-0.54736328125,-0.00830078125,0.8388671875,-0.1220703125,0.732421875,-0.732421875,-0.9722900390625,33.2720947265625,175.924072265625
1760837702.0090585,-0.5439453125,-0.01611328125,0.84130859375,0.06103515625,0.6103515625,-0.8544921875,-0.977783203125,33.277587890625,175.9130859375
1760837702.0165591,-0.5439453125,-0.01611328125,0.84130859375,0.06103515625,0.6103515625,-0.8544921875,-0.9832763671875,33.28857421875,175.902099609375
1760837702.0231476,-0.5439453125,-0.01513671875,0.83837890625,0.42724609375,0.48828125,-1.0986328125,-0.9832763671875,33.2940673828125,175.89111328125
1760837702.0295792,-0.5439453125,-0.01513671875,0.83837890625,0.42724609375,0.48828125,-1.0986328125,-0.98876953125,33.299560546875,175.8746337890625
1760837702.0368037,-0.54541015625,-0.015625,0.84033203125,1.28173828125,0.244140625,-1.3427734375,-0.9832763671875,33.3050537109375,175.858154296875
1760837702.042873,-0.54541015625,-0.015625,0.84033203125,1.28173828125,0.244140625,-1.3427734375,-0.9832763671875,33.310546875,175.8416748046875
1760837702.0578282,-0.556640625,-0.0126953125,0.8408203125,0.67138671875,0.0,-1.52587890625,-0.9832763671875,33.310546875,175.8197021484375
1760837702.0645132,-0.556640625,-0.0126953125,0.8408203125,0.67138671875,0.0,-1.52587890625,-0.9832763671875,33.310546875,175.7977294921875
1760837702.0720444,-0.55517578125,-0.01025390625,0.82861328125,0.79345703125,-0.244140625,-1.64794921875,-0.98876953125,33.310546875,175.7757568359375
1760837702.079192,-0.55517578125,-0.01025390625,0.82861328125,0.79345703125,-0.244140625,-1.64794921875,-0.98876953125,33.3050537109375,175.75927734375
1760837702.0868082,-0.55078125,-0.01220703125,0.83447265625,0.79345703125,-0.30517578125,-1.708984375,-0.9942626953125,33.3050537109375,175.7373046875
1760837702.093411,-0.55078125,-0.01220703125,0.83447265625,0.79345703125,-0.30517578125,-1.708984375,-0.9942626953125,33.3050537109375,175.7098388671875
1760837702.1163938,-0.55126953125,-0.01513671875,0.83544921875,0.18310546875,-0.48828125,-1.77001953125,-0.999755859375,33.299560546875,175.6878662109375
1760837702.1239822,-0.55126953125,-0.01513671875,0.83544921875,0.18310546875,-0.48828125,-1.77001953125,-1.0107421875,33.2940673828125,175.6658935546875
1760837702.1307251,-0.55908203125,-0.013671875,0.83349609375,0.30517578125,-0.67138671875,-1.77001953125,-1.0162353515625,33.28857421875,175.6439208984375
1760837702.1369936,-0.55908203125,-0.013671875,0.83349609375,0.30517578125,-0.67138671875,-1.77001953125,-1.0272216796875,33.2830810546875,175.616455078125
1760837702.1437228,-0.55908203125,-0.013671875,0.83349609375,0.30517578125,-0.67138671875,-1.708984375,-1.03271484375,33.277587890625,175.5999755859375
1760837702.1650193,-0.564453125,-0.01611328125,0.8310546875,0.30517578125,-0.67138671875,-1.708984375,-1.043701171875,33.2720947265625,175.5780029296875
1760837702.1716726,-0.5498046875,-0.01416015625,0.83447265625,-0.30517578125,-0.48828125,-1.52587890625,-1.0491943359375,33.2720947265625,175.5560302734375
1760837702.1784494,-0.5498046875,-0.01416015625,0.83447265625,-0.30517578125,-0.48828125,-1.52587890625,-1.065673828125,33.2666015625,175.53955078125
1760837702.1854515,-0.54833984375,-0.013671875,0.83642578125,-0.79345703125,-0.42724609375,-1.220703125,-1.07666015625,33.2611083984375,175.5230712890625
1760837702.1917546,-0.54833984375,-0.013671875,0.83642578125,-0.79345703125,-0.42724609375,-1.220703125,-1.0931396484375,33.2611083984375,175.506591796875
1760837702.198127,-0.54541015625,-0.02490234375,0.8388671875,0.18310546875,-0.54931640625,-1.03759765625,-1.1041259765625,33.255615234375,175.49560546875
1760837702.2226174,-0.54541015625,-0.02490234375,0.8388671875,0.18310546875,-0.54931640625,-1.03759765625,-1.1041259765625,33.255615234375,175.4791259765625
1760837702.238109,-0.54736328125,-0.0263671875,0.84423828125,0.9765625,-0.732421875,-1.0986328125,-1.109619140625,33.2501220703125,175.4681396484375
1760837702.244885,-0.54736328125,-0.0263671875,0.84423828125,0.9765625,-0.732421875,-1.0986328125,-1.1041259765625,33.2391357421875,175.45166015625
1760837702.2775762,-0.5458984375,-0.01953125,0.8359375,1.953125,-0.79345703125,-1.03759765625,-1.0986328125,33.233642578125,175.4351806640625
1760837702.2901285,-0.5458984375,-0.01953125,0.8359375,1.953125,-0.79345703125,-1.03759765625,-1.087646484375,33.2281494140625,175.4241943359375
1760837702.302256,-0.544921875,-0.0185546875,0.841796875,2.5634765625,-0.91552734375,-1.03759765625,-1.0711669921875,33.2171630859375,175.40771484375
1760837702.3118465,-0.544921875,-0.0185546875,0.841796875,2.5634765625,-0.91552734375,-1.03759765625,-1.0546875,33.2061767578125,175.3912353515625
1760837702.3214014,-0.54638671875,-0.01171875,0.84228515625,2.3193359375,-1.0986328125,-0.9765625,-1.0382080078125,33.20068359375,175.374755859375
1760837702.3345556,-0.54638671875,-0.01171875,0.84228515625,2.3193359375,-1.0986328125,-0.9765625,-1.021728515625,33.189697265625,175.3582763671875
1760837702.3446994,-0.5390625,-0.0126953125,0.84619140625,1.953125,-1.52587890625,-0.91552734375,-1.0052490234375,33.1732177734375,175.341796875
1760837702.352704,-0.5390625,-0.0126953125,0.84619140625,1.953125,-1.52587890625,-0.91552734375,-0.9942626953125,33.15673828125,175.3253173828125
1760837702.3718011,-0.53564453125,-0.01611328125,0.84423828125,1.89208984375,-1.953125,-0.91552734375,-0.9832763671875,33.1402587890625,175.308837890625
1760837702.3820105,-0.53564453125,-0.01611328125,0.84423828125,1.89208984375,-1.953125,-0.91552734375,-0.966796875,33.1182861328125,175.2923583984375
1760837702.3899748,-0.5390625,-0.017578125,0.841796875,2.5634765625,-2.3193359375,-0.9765625,-0.9503173828125,33.0963134765625,175.27587890625
1760837702.3999066,-0.5390625,-0.017578125,0.841796875,2.5634765625,-2.3193359375,-0.9765625,-0.933837890625,33.0743408203125,175.2593994140625
1760837702.4222794,-0.54248046875,-0.01513671875,0.84326171875,2.44140625,-2.62451171875,-0.9765625,-0.9173583984375,33.046875,175.242919921875
1760837702.4335327,-0.54248046875,-0.01513671875,0.84326171875,2.44140625,-2.62451171875,-0.9765625,-0.90087890625,33.0194091796875,175.2264404296875
1760837702.441477,-0.54541015625,-0.0068359375,0.8447265625,1.28173828125,-2.5634765625,-0.91552734375,-0.889892578125,32.991943359375,175.2099609375
1760837702.4593031,-0.54541015625,-0.0068359375,0.8447265625,1.28173828125,-2.5634765625,-0.91552734375,-0.8843994140625,32.9644775390625,175.1934814453125
1760837702.466791,-0.54541015625,-0.0068359375,0.8447265625,0.9765625,-2.3193359375,-0.732421875,-0.8734130859375,32.9425048828125,175.1824951171875
1760837702.4740765,-0.548828125,-0.00830078125,0.8369140625,0.9765625,-2.3193359375,-0.732421875,-0.8734130859375,32.9150390625,175.1715087890625
1760837702.482097,-0.5517578125,-0.01416015625,0.84130859375,0.30517578125,-2.197265625,-0.67138671875,-0.867919921875,32.89306640625,175.1605224609375
1760837702.5018122,-0.5517578125,-0.01416015625,0.84130859375,0.30517578125,-2.197265625,-0.67138671875,-0.8734130859375,32.87109375,175.1495361328125
1760837702.5124435,-0.5478515625,-0.01806640625,0.83935546875,0.1220703125,-1.953125,-0.54931640625,-0.8734130859375,32.8546142578125,175.14404296875
1760837702.5211685,-0.5478515625,-0.01806640625,0.83935546875,0.1220703125,-1.953125,-0.54931640625,-0.8734130859375,32.8326416015625,175.133056640625
1760837702.5451725,-0.55615234375,-0.0185546875,0.8369140625,0.244140625,-1.5869140625,-0.30517578125,-0.87890625,32.816162109375,175.1275634765625
1760837702.5571532,-0.55615234375,-0.0185546875,0.8369140625,0.244140625,-1.5869140625,-0.30517578125,-0.87890625,32.80517578125,175.1220703125
1760837702.5662992,-0.552734375,-0.015625,0.84130859375,0.0,-1.15966796875,0.0,-0.87890625,32.794189453125,175.1165771484375
1760837702.5824306,-0.552734375,-0.015625,0.84130859375,0.0,-1.15966796875,0.0,-0.87890625,32.783203125,175.1165771484375
1760837702.5940046,-0.54931640625,-0.015625,0.841796875,-0.06103515625,-0.79345703125,0.244140625,-0.87890625,32.7777099609375,175.1165771484375
1760837702.6008008,-0.54931640625,-0.015625,0.841796875,-0.06103515625,-0.79345703125,0.244140625,-0.87890625,32.772216796875,175.1165771484375
1760837702.6099362,-0.55322265625,-0.013671875,0.84033203125,-0.3662109375,-0.3662109375,0.48828125,-0.87890625,32.7667236328125,175.1220703125
1760837702.618727,-0.55322265625,-0.013671875,0.84033203125,-0.3662109375,-0.3662109375,0.48828125,-0.87890625,32.7667236328125,175.1275634765625
1760837702.6337998,-0.54833984375,-0.0146484375,0.8369140625,0.0,-0.1220703125,0.54931640625,-0.87890625,32.7667236328125,175.133056640625
1760837702.6414042,-0.54833984375,-0.0146484375,0.8369140625,0.0,-0.1220703125,0.54931640625,-0.87890625,32.7667236328125,175.1385498046875
1760837702.6494224,-0.54296875,-0.01513671875,0.845703125,0.3662109375,-0.06103515625,0.6103515625,-0.8734130859375,32.7667236328125,175.14404296875
1760837702.6604981,-0.54296875,-0.01513671875,0.845703125,0.3662109375,-0.06103515625,0.6103515625,-0.867919921875,32.772216796875,175.1495361328125
1760837702.6753597,-0.52880859375,-0.01171875,0.8544921875,0.0,-0.244140625,0.54931640625,-0.8624267578125,32.772216796875,175.155029296875
1760837702.6837893,-0.52880859375,-0.01171875,0.8544921875,0.0,-0.244140625,0.54931640625,-0.85693359375,32.7667236328125,175.1605224609375
1760837702.6927092,-0.53466796875,-0.001953125,0.85302734375,-0.1220703125,-0.48828125,0.3662109375,-0.85693359375,32.7667236328125,175.1605224609375
1760837702.7010481,-0.53466796875,-0.001953125,0.85302734375,-0.1220703125,-0.48828125,0.3662109375,-0.85693359375,32.76123046875,175.1605224609375
1760837702.709844,-0.53076171875,-0.00341796875,0.85009765625,-0.79345703125,-0.54931640625,0.06103515625,-0.8624267578125,32.7557373046875,175.1605224609375
1760837702.7302678,-0.53076171875,-0.00341796875,0.85009765625,-0.79345703125,-0.54931640625,0.06103515625,-0.867919921875,32.750244140625,175.155029296875
1760837702.7368016,-0.52197265625,-0.0126953125,0.8505859375,-1.220703125,-0.3662109375,-0.3662109375,-0.8843994140625,32.7447509765625,175.1495361328125
1760837702.7429204,-0.52197265625,-0.0126953125,0.8505859375,-1.220703125,-0.3662109375,-0.3662109375,-0.8953857421875,32.7392578125,175.1385498046875
1760837702.7499235,-0.53515625,-0.017578125,0.84423828125,-1.03759765625,-0.18310546875,-0.79345703125,-0.911865234375,32.7337646484375,175.1275634765625
1760837702.75698,-0.53515625,-0.017578125,0.84423828125,-1.03759765625,-0.18310546875,-0.79345703125,-0.9283447265625,32.728271484375,175.111083984375
1760837702.7719033,-0.546875,-0.00927734375,0.84423828125,0.06103515625,-0.18310546875,-1.0986328125,-0.933837890625,32.728271484375,175.0946044921875
1760837702.778586,-0.546875,-0.00927734375,0.84423828125,0.06103515625,-0.18310546875,-1.0986328125,-0.9393310546875,32.7227783203125,175.078125
1760837702.7854912,-0.55126953125,-0.009765625,0.84423828125,-0.06103515625,-0.3662109375,-1.220703125,-0.94482421875,32.71728515625,175.05615234375
1760837702.7919693,-0.55126953125,-0.009765625,0.84423828125,-0.06103515625,-0.3662109375,-1.220703125,-0.9503173828125,32.7117919921875,175.0396728515625
1760837702.7987072,-0.552734375,-0.01025390625,0.83203125,-0.54931640625,-0.54931640625,-0.9765625,-0.9613037109375,32.706298828125,175.0286865234375
1760837702.8132732,-0.552734375,-0.01025390625,0.83203125,-0.54931640625,-0.54931640625,-0.9765625,-0.9722900390625,32.7008056640625,175.01220703125
1760837702.820251,-0.55126953125,-0.01318359375,0.83251953125,-0.54931640625,-0.8544921875,-0.79345703125,-0.9832763671875,32.6953125,175.001220703125
1760837702.8278282,-0.55126953125,-0.01318359375,0.83251953125,-0.54931640625,-0.8544921875,-0.79345703125,-0.9942626953125,32.6898193359375,174.9957275390625
1760837702.834323,-0.55224609375,-0.01904296875,0.83740234375,-0.9765625,-1.15966796875,-0.67138671875,-1.0052490234375,32.6788330078125,174.9847412109375
1760837702.8405225,-0.55224609375,-0.01904296875,0.83740234375,-0.9765625,-1.15966796875,-0.67138671875,-1.0162353515625,32.6678466796875,174.979248046875
1760837702.8476255,-0.55322265625,-0.01904296875,0.8310546875,-0.18310546875,-1.3427734375,-0.48828125,-1.021728515625,32.6568603515625,174.9737548828125
1760837702.8619976,-0.55322265625,-0.01904296875,0.8310546875,-0.18310546875,-1.3427734375,-0.48828125,-1.0272216796875,32.6458740234375,174.96826171875
1760837702.8690195,-0.55322265625,-0.02099609375,0.8486328125,-0.30517578125,-1.52587890625,-0.244140625,-1.03271484375,32.6348876953125,174.96826171875
1760837702.8754885,-0.55322265625,-0.02099609375,0.8486328125,-0.30517578125,-1.52587890625,-0.244140625,-1.03271484375,32.618408203125,174.96826171875
1760837702.8821087,-0.54443359375,-0.01416015625,0.83837890625,-0.732421875,-1.64794921875,0.06103515625,-1.043701171875,32.607421875,174.96826171875
1760837702.8889103,-0.54443359375,-0.01416015625,0.83837890625,-0.732421875,-1.64794921875,0.06103515625,-1.0491943359375,32.596435546875,174.96826171875
1760837702.8957548,-0.53173828125,-0.02197265625,0.833984375,0.48828125,-1.64794921875,0.18310546875,-1.043701171875,32.5799560546875,174.9737548828125
1760837702.910618,-0.53173828125,-0.02197265625,0.833984375,0.48828125,-1.64794921875,0.18310546875,-1.0382080078125,32.5689697265625,174.9737548828125
1760837702.91927,-0.53759765625,-0.017578125,0.85302734375,0.6103515625,-1.40380859375,0.0,-1.03271484375,32.552490234375,174.9737548828125
1760837702.9270434,-0.53759765625,-0.017578125,0.85302734375,0.6103515625,-1.40380859375,0.0,-1.0272216796875,32.54150390625,174.9737548828125
1760837702.9337611,-0.533203125,-0.01806640625,0.85888671875,1.64794921875,-1.3427734375,-0.244140625,-1.0107421875,32.530517578125,174.96826171875
1760837702.940094,-0.533203125,-0.01806640625,0.85888671875,1.64794921875,-1.3427734375,-0.244140625,-0.9942626953125,32.51953125,174.9627685546875
1760837702.9467938,-0.53662109375,-0.01416015625,0.84912109375,1.03759765625,-1.0986328125,-0.3662109375,-0.98876953125,32.508544921875,174.957275390625
1760837702.95428,-0.53662109375,-0.01416015625,0.84912109375,1.03759765625,-1.0986328125,-0.3662109375,-0.9832763671875,32.49755859375,174.9517822265625
1760837702.9612842,-0.5380859375,-0.00341796875,0.8447265625,0.30517578125,-0.91552734375,-0.30517578125,-0.9832763671875,32.486572265625,174.9462890625
1760837702.9687872,-0.5380859375,-0.00341796875,0.8447265625,0.30517578125,-0.91552734375,-0.30517578125,-0.977783203125,32.4810791015625,174.9407958984375
1760837702.975137,-0.54345703125,-0.00634765625,0.84912109375,0.06103515625,-0.67138671875,-0.244140625,-0.977783203125,32.4755859375,174.9407958984375
1760837702.981704,-0.54345703125,-0.00634765625,0.84912109375,0.06103515625,-0.67138671875,-0.244140625,-0.977783203125,32.4700927734375,174.935302734375
1760837702.9892373,-0.54345703125,-0.01416015625,0.84912109375,-0.42724609375,-0.54931640625,-0.42724609375,-0.98876953125,32.464599609375,174.9298095703125
1760837703.002541,-0.54345703125,-0.01416015625,0.84912109375,-0.42724609375,-0.54931640625,-0.42724609375,-0.9942626953125,32.4591064453125,174.92431640625
1760837703.0128973,-0.55322265625,-0.01318359375,0.8408203125,-0.6103515625,-0.3662109375,-0.54931640625,-0.999755859375,32.45361328125,174.9188232421875
1760837703.0218713,-0.55322265625,-0.01318359375,0.8408203125,-0.6103515625,-0.3662109375,-0.54931640625,-1.0107421875,32.45361328125,174.913330078125
1760837703.0295043,-0.5556640625,-0.01025390625,0.83642578125,0.06103515625,-0.18310546875,-0.48828125,-1.0107421875,32.45361328125,174.9078369140625
1760837703.0445793,-0.5556640625,-0.01025390625,0.83642578125,0.06103515625,-0.18310546875,-0.48828125,-1.0107421875,32.45361328125,174.90234375
1760837703.0515509,-0.56201171875,-0.01953125,0.84033203125,-0.18310546875,-0.06103515625,-0.30517578125,-1.0162353515625,32.45361328125,174.8968505859375
1760837703.0594485,-0.56201171875,-0.01953125,0.84033203125,-0.18310546875,-0.06103515625,-0.30517578125,-1.021728515625,32.4591064453125,174.8968505859375
1760837703.0657825,-0.55419921875,-0.01806640625,0.8251953125,-0.54931640625,0.06103515625,-0.18310546875,-1.0272216796875,32.464599609375,174.8968505859375
1760837703.0720375,-0.55419921875,-0.01806640625,0.8251953125,-0.54931640625,0.06103515625,-0.18310546875,-1.03271484375,32.4700927734375,174.8968505859375
1760837703.0799477,-0.560546875,-0.017578125,0.8271484375,0.42724609375,0.30517578125,-0.18310546875,-1.0272216796875,32.4755859375,174.90234375
1760837703.1031888,-0.560546875,-0.017578125,0.8271484375,0.42724609375,0.30517578125,-0.18310546875,-1.0272216796875,32.486572265625,174.90234375
1760837703.1181242,-0.56689453125,-0.0166015625,0.83251953125,0.0,0.3662109375,-0.244140625,-1.0272216796875,32.4920654296875,174.9078369140625
1760837703.1334736,-0.56689453125,-0.0166015625,0.83251953125,0.0,0.3662109375,-0.244140625,-1.0272216796875,32.5030517578125,174.9078369140625
1760837703.1542006,-0.57275390625,-0.0078125,0.828125,-0.30517578125,0.42724609375,-0.06103515625,-1.03271484375,32.5140380859375,174.913330078125
1760837703.1785653,-0.57275390625,-0.0078125,0.828125,-0.30517578125,0.42724609375,-0.06103515625,-1.0382080078125,32.5250244140625,174.9188232421875
1760837703.1863909,-0.56103515625,-0.0126953125,0.83056640625,0.18310546875,0.67138671875,-0.06103515625,-1.03271484375,32.54150390625,174.9298095703125
1760837703.1988761,-0.56103515625,-0.0126953125,0.83056640625,0.18310546875,0.67138671875,-0.06103515625,-1.03271484375,32.552490234375,174.935302734375
1760837703.2145224,-0.56103515625,-0.0126953125,0.83056640625,-0.1220703125,1.0986328125,-0.244140625,-1.03271484375,32.574462890625,174.9407958984375
1760837703.2443316,-0.546875,-0.025390625,0.830078125,-0.1220703125,1.0986328125,-0.244140625,-1.0382080078125,32.5909423828125,174.9462890625
1760837703.2572615,-0.5478515625,-0.0126953125,0.84033203125,0.244140625,1.220703125,-0.42724609375,-1.0382080078125,32.607421875,174.9462890625
1760837703.2751608,-0.5478515625,-0.0126953125,0.84033203125,0.244140625,1.220703125,-0.42724609375,-1.0382080078125,32.62939453125,174.9462890625
1760837703.283588,-0.544921875,-0.0185546875,0.8486328125,0.244140625,0.9765625,-0.6103515625,-1.043701171875,32.640380859375,174.9462890625
1760837703.29885,-0.544921875,-0.0185546875,0.8486328125,0.244140625,0.9765625,-0.6103515625,-1.043701171875,32.6568603515625,174.9407958984375
1760837703.3256264,-0.53076171875,-0.01171875,0.8447265625,0.18310546875,0.67138671875,-0.732421875,-1.043701171875,32.6678466796875,174.935302734375
1760837703.3347971,-0.53076171875,-0.01171875,0.8447265625,0.18310546875,0.67138671875,-0.732421875,-1.0491943359375,32.6788330078125,174.9298095703125
1760837703.3411176,-0.52392578125,-0.01220703125,0.84130859375,1.40380859375,0.30517578125,-0.9765625,-1.043701171875,32.684326171875,174.9188232421875
1760837703.347806,-0.52392578125,-0.01220703125,0.84130859375,1.40380859375,0.30517578125,-0.9765625,-1.03271484375,32.684326171875,174.913330078125
1760837703.3695486,-0.53076171875,-0.0185546875,0.85302734375,1.708984375,0.0,-1.40380859375,-1.0272216796875,32.6898193359375,174.891357421875
1760837703.3870227,-0.53076171875,-0.0185546875,0.85302734375,1.708984375,0.0,-1.40380859375,-1.0162353515625,32.6898193359375,174.8748779296875
1760837703.3943937,-0.5380859375,-0.01171875,0.8505859375,0.18310546875,-0.30517578125,-1.708984375,-1.0272216796875,32.684326171875,174.8529052734375
1760837703.4109137,-0.5380859375,-0.01171875,0.8505859375,0.18310546875,-0.30517578125,-1.708984375,-1.03271484375,32.6788330078125,174.8309326171875
1760837703.4206734,-0.5380859375,-0.0048828125,0.8466796875,-0.8544921875,-0.8544921875,-1.708984375,-1.0546875,32.67333984375,174.8089599609375
1760837703.4287653,-0.5380859375,-0.0048828125,0.8466796875,-0.8544921875,-0.8544921875,-1.708984375,-1.0711669921875,32.662353515625,174.7869873046875
1760837703.4373388,-0.54248046875,-0.015625,0.8427734375,-0.6103515625,-1.28173828125,-1.8310546875,-1.087646484375,32.6513671875,174.7650146484375
1760837703.446217,-0.54248046875,-0.015625,0.8427734375,-0.6103515625,-1.28173828125,-1.8310546875,-1.1041259765625,32.6348876953125,174.7430419921875
1760837703.4626324,-0.5361328125,-0.01806640625,0.8359375,-0.9765625,-1.52587890625,-2.197265625,-1.1260986328125,32.6239013671875,174.715576171875
1760837703.4697473,-0.5361328125,-0.01806640625,0.8359375,-0.9765625,-1.52587890625,-2.197265625,-1.1480712890625,32.607421875,174.6881103515625
1760837703.4762576,-0.53662109375,-0.02001953125,0.84521484375,-0.18310546875,-1.8310546875,-2.3193359375,-1.16455078125,32.58544921875,174.6551513671875
1760837703.483199,-0.53662109375,-0.02001953125,0.84521484375,-0.18310546875,-1.8310546875,-2.3193359375,-1.1810302734375,32.5689697265625,174.627685546875
1760837703.4908578,-0.52490234375,-0.03857421875,0.86474609375,5.4931640625,-2.3193359375,-2.0751953125,-1.1370849609375,32.5469970703125,174.6002197265625
1760837703.5076654,-0.52490234375,-0.03857421875,0.86474609375,5.4931640625,-2.3193359375,-2.0751953125,-1.0986328125,32.51953125,174.5782470703125
1760837703.5156395,-0.5419921875,-0.017578125,0.859375,1.89208984375,-2.25830078125,-2.5634765625,-1.0986328125,32.49755859375,174.539794921875
1760837703.5242386,-0.5419921875,-0.017578125,0.859375,1.89208984375,-2.25830078125,-2.5634765625,-1.0931396484375,32.4755859375,174.5068359375
1760837703.5335531,-0.5419921875,-0.017578125,0.859375,0.67138671875,-1.77001953125,-2.685546875,-1.1041259765625,32.45361328125,174.473876953125
1760837703.541417,-0.54443359375,-0.0068359375,0.8310546875,0.67138671875,-1.77001953125,-2.685546875,-1.1151123046875,32.4371337890625,174.44091796875
1760837703.559124,-0.533203125,-0.0244140625,0.8505859375,3.47900390625,-1.220703125,-2.74658203125,-1.0986328125,32.4261474609375,174.407958984375
1760837703.5676277,-0.533203125,-0.0244140625,0.8505859375,3.47900390625,-1.220703125,-2.74658203125,-1.0821533203125,32.40966796875,174.375
1760837703.5741973,-0.5478515625,-0.02587890625,0.85498046875,1.953125,-0.8544921875,-2.62451171875,-1.0821533203125,32.4041748046875,174.3365478515625
1760837703.5806308,-0.5478515625,-0.02587890625,0.85498046875,1.953125,-0.8544921875,-2.62451171875,-1.0821533203125,32.3931884765625,174.3035888671875
1760837703.5867746,-0.544921875,-0.01416015625,0.8349609375,3.35693359375,-0.6103515625,-2.13623046875,-1.0601806640625,32.3876953125,174.276123046875
1760837703.6048124,-0.544921875,-0.01416015625,0.8349609375,3.35693359375,-0.6103515625,-2.13623046875,-1.043701171875,32.3822021484375,174.254150390625
1760837703.6168764,-0.5361328125,-0.01806640625,0.85595703125,3.173828125,-0.244140625,-1.953125,-1.021728515625,32.3822021484375,174.2266845703125
1760837703.6303926,-0.5361328125,-0.01806640625,0.85595703125,3.173828125,-0.244140625,-1.953125,-1.0052490234375,32.376708984375,174.2047119140625
1760837703.6369812,-0.53857421875,-0.009765625,0.82421875,2.62451171875,-0.244140625,-1.708984375,-0.9942626953125,32.376708984375,174.1827392578125
1760837703.6547484,-0.53857421875,-0.009765625,0.82421875,2.62451171875,-0.244140625,-1.708984375,-0.977783203125,32.376708984375,174.1607666015625
1760837703.6724372,-0.53466796875,-0.029296875,0.85546875,5.18798828125,-0.18310546875,-1.40380859375,-0.933837890625,32.376708984375,174.1387939453125
1760837703.6894317,-0.53466796875,-0.029296875,0.85546875,5.18798828125,-0.18310546875,-1.40380859375,-0.8953857421875,32.3712158203125,174.122314453125
1760837703.69708,-0.54443359375,-0.0029296875,0.84912109375,2.8076171875,0.18310546875,-1.52587890625,-0.87890625,32.376708984375,174.100341796875
1760837703.7063537,-0.54443359375,-0.0029296875,0.84912109375,2.8076171875,0.18310546875,-1.52587890625,-0.8624267578125,32.376708984375,174.0838623046875
1760837703.718981,-0.537109375,-0.0078125,0.8505859375,2.5634765625,0.3662109375,-1.40380859375,-0.845947265625,32.3822021484375,174.0618896484375
1760837703.7281349,-0.537109375,-0.0078125,0.8505859375,2.5634765625,0.3662109375,-1.40380859375,-0.8294677734375,32.3876953125,174.04541015625
1760837703.7435405,-0.5263671875,-0.01220703125,0.8544921875,-0.3662109375,0.244140625,-1.03759765625,-0.8404541015625,32.3876953125,174.0289306640625
1760837703.7521899,-0.5263671875,-0.01220703125,0.8544921875,-0.3662109375,0.244140625,-1.03759765625,-0.8514404296875,32.3931884765625,174.0179443359375
1760837703.7655983,-0.5361328125,-0.00927734375,0.85302734375,-1.77001953125,0.0,-0.30517578125,-0.8734130859375,32.3876953125,174.0069580078125
1760837703.774642,-0.5361328125,-0.00927734375,0.85302734375,-1.77001953125,0.0,-0.30517578125,-0.8953857421875,32.3876953125,174.00146484375
1760837703.7831213,-0.54443359375,-0.00732421875,0.8359375,-1.3427734375,-0.244140625,0.0,-0.9063720703125,32.3876953125,173.9959716796875
1760837703.7903929,-0.54443359375,-0.00732421875,0.8359375,-1.3427734375,-0.244140625,0.0,-0.9173583984375,32.3822021484375,173.9959716796875
1760837703.7998848,-0.548828125,-0.0126953125,0.8388671875,-1.0986328125,-0.244140625,-0.3662109375,-0.933837890625,32.3822021484375,173.9849853515625
1760837703.8163817,-0.55078125,-0.017578125,0.83349609375,-1.15966796875,-0.3662109375,-0.8544921875,-0.94482421875,32.3822021484375,173.9794921875
1760837703.8280287,-0.55078125,-0.017578125,0.83349609375,-1.15966796875,-0.3662109375,-0.8544921875,-0.9613037109375,32.376708984375,173.968505859375
1760837703.8375783,-0.54541015625,-0.01611328125,0.8310546875,0.1220703125,-0.67138671875,-0.91552734375,-0.9722900390625,32.376708984375,173.95751953125
1760837703.845469,-0.54541015625,-0.01611328125,0.8310546875,0.1220703125,-0.67138671875,-0.91552734375,-0.977783203125,32.3712158203125,173.946533203125
1760837703.853679,-0.55419921875,-0.02294921875,0.84716796875,0.0,-1.03759765625,-0.8544921875,-0.9832763671875,32.36572265625,173.9410400390625
1760837703.8612282,-0.55419921875,-0.02294921875,0.84716796875,0.0,-1.03759765625,-0.8544921875,-0.98876953125,32.354736328125,173.9300537109375
1760837703.8747349,-0.55712890625,-0.0146484375,0.82958984375,0.91552734375,-1.28173828125,-0.79345703125,-0.98876953125,32.3492431640625,173.924560546875
1760837703.882383,-0.55712890625,-0.0146484375,0.82958984375,0.91552734375,-1.28173828125,-0.79345703125,-0.9832763671875,32.3382568359375,173.9190673828125
1760837703.890421,-0.5478515625,-0.017578125,0.830078125,2.3193359375,-1.0986328125,-1.03759765625,-0.9722900390625,32.332763671875,173.9080810546875
1760837703.8986382,-0.5478515625,-0.017578125,0.830078125,2.3193359375,-1.0986328125,-1.03759765625,-0.955810546875,32.3272705078125,173.8970947265625
1760837703.91381,-0.54150390625,-0.0244140625,0.84814453125,3.0517578125,-0.9765625,-1.28173828125,-0.9393310546875,32.32177734375,173.8861083984375
1760837703.9215627,-0.54150390625,-0.0244140625,0.84814453125,3.0517578125,-0.9765625,-1.28173828125,-0.9173583984375,32.3162841796875,173.8751220703125
1760837703.9293835,-0.537109375,-0.0126953125,0.849609375,3.173828125,-1.03759765625,-1.28173828125,-0.8953857421875,32.310791015625,173.858642578125
1760837703.937923,-0.537109375,-0.0126953125,0.849609375,3.173828125,-1.03759765625,-1.28173828125,-0.8734130859375,32.2998046875,173.84765625
1760837703.946567,-0.53369140625,-0.0078125,0.85107421875,2.5634765625,-1.03759765625,-1.0986328125,-0.85693359375,32.2943115234375,173.8311767578125
1760837703.9594123,-0.53369140625,-0.0078125,0.85107421875,2.5634765625,-1.03759765625,-1.0986328125,-0.8349609375,32.288818359375,173.8201904296875
1760837703.9688766,-0.5400390625,-0.01123046875,0.8447265625,1.77001953125,-0.8544921875,-0.8544921875,-0.823974609375,32.27783203125,173.8092041015625
1760837703.9762394,-0.5400390625,-0.01123046875,0.8447265625,1.77001953125,-0.8544921875,-0.8544921875,-0.81298828125,32.2723388671875,173.7982177734375
1760837703.9840434,-0.5380859375,-0.01513671875,0.8427734375,1.0986328125,-0.79345703125,-0.732421875,-0.802001953125,32.266845703125,173.792724609375
1760837703.9913309,-0.5380859375,-0.01513671875,0.8427734375,1.0986328125,-0.79345703125,-0.732421875,-0.7965087890625,32.2613525390625,173.78173828125
1760837703.9981682,-0.54052734375,-0.0126953125,0.84912109375,1.03759765625,-0.67138671875,-0.42724609375,-0.791015625,32.255859375,173.7762451171875
1760837704.0116553,-0.54052734375,-0.0126953125,0.84912109375,1.03759765625,-0.67138671875,-0.42724609375,-0.7855224609375,32.255859375,173.770751953125
1760837704.0200577,-0.53857421875,-0.01171875,0.85009765625,0.54931640625,-0.6103515625,-0.18310546875,-0.780029296875,32.2503662109375,173.7652587890625
1760837704.0285406,-0.53857421875,-0.01171875,0.85009765625,0.54931640625,-0.6103515625,-0.18310546875,-0.7745361328125,32.244873046875,173.759765625
1760837704.0379958,-0.53857421875,-0.01171875,0.84423828125,0.54931640625,-0.42724609375,-0.244140625,-0.7745361328125,32.244873046875,173.759765625
1760837704.0549405,-0.53857421875,-0.01171875,0.84423828125,0.54931640625,-0.42724609375,-0.244140625,-0.76904296875,32.2393798828125,173.7542724609375
1760837704.0641541,-0.5400390625,-0.01416015625,0.845703125,0.42724609375,-0.244140625,-0.30517578125,-0.76904296875,32.2393798828125,173.748779296875
1760837704.0742261,-0.5400390625,-0.01416015625,0.845703125,0.42724609375,-0.244140625,-0.30517578125,-0.7635498046875,32.2393798828125,173.7432861328125
1760837704.0823298,-0.5400390625,-0.01025390625,0.85009765625,0.18310546875,-0.1220703125,-0.244140625,-0.7635498046875,32.2393798828125,173.73779296875
1760837704.1067126,-0.5400390625,-0.01025390625,0.85009765625,0.18310546875,-0.1220703125,-0.244140625,-0.7635498046875,32.2393798828125,173.73779296875
1760837704.127003,-0.5302734375,-0.01123046875,0.85205078125,-0.54931640625,-0.1220703125,0.0,-0.76904296875,32.2393798828125,173.7322998046875
1760837704.1478035,-0.5302734375,-0.01123046875,0.85205078125,-0.54931640625,-0.1220703125,0.0,-0.7745361328125,32.2393798828125,173.7322998046875
1760837704.1628575,-0.53759765625,-0.01025390625,0.849609375,-0.48828125,-0.18310546875,0.1220703125,-0.780029296875,32.2393798828125,173.7322998046875
1760837704.1706772,-0.53759765625,-0.01025390625,0.849609375,-0.48828125,-0.18310546875,0.1220703125,-0.7855224609375,32.2393798828125,173.7322998046875
1760837704.199547,-0.53759765625,-0.01611328125,0.8388671875,-0.42724609375,0.0,0.18310546875,-0.7855224609375,32.2393798828125,173.7322998046875
1760837704.2137246,-0.53759765625,-0.01611328125,0.8388671875,-0.42724609375,0.0,0.18310546875,-0.791015625,32.2393798828125,173.73779296875
1760837704.2428827,-0.537109375,-0.017578125,0.845703125,0.0,0.06103515625,0.244140625,-0.791015625,32.2393798828125,173.73779296875
1760837704.2539139,-0.537109375,-0.017578125,0.845703125,0.0,0.06103515625,0.244140625,-0.791015625,32.244873046875,173.7432861328125
1760837704.275847,-0.53369140625,-0.0087890625,0.8544921875,0.732421875,-0.18310546875,0.244140625,-0.7855224609375,32.244873046875,173.7432861328125
1760837704.2865136,-0.53369140625,-0.0087890625,0.8544921875,0.732421875,-0.18310546875,0.244140625,-0.780029296875,32.244873046875,173.7432861328125
1760837704.293222,-0.52978515625,-0.00927734375,0.84716796875,0.6103515625,-0.48828125,0.1220703125,-0.7745361328125,32.2393798828125,173.748779296875
1760837704.3113933,-0.52978515625,-0.00927734375,0.84716796875,0.6103515625,-0.48828125,0.1220703125,-0.7635498046875,32.23388671875,173.748779296875
1760837704.3390462,-0.53515625,-0.01171875,0.8466796875,0.67138671875,-0.732421875,0.1220703125,-0.758056640625,32.2283935546875,173.748779296875
1760837704.3583949,-0.53515625,-0.01171875,0.8466796875,0.67138671875,-0.732421875,0.1220703125,-0.7525634765625,32.222900390625,173.748779296875
1760837704.3745532,-0.5361328125,-0.01416015625,0.84814453125,1.220703125,-0.732421875,0.0,-0.7415771484375,32.2174072265625,173.748779296875
1760837704.3840349,-0.5361328125,-0.01416015625,0.84814453125,1.220703125,-0.732421875,0.0,-0.7305908203125,32.2119140625,173.7432861328125
1760837704.4029696,-0.53076171875,-0.0048828125,0.8544921875,0.79345703125,-0.6103515625,-0.1220703125,-0.7196044921875,32.200927734375,173.7432861328125
1760837704.4096522,-0.53076171875,-0.0048828125,0.8544921875,0.79345703125,-0.6103515625,-0.1220703125,-0.714111328125,32.1954345703125,173.73779296875
1760837704.4158146,-0.5263671875,-0.0068359375,0.8525390625,1.0986328125,-0.732421875,-0.1220703125,-0.703125,32.18994140625,173.73779296875
1760837704.4220421,-0.5263671875,-0.0068359375,0.8525390625,1.0986328125,-0.732421875,-0.1220703125,-0.6976318359375,32.1844482421875,173.7322998046875
1760837704.4314783,-0.52734375,-0.00927734375,0.8515625,0.91552734375,-0.79345703125,-0.244140625,-0.6866455078125,32.1734619140625,173.7322998046875
1760837704.4545152,-0.52734375,-0.00927734375,0.8515625,0.91552734375,-0.79345703125,-0.244140625,-0.68115234375,32.16796875,173.726806640625
1760837704.463186,-0.53466796875,-0.01171875,0.8486328125,0.732421875,-0.8544921875,-0.30517578125,-0.670166015625,32.156982421875,173.7213134765625
1760837704.4820144,-0.53466796875,-0.01171875,0.8486328125,0.732421875,-0.8544921875,-0.30517578125,-0.6646728515625,32.14599609375,173.7158203125
1760837704.490194,-0.5361328125,-0.01318359375,0.85009765625,0.732421875,-0.91552734375,-0.30517578125,-0.6591796875,32.1405029296875,173.7103271484375
1760837704.4986508,-0.5361328125,-0.01318359375,0.85009765625,0.732421875,-0.91552734375,-0.30517578125,-0.6591796875,32.1295166015625,173.704833984375
1760837704.5066953,-0.53076171875,-0.00732421875,0.85107421875,0.42724609375,-0.8544921875,-0.1220703125,-0.6536865234375,32.1185302734375,173.6993408203125
1760837704.5137343,-0.53076171875,-0.00732421875,0.85107421875,0.42724609375,-0.8544921875,-0.1220703125,-0.648193359375,32.113037109375,173.69384765625
1760837704.5207253,-0.525390625,-0.0078125,0.85888671875,-0.06103515625,-0.79345703125,0.0,-0.648193359375,32.10205078125,173.6883544921875
1760837704.5401618,-0.525390625,-0.0078125,0.85888671875,-0.06103515625,-0.79345703125,0.0,-0.648193359375,32.0965576171875,173.6883544921875
1760837704.5483763,-0.52685546875,-0.01025390625,0.85205078125,-0.8544921875,-0.54931640625,0.1220703125,-0.6536865234375,32.0855712890625,173.6883544921875
1760837704.5556073,-0.52685546875,-0.01025390625,0.85205078125,-0.8544921875,-0.54931640625,0.1220703125,-0.6591796875,32.080078125,173.682861328125
1760837704.563425,-0.529296875,-0.013671875,0.84814453125,-1.03759765625,-0.42724609375,0.30517578125,-0.670166015625,32.0745849609375,173.682861328125
1760837704.5758533,-0.529296875,-0.013671875,0.84814453125,-1.03759765625,-0.42724609375,0.30517578125,-0.6756591796875,32.069091796875,173.682861328125
1760837704.5872927,-0.53515625,-0.0166015625,0.85205078125,-0.48828125,-0.42724609375,0.42724609375,-0.68115234375,32.0635986328125,173.682861328125
1760837704.6069355,-0.53515625,-0.0166015625,0.85205078125,-0.48828125,-0.42724609375,0.42724609375,-0.6866455078125,32.05810546875,173.682861328125
1760837704.614724,-0.5341796875,-0.01220703125,0.84521484375,-0.1220703125,-0.48828125,0.54931640625,-0.6866455078125,32.05810546875,173.6883544921875
1760837704.6230278,-0.5341796875,-0.01220703125,0.84521484375,-0.1220703125,-0.48828125,0.54931640625,-0.6866455078125,32.0526123046875,173.69384765625
1760837704.62941,-0.537109375,-0.01220703125,0.8505859375,-0.06103515625,-0.54931640625,0.67138671875,-0.68115234375,32.047119140625,173.69384765625
1760837704.6357167,-0.537109375,-0.01220703125,0.8505859375,-0.06103515625,-0.54931640625,0.67138671875,-0.68115234375,32.0416259765625,173.704833984375
1760837704.644059,-0.53466796875,-0.01123046875,0.8505859375,-0.48828125,-0.42724609375,0.732421875,-0.6756591796875,32.0361328125,173.7103271484375
1760837704.6503925,-0.53466796875,-0.01123046875,0.8505859375,-0.48828125,-0.42724609375,0.732421875,-0.68115234375,32.0306396484375,173.7158203125
1760837704.656834,-0.53466796875,-0.01025390625,0.8505859375,-0.3662109375,-0.18310546875,0.732421875,-0.68115234375,32.0306396484375,173.7213134765625
1760837704.6648204,-0.53466796875,-0.01025390625,0.8505859375,-0.3662109375,-0.18310546875,0.732421875,-0.68115234375,32.025146484375,173.7322998046875
1760837704.6715767,-0.52880859375,-0.0107421875,0.849609375,-0.3662109375,0.06103515625,0.732421875,-0.68115234375,32.025146484375,173.73779296875
1760837704.6779304,-0.52880859375,-0.0107421875,0.849609375,-0.3662109375,0.06103515625,0.732421875,-0.6756591796875,32.0306396484375,173.748779296875
1760837704.6845822,-0.5283203125,-0.01220703125,0.849609375,-0.30517578125,0.1220703125,0.79345703125,-0.6756591796875,32.0306396484375,173.7542724609375
1760837704.6912947,-0.5283203125,-0.01220703125,0.849609375,-0.30517578125,0.1220703125,0.79345703125,-0.6756591796875,32.0306396484375,173.7652587890625
1760837704.703082,-0.5283203125,-0.0107421875,0.8525390625,0.18310546875,-0.06103515625,0.8544921875,-0.670166015625,32.0306396484375,173.770751953125
1760837704.7100627,-0.5283203125,-0.0107421875,0.8525390625,0.18310546875,-0.06103515625,0.8544921875,-0.6646728515625,32.0306396484375,173.78173828125
1760837704.7164896,-0.5263671875,-0.005859375,0.861328125,-0.30517578125,-0.42724609375,0.8544921875,-0.6591796875,32.025146484375,173.7872314453125
1760837704.7227294,-0.5263671875,-0.005859375,0.861328125,-0.30517578125,-0.42724609375,0.8544921875,-0.6591796875,32.025146484375,173.792724609375
1760837704.730185,-0.52734375,-0.00439453125,0.8525390625,-0.91552734375,-0.6103515625,0.8544921875,-0.6591796875,32.01416015625,173.7982177734375
1760837704.738931,-0.52734375,-0.00439453125,0.8525390625,-0.91552734375,-0.6103515625,0.8544921875,-0.6646728515625,32.0086669921875,173.8037109375
1760837704.7534904,-0.5283203125,-0.00537109375,0.8466796875,-1.03759765625,-0.67138671875,0.79345703125,-0.670166015625,32.003173828125,173.814697265625
1760837704.760119,-0.5283203125,-0.00537109375,0.8466796875,-1.03759765625,-0.67138671875,0.79345703125,-0.6756591796875,31.9976806640625,173.8201904296875
1760837704.7669997,-0.53125,-0.01220703125,0.84765625,-0.732421875,-0.54931640625,0.67138671875,-0.6756591796875,31.9866943359375,173.82568359375
1760837704.774189,-0.53125,-0.01220703125,0.84765625,-0.732421875,-0.54931640625,0.67138671875,-0.68115234375,31.981201171875,173.8311767578125
1760837704.7884433,-0.541015625,-0.01513671875,0.85400390625,-0.8544921875,-0.54931640625,0.48828125,-0.68115234375,31.9757080078125,173.8311767578125
1760837704.796304,-0.541015625,-0.01513671875,0.85400390625,-0.8544921875,-0.54931640625,0.48828125,-0.6866455078125,31.97021484375,173.836669921875
1760837704.803225,-0.53857421875,-0.009765625,0.84619140625,-0.48828125,-0.67138671875,0.6103515625,-0.692138671875,31.9647216796875,173.8421630859375
1760837704.8110604,-0.53857421875,-0.009765625,0.84619140625,-0.48828125,-0.67138671875,0.6103515625,-0.692138671875,31.959228515625,173.84765625
1760837704.818354,-0.53564453125,-0.013671875,0.84912109375,-0.54931640625,-0.6103515625,0.8544921875,-0.692138671875,31.9537353515625,173.858642578125
1760837704.8251934,-0.53564453125,-0.013671875,0.84912109375,-0.54931640625,-0.6103515625,0.8544921875,-0.692138671875,31.9482421875,173.8641357421875
1760837704.8313937,-0.53515625,-0.00830078125,0.84765625,-1.15966796875,-0.67138671875,1.0986328125,-0.6976318359375,31.9427490234375,173.8751220703125
1760837704.8493135,-0.53515625,-0.00830078125,0.84765625,-1.15966796875,-0.67138671875,1.0986328125,-0.703125,31.937255859375,173.8916015625
1760837704.8572114,-0.5361328125,-0.01513671875,0.845703125,-0.54931640625,-0.54931640625,1.220703125,-0.703125,31.9317626953125,173.902587890625
1760837704.8634229,-0.5361328125,-0.01513671875,0.845703125,-0.54931640625,-0.54931640625,1.220703125,-0.6976318359375,31.9317626953125,173.9190673828125
1760837704.8699427,-0.5361328125,-0.01123046875,0.85546875,-0.54931640625,-0.30517578125,1.15966796875,-0.6976318359375,31.92626953125,173.9300537109375
1760837704.8770995,-0.5361328125,-0.01123046875,0.85546875,-0.54931640625,-0.30517578125,1.15966796875,-0.6976318359375,31.92626953125,173.946533203125
1760837704.8936222,-0.5341796875,-0.01513671875,0.8515625,0.30517578125,0.0,1.0986328125,-0.692138671875,31.92626953125,173.9630126953125
1760837704.9013777,-0.5341796875,-0.01513671875,0.8515625,0.30517578125,0.0,1.0986328125,-0.68115234375,31.92626953125,173.9739990234375
1760837704.9098814,-0.52978515625,-0.0126953125,0.84912109375,0.48828125,0.30517578125,0.91552734375,-0.670166015625,31.9317626953125,173.9849853515625
1760837704.9176135,-0.52978515625,-0.0126953125,0.84912109375,0.48828125,0.30517578125,0.91552734375,-0.6646728515625,31.937255859375,173.9959716796875
1760837704.9320962,-0.53173828125,-0.00537109375,0.84912109375,0.0,0.732421875,0.8544921875,-0.6591796875,31.9427490234375,174.0069580078125
1760837704.9398892,-0.53173828125,-0.00537109375,0.84912109375,0.0,0.732421875,0.8544921875,-0.6536865234375,31.9537353515625,174.0179443359375
1760837704.949488,-0.53369140625,-0.00634765625,0.8544921875,0.06103515625,0.67138671875,1.03759765625,-0.648193359375,31.959228515625,174.0289306640625
1760837704.956224,-0.53369140625,-0.00634765625,0.8544921875,0.06103515625,0.67138671875,1.03759765625,-0.63720703125,31.9647216796875,174.0399169921875
1760837704.9741192,-0.53466796875,-0.0107421875,0.85400390625,0.0,0.48828125,1.15966796875,-0.6317138671875,31.9757080078125,174.056396484375
1760837704.981577,-0.53466796875,-0.0107421875,0.85400390625,0.0,0.48828125,1.15966796875,-0.626220703125,31.981201171875,174.0673828125
1760837704.9883215,-0.52978515625,-0.0009765625,0.84326171875,-0.6103515625,0.244140625,1.15966796875,-0.626220703125,31.981201171875,174.0838623046875
1760837704.9952374,-0.52978515625,-0.0009765625,0.84326171875,-0.6103515625,0.244140625,1.15966796875,-0.626220703125,31.9866943359375,174.0948486328125
1760837705.0101311,-0.52783203125,-0.00732421875,0.8486328125,-1.28173828125,0.0,1.28173828125,-0.626220703125,31.9866943359375,174.111328125
1760837705.017795,-0.52783203125,-0.00732421875,0.8486328125,-1.28173828125,0.0,1.28173828125,-0.6317138671875,31.9866943359375,174.1278076171875
1760837705.025397,-0.52978515625,-0.01025390625,0.859375,-0.30517578125,-0.6103515625,1.15966796875,-0.626220703125,31.981201171875,174.1387939453125
1760837705.0340428,-0.52978515625,-0.01025390625,0.859375,-0.30517578125,-0.6103515625,1.15966796875,-0.6207275390625,31.9757080078125,174.1552734375
1760837705.0420973,-0.52978515625,-0.001953125,0.84130859375,0.79345703125,-1.03759765625,0.732421875,-0.6097412109375,31.9647216796875,174.1607666015625
1760837705.059232,-0.52978515625,-0.001953125,0.84130859375,0.79345703125,-1.03759765625,0.732421875,-0.5987548828125,31.9537353515625,174.1717529296875
1760837705.0679615,-0.53466796875,-0.0107421875,0.84326171875,0.244140625,-0.9765625,0.3662109375,-0.59326171875,31.9427490234375,174.17724609375
1760837705.0752406,-0.53466796875,-0.0107421875,0.84326171875,0.244140625,-0.9765625,0.3662109375,-0.5877685546875,31.937255859375,174.1827392578125
1760837705.0838616,-0.533203125,-0.01416015625,0.85009765625,-0.30517578125,-0.9765625,0.06103515625,-0.5877685546875,31.92626953125,174.1827392578125
1760837705.0992596,-0.533203125,-0.01416015625,0.85009765625,-0.30517578125,-0.9765625,0.06103515625,-0.59326171875,31.9207763671875,174.1827392578125
1760837705.106149,-0.53662109375,-0.01513671875,0.8525390625,0.79345703125,-1.28173828125,0.1220703125,-0.582275390625,31.904296875,174.188232421875
1760837705.1132934,-0.53662109375,-0.01513671875,0.8525390625,0.79345703125,-1.28173828125,0.1220703125,-0.5767822265625,31.893310546875,174.188232421875
1760837705.1198516,-0.52685546875,-0.01318359375,0.8466796875,1.953125,-1.46484375,0.18310546875,-0.5548095703125,31.88232421875,174.188232421875
1760837705.1338499,-0.52685546875,-0.01318359375,0.8466796875,1.953125,-1.46484375,0.18310546875,-0.5328369140625,31.8658447265625,174.1937255859375
1760837705.141877,-0.5224609375,-0.0068359375,0.84521484375,1.953125,-1.46484375,0.18310546875,-0.516357421875,31.8548583984375,174.1937255859375
1760837705.148668,-0.5224609375,-0.0068359375,0.84521484375,1.953125,-1.46484375,0.18310546875,-0.494384765625,31.8438720703125,174.1937255859375
1760837705.1557417,-0.52978515625,-0.005859375,0.8623046875,1.3427734375,-1.46484375,0.18310546875,-0.4833984375,31.827392578125,174.1937255859375
1760837705.1632783,-0.52978515625,-0.005859375,0.8623046875,1.3427734375,-1.46484375,0.18310546875,-0.4669189453125,31.8109130859375,174.19921875
1760837705.1790268,-0.52685546875,-0.005859375,0.85693359375,1.8310546875,-1.40380859375,0.1220703125,-0.450439453125,31.7999267578125,174.19921875
1760837705.1876996,-0.52685546875,-0.005859375,0.85693359375,1.8310546875,-1.40380859375,0.1220703125,-0.4339599609375,31.7889404296875,174.19921875
1760837705.1950471,-0.533203125,-0.0068359375,0.85400390625,1.89208984375,-1.220703125,0.18310546875,-0.4119873046875,31.7724609375,174.19921875
1760837705.2134387,-0.533203125,-0.0068359375,0.85400390625,1.89208984375,-1.220703125,0.18310546875,-0.3955078125,31.761474609375,174.19921875
1760837705.2215428,-0.52197265625,-0.00439453125,0.84326171875,1.953125,-0.9765625,0.244140625,-0.37353515625,31.7559814453125,174.2047119140625
1760837705.229104,-0.52197265625,-0.00439453125,0.84326171875,1.953125,-0.9765625,0.244140625,-0.3515625,31.7449951171875,174.210205078125
1760837705.2370348,-0.5234375,-0.00732421875,0.857421875,1.64794921875,-0.9765625,0.3662109375,-0.3350830078125,31.7340087890625,174.210205078125
1760837705.2515838,-0.5234375,-0.00732421875,0.857421875,1.64794921875,-0.9765625,0.3662109375,-0.318603515625,31.728515625,174.2156982421875
1760837705.258265,-0.52978515625,-0.001953125,0.85888671875,0.8544921875,-1.15966796875,0.48828125,-0.3076171875,31.717529296875,174.22119140625
1760837705.2664533,-0.52978515625,-0.001953125,0.85888671875,0.8544921875,-1.15966796875,0.48828125,-0.296630859375,31.7010498046875,174.2266845703125
1760837705.2730997,-0.52685546875,0.00146484375,0.849609375,0.42724609375,-1.15966796875,0.6103515625,-0.2911376953125,31.6900634765625,174.2376708984375
1760837705.2802918,-0.52685546875,0.00146484375,0.849609375,0.42724609375,-1.15966796875,0.6103515625,-0.2801513671875,31.6790771484375,174.2431640625
1760837705.296572,-0.53125,-0.0068359375,0.85400390625,0.244140625,-1.15966796875,0.732421875,-0.274658203125,31.6680908203125,174.254150390625
1760837705.3044014,-0.53125,-0.0068359375,0.85400390625,0.244140625,-1.15966796875,0.732421875,-0.2691650390625,31.6571044921875,174.26513671875
1760837705.3115711,-0.52783203125,-0.0068359375,0.85400390625,0.67138671875,-1.0986328125,0.79345703125,-0.2581787109375,31.651611328125,174.276123046875
1760837705.3212168,-0.52783203125,-0.0068359375,0.85400390625,0.67138671875,-1.0986328125,0.79345703125,-0.2471923828125,31.640625,174.287109375
1760837705.3379579,-0.52880859375,-0.00634765625,0.85205078125,0.6103515625,-1.0986328125,0.8544921875,-0.2362060546875,31.629638671875,174.3035888671875
1760837705.3457572,-0.52880859375,-0.00634765625,0.85205078125,0.6103515625,-1.0986328125,0.8544921875,-0.2252197265625,31.61865234375,174.3145751953125
1760837705.352648,-0.51953125,-0.00439453125,0.85400390625,0.18310546875,-1.220703125,1.03759765625,-0.2197265625,31.607666015625,174.3255615234375
1760837705.3628094,-0.51953125,-0.00439453125,0.85400390625,0.18310546875,-1.220703125,1.03759765625,-0.208740234375,31.5966796875,174.342041015625
1760837705.3779197,-0.52490234375,-0.001953125,0.853515625,0.3662109375,-1.3427734375,1.28173828125,-0.19775390625,31.585693359375,174.35302734375
1760837705.3853452,-0.52490234375,-0.001953125,0.853515625,0.3662109375,-1.3427734375,1.28173828125,-0.1922607421875,31.5692138671875,174.3695068359375
1760837705.3917382,-0.52490234375,-0.00830078125,0.859375,0.42724609375,-1.40380859375,1.46484375,-0.17578125,31.5582275390625,174.3914794921875
1760837705.398266,-0.52490234375,-0.00830078125,0.859375,0.42724609375,-1.40380859375,1.46484375,-0.164794921875,31.541748046875,174.407958984375
1760837705.40487,-0.52294921875,-0.00390625,0.8515625,0.54931640625,-1.40380859375,1.52587890625,-0.15380859375,31.53076171875,174.429931640625
1760837705.4186919,-0.52294921875,-0.00390625,0.8515625,0.54931640625,-1.40380859375,1.52587890625,-0.1373291015625,31.5142822265625,174.4464111328125
1760837705.4270978,-0.51904296875,0.0,0.85595703125,0.732421875,-1.3427734375,1.5869140625,-0.120849609375,31.5032958984375,174.462890625
1760837705.4345305,-0.51904296875,0.0,0.85595703125,0.732421875,-1.3427734375,1.5869140625,-0.1043701171875,31.4923095703125,174.48486328125
1760837705.4485939,-0.521484375,0.0029296875,0.861328125,-0.06103515625,-1.28173828125,1.64794921875,-0.098876953125,31.475830078125,174.5013427734375
1760837705.4694705,-0.521484375,0.0029296875,0.861328125,-0.06103515625,-1.28173828125,1.64794921875,-0.087890625,31.46484375,174.5233154296875
1760837705.4869652,-0.51953125,0.00634765625,0.85498046875,-0.9765625,-1.28173828125,1.64794921875,-0.087890625,31.453857421875,174.5452880859375
1760837705.5092075,-0.51953125,0.00634765625,0.85498046875,-0.9765625,-1.28173828125,1.64794921875,-0.087890625,31.4373779296875,174.561767578125
1760837705.515425,-0.52099609375,0.00244140625,0.861328125,-1.8310546875,-1.220703125,1.8310546875,-0.0933837890625,31.4263916015625,174.583740234375
1760837705.5220447,-0.52099609375,0.00244140625,0.861328125,-1.8310546875,-1.220703125,1.8310546875,-0.1043701171875,31.4154052734375,174.605712890625
1760837705.5439808,-0.5166015625,-0.00146484375,0.8583984375,-1.8310546875,-1.28173828125,2.01416015625,-0.10986328125,31.4044189453125,174.6331787109375
1760837705.572097,-0.5166015625,-0.00146484375,0.8583984375,-1.8310546875,-1.28173828125,2.01416015625,-0.1153564453125,31.387939453125,174.6551513671875
1760837705.5896196,-0.51123046875,-0.00341796875,0.85498046875,-0.67138671875,-1.220703125,1.89208984375,-0.10986328125,31.376953125,174.6771240234375
1760837705.5969694,-0.51123046875,-0.00341796875,0.85498046875,-0.67138671875,-1.220703125,1.89208984375,-0.1043701171875,31.365966796875,174.6990966796875
1760837705.6320968,-0.5107421875,-0.005859375,0.869140625,-0.42724609375,-1.15966796875,1.3427734375,-0.098876953125,31.3494873046875,174.715576171875
1760837705.6420841,-0.5107421875,-0.005859375,0.869140625,-0.42724609375,-1.15966796875,1.3427734375,-0.0933837890625,31.3385009765625,174.7265625
1760837705.6599302,-0.51025390625,-0.00537109375,0.86865234375,0.30517578125,-1.15966796875,0.91552734375,-0.087890625,31.3275146484375,174.737548828125
1760837705.6669083,-0.51025390625,-0.00537109375,0.86865234375,0.30517578125,-1.15966796875,0.91552734375,-0.076904296875,31.31103515625,174.74853515625
1760837705.6945133,-0.513671875,0.00341796875,0.8583984375,0.244140625,-1.03759765625,0.91552734375,-0.0714111328125,31.300048828125,174.7540283203125
1760837705.7028174,-0.513671875,0.00341796875,0.8583984375,0.244140625,-1.03759765625,0.91552734375,-0.06591796875,31.2890625,174.7650146484375
1760837705.7178338,-0.5322265625,0.005859375,0.85888671875,0.18310546875,-0.8544921875,1.28173828125,-0.054931640625,31.278076171875,174.781494140625
1760837705.7442555,-0.5322265625,0.005859375,0.85888671875,0.18310546875,-0.8544921875,1.28173828125,-0.0439453125,31.26708984375,174.7979736328125
1760837705.758144,-0.5390625,0.00634765625,0.84619140625,-0.8544921875,-0.67138671875,1.77001953125,-0.0439453125,31.2615966796875,174.8199462890625
1760837705.7794998,-0.5390625,0.00634765625,0.84619140625,-0.8544921875,-0.67138671875,1.77001953125,-0.0384521484375,31.256103515625,174.8419189453125
1760837705.7859266,-0.54150390625,0.00341796875,0.84375,-1.8310546875,-0.54931640625,1.953125,-0.0439453125,31.2506103515625,174.869384765625
1760837705.7997987,-0.54150390625,0.00341796875,0.84375,-1.8310546875,-0.54931640625,1.953125,-0.0494384765625,31.2451171875,174.8968505859375
1760837705.8271785,-0.54541015625,-0.00146484375,0.84375,-2.0751953125,-0.42724609375,1.5869140625,-0.0604248046875,31.2451171875,174.9188232421875
1760837705.8349812,-0.54541015625,-0.00146484375,0.84375,-2.0751953125,-0.42724609375,1.5869140625,-0.0714111328125,31.2451171875,174.9462890625
1760837705.8510835,-0.54931640625,-0.00341796875,0.8310546875,-2.5634765625,-0.18310546875,1.15966796875,-0.087890625,31.2451171875,174.9627685546875
1760837705.8721116,-0.54931640625,-0.00341796875,0.8310546875,-2.5634765625,-0.18310546875,1.15966796875,-0.1043701171875,31.2506103515625,174.9847412109375
1760837705.8815243,-0.5361328125,-0.00830078125,0.8466796875,-0.91552734375,-0.1220703125,0.79345703125,-0.10986328125,31.256103515625,175.001220703125
1760837705.888285,-0.5361328125,-0.00830078125,0.8466796875,-0.91552734375,-0.1220703125,0.79345703125,-0.1153564453125,31.256103515625,175.0177001953125
1760837705.8947132,-0.5400390625,-0.0029296875,0.8564453125,-0.1220703125,-0.30517578125,0.6103515625,-0.10986328125,31.2615966796875,175.0341796875
1760837705.9041424,-0.5400390625,-0.0029296875,0.8564453125,-0.1220703125,-0.30517578125,0.6103515625,-0.10986328125,31.2615966796875,175.0506591796875
1760837705.9114833,-0.5263671875,-0.00146484375,0.8447265625,0.48828125,-0.48828125,0.3662109375,-0.1043701171875,31.2615966796875,175.0616455078125
1760837705.9176297,-0.5263671875,-0.00146484375,0.8447265625,0.48828125,-0.48828125,0.3662109375,-0.0933837890625,31.2615966796875,175.0726318359375
1760837705.925473,-0.5283203125,0.001953125,0.85595703125,0.91552734375,-0.54931640625,0.18310546875,-0.087890625,31.2615966796875,175.0836181640625
1760837705.9405396,-0.5283203125,0.001953125,0.85595703125,0.91552734375,-0.54931640625,0.18310546875,-0.076904296875,31.2615966796875,175.0946044921875
1760837705.9479206,-0.5185546875,0.0029296875,0.85546875,0.3662109375,-0.732421875,-0.1220703125,-0.0714111328125,31.2615966796875,175.10009765625
1760837705.9543834,-0.5185546875,0.0029296875,0.85546875,0.3662109375,-0.732421875,-0.1220703125,-0.0714111328125,31.256103515625,175.1055908203125
1760837705.963455,-0.5166015625,0.001953125,0.85986328125,0.3662109375,-0.54931640625,-0.42724609375,-0.06591796875,31.256103515625,175.111083984375
1760837705.970911,-0.5166015625,0.001953125,0.85986328125,0.3662109375,-0.54931640625,-0.42724609375,-0.06591796875,31.2506103515625,175.111083984375
1760837705.986844,-0.521484375,0.0029296875,0.86328125,0.30517578125,-0.42724609375,-0.6103515625,-0.06591796875,31.2506103515625,175.111083984375
1760837705.9949307,-0.521484375,0.0029296875,0.86328125,0.30517578125,-0.42724609375,-0.6103515625,-0.06591796875,31.2506103515625,175.1055908203125
1760837706.004226,-0.52001953125,0.00634765625,0.859375,0.48828125,-0.48828125,-0.732421875,-0.06591796875,31.2451171875,175.10009765625
1760837706.0198243,-0.52001953125,0.00634765625,0.859375,0.48828125,-0.48828125,-0.732421875,-0.06591796875,31.2451171875,175.10009765625
1760837706.0282235,-0.51318359375,-0.00146484375,0.8564453125,-0.3662109375,-0.42724609375,-0.79345703125,-0.0714111328125,31.2396240234375,175.0946044921875
1760837706.035981,-0.521484375,-0.00048828125,0.8671875,-0.54931640625,-0.42724609375,-0.732421875,-0.076904296875,31.2396240234375,175.089111328125
1760837706.0445395,-0.521484375,-0.00048828125,0.8671875,-0.54931640625,-0.42724609375,-0.732421875,-0.087890625,31.234130859375,175.089111328125
1760837706.0519671,-0.5263671875,0.0009765625,0.85205078125,-0.67138671875,-0.30517578125,-0.732421875,-0.098876953125,31.2286376953125,175.0836181640625
1760837706.0604692,-0.5263671875,0.0009765625,0.85205078125,-0.67138671875,-0.30517578125,-0.732421875,-0.10986328125,31.2286376953125,175.078125
1760837706.0679321,-0.52783203125,-0.0048828125,0.8544921875,-0.3662109375,-0.1220703125,-0.8544921875,-0.1153564453125,31.2286376953125,175.078125
1760837706.0765433,-0.52783203125,-0.0048828125,0.8544921875,-0.3662109375,-0.1220703125,-0.8544921875,-0.1263427734375,31.2286376953125,175.0726318359375
1760837706.0827284,-0.5263671875,-0.005859375,0.8583984375,0.3662109375,-0.18310546875,-0.9765625,-0.1318359375,31.2286376953125,175.067138671875
1760837706.0901432,-0.5263671875,-0.005859375,0.8583984375,0.3662109375,-0.18310546875,-0.9765625,-0.1318359375,31.2286376953125,175.05615234375
1760837706.0988781,-0.53369140625,0.0009765625,0.84033203125,0.3662109375,-0.06103515625,-0.8544921875,-0.1318359375,31.2286376953125,175.0506591796875
1760837706.1063504,-0.53369140625,0.0009765625,0.84033203125,0.3662109375,-0.06103515625,-0.8544921875,-0.1318359375,31.2286376953125,175.0506591796875
1760837706.1143808,-0.52880859375,-0.00732421875,0.84912109375,0.3662109375,0.0,-0.8544921875,-0.1373291015625,31.234130859375,175.045166015625
1760837706.1214545,-0.52880859375,-0.00732421875,0.84912109375,0.3662109375,0.0,-0.8544921875,-0.1373291015625,31.234130859375,175.0396728515625
1760837706.1299527,-0.5322265625,-0.005859375,0.85009765625,1.40380859375,-0.1220703125,-0.8544921875,-0.1318359375,31.2396240234375,175.0396728515625
1760837706.1370482,-0.5322265625,-0.005859375,0.85009765625,1.40380859375,-0.1220703125,-0.8544921875,-0.1263427734375,31.2396240234375,175.0341796875
1760837706.1439438,-0.5263671875,-0.00439453125,0.8486328125,2.01416015625,-0.48828125,-0.91552734375,-0.1153564453125,31.2396240234375,175.0341796875
1760837706.1522956,-0.5263671875,-0.00439453125,0.8486328125,2.01416015625,-0.48828125,-0.91552734375,-0.098876953125,31.2396240234375,175.0286865234375
1760837706.159899,-0.525390625,-0.00341796875,0.85107421875,2.86865234375,-0.91552734375,-0.91552734375,-0.0823974609375,31.234130859375,175.0286865234375
1760837706.1677122,-0.525390625,-0.00341796875,0.85107421875,2.86865234375,-0.91552734375,-0.91552734375,-0.0604248046875,31.2286376953125,175.0177001953125
1760837706.1740398,-0.52197265625,0.0029296875,0.85791015625,3.2958984375,-1.28173828125,-1.03759765625,-0.032958984375,31.2176513671875,175.01220703125
1760837706.1805649,-0.52197265625,0.0029296875,0.85791015625,3.2958984375,-1.28173828125,-1.03759765625,-0.010986328125,31.212158203125,175.0067138671875
1760837706.1880977,-0.52197265625,0.01416015625,0.85888671875,2.44140625,-1.28173828125,-1.28173828125,0.0054931640625,31.201171875,174.9957275390625
1760837706.1958253,-0.52197265625,0.01416015625,0.85888671875,2.44140625,-1.28173828125,-1.28173828125,0.02197265625,31.190185546875,174.9847412109375
1760837706.20369,-0.52197265625,0.01416015625,0.85888671875,1.52587890625,-0.79345703125,-1.5869140625,0.032958984375,31.1846923828125,174.9737548828125
1760837706.211103,-0.52294921875,0.0068359375,0.86669921875,1.52587890625,-0.79345703125,-1.5869140625,0.0384521484375,31.17919921875,174.957275390625
1760837706.2194996,-0.51708984375,-0.001953125,0.859375,1.0986328125,0.0,-1.89208984375,0.0439453125,31.1737060546875,174.9407958984375
1760837706.2263713,-0.51708984375,-0.001953125,0.859375,1.0986328125,0.0,-1.89208984375,0.0439453125,31.1737060546875,174.92431640625
1760837706.2341645,-0.51220703125,-0.00439453125,0.85888671875,1.40380859375,0.54931640625,-1.77001953125,0.0439453125,31.17919921875,174.9078369140625
1760837706.2411447,-0.51220703125,-0.00439453125,0.85888671875,1.40380859375,0.54931640625,-1.77001953125,0.0494384765625,31.1846923828125,174.8858642578125
1760837706.2494226,-0.5126953125,-0.0029296875,0.8623046875,1.5869140625,0.3662109375,-1.46484375,0.054931640625,31.190185546875,174.869384765625
1760837706.25629,-0.5126953125,-0.0029296875,0.8623046875,1.5869140625,0.3662109375,-1.46484375,0.0604248046875,31.1956787109375,174.8583984375
1760837706.263521,-0.51220703125,-0.00048828125,0.859375,1.28173828125,-0.06103515625,-0.9765625,0.06591796875,31.1956787109375,174.8419189453125
1760837706.2712839,-0.51220703125,-0.00048828125,0.859375,1.28173828125,-0.06103515625,-0.9765625,0.0714111328125,31.1956787109375,174.8309326171875
1760837706.280209,-0.5107421875,0.00537109375,0.85888671875,0.91552734375,-0.3662109375,-0.732421875,0.076904296875,31.1956787109375,174.825439453125
1760837706.2874148,-0.5107421875,0.00537109375,0.85888671875,0.91552734375,-0.3662109375,-0.732421875,0.0823974609375,31.190185546875,174.814453125
1760837706.2953427,-0.51953125,0.0009765625,0.8603515625,0.42724609375,-0.3662109375,-0.732421875,0.0823974609375,31.1846923828125,174.8089599609375
1760837706.3030257,-0.51953125,0.0009765625,0.8603515625,0.42724609375,-0.3662109375,-0.732421875,0.0823974609375,31.17919921875,174.7979736328125
1760837706.311112,-0.51806640625,0.00244140625,0.86181640625,0.30517578125,-0.3662109375,-0.79345703125,0.0823974609375,31.17919921875,174.79248046875
1760837706.318878,-0.51806640625,0.00244140625,0.86181640625,0.30517578125,-0.3662109375,-0.79345703125,0.0823974609375,31.1737060546875,174.781494140625
1760837706.3262517,-0.517578125,-0.00146484375,0.8564453125,0.54931640625,-0.244140625,-0.8544921875,0.0823974609375,31.168212890625,174.7705078125
1760837706.3354297,-0.517578125,-0.00146484375,0.8564453125,0.54931640625,-0.244140625,-0.8544921875,0.0823974609375,31.168212890625,174.759521484375
1760837706.342001,-0.5126953125,-0.0009765625,0.857421875,0.9765625,-0.18310546875,-0.8544921875,0.0823974609375,31.1627197265625,174.74853515625
1760837706.348195,-0.5126953125,-0.0009765625,0.857421875,0.9765625,-0.18310546875,-0.8544921875,0.087890625,31.1627197265625,174.737548828125
1760837706.3552756,-0.5234375,0.00439453125,0.8671875,1.28173828125,-0.18310546875,-0.91552734375,0.0933837890625,31.1572265625,174.7265625
1760837706.3636577,-0.5234375,0.00439453125,0.8671875,1.28173828125,-0.18310546875,-0.91552734375,0.098876953125,31.1572265625,174.715576171875
1760837706.371169,-0.513671875,0.0029296875,0.859375,1.03759765625,-0.18310546875,-0.91552734375,0.1043701171875,31.1517333984375,174.70458984375
1760837706.3800297,-0.513671875,0.0029296875,0.859375,1.03759765625,-0.18310546875,-0.91552734375,0.10986328125,31.1517333984375,174.6881103515625
1760837706.3876941,-0.5166015625,-0.00048828125,0.85693359375,0.42724609375,-0.30517578125,-0.8544921875,0.10986328125,31.146240234375,174.6771240234375
1760837706.3961103,-0.5166015625,-0.00048828125,0.85693359375,0.42724609375,-0.30517578125,-0.8544921875,0.10986328125,31.1407470703125,174.671630859375
1760837706.40355,-0.5224609375,0.0029296875,0.85693359375,0.67138671875,-0.54931640625,-0.6103515625,0.10986328125,31.1407470703125,174.66064453125
1760837706.4103987,-0.5224609375,0.0029296875,0.85693359375,0.67138671875,-0.54931640625,-0.6103515625,0.1153564453125,31.13525390625,174.6551513671875
1760837706.4191873,-0.52587890625,-0.00390625,0.85693359375,0.244140625,-0.6103515625,-0.48828125,0.1153564453125,31.124267578125,174.649658203125
1760837706.4269512,-0.52587890625,-0.00390625,0.85693359375,0.244140625,-0.6103515625,-0.48828125,0.1153564453125,31.1187744140625,174.6441650390625
1760837706.434869,-0.5185546875,0.0,0.85595703125,0.42724609375,-0.67138671875,-0.244140625,0.1153564453125,31.11328125,174.6441650390625
1760837706.4420416,-0.5185546875,0.0,0.85595703125,0.42724609375,-0.67138671875,-0.244140625,0.1153564453125,31.1077880859375,174.638671875
1760837706.4497926,-0.5244140625,0.00146484375,0.85986328125,0.48828125,-0.67138671875,-0.18310546875,0.120849609375,31.102294921875,174.638671875
1760837706.4579005,-0.5244140625,0.00146484375,0.85986328125,0.48828125,-0.67138671875,-0.18310546875,0.120849609375,31.0968017578125,174.638671875
1760837706.4645617,-0.5185546875,0.00634765625,0.853515625,0.0,-0.6103515625,-0.06103515625,0.1263427734375,31.09130859375,174.638671875
1760837706.472481,-0.5185546875,0.00634765625,0.853515625,0.0,-0.6103515625,-0.06103515625,0.120849609375,31.0858154296875,174.638671875
1760837706.4803498,-0.50830078125,0.001953125,0.86181640625,0.1220703125,-0.67138671875,-0.06103515625,0.120849609375,31.080322265625,174.638671875
1760837706.4868302,-0.50830078125,0.001953125,0.86181640625,0.1220703125,-0.67138671875,-0.06103515625,0.1263427734375,31.0748291015625,174.638671875
1760837706.4933617,-0.50390625,0.0009765625,0.87109375,0.48828125,-1.0986328125,-0.244140625,0.1263427734375,31.0638427734375,174.638671875
1760837706.5015202,-0.50390625,0.0009765625,0.87109375,0.48828125,-1.0986328125,-0.244140625,0.1318359375,31.0528564453125,174.638671875
1760837706.508217,-0.50146484375,0.00048828125,0.8662109375,0.8544921875,-1.28173828125,-0.42724609375,0.1318359375,31.0418701171875,174.6331787109375
1760837706.5187464,-0.50146484375,0.00048828125,0.8662109375,0.8544921875,-1.28173828125,-0.42724609375,0.1373291015625,31.025390625,174.627685546875
1760837706.5277922,-0.5,0.00732421875,0.865234375,0.244140625,-1.28173828125,-0.6103515625,0.142822265625,31.0089111328125,174.61669921875
1760837706.5349493,-0.5,0.00732421875,0.865234375,0.244140625,-1.28173828125,-0.6103515625,0.142822265625,30.9979248046875,174.605712890625
1760837706.5423613,-0.51025390625,0.0068359375,0.8681640625,0.0,-1.28173828125,-0.67138671875,0.1373291015625,30.9814453125,174.5947265625
1760837706.5496523,-0.51025390625,0.0068359375,0.8681640625,0.0,-1.28173828125,-0.67138671875,0.1318359375,30.9649658203125,174.583740234375
1760837706.5595243,-0.51513671875,0.001953125,0.86083984375,-0.8544921875,-1.220703125,-0.67138671875,0.1263427734375,30.9539794921875,174.57275390625
1760837706.566984,-0.51513671875,0.001953125,0.86083984375,-0.8544921875,-1.220703125,-0.67138671875,0.1153564453125,30.9375,174.5672607421875
1760837706.5740173,-0.51220703125,0.0009765625,0.853515625,-0.54931640625,-1.15966796875,-0.48828125,0.1043701171875,30.926513671875,174.5562744140625
1760837706.581437,-0.51220703125,0.0009765625,0.853515625,-0.54931640625,-1.15966796875,-0.48828125,0.098876953125,30.9100341796875,174.55078125
1760837706.5893123,-0.5146484375,-0.00390625,0.86376953125,0.0,-1.40380859375,-0.48828125,0.0933837890625,30.8990478515625,174.5452880859375
1760837706.596429,-0.5146484375,-0.00390625,0.86376953125,0.0,-1.40380859375,-0.48828125,0.087890625,30.882568359375,174.539794921875
1760837706.6039307,-0.5146484375,-0.00390625,0.86376953125,0.79345703125,-1.89208984375,-0.732421875,0.087890625,30.8660888671875,174.52880859375
1760837706.6107128,-0.51025390625,0.00146484375,0.86083984375,0.79345703125,-1.89208984375,-0.732421875,0.0933837890625,30.8441162109375,174.5233154296875
1760837706.6217384,-0.5107421875,-0.00048828125,0.8583984375,1.5869140625,-2.13623046875,-1.03759765625,0.098876953125,30.8221435546875,174.5123291015625
1760837706.6281955,-0.5107421875,-0.00048828125,0.8583984375,1.5869140625,-2.13623046875,-1.03759765625,0.10986328125,30.8001708984375,174.5013427734375
1760837706.634395,-0.515625,0.00439453125,0.86181640625,1.0986328125,-2.13623046875,-1.28173828125,0.1153564453125,30.7781982421875,174.4903564453125
1760837706.642528,-0.515625,0.00439453125,0.86181640625,1.0986328125,-2.13623046875,-1.28173828125,0.1153564453125,30.7562255859375,174.473876953125
1760837706.649219,-0.51953125,0.0,0.85888671875,1.03759765625,-1.89208984375,-1.40380859375,0.120849609375,30.73974609375,174.4573974609375
1760837706.6562982,-0.51953125,0.0,0.85888671875,1.03759765625,-1.89208984375,-1.40380859375,0.120849609375,30.7177734375,174.44091796875
1760837706.6635141,-0.51220703125,0.005859375,0.8671875,0.18310546875,-1.64794921875,-1.0986328125,0.120849609375,30.7012939453125,174.429931640625
1760837706.6717818,-0.51220703125,0.005859375,0.8671875,0.18310546875,-1.64794921875,-1.0986328125,0.1153564453125,30.684814453125,174.4189453125
1760837706.6795728,-0.5146484375,0.00341796875,0.87158203125,0.06103515625,-1.46484375,-0.6103515625,0.10986328125,30.673828125,174.407958984375
1760837706.687586,-0.5146484375,0.00341796875,0.87158203125,0.06103515625,-1.46484375,-0.6103515625,0.10986328125,30.6573486328125,174.4024658203125
1760837706.6947522,-0.5068359375,0.0,0.8603515625,-0.67138671875,-1.15966796875,-0.18310546875,0.1043701171875,30.6463623046875,174.4024658203125
1760837706.703861,-0.5068359375,0.0,0.8603515625,-0.67138671875,-1.15966796875,-0.18310546875,0.098876953125,30.6353759765625,174.4024658203125
1760837706.711675,-0.5078125,0.0,0.86376953125,-1.28173828125,-0.79345703125,0.0,0.087890625,30.6243896484375,174.4024658203125
1760837706.7189481,-0.5078125,0.0,0.86376953125,-1.28173828125,-0.79345703125,0.0,0.076904296875,30.618896484375,174.4024658203125
1760837706.7270064,-0.51220703125,0.00048828125,0.87353515625,-2.0751953125,-0.30517578125,0.18310546875,0.0604248046875,30.6134033203125,174.407958984375
1760837706.7346723,-0.51220703125,0.00048828125,0.87353515625,-2.0751953125,-0.30517578125,0.18310546875,0.0384521484375,30.60791015625,174.407958984375
1760837706.7410927,-0.509765625,0.00048828125,0.8623046875,-1.40380859375,0.0,0.42724609375,0.02197265625,30.60791015625,174.4134521484375
1760837706.748257,-0.509765625,0.00048828125,0.8623046875,-1.40380859375,0.0,0.42724609375,0.010986328125,30.60791015625,174.4189453125
1760837706.754617,-0.5107421875,-0.00244140625,0.86181640625,-1.220703125,0.18310546875,0.48828125,0.0,30.60791015625,174.429931640625
1760837706.762602,-0.5107421875,-0.00244140625,0.86181640625,-1.220703125,0.18310546875,0.48828125,0.0,30.60791015625,174.4354248046875
1760837706.7712004,-0.51611328125,-0.00927734375,0.86572265625,-1.77001953125,0.42724609375,0.48828125,-0.010986328125,30.6134033203125,174.4464111328125
1760837706.7795036,-0.51611328125,-0.00927734375,0.86572265625,-1.77001953125,0.42724609375,0.48828125,-0.0274658203125,30.618896484375,174.451904296875
1760837706.788298,-0.515625,-0.00048828125,0.85888671875,-1.64794921875,0.6103515625,0.67138671875,-0.0439453125,30.6243896484375,174.4573974609375
1760837706.7958515,-0.515625,-0.00048828125,0.85888671875,-1.64794921875,0.6103515625,0.67138671875,-0.054931640625,30.6298828125,174.4683837890625
1760837706.8035865,-0.51416015625,-0.00634765625,0.86279296875,-1.8310546875,0.42724609375,0.91552734375,-0.06591796875,30.6353759765625,174.4793701171875
1760837706.813444,-0.51416015625,-0.00634765625,0.86279296875,-1.8310546875,0.42724609375,0.91552734375,-0.0823974609375,30.640869140625,174.4903564453125
1760837706.8218138,-0.515625,0.0,0.857421875,-1.03759765625,0.30517578125,0.9765625,-0.0823974609375,30.640869140625,174.5013427734375
1760837706.8300195,-0.515625,0.0,0.857421875,-1.03759765625,0.30517578125,0.9765625,-0.087890625,30.6463623046875,174.5123291015625
1760837706.836713,-0.515625,0.00048828125,0.857421875,-0.8544921875,0.1220703125,0.732421875,-0.0933837890625,30.65185546875,174.5233154296875
1760837706.8437726,-0.515625,0.00048828125,0.857421875,-0.8544921875,0.1220703125,0.732421875,-0.098876953125,30.65185546875,174.52880859375
1760837706.852022,-0.51171875,0.001953125,0.86474609375,-1.40380859375,0.0,0.6103515625,-0.10986328125,30.65185546875,174.539794921875
1760837706.8588798,-0.51171875,0.001953125,0.86474609375,-1.40380859375,0.0,0.6103515625,-0.1153564453125,30.65185546875,174.5452880859375
1760837706.865783,-0.5126953125,0.0048828125,0.86328125,-1.64794921875,-0.1220703125,0.67138671875,-0.1318359375,30.65185546875,174.5562744140625
1760837706.8734393,-0.5126953125,0.0048828125,0.86328125,-1.64794921875,-0.1220703125,0.67138671875,-0.142822265625,30.65185546875,174.5672607421875
1760837706.8805716,-0.51953125,0.001953125,0.85595703125,-2.25830078125,-0.1220703125,0.54931640625,-0.1593017578125,30.65185546875,174.57275390625
1760837706.8877752,-0.51953125,0.001953125,0.85595703125,-2.25830078125,-0.1220703125,0.54931640625,-0.17578125,30.65185546875,174.583740234375
1760837706.8962889,-0.5224609375,-0.00732421875,0.85009765625,-1.52587890625,0.06103515625,0.30517578125,-0.1922607421875,30.65185546875,174.5892333984375
1760837706.9040236,-0.5224609375,-0.00732421875,0.85009765625,-1.52587890625,0.06103515625,0.30517578125,-0.2032470703125,30.6573486328125,174.6002197265625
1760837706.9118881,-0.52294921875,-0.00390625,0.859375,-1.708984375,0.244140625,0.06103515625,-0.2197265625,30.662841796875,174.6002197265625
1760837706.9202862,-0.52294921875,-0.00390625,0.859375,-1.708984375,0.244140625,0.06103515625,-0.2362060546875,30.6683349609375,174.605712890625
1760837706.9279737,-0.5224609375,-0.00341796875,0.85791015625,-1.8310546875,0.244140625,0.06103515625,-0.252685546875,30.6683349609375,174.6112060546875
1760837706.9362104,-0.5224609375,-0.00341796875,0.85791015625,-1.8310546875,0.244140625,0.06103515625,-0.2691650390625,30.673828125,174.6112060546875
1760837706.9432292,-0.5224609375,-0.00732421875,0.85595703125,-1.0986328125,0.06103515625,0.06103515625,-0.2801513671875,30.6793212890625,174.61669921875
1760837706.9511855,-0.5224609375,-0.00732421875,0.85595703125,-1.0986328125,0.06103515625,0.06103515625,-0.28564453125,30.684814453125,174.6221923828125
1760837706.9582376,-0.50390625,-0.00537109375,0.8525390625,-0.30517578125,-0.06103515625,-0.06103515625,-0.2911376953125,30.684814453125,174.627685546875
1760837706.965941,-0.50390625,-0.00537109375,0.8525390625,-0.30517578125,-0.06103515625,-0.06103515625,-0.2911376953125,30.684814453125,174.627685546875
1760837706.9740088,-0.50390625,-0.00537109375,0.8525390625,0.732421875,-0.30517578125,-0.3662109375,-0.28564453125,30.684814453125,174.627685546875
1760837706.9814117,-0.5107421875,-0.0087890625,0.869140625,0.732421875,-0.30517578125,-0.3662109375,-0.28564453125,30.684814453125,174.627685546875
1760837706.9894574,-0.4990234375,-0.00341796875,0.86669921875,1.46484375,-0.9765625,-0.67138671875,-0.274658203125,30.673828125,174.61669921875
1760837706.9975998,-0.4990234375,-0.00341796875,0.86669921875,1.46484375,-0.9765625,-0.67138671875,-0.263671875,30.6683349609375,174.6112060546875
1760837707.0042775,-0.49755859375,-0.0048828125,0.85791015625,1.46484375,-1.52587890625,-0.79345703125,-0.252685546875,30.65185546875,174.6002197265625
1760837707.013633,-0.49755859375,-0.0048828125,0.85791015625,1.46484375,-1.52587890625,-0.79345703125,-0.24169921875,30.6353759765625,174.5947265625
1760837707.0212648,-0.50634765625,-0.00390625,0.8681640625,1.5869140625,-1.89208984375,-0.8544921875,-0.230712890625,30.618896484375,174.583740234375
1760837707.027912,-0.50634765625,-0.00390625,0.8681640625,1.5869140625,-1.89208984375,-0.8544921875,-0.2197265625,30.596923828125,174.57275390625
1760837707.0353873,-0.51318359375,-0.00634765625,0.86474609375,2.25830078125,-2.25830078125,-0.9765625,-0.2032470703125,30.574951171875,174.561767578125
1760837707.0419896,-0.51318359375,-0.00634765625,0.86474609375,2.25830078125,-2.25830078125,-0.9765625,-0.186767578125,30.552978515625,174.55078125
1760837707.0497847,-0.51806640625,0.0,0.85986328125,3.41796875,-2.50244140625,-1.03759765625,-0.1593017578125,30.5255126953125,174.539794921875
1760837707.056503,-0.51806640625,0.0,0.85986328125,3.41796875,-2.50244140625,-1.03759765625,-0.1318359375,30.5035400390625,174.52880859375
1760837707.0643435,-0.517578125,-0.001953125,0.8583984375,3.47900390625,-2.44140625,-1.0986328125,-0.1043701171875,30.4815673828125,174.517822265625
1760837707.0723512,-0.517578125,-0.001953125,0.8583984375,3.47900390625,-2.44140625,-1.0986328125,-0.076904296875,30.4595947265625,174.5068359375
1760837707.0818098,-0.51318359375,0.00390625,0.8583984375,2.86865234375,-2.25830078125,-1.03759765625,-0.054931640625,30.4376220703125,174.495849609375
1760837707.0893385,-0.51318359375,0.00390625,0.8583984375,2.86865234375,-2.25830078125,-1.03759765625,-0.032958984375,30.4156494140625,174.4903564453125
1760837707.0979807,-0.5166015625,0.0,0.861328125,1.64794921875,-2.0751953125,-0.79345703125,-0.02197265625,30.399169921875,174.48486328125
1760837707.104457,-0.5166015625,0.0,0.861328125,1.64794921875,-2.0751953125,-0.79345703125,-0.010986328125,30.377197265625,174.473876953125
1760837707.124254,-0.5224609375,-0.00048828125,0.8623046875,0.732421875,-1.8310546875,-0.42724609375,-0.0054931640625,30.3662109375,174.473876953125
1760837707.1313055,-0.5224609375,-0.00048828125,0.8623046875,0.732421875,-1.8310546875,-0.42724609375,-0.0054931640625,30.3497314453125,174.473876953125
1760837707.1396394,-0.52099609375,-0.001953125,0.86083984375,1.40380859375,-1.52587890625,-0.18310546875,0.0054931640625,30.3387451171875,174.473876953125
1760837707.1464372,-0.52099609375,-0.001953125,0.86083984375,1.40380859375,-1.52587890625,-0.18310546875,0.0164794921875,30.3277587890625,174.4793701171875
1760837707.1532884,-0.52978515625,-0.00146484375,0.8603515625,2.01416015625,-1.0986328125,0.06103515625,0.032958984375,30.3167724609375,174.48486328125
1760837707.1611612,-0.52978515625,-0.00146484375,0.8603515625,2.01416015625,-1.0986328125,0.06103515625,0.054931640625,30.311279296875,174.4903564453125
1760837707.1681528,-0.5263671875,0.0,0.85693359375,1.5869140625,-0.6103515625,0.3662109375,0.0714111328125,30.311279296875,174.5013427734375
1760837707.1747587,-0.5263671875,0.0,0.85693359375,1.5869140625,-0.6103515625,0.3662109375,0.087890625,30.311279296875,174.5123291015625
1760837707.1818528,-0.51806640625,0.00146484375,0.8564453125,0.48828125,0.0,0.54931640625,0.0933837890625,30.3167724609375,174.52880859375
1760837707.1889293,-0.51806640625,0.00146484375,0.8564453125,0.48828125,0.0,0.54931640625,0.1043701171875,30.322265625,174.539794921875
1760837707.195723,-0.51318359375,0.00146484375,0.86328125,0.18310546875,0.3662109375,0.48828125,0.1043701171875,30.3277587890625,174.5562744140625
1760837707.205185,-0.51318359375,0.00146484375,0.86328125,0.18310546875,0.3662109375,0.48828125,0.10986328125,30.3387451171875,174.5672607421875
1760837707.2116594,-0.51123046875,0.00390625,0.86181640625,0.6103515625,0.42724609375,0.42724609375,0.1153564453125,30.34423828125,174.5782470703125
1760837707.2200532,-0.51123046875,0.00390625,0.86181640625,0.6103515625,0.42724609375,0.42724609375,0.1263427734375,30.355224609375,174.5892333984375
1760837707.227713,-0.5126953125,-0.00341796875,0.859375,0.91552734375,0.3662109375,0.18310546875,0.1373291015625,30.3607177734375,174.5947265625
1760837707.2447355,-0.5126953125,-0.00341796875,0.859375,0.91552734375,0.3662109375,0.18310546875,0.142822265625,30.3662109375,174.605712890625
1760837707.2512703,-0.50732421875,-0.00439453125,0.86962890625,1.3427734375,0.42724609375,0.0,0.1593017578125,30.377197265625,174.6112060546875
1760837707.2575312,-0.50732421875,-0.00439453125,0.86962890625,1.3427734375,0.42724609375,0.0,0.1702880859375,30.3826904296875,174.6112060546875
1760837707.26566,-0.5048828125,0.0048828125,0.87548828125,2.13623046875,0.42724609375,0.0,0.186767578125,30.38818359375,174.61669921875
1760837707.2751117,-0.5048828125,0.0048828125,0.87548828125,2.13623046875,0.42724609375,0.0,0.208740234375,30.3936767578125,174.61669921875
1760837707.2832015,-0.5,0.00341796875,0.86865234375,2.9296875,0.42724609375,0.0,0.2362060546875,30.399169921875,174.6221923828125
1760837707.2899547,-0.5,0.00341796875,0.86865234375,2.9296875,0.42724609375,0.0,0.263671875,30.4046630859375,174.6221923828125
1760837707.2963917,-0.50244140625,0.00146484375,0.86474609375,2.685546875,0.3662109375,0.0,0.2911376953125,30.41015625,174.627685546875
1760837707.3047452,-0.50244140625,0.00146484375,0.86474609375,2.685546875,0.3662109375,0.0,0.3131103515625,30.4156494140625,174.627685546875
1760837707.3132474,-0.51318359375,0.00732421875,0.865234375,2.50244140625,0.1220703125,-0.1220703125,0.340576171875,30.4156494140625,174.627685546875
1760837707.3197343,-0.51318359375,0.00732421875,0.865234375,2.50244140625,0.1220703125,-0.1220703125,0.362548828125,30.4156494140625,174.627685546875
1760837707.329343,-0.521484375,0.0107421875,0.85986328125,1.77001953125,0.0,-0.1220703125,0.3790283203125,30.4156494140625,174.6331787109375
1760837707.3367286,-0.521484375,0.0107421875,0.85986328125,1.77001953125,0.0,-0.1220703125,0.3955078125,30.421142578125,174.6331787109375
1760837707.3440804,-0.52587890625,0.01171875,0.8515625,1.64794921875,-0.06103515625,0.0,0.406494140625,30.421142578125,174.638671875
1760837707.3504665,-0.52587890625,0.01171875,0.8515625,1.64794921875,-0.06103515625,0.0,0.4229736328125,30.421142578125,174.638671875
1760837707.3566644,-0.52392578125,0.01025390625,0.85546875,0.48828125,-0.06103515625,0.06103515625,0.428466796875,30.4266357421875,174.6441650390625
1760837707.3639512,-0.52392578125,0.01025390625,0.85546875,0.48828125,-0.06103515625,0.06103515625,0.4339599609375,30.4266357421875,174.6551513671875
1760837707.3712327,-0.51904296875,0.01123046875,0.8515625,-0.48828125,0.0,0.06103515625,0.428466796875,30.43212890625,174.66064453125
1760837707.3804495,-0.51904296875,0.01123046875,0.8515625,-0.48828125,0.0,0.06103515625,0.428466796875,30.43212890625,174.6661376953125
1760837707.3893507,-0.51904296875,0.01123046875,0.8515625,-0.3662109375,0.0,-0.06103515625,0.4229736328125,30.4376220703125,174.671630859375
1760837707.3958411,-0.51611328125,0.0078125,0.86181640625,-0.3662109375,0.0,-0.06103515625,0.41748046875,30.443115234375,174.6771240234375
1760837707.4028304,-0.51123046875,0.00390625,0.8623046875,-0.18310546875,-0.18310546875,-0.244140625,0.41748046875,30.443115234375,174.6826171875
1760837707.4116852,-0.51123046875,0.00390625,0.8623046875,-0.18310546875,-0.18310546875,-0.244140625,0.4119873046875,30.443115234375,174.6826171875
1760837707.4208202,-0.5078125,0.0068359375,0.86474609375,0.0,-0.30517578125,-0.3662109375,0.4119873046875,30.443115234375,174.6826171875
1760837707.429402,-0.5078125,0.0068359375,0.86474609375,0.0,-0.30517578125,-0.3662109375,0.406494140625,30.443115234375,174.6826171875
1760837707.4358375,-0.5078125,0.0048828125,0.86572265625,0.0,-0.42724609375,-0.30517578125,0.406494140625,30.443115234375,174.6826171875
1760837707.4428658,-0.5078125,0.0048828125,0.86572265625,0.0,-0.42724609375,-0.30517578125,0.406494140625,30.4376220703125,174.6826171875
1760837707.451249,-0.50390625,0.00341796875,0.865234375,0.732421875,-0.42724609375,-0.244140625,0.4119873046875,30.4376220703125,174.6771240234375
1760837707.4595156,-0.50390625,0.00341796875,0.865234375,0.732421875,-0.42724609375,-0.244140625,0.41748046875,30.43212890625,174.6771240234375
1760837707.4703894,-0.49267578125,0.00048828125,0.86767578125,0.91552734375,-0.54931640625,-0.30517578125,0.4229736328125,30.4266357421875,174.671630859375
1760837707.4786227,-0.49267578125,0.00048828125,0.86767578125,0.91552734375,-0.54931640625,-0.30517578125,0.428466796875,30.421142578125,174.671630859375
1760837707.487392,-0.4931640625,0.0009765625,0.880859375,1.52587890625,-0.67138671875,-0.244140625,0.4449462890625,30.4156494140625,174.6661376953125
1760837707.4988697,-0.4931640625,0.0009765625,0.880859375,1.52587890625,-0.67138671875,-0.244140625,0.4559326171875,30.41015625,174.66064453125
1760837707.5098963,-0.494140625,0.00537109375,0.87353515625,2.197265625,-0.732421875,-0.244140625,0.472412109375,30.399169921875,174.6551513671875
1760837707.519141,-0.494140625,0.00537109375,0.87353515625,2.197265625,-0.732421875,-0.244140625,0.494384765625,30.3936767578125,174.649658203125
1760837707.5296996,-0.49462890625,0.00732421875,0.8681640625,2.44140625,-0.67138671875,-0.42724609375,0.516357421875,30.3826904296875,174.638671875
1760837707.5401845,-0.49462890625,0.00732421875,0.8681640625,2.44140625,-0.67138671875,-0.42724609375,0.5328369140625,30.3717041015625,174.6331787109375
1760837707.5504444,-0.4970703125,0.00732421875,0.8740234375,2.01416015625,-0.732421875,-0.54931640625,0.54931640625,30.3662109375,174.6221923828125
1760837707.5587215,-0.4970703125,0.00732421875,0.8740234375,2.01416015625,-0.732421875,-0.54931640625,0.5657958984375,30.355224609375,174.6112060546875
1760837707.5708055,-0.50390625,0.01416015625,0.87255859375,2.25830078125,-0.91552734375,-0.54931640625,0.582275390625,30.34423828125,174.6002197265625
1760837707.5815349,-0.50390625,0.01416015625,0.87255859375,2.25830078125,-0.91552734375,-0.54931640625,0.604248046875,30.333251953125,174.5892333984375
1760837707.5907087,-0.5087890625,0.01806640625,0.8603515625,1.708984375,-0.8544921875,-0.79345703125,0.615234375,30.322265625,174.5782470703125
1760837707.6005104,-0.5087890625,0.01806640625,0.8603515625,1.708984375,-0.8544921875,-0.79345703125,0.626220703125,30.311279296875,174.5672607421875
1760837707.610418,-0.51025390625,0.015625,0.8623046875,0.48828125,-0.732421875,-0.8544921875,0.626220703125,30.3057861328125,174.5562744140625
1760837707.6172407,-0.51025390625,0.015625,0.8623046875,0.48828125,-0.732421875,-0.8544921875,0.626220703125,30.2947998046875,174.5452880859375
1760837707.6275678,-0.51416015625,0.01123046875,0.86181640625,-0.18310546875,-0.6103515625,-0.91552734375,0.6207275390625,30.289306640625,174.5343017578125
1760837707.6381297,-0.51416015625,0.01123046875,0.86181640625,-0.18310546875,-0.6103515625,-0.91552734375,0.615234375,30.2838134765625,174.5233154296875
1760837707.6472163,-0.51416015625,0.00830078125,0.85693359375,0.18310546875,-0.9765625,-0.79345703125,0.6097412109375,30.2728271484375,174.5123291015625
1760837707.6598494,-0.51318359375,0.00439453125,0.8544921875,-0.18310546875,-1.03759765625,-0.732421875,0.604248046875,30.2618408203125,174.5068359375
1760837707.668486,-0.51318359375,0.00439453125,0.8544921875,-0.18310546875,-1.03759765625,-0.732421875,0.5987548828125,30.25634765625,174.5013427734375
1760837707.6787727,-0.482421875,0.0107421875,0.87109375,-1.03759765625,-1.0986328125,-0.732421875,0.5877685546875,30.245361328125,174.4903564453125
1760837707.6891375,-0.482421875,0.0107421875,0.87109375,-1.03759765625,-1.0986328125,-0.732421875,0.5767822265625,30.234375,174.48486328125
1760837707.6987224,-0.50244140625,0.0146484375,0.88623046875,-0.6103515625,-1.40380859375,-0.91552734375,0.560302734375,30.223388671875,174.473876953125
1760837707.7096457,-0.50244140625,0.0146484375,0.88623046875,-0.6103515625,-1.40380859375,-0.91552734375,0.54931640625,30.2069091796875,174.462890625
1760837707.7177057,-0.49462890625,0.00732421875,0.8662109375,-0.42724609375,-1.708984375,-1.03759765625,0.5438232421875,30.1904296875,174.451904296875
1760837707.7274818,-0.49462890625,0.00732421875,0.8662109375,-0.42724609375,-1.708984375,-1.03759765625,0.5328369140625,30.1739501953125,174.44091796875
1760837707.7397377,-0.501953125,0.00927734375,0.86572265625,-0.48828125,-1.64794921875,-1.03759765625,0.5218505859375,30.157470703125,174.429931640625
1760837707.7491374,-0.501953125,0.00927734375,0.86572265625,-0.48828125,-1.64794921875,-1.03759765625,0.5108642578125,30.1409912109375,174.4134521484375
1760837707.7588787,-0.4990234375,0.00439453125,0.87353515625,-0.67138671875,-1.5869140625,-0.9765625,0.4998779296875,30.12451171875,174.4024658203125
1760837707.7672603,-0.4990234375,0.00439453125,0.87353515625,-0.67138671875,-1.5869140625,-0.9765625,0.4888916015625,30.1080322265625,174.3914794921875
1760837707.7780302,-0.50830078125,0.005859375,0.87060546875,-0.54931640625,-1.52587890625,-0.9765625,0.4779052734375,30.091552734375,174.3804931640625
1760837707.7873454,-0.50830078125,0.005859375,0.87060546875,-0.54931640625,-1.52587890625,-0.9765625,0.4669189453125,30.0750732421875,174.3695068359375
1760837707.7976186,-0.509765625,0.00244140625,0.86083984375,-0.18310546875,-1.28173828125,-0.732421875,0.4559326171875,30.05859375,174.3585205078125
1760837707.807457,-0.509765625,0.00244140625,0.86083984375,-0.18310546875,-1.28173828125,-0.732421875,0.450439453125,30.047607421875,174.35302734375
1760837707.8198211,-0.5078125,0.0,0.86279296875,-0.1220703125,-1.03759765625,-0.48828125,0.4449462890625,30.03662109375,174.3475341796875
1760837707.8278525,-0.5078125,0.0,0.86279296875,-0.1220703125,-1.03759765625,-0.48828125,0.4449462890625,30.025634765625,174.342041015625
1760837707.8385177,-0.5078125,0.00390625,0.86865234375,-0.3662109375,-0.91552734375,-0.18310546875,0.439453125,30.0201416015625,174.3365478515625
1760837707.847428,-0.5078125,0.00390625,0.86865234375,-0.3662109375,-0.91552734375,-0.18310546875,0.4339599609375,30.0091552734375,174.3365478515625
