timestamp,acc_x,acc_y,acc_z,gyro_x,gyro_y,gyro_z,angle_x,angle_y,angle_z
1761051984.1910453,-0.6904296875,0.11767578125,0.716796875,-32.40966796875,-1.28173828125,1.0986328125,3.6859130859375,42.4951171875,-150.7928466796875
1761051984.2012587,-0.75,0.0654296875,0.7919921875,-38.63525390625,-2.685546875,1.40380859375,3.36181640625,42.4676513671875,-150.7708740234375
1761051984.2153723,-0.75,0.0654296875,0.7919921875,-38.63525390625,-2.685546875,1.40380859375,3.0047607421875,42.4346923828125,-150.7379150390625
1761051984.2312138,-0.75390625,-0.00732421875,0.73974609375,-47.8515625,-1.46484375,2.3193359375,2.6092529296875,42.4127197265625,-150.699462890625
1761051984.24003,-0.75390625,-0.00732421875,0.73974609375,-47.8515625,-1.46484375,2.3193359375,2.17529296875,42.396240234375,-150.655517578125
1761051984.2483296,-0.79638671875,-0.03857421875,0.5908203125,-41.015625,-1.40380859375,2.86865234375,1.768798828125,42.3797607421875,-150.6060791015625
1761051984.2576494,-0.79638671875,-0.03857421875,0.5908203125,-41.015625,-1.40380859375,2.86865234375,1.4007568359375,42.374267578125,-150.5511474609375
1761051984.2650025,-0.841796875,-0.03955078125,0.6005859375,-17.27294921875,-1.64794921875,2.01416015625,1.1480712890625,42.374267578125,-150.4962158203125
1761051984.271737,-0.841796875,-0.03955078125,0.6005859375,-17.27294921875,-1.64794921875,2.01416015625,1.0052490234375,42.3797607421875,-150.44677734375
1761051984.2796342,-0.8095703125,-0.0146484375,0.6806640625,-3.7841796875,-2.38037109375,1.220703125,0.9228515625,42.38525390625,-150.40283203125
1761051984.2892332,-0.8095703125,-0.0146484375,0.6806640625,-3.7841796875,-2.38037109375,1.220703125,0.90087890625,42.38525390625,-150.3643798828125
1761051984.2994492,-0.80419921875,0.02978515625,0.69580078125,0.48828125,-0.42724609375,1.3427734375,0.90087890625,42.4017333984375,-150.325927734375
1761051984.309292,-0.80419921875,0.02978515625,0.69580078125,0.48828125,-0.42724609375,1.3427734375,0.9173583984375,42.4237060546875,-150.281982421875
1761051984.3192542,-0.763671875,0.03466796875,0.59912109375,-2.685546875,-0.6103515625,1.3427734375,0.9283447265625,42.451171875,-150.2325439453125
1761051984.3338099,-0.763671875,0.03466796875,0.59912109375,-2.685546875,-0.6103515625,1.3427734375,0.9173583984375,42.4786376953125,-150.1885986328125
1761051984.340185,-0.75244140625,0.00927734375,0.63427734375,-5.06591796875,-0.244140625,1.15966796875,0.8953857421875,42.5115966796875,-150.13916015625
1761051984.3493338,-0.75244140625,0.00927734375,0.63427734375,-5.06591796875,-0.244140625,1.15966796875,0.85693359375,42.5445556640625,-150.0897216796875
1761051984.3593342,-0.71728515625,-0.01318359375,0.7080078125,-0.244140625,0.3662109375,0.54931640625,0.8624267578125,42.5775146484375,-150.05126953125
1761051984.3696811,-0.71728515625,-0.01318359375,0.7080078125,-0.244140625,0.3662109375,0.54931640625,0.867919921875,42.615966796875,-150.018310546875
1761051984.3797503,-0.69189453125,0.01220703125,0.7626953125,-0.42724609375,0.244140625,0.54931640625,0.867919921875,42.64892578125,-149.9853515625
1761051984.3895864,-0.69189453125,0.01220703125,0.7626953125,-0.42724609375,0.244140625,0.54931640625,0.8734130859375,42.6763916015625,-149.952392578125
1761051984.399793,-0.66943359375,0.0263671875,0.73193359375,-4.39453125,0.244140625,0.6103515625,0.8349609375,42.703857421875,-149.9249267578125
1761051984.409733,-0.66943359375,0.0263671875,0.73193359375,-4.39453125,0.244140625,0.6103515625,0.802001953125,42.725830078125,-149.8974609375
1761051984.4196894,-0.65234375,0.01220703125,0.74267578125,-5.4931640625,-0.1220703125,0.54931640625,0.7525634765625,42.7423095703125,-149.8699951171875
1761051984.429844,-0.65234375,0.01220703125,0.74267578125,-5.4931640625,-0.1220703125,0.54931640625,0.7086181640625,42.7532958984375,-149.8480224609375
1761051984.4393675,-0.6552734375,-0.00634765625,0.796875,-3.84521484375,-0.06103515625,0.732421875,0.68115234375,42.7642822265625,-149.820556640625
1761051984.4497387,-0.6552734375,-0.00634765625,0.796875,-3.84521484375,-0.06103515625,0.732421875,0.648193359375,42.7752685546875,-149.798583984375
1761051984.459476,-0.65771484375,-0.0146484375,0.79150390625,-2.86865234375,0.18310546875,0.79345703125,0.6317138671875,42.78076171875,-149.7821044921875
1761051984.4696903,-0.65771484375,-0.0146484375,0.79150390625,-2.86865234375,0.18310546875,0.79345703125,0.6097412109375,42.7862548828125,-149.765625
1761051984.4796743,-0.64990234375,0.04443359375,0.74462890625,-6.7138671875,-0.06103515625,1.15966796875,0.5548095703125,42.7862548828125,-149.74365234375
1761051984.4943511,-0.64990234375,0.04443359375,0.74462890625,-6.7138671875,-0.06103515625,1.15966796875,0.4998779296875,42.7862548828125,-149.7216796875
1761051984.500448,-0.6611328125,0.0263671875,0.74609375,-7.62939453125,-0.8544921875,0.3662109375,0.428466796875,42.78076171875,-149.7052001953125
1761051984.5094452,-0.6611328125,0.0263671875,0.74609375,-7.62939453125,-0.8544921875,0.3662109375,0.362548828125,42.769775390625,-149.6942138671875
1761051984.5194411,-0.66357421875,-0.0126953125,0.77001953125,-7.2021484375,-1.0986328125,0.42724609375,0.3021240234375,42.7587890625,-149.6832275390625
1761051984.5294466,-0.66357421875,-0.0126953125,0.77001953125,-7.2021484375,-1.0986328125,0.42724609375,0.2362060546875,42.7423095703125,-149.6722412109375
1761051984.5394504,-0.67626953125,-0.01611328125,0.77197265625,-6.28662109375,-0.9765625,0.54931640625,0.1812744140625,42.7313232421875,-149.65576171875
1761051984.5494704,-0.67626953125,-0.01611328125,0.77197265625,-6.28662109375,-0.9765625,0.54931640625,0.1263427734375,42.71484375,-149.6502685546875
1761051984.5594702,-0.67138671875,0.01611328125,0.72705078125,-7.080078125,-0.79345703125,0.42724609375,0.0604248046875,42.703857421875,-149.6392822265625
1761051984.5694861,-0.67138671875,0.01611328125,0.72705078125,-7.080078125,-0.79345703125,0.42724609375,0.0,42.69287109375,-149.6282958984375
1761051984.5794942,-0.6640625,0.00927734375,0.72998046875,-9.8876953125,-1.220703125,0.1220703125,-0.087890625,42.681884765625,-149.622802734375
1761051984.5895007,-0.6640625,0.00927734375,0.72998046875,-9.8876953125,-1.220703125,0.1220703125,-0.1812744140625,42.6654052734375,-149.61181640625
1761051984.599495,-0.67138671875,-0.00732421875,0.74853515625,-8.48388671875,-1.0986328125,0.0,-0.263671875,42.64892578125,-149.6063232421875
1761051984.6094983,-0.67138671875,-0.00732421875,0.74853515625,-8.48388671875,-1.0986328125,0.0,-0.340576171875,42.637939453125,-149.600830078125
1761051984.6195347,-0.66455078125,-0.005859375,0.7470703125,-7.8125,-1.03759765625,0.1220703125,-0.41748046875,42.6214599609375,-149.5953369140625
1761051984.629535,-0.66455078125,-0.005859375,0.7470703125,-7.8125,-1.03759765625,0.1220703125,-0.4888916015625,42.6104736328125,-149.5843505859375
1761051984.6395226,-0.6650390625,-0.01513671875,0.75,-6.7138671875,-1.03759765625,0.0,-0.54931640625,42.593994140625,-149.578857421875
1761051984.64953,-0.6650390625,-0.01513671875,0.75,-6.7138671875,-1.03759765625,0.0,-0.615234375,42.5830078125,-149.5733642578125
1761051984.6595707,-0.66259765625,-0.01318359375,0.748046875,-8.6669921875,-1.220703125,0.3662109375,-0.692138671875,42.5665283203125,-149.5623779296875
1761051984.6695867,-0.66259765625,-0.01318359375,0.748046875,-8.6669921875,-1.220703125,0.3662109375,-0.7745361328125,42.550048828125,-149.5513916015625
1761051984.679592,-0.67041015625,-0.0107421875,0.73876953125,-8.4228515625,-1.0986328125,0.48828125,-0.8514404296875,42.5335693359375,-149.5404052734375
1761051984.6895995,-0.67041015625,-0.0107421875,0.73876953125,-8.4228515625,-1.0986328125,0.48828125,-0.9228515625,42.5225830078125,-149.5294189453125
1761051984.6996396,-0.67431640625,-0.01806640625,0.73583984375,-6.7138671875,-1.03759765625,0.244140625,-0.98876953125,42.506103515625,-149.5184326171875
1761051984.7096205,-0.67431640625,-0.01806640625,0.73583984375,-6.7138671875,-1.03759765625,0.244140625,-1.0491943359375,42.4951171875,-149.512939453125
1761051984.7196362,-0.693359375,-0.015625,0.72509765625,-8.9111328125,-1.220703125,0.48828125,-1.1260986328125,42.4786376953125,-149.4964599609375
1761051984.7296388,-0.693359375,-0.015625,0.72509765625,-8.9111328125,-1.220703125,0.48828125,-1.20849609375,42.4676513671875,-149.4854736328125
1761051984.7396545,-0.6943359375,-0.0361328125,0.74951171875,-7.6904296875,-1.0986328125,0.8544921875,-1.2744140625,42.4566650390625,-149.4635009765625
1761051984.7496681,-0.6943359375,-0.0361328125,0.74951171875,-7.6904296875,-1.0986328125,0.8544921875,-1.34033203125,42.4456787109375,-149.447021484375
1761051984.75968,-0.70849609375,-0.02197265625,0.72216796875,-10.68115234375,-0.91552734375,0.91552734375,-1.439208984375,42.440185546875,-149.425048828125
1761051984.7696834,-0.70849609375,-0.02197265625,0.72216796875,-10.68115234375,-0.91552734375,0.91552734375,-1.5325927734375,42.42919921875,-149.403076171875
1761051984.7797182,-0.7177734375,-0.02197265625,0.69873046875,-7.75146484375,-0.8544921875,0.67138671875,-1.60400390625,42.4237060546875,-149.3865966796875
1761051984.7897046,-0.7177734375,-0.02197265625,0.69873046875,-7.75146484375,-0.8544921875,0.67138671875,-1.6754150390625,42.4237060546875,-149.3646240234375
1761051984.7997425,-0.71728515625,-0.04052734375,0.66650390625,-1.40380859375,-0.48828125,0.0,-1.6864013671875,42.4237060546875,-149.3536376953125
1761051984.8097053,-0.71728515625,-0.04052734375,0.66650390625,-1.40380859375,-0.48828125,0.0,-1.6973876953125,42.42919921875,-149.3426513671875
1761051984.819792,-0.72998046875,-0.0263671875,0.70703125,-2.685546875,-0.67138671875,0.30517578125,-1.724853515625,42.4346923828125,-149.326171875
1761051984.8298,-0.72998046875,-0.0263671875,0.70703125,-2.685546875,-0.67138671875,0.30517578125,-1.746826171875,42.440185546875,-149.3096923828125
1761051984.8399,-0.712890625,-0.02099609375,0.7373046875,-6.8359375,-0.1220703125,0.79345703125,-1.8072509765625,42.451171875,-149.2822265625
1761051984.8497717,-0.712890625,-0.02099609375,0.7373046875,-6.8359375,-0.1220703125,0.79345703125,-1.86767578125,42.4566650390625,-149.26025390625
1761051984.8598256,-0.69970703125,-0.03369140625,0.72216796875,-8.23974609375,0.1220703125,1.0986328125,-1.9390869140625,42.47314453125,-149.227294921875
1761051984.8697746,-0.69970703125,-0.03369140625,0.72216796875,-8.23974609375,0.1220703125,1.0986328125,-2.010498046875,42.484130859375,-149.1998291015625
1761051984.8798358,-0.701171875,-0.02587890625,0.71484375,-3.173828125,0.0,0.54931640625,-2.0379638671875,42.4951171875,-149.1778564453125
1761051984.8897943,-0.701171875,-0.02587890625,0.71484375,-3.173828125,0.0,0.54931640625,-2.0654296875,42.506103515625,-149.1558837890625
1761051984.8998451,-0.69091796875,-0.0244140625,0.70458984375,0.18310546875,-0.244140625,0.06103515625,-2.0599365234375,42.5115966796875,-149.1448974609375
1761051984.9100509,-0.69091796875,-0.0244140625,0.70458984375,0.18310546875,-0.244140625,0.06103515625,-2.0599365234375,42.5225830078125,-149.12841796875
1761051984.920004,-0.6767578125,-0.03466796875,0.74658203125,-4.150390625,-0.18310546875,0.54931640625,-2.098388671875,42.5335693359375,-149.1064453125
1761051984.9299734,-0.6767578125,-0.03466796875,0.74658203125,-4.150390625,-0.18310546875,0.54931640625,-2.13134765625,42.5390625,-149.0899658203125
1761051984.940508,-0.66552734375,-0.05078125,0.76611328125,-5.18798828125,-0.1220703125,0.91552734375,-2.17529296875,42.5445556640625,-149.0679931640625
1761051984.9500785,-0.66552734375,-0.05078125,0.76611328125,-5.18798828125,-0.1220703125,0.91552734375,-2.21923828125,42.550048828125,-149.0460205078125
1761051984.9600737,-0.65625,-0.03125,0.73681640625,-3.35693359375,-0.30517578125,0.6103515625,-2.2467041015625,42.550048828125,-149.029541015625
1761051984.9704635,-0.65625,-0.03125,0.73681640625,-3.35693359375,-0.30517578125,0.6103515625,-2.2796630859375,42.550048828125,-149.0130615234375
1761051984.979948,-0.66650390625,-0.02294921875,0.75439453125,-2.01416015625,-0.48828125,0.42724609375,-2.296142578125,42.550048828125,-149.0020751953125
1761051984.9899483,-0.66650390625,-0.02294921875,0.75439453125,-2.01416015625,-0.48828125,0.42724609375,-2.3126220703125,42.5445556640625,-148.985595703125
1761051985.0000627,-0.685546875,-0.0361328125,0.74951171875,-4.2724609375,-0.30517578125,0.8544921875,-2.3455810546875,42.5445556640625,-148.9691162109375
1761051985.0130389,-0.685546875,-0.0361328125,0.74951171875,-4.2724609375,-0.30517578125,0.8544921875,-2.3785400390625,42.5390625,-148.95263671875
1761051985.0199747,-0.68505859375,-0.03515625,0.72119140625,-4.82177734375,-0.3662109375,1.0986328125,-2.4169921875,42.5390625,-148.9306640625
1761051985.029973,-0.68505859375,-0.03515625,0.72119140625,-4.82177734375,-0.3662109375,1.0986328125,-2.4554443359375,42.5390625,-148.90869140625
1761051985.0401201,-0.69140625,-0.02685546875,0.72998046875,-2.8076171875,-0.30517578125,0.6103515625,-2.4774169921875,42.5390625,-148.8922119140625
1761051985.0500512,-0.69140625,-0.02685546875,0.72998046875,-2.8076171875,-0.30517578125,0.6103515625,-2.4993896484375,42.5335693359375,-148.875732421875
1761051985.0600824,-0.69775390625,-0.04931640625,0.74072265625,0.48828125,-0.244140625,0.06103515625,-2.493896484375,42.5390625,-148.8702392578125
1761051985.0701451,-0.69775390625,-0.04931640625,0.74072265625,0.48828125,-0.244140625,0.06103515625,-2.4884033203125,42.5390625,-148.8592529296875
1761051985.0800743,-0.68798828125,-0.04931640625,0.7294921875,3.41796875,-0.42724609375,-0.244140625,-2.4609375,42.5335693359375,-148.853759765625
1761051985.0901313,-0.68798828125,-0.04931640625,0.7294921875,3.41796875,-0.42724609375,-0.244140625,-2.427978515625,42.5335693359375,-148.853759765625
1761051985.102889,-0.6904296875,-0.03466796875,0.72705078125,1.40380859375,-0.3662109375,-0.1220703125,-2.4169921875,42.5335693359375,-148.8482666015625
1761051985.1101184,-0.6904296875,-0.03466796875,0.72705078125,1.40380859375,-0.3662109375,-0.1220703125,-2.4114990234375,42.5335693359375,-148.8427734375
1761051985.1200688,-0.6943359375,-0.01953125,0.7099609375,-0.06103515625,-0.3662109375,0.0,-2.4114990234375,42.5335693359375,-148.8372802734375
1761051985.132499,-0.6943359375,-0.01953125,0.7099609375,-0.06103515625,-0.3662109375,0.0,-2.4114990234375,42.5335693359375,-148.8262939453125
1761051985.1409256,-0.6982421875,-0.04345703125,0.7158203125,2.25830078125,-0.1220703125,-0.42724609375,-2.39501953125,42.5390625,-148.82080078125
1761051985.1503663,-0.6982421875,-0.04345703125,0.7158203125,2.25830078125,-0.1220703125,-0.42724609375,-2.3785400390625,42.5445556640625,-148.82080078125
1761051985.1617906,-0.69921875,-0.064453125,0.7529296875,3.96728515625,0.244140625,-0.244140625,-2.3455810546875,42.550048828125,-148.8153076171875
1761051985.1701717,-0.69921875,-0.064453125,0.7529296875,3.96728515625,0.244140625,-0.244140625,-2.3126220703125,42.5555419921875,-148.8153076171875
1761051985.1801062,-0.697265625,-0.03662109375,0.73583984375,5.126953125,0.54931640625,-0.3662109375,-2.274169921875,42.5665283203125,-148.8153076171875
1761051985.1900582,-0.697265625,-0.03662109375,0.73583984375,5.126953125,0.54931640625,-0.3662109375,-2.230224609375,42.5775146484375,-148.8153076171875
1761051985.2004457,-0.6826171875,-0.00048828125,0.685546875,3.72314453125,0.18310546875,-0.732421875,-2.2027587890625,42.5830078125,-148.8153076171875
1761051985.210142,-0.6826171875,-0.00048828125,0.685546875,3.72314453125,0.18310546875,-0.732421875,-2.17529296875,42.593994140625,-148.82080078125
1761051985.2201493,-0.67236328125,-0.03125,0.7421875,4.45556640625,-0.1220703125,-0.8544921875,-2.142333984375,42.5994873046875,-148.8262939453125
1761051985.2301562,-0.67236328125,-0.03125,0.7421875,4.45556640625,-0.1220703125,-0.8544921875,-2.109375,42.5994873046875,-148.831787109375
1761051985.2406428,-0.67529296875,-0.0732421875,0.7978515625,4.638671875,0.42724609375,-0.54931640625,-2.0709228515625,42.6104736328125,-148.831787109375
1761051985.250235,-0.67529296875,-0.0732421875,0.7978515625,4.638671875,0.42724609375,-0.54931640625,-2.032470703125,42.615966796875,-148.8427734375
1761051985.26023,-0.6650390625,-0.0322265625,0.74755859375,7.50732421875,0.54931640625,-0.79345703125,-1.9720458984375,42.6214599609375,-148.853759765625
1761051985.270489,-0.6650390625,-0.0322265625,0.74755859375,7.50732421875,0.54931640625,-0.79345703125,-1.91162109375,42.6214599609375,-148.86474609375
1761051985.2802012,-0.6669921875,-0.0048828125,0.7255859375,8.7890625,-0.06103515625,-1.15966796875,-1.8402099609375,42.6214599609375,-148.8812255859375
1761051985.2901535,-0.6669921875,-0.0048828125,0.7255859375,8.7890625,-0.06103515625,-1.15966796875,-1.768798828125,42.6214599609375,-148.897705078125
1761051985.3002172,-0.6689453125,-0.02197265625,0.7568359375,7.62939453125,-0.48828125,-1.220703125,-1.7083740234375,42.615966796875,-148.90869140625
1761051985.310323,-0.6689453125,-0.02197265625,0.7568359375,7.62939453125,-0.48828125,-1.220703125,-1.64794921875,42.6104736328125,-148.9251708984375
1761051985.320235,-0.6708984375,-0.02734375,0.755859375,8.9111328125,-0.3662109375,-1.3427734375,-1.571044921875,42.60498046875,-148.941650390625
1761051985.3307168,-0.6708984375,-0.02734375,0.755859375,8.9111328125,-0.3662109375,-1.3427734375,-1.4996337890625,42.593994140625,-148.9581298828125
1761051985.3405857,-0.6708984375,-0.01953125,0.74658203125,8.7890625,-0.48828125,-1.46484375,-1.4337158203125,42.5885009765625,-148.9801025390625
1761051985.3519685,-0.6708984375,-0.01953125,0.74658203125,8.7890625,-0.48828125,-1.46484375,-1.3623046875,42.5830078125,-149.0020751953125
1761051985.3607864,-0.67724609375,-0.02197265625,0.75634765625,9.1552734375,-0.42724609375,-1.8310546875,-1.2908935546875,42.572021484375,-149.0240478515625
1761051985.3703828,-0.67724609375,-0.02197265625,0.75634765625,9.1552734375,-0.42724609375,-1.8310546875,-1.219482421875,42.5665283203125,-149.051513671875
1761051985.3803098,-0.67724609375,-0.00732421875,0.7294921875,10.498046875,-0.48828125,-2.0751953125,-1.142578125,42.56103515625,-149.0789794921875
1761051985.3903055,-0.6884765625,-0.0029296875,0.73486328125,11.41357421875,-0.54931640625,-2.5634765625,-1.0546875,42.550048828125,-149.1119384765625
1761051985.4003334,-0.6884765625,-0.0029296875,0.73486328125,11.41357421875,-0.54931640625,-2.5634765625,-0.9722900390625,42.5445556640625,-149.1448974609375
1761051985.4102833,-0.69384765625,-0.00634765625,0.7294921875,7.2021484375,-0.3662109375,-2.38037109375,-0.90087890625,42.5390625,-149.1778564453125
1761051985.4203036,-0.69384765625,-0.00634765625,0.7294921875,7.2021484375,-0.3662109375,-2.38037109375,-0.85693359375,42.5335693359375,-149.2108154296875
1761051985.4306202,-0.70068359375,-0.01513671875,0.69775390625,5.615234375,-0.06103515625,-1.5869140625,-0.81298828125,42.5335693359375,-149.2327880859375
1761051985.4405751,-0.70068359375,-0.01513671875,0.69775390625,5.615234375,-0.06103515625,-1.5869140625,-0.7745361328125,42.5335693359375,-149.2547607421875
1761051985.45028,-0.70068359375,-0.01513671875,0.69775390625,4.150390625,-0.30517578125,-1.708984375,-0.7470703125,42.5335693359375,-149.271240234375
1761051985.4607446,-0.70751953125,-0.01904296875,0.73291015625,4.150390625,-0.30517578125,-1.708984375,-0.72509765625,42.5335693359375,-149.2877197265625
1761051985.4706903,-0.70751953125,-0.01220703125,0.716796875,3.96728515625,0.0,-1.52587890625,-0.703125,42.5390625,-149.3096923828125
1761051985.4809873,-0.70751953125,-0.01220703125,0.716796875,3.96728515625,0.0,-1.52587890625,-0.68115234375,42.5445556640625,-149.326171875
1761051985.494522,-0.70556640625,-0.00048828125,0.6904296875,5.79833984375,-0.1220703125,-1.953125,-0.648193359375,42.550048828125,-149.3426513671875
1761051985.502179,-0.70556640625,-0.00048828125,0.6904296875,5.79833984375,-0.1220703125,-1.953125,-0.615234375,42.5555419921875,-149.3646240234375
1761051985.5103917,-0.693359375,-0.00732421875,0.7265625,5.43212890625,-0.30517578125,-1.8310546875,-0.5767822265625,42.56103515625,-149.381103515625
1761051985.5205004,-0.693359375,-0.00732421875,0.7265625,5.43212890625,-0.30517578125,-1.8310546875,-0.5438232421875,42.56103515625,-149.3975830078125
1761051985.5306928,-0.6630859375,0.00732421875,0.7490234375,3.84521484375,0.06103515625,-1.64794921875,-0.516357421875,42.572021484375,-149.4140625
1761051985.540443,-0.6630859375,0.00732421875,0.7490234375,3.84521484375,0.06103515625,-1.64794921875,-0.494384765625,42.5775146484375,-149.4305419921875
1761051985.5508647,-0.69921875,-0.0146484375,0.751953125,1.52587890625,0.244140625,-1.5869140625,-0.4833984375,42.5830078125,-149.4415283203125
1761051985.5604966,-0.69921875,-0.0146484375,0.751953125,1.52587890625,0.244140625,-1.5869140625,-0.4833984375,42.5885009765625,-149.4580078125
1761051985.5704982,-0.6806640625,-0.0263671875,0.77490234375,-0.06103515625,0.244140625,-1.3427734375,-0.4888916015625,42.593994140625,-149.4744873046875
1761051985.5805564,-0.6806640625,-0.0263671875,0.77490234375,-0.06103515625,0.244140625,-1.3427734375,-0.50537109375,42.5994873046875,-149.490966796875
1761051985.590413,-0.67724609375,0.00390625,0.7265625,2.0751953125,0.06103515625,-1.52587890625,-0.5108642578125,42.60498046875,-149.5074462890625
1761051985.601105,-0.67724609375,0.00390625,0.7265625,2.0751953125,0.06103515625,-1.52587890625,-0.50537109375,42.60498046875,-149.52392578125
1761051985.6124558,-0.6904296875,-0.0029296875,0.7294921875,1.40380859375,-0.30517578125,-1.77001953125,-0.50537109375,42.60498046875,-149.5404052734375
1761051985.6204586,-0.6904296875,-0.0029296875,0.7294921875,1.40380859375,-0.30517578125,-1.77001953125,-0.5108642578125,42.60498046875,-149.5623779296875
1761051985.630552,-0.6923828125,-0.0205078125,0.72412109375,0.18310546875,-0.30517578125,-1.52587890625,-0.516357421875,42.60498046875,-149.578857421875
1761051985.6405447,-0.6923828125,-0.0205078125,0.72412109375,0.18310546875,-0.30517578125,-1.52587890625,-0.5328369140625,42.60498046875,-149.5953369140625
1761051985.6504607,-0.6953125,-0.0205078125,0.73046875,1.28173828125,-0.244140625,-1.220703125,-0.538330078125,42.60498046875,-149.61181640625
1761051985.6609476,-0.6953125,-0.0205078125,0.73046875,1.28173828125,-0.244140625,-1.220703125,-0.538330078125,42.60498046875,-149.622802734375
1761051985.6707976,-0.69384765625,-0.00537109375,0.720703125,-0.3662109375,0.0,-0.79345703125,-0.54931640625,42.6104736328125,-149.6337890625
1761051985.6823156,-0.69384765625,-0.00537109375,0.720703125,-0.3662109375,0.0,-0.79345703125,-0.560302734375,42.615966796875,-149.644775390625
1761051985.6905868,-0.6884765625,-0.0078125,0.72802734375,-0.1220703125,0.0,-0.54931640625,-0.5712890625,42.615966796875,-149.644775390625
1761051985.7017536,-0.6884765625,-0.0078125,0.72802734375,-0.1220703125,0.0,-0.54931640625,-0.5767822265625,42.6214599609375,-149.6502685546875
1761051985.7130966,-0.6875,-0.02099609375,0.73828125,0.9765625,0.1220703125,-0.48828125,-0.582275390625,42.626953125,-149.65576171875
1761051985.7210243,-0.6875,-0.02099609375,0.73828125,0.9765625,0.1220703125,-0.48828125,-0.5767822265625,42.6324462890625,-149.65576171875
1761051985.7322986,-0.68798828125,-0.00537109375,0.740234375,0.54931640625,0.3662109375,-0.54931640625,-0.5767822265625,42.637939453125,-149.6612548828125
1761051985.7421687,-0.68798828125,-0.00537109375,0.740234375,0.54931640625,0.3662109375,-0.54931640625,-0.5767822265625,42.64892578125,-149.666748046875
1761051985.7510507,-0.6826171875,-0.0009765625,0.7265625,-0.67138671875,0.244140625,-0.79345703125,-0.5877685546875,42.6544189453125,-149.6722412109375
1761051985.7620213,-0.6826171875,-0.0009765625,0.7265625,-0.67138671875,0.244140625,-0.79345703125,-0.604248046875,42.659912109375,-149.677734375
1761051985.7714765,-0.67626953125,-0.017578125,0.736328125,0.1220703125,0.1220703125,-0.8544921875,-0.615234375,42.6654052734375,-149.688720703125
1761051985.7806284,-0.67626953125,-0.017578125,0.736328125,0.1220703125,0.1220703125,-0.8544921875,-0.6207275390625,42.6654052734375,-149.6942138671875
1761051985.7923586,-0.66357421875,-0.0078125,0.759765625,1.52587890625,0.1220703125,-0.8544921875,-0.6207275390625,42.6708984375,-149.7052001953125
1761051985.801193,-0.66357421875,-0.0078125,0.759765625,1.52587890625,0.1220703125,-0.8544921875,-0.615234375,42.6708984375,-149.710693359375
1761051985.8116336,-0.66748046875,-0.00439453125,0.75244140625,1.220703125,-0.06103515625,-0.9765625,-0.6097412109375,42.6708984375,-149.7216796875
1761051985.8333263,-0.66748046875,-0.00439453125,0.75244140625,1.220703125,-0.06103515625,-0.9765625,-0.6097412109375,42.6708984375,-149.732666015625
1761051985.8418353,-0.662109375,-0.009765625,0.7763671875,-0.3662109375,-0.18310546875,-0.9765625,-0.615234375,42.6708984375,-149.7491455078125
1761051985.8504276,-0.662109375,-0.009765625,0.7763671875,-0.3662109375,-0.18310546875,-0.9765625,-0.626220703125,42.6654052734375,-149.7601318359375
1761051985.8655887,-0.65087890625,-0.00341796875,0.76171875,0.6103515625,-0.18310546875,-1.220703125,-0.63720703125,42.659912109375,-149.776611328125
1761051985.8734624,-0.65087890625,-0.00341796875,0.76171875,0.6103515625,-0.18310546875,-1.220703125,-0.6427001953125,42.6544189453125,-149.7930908203125
1761051985.8845248,-0.65185546875,-0.01318359375,0.7607421875,-0.48828125,-0.6103515625,-1.3427734375,-0.6536865234375,42.6434326171875,-149.8150634765625
1761051985.8934047,-0.65185546875,-0.01318359375,0.7607421875,-0.48828125,-0.6103515625,-1.3427734375,-0.670166015625,42.6324462890625,-149.8370361328125
1761051985.9021895,-0.64892578125,0.0,0.7783203125,-0.9765625,-1.15966796875,-1.28173828125,-0.692138671875,42.615966796875,-149.853515625
1761051985.9112937,-0.64892578125,0.0,0.7783203125,-0.9765625,-1.15966796875,-1.28173828125,-0.7086181640625,42.5994873046875,-149.87548828125
1761051985.9188547,-0.640625,-0.0029296875,0.7705078125,-2.3193359375,-1.89208984375,-1.52587890625,-0.7415771484375,42.572021484375,-149.8974609375
1761051985.927597,-0.640625,-0.0029296875,0.7705078125,-2.3193359375,-1.89208984375,-1.52587890625,-0.7745361328125,42.5445556640625,-149.91943359375
1761051985.938512,-0.65576171875,-0.0146484375,0.73681640625,-1.46484375,-1.52587890625,-1.3427734375,-0.8074951171875,42.51708984375,-149.9468994140625
1761051985.951125,-0.65576171875,-0.0146484375,0.73681640625,-1.46484375,-1.52587890625,-1.3427734375,-0.8294677734375,42.4951171875,-149.96337890625
1761051985.9590151,-0.662109375,-0.021484375,0.72900390625,-3.90625,-1.52587890625,-0.54931640625,-0.8624267578125,42.47314453125,-149.9798583984375
1761051985.9677813,-0.662109375,-0.021484375,0.72900390625,-3.90625,-1.52587890625,-0.54931640625,-0.9063720703125,42.451171875,-149.9908447265625
1761051985.9779534,-0.65087890625,-0.02392578125,0.77294921875,-4.45556640625,-1.8310546875,-0.54931640625,-0.955810546875,42.4237060546875,-150.0018310546875
1761051985.9856758,-0.65087890625,-0.02392578125,0.77294921875,-4.45556640625,-1.8310546875,-0.54931640625,-0.999755859375,42.4017333984375,-150.00732421875
1761051985.9927619,-0.64453125,0.0048828125,0.765625,-5.31005859375,-1.77001953125,-0.06103515625,-1.0546875,42.374267578125,-150.018310546875
1761051986.0009608,-0.64453125,0.0048828125,0.765625,-5.31005859375,-1.77001953125,-0.06103515625,-1.1041259765625,42.3468017578125,-150.018310546875
1761051986.0111675,-0.6611328125,-0.02294921875,0.74267578125,-2.38037109375,-2.197265625,-0.48828125,-1.142578125,42.3193359375,-150.0238037109375
1761051986.0212758,-0.6611328125,-0.02294921875,0.74267578125,-2.38037109375,-2.197265625,-0.48828125,-1.1700439453125,42.2918701171875,-150.0347900390625
1761051986.031491,-0.69189453125,-0.0517578125,0.72314453125,1.89208984375,-1.953125,-0.06103515625,-1.1700439453125,42.2589111328125,-150.040283203125
1761051986.0438457,-0.69189453125,-0.0517578125,0.72314453125,1.89208984375,-1.953125,-0.06103515625,-1.153564453125,42.2369384765625,-150.040283203125
1761051986.0537324,-0.73046875,-0.03759765625,0.69287109375,3.23486328125,-1.953125,0.244140625,-1.131591796875,42.2149658203125,-150.040283203125
1761051986.0610113,-0.73046875,-0.03759765625,0.69287109375,3.23486328125,-1.953125,0.244140625,-1.0986328125,42.1929931640625,-150.040283203125
1761051986.0709045,-0.7333984375,0.00927734375,0.69091796875,6.04248046875,-1.46484375,0.48828125,-1.0546875,42.1820068359375,-150.0347900390625
1761051986.081083,-0.7333984375,0.00927734375,0.69091796875,6.04248046875,-1.46484375,0.48828125,-0.98876953125,42.1710205078125,-150.0238037109375
1761051986.0910857,-0.73681640625,-0.02099609375,0.701171875,3.41796875,-1.953125,0.3662109375,-0.9393310546875,42.1600341796875,-150.0128173828125
1761051986.1010208,-0.73681640625,-0.02099609375,0.701171875,3.41796875,-1.953125,0.3662109375,-0.9063720703125,42.1490478515625,-150.0018310546875
1761051986.1118925,-0.7314453125,-0.01953125,0.7138671875,4.45556640625,-1.03759765625,-0.3662109375,-0.867919921875,42.1435546875,-149.996337890625
1761051986.122245,-0.7314453125,-0.01953125,0.7138671875,4.45556640625,-1.03759765625,-0.3662109375,-0.8294677734375,42.1435546875,-149.9908447265625
1761051986.1310558,-0.7177734375,-0.01416015625,0.68017578125,4.21142578125,-0.9765625,-0.48828125,-0.7965087890625,42.1490478515625,-149.9908447265625
1761051986.141127,-0.7177734375,-0.01416015625,0.68017578125,4.21142578125,-0.9765625,-0.48828125,-0.7635498046875,42.154541015625,-149.9853515625
1761051986.151977,-0.7177734375,-0.01416015625,0.68017578125,2.197265625,-0.48828125,-0.42724609375,-0.736083984375,42.1600341796875,-149.9853515625
1761051986.1619945,-0.720703125,-0.005859375,0.6884765625,2.197265625,-0.48828125,-0.42724609375,-0.72509765625,42.1710205078125,-149.9798583984375
1761051986.1726716,-0.69482421875,-0.01708984375,0.72265625,1.708984375,-0.42724609375,-0.42724609375,-0.714111328125,42.1820068359375,-149.974365234375
1761051986.1824179,-0.69482421875,-0.01708984375,0.72265625,1.708984375,-0.42724609375,-0.42724609375,-0.703125,42.1929931640625,-149.9688720703125
1761051986.1918035,-0.673828125,-0.01953125,0.751953125,1.708984375,-0.18310546875,-0.30517578125,-0.692138671875,42.2039794921875,-149.96337890625
1761051986.202704,-0.673828125,-0.01953125,0.751953125,1.708984375,-0.18310546875,-0.30517578125,-0.68115234375,42.2149658203125,-149.9578857421875
1761051986.2116976,-0.66455078125,-0.00439453125,0.77880859375,3.72314453125,-0.244140625,-0.6103515625,-0.6591796875,42.2259521484375,-149.9578857421875
1761051986.2211885,-0.66455078125,-0.00439453125,0.77880859375,3.72314453125,-0.244140625,-0.6103515625,-0.6317138671875,42.2314453125,-149.9578857421875
1761051986.2310061,-0.6572265625,-0.00439453125,0.7275390625,3.35693359375,-0.42724609375,-0.67138671875,-0.604248046875,42.2369384765625,-149.96337890625
1761051986.2411916,-0.6572265625,-0.00439453125,0.7275390625,3.35693359375,-0.42724609375,-0.67138671875,-0.582275390625,42.2369384765625,-149.9688720703125
1761051986.2514238,-0.63134765625,-0.00732421875,0.767578125,3.7841796875,-1.15966796875,-0.79345703125,-0.5548095703125,42.2369384765625,-149.974365234375
1761051986.2612362,-0.63134765625,-0.00732421875,0.767578125,3.7841796875,-1.15966796875,-0.79345703125,-0.52734375,42.2259521484375,-149.9853515625
1761051986.2711134,-0.6298828125,-0.01416015625,0.8095703125,4.82177734375,-1.28173828125,-0.91552734375,-0.494384765625,42.2149658203125,-149.996337890625
1761051986.2828536,-0.6298828125,-0.01416015625,0.8095703125,4.82177734375,-1.28173828125,-0.91552734375,-0.4559326171875,42.2039794921875,-150.00732421875
1761051986.2918806,-0.63330078125,-0.0126953125,0.78857421875,3.7841796875,-1.46484375,-0.9765625,-0.4229736328125,42.1875,-150.0238037109375
1761051986.302168,-0.63330078125,-0.0126953125,0.78857421875,3.7841796875,-1.46484375,-0.9765625,-0.3955078125,42.16552734375,-150.040283203125
1761051986.31375,-0.63671875,-0.01123046875,0.75732421875,5.37109375,-1.64794921875,-1.28173828125,-0.3680419921875,42.1435546875,-150.062255859375
1761051986.321314,-0.63671875,-0.01123046875,0.75732421875,5.37109375,-1.64794921875,-1.28173828125,-0.32958984375,42.12158203125,-150.0897216796875
1761051986.3415954,-0.65185546875,-0.009765625,0.759765625,3.90625,-1.5869140625,-1.40380859375,-0.296630859375,42.0941162109375,-150.1116943359375
1761051986.353711,-0.65185546875,-0.009765625,0.759765625,3.90625,-1.5869140625,-1.40380859375,-0.274658203125,42.0721435546875,-150.13916015625
1761051986.3619475,-0.65966796875,0.01025390625,0.755859375,2.01416015625,-1.77001953125,-1.3427734375,-0.2581787109375,42.0501708984375,-150.1666259765625
1761051986.369962,-0.65966796875,0.01025390625,0.755859375,2.01416015625,-1.77001953125,-1.3427734375,-0.252685546875,42.022705078125,-150.1885986328125
1761051986.3774512,-0.6650390625,0.0224609375,0.74853515625,-0.91552734375,-1.3427734375,-1.28173828125,-0.263671875,42.000732421875,-150.2105712890625
1761051986.385686,-0.6650390625,0.0224609375,0.74853515625,-0.91552734375,-1.3427734375,-1.28173828125,-0.28564453125,41.9842529296875,-150.2325439453125
1761051986.399506,-0.66650390625,0.0068359375,0.7646484375,-4.33349609375,-1.3427734375,-0.91552734375,-0.318603515625,41.9622802734375,-150.2490234375
1761051986.4095314,-0.66650390625,0.0068359375,0.7646484375,-4.33349609375,-1.3427734375,-0.91552734375,-0.3680419921875,41.94580078125,-150.260009765625
1761051986.4162574,-0.68798828125,-0.00048828125,0.73046875,-7.2021484375,-1.3427734375,-0.67138671875,-0.4449462890625,41.9293212890625,-150.27099609375
1761051986.423457,-0.68798828125,-0.00048828125,0.73046875,-7.2021484375,-1.3427734375,-0.67138671875,-0.516357421875,41.912841796875,-150.2764892578125
1761051986.4317374,-0.71630859375,-0.00537109375,0.708984375,-6.591796875,-1.64794921875,-0.67138671875,-0.5877685546875,41.890869140625,-150.281982421875
1761051986.4420478,-0.71630859375,-0.00537109375,0.708984375,-6.591796875,-1.64794921875,-0.67138671875,-0.6536865234375,41.8798828125,-150.2874755859375
1761051986.452217,-0.71630859375,-0.00537109375,0.708984375,-5.06591796875,-1.15966796875,-0.54931640625,-0.7086181640625,41.868896484375,-150.2874755859375
1761051986.4631786,-0.75732421875,-0.02685546875,0.673828125,-5.06591796875,-1.15966796875,-0.54931640625,-0.7635498046875,41.868896484375,-150.2874755859375
1761051986.478022,-0.73974609375,-0.03076171875,0.66455078125,-2.3193359375,-1.5869140625,-0.6103515625,-0.791015625,41.8634033203125,-150.2874755859375
1761051986.4915938,-0.73974609375,-0.03076171875,0.66455078125,-2.3193359375,-1.5869140625,-0.6103515625,-0.8184814453125,41.85791015625,-150.2874755859375
1761051986.510433,-0.75,-0.0224609375,0.7119140625,1.46484375,-0.54931640625,-0.732421875,-0.81298828125,41.868896484375,-150.281982421875
1761051986.5290997,-0.75,-0.0224609375,0.7119140625,1.46484375,-0.54931640625,-0.732421875,-0.8074951171875,41.8798828125,-150.281982421875
1761051986.543287,-0.72509765625,-0.0166015625,0.6767578125,0.8544921875,-0.30517578125,-0.6103515625,-0.802001953125,41.8963623046875,-150.2764892578125
1761051986.5547688,-0.72509765625,-0.0166015625,0.6767578125,0.8544921875,-0.30517578125,-0.6103515625,-0.802001953125,41.9073486328125,-150.27099609375
1761051986.5610397,-0.69970703125,-0.01904296875,0.70947265625,1.5869140625,-0.18310546875,-0.42724609375,-0.791015625,41.923828125,-150.2655029296875
1761051986.5676138,-0.69970703125,-0.01904296875,0.70947265625,1.5869140625,-0.18310546875,-0.42724609375,-0.7855224609375,41.9403076171875,-150.260009765625
1761051986.5898979,-0.681640625,-0.01708984375,0.759765625,2.44140625,0.0,-0.3662109375,-0.7635498046875,41.956787109375,-150.2490234375
1761051986.597429,-0.681640625,-0.01708984375,0.759765625,2.44140625,0.0,-0.3662109375,-0.7470703125,41.9732666015625,-150.2435302734375
1761051986.6152368,-0.6669921875,-0.00439453125,0.75830078125,1.64794921875,0.18310546875,-0.3662109375,-0.736083984375,41.98974609375,-150.238037109375
1761051986.6223614,-0.6669921875,-0.00439453125,0.75830078125,1.64794921875,0.18310546875,-0.3662109375,-0.72509765625,42.000732421875,-150.238037109375
1761051986.6285343,-0.66650390625,0.0,0.7529296875,0.30517578125,0.18310546875,-0.48828125,-0.7305908203125,42.01171875,-150.2325439453125
1761051986.6516042,-0.66650390625,0.0,0.7529296875,0.30517578125,0.18310546875,-0.48828125,-0.7305908203125,42.022705078125,-150.2325439453125
1761051986.6580596,-0.66650390625,-0.01416015625,0.7548828125,0.732421875,0.0,-0.6103515625,-0.7305908203125,42.03369140625,-150.238037109375
1761051986.6827142,-0.66650390625,-0.01416015625,0.7548828125,0.732421875,0.0,-0.6103515625,-0.7305908203125,42.0391845703125,-150.238037109375
1761051986.6892455,-0.66162109375,-0.01953125,0.7529296875,0.54931640625,-0.1220703125,-0.54931640625,-0.7305908203125,42.0391845703125,-150.2435302734375
1761051986.698774,-0.66162109375,-0.01953125,0.7529296875,0.54931640625,-0.1220703125,-0.54931640625,-0.7305908203125,42.044677734375,-150.2490234375
1761051986.711607,-0.66455078125,-0.013671875,0.765625,0.732421875,-0.244140625,-0.54931640625,-0.7305908203125,42.044677734375,-150.2490234375
1761051986.734024,-0.66455078125,-0.013671875,0.765625,0.732421875,-0.244140625,-0.54931640625,-0.7305908203125,42.044677734375,-150.2545166015625
1761051986.74064,-0.6650390625,-0.0009765625,0.7529296875,0.42724609375,-0.3662109375,-0.8544921875,-0.736083984375,42.044677734375,-150.2655029296875
1761051986.7477999,-0.6650390625,-0.0009765625,0.7529296875,0.42724609375,-0.3662109375,-0.8544921875,-0.736083984375,42.0391845703125,-150.2764892578125
1761051986.762138,-0.66650390625,0.0048828125,0.74072265625,0.79345703125,-0.79345703125,-1.15966796875,-0.7415771484375,42.03369140625,-150.2874755859375
1761051986.7697432,-0.66650390625,0.0048828125,0.74072265625,0.79345703125,-0.79345703125,-1.15966796875,-0.7415771484375,42.0281982421875,-150.2984619140625
1761051986.7855277,-0.6748046875,-0.01123046875,0.759765625,2.01416015625,-0.732421875,-1.46484375,-0.736083984375,42.0172119140625,-150.31494140625
1761051986.7921405,-0.6748046875,-0.01123046875,0.759765625,2.01416015625,-0.732421875,-1.46484375,-0.72509765625,42.01171875,-150.3369140625
1761051986.798738,-0.67822265625,-0.02880859375,0.74365234375,2.0751953125,-0.42724609375,-1.40380859375,-0.7196044921875,42.0062255859375,-150.3533935546875
1761051986.813585,-0.67822265625,-0.02880859375,0.74365234375,2.0751953125,-0.42724609375,-1.40380859375,-0.714111328125,42.0062255859375,-150.369873046875
1761051986.820698,-0.67626953125,-0.013671875,0.73583984375,1.77001953125,-0.48828125,-1.28173828125,-0.7086181640625,42.000732421875,-150.3863525390625
1761051986.8333395,-0.67626953125,-0.013671875,0.73583984375,1.77001953125,-0.48828125,-1.28173828125,-0.703125,41.9952392578125,-150.40283203125
1761051986.839565,-0.67529296875,-0.00390625,0.74853515625,2.50244140625,-0.54931640625,-1.15966796875,-0.6866455078125,41.98974609375,-150.4193115234375
1761051986.8527768,-0.67529296875,-0.00390625,0.74853515625,2.50244140625,-0.54931640625,-1.15966796875,-0.6756591796875,41.98974609375,-150.4302978515625
1761051986.8686342,-0.673828125,-0.0107421875,0.74755859375,2.8076171875,-0.42724609375,-1.15966796875,-0.6591796875,41.9842529296875,-150.44677734375
1761051986.8754928,-0.673828125,-0.0107421875,0.74755859375,2.8076171875,-0.42724609375,-1.15966796875,-0.6427001953125,41.978759765625,-150.4632568359375
1761051986.8872662,-0.6689453125,-0.0185546875,0.74755859375,2.62451171875,-0.3662109375,-0.91552734375,-0.626220703125,41.978759765625,-150.4742431640625
1761051986.8938644,-0.6689453125,-0.0185546875,0.74755859375,2.62451171875,-0.3662109375,-0.91552734375,-0.6097412109375,41.9732666015625,-150.4852294921875
1761051986.910613,-0.66162109375,-0.017578125,0.74853515625,3.662109375,-0.42724609375,-0.8544921875,-0.582275390625,41.9677734375,-150.4962158203125
1761051986.9176507,-0.66162109375,-0.017578125,0.74853515625,3.662109375,-0.42724609375,-0.8544921875,-0.5548095703125,41.9677734375,-150.5072021484375
1761051986.933311,-0.65478515625,-0.0087890625,0.75341796875,4.8828125,-0.732421875,-1.03759765625,-0.5218505859375,41.956787109375,-150.5181884765625
1761051986.9397964,-0.65478515625,-0.0087890625,0.75341796875,4.8828125,-0.732421875,-1.03759765625,-0.4833984375,41.9512939453125,-150.53466796875
1761051986.9465873,-0.6474609375,-0.00634765625,0.75341796875,4.0283203125,-1.15966796875,-1.220703125,-0.4559326171875,41.934814453125,-150.5511474609375
1761051986.9572835,-0.6474609375,-0.00634765625,0.75341796875,4.0283203125,-1.15966796875,-1.220703125,-0.428466796875,41.923828125,-150.567626953125
1761051986.9642656,-0.65087890625,0.0,0.77490234375,4.0283203125,-1.15966796875,-1.28173828125,-0.4010009765625,41.9073486328125,-150.589599609375
1761051986.9774127,-0.65087890625,0.0,0.77490234375,4.0283203125,-1.15966796875,-1.28173828125,-0.3790283203125,41.8963623046875,-150.6060791015625
1761051986.9846938,-0.6474609375,-0.0029296875,0.759765625,3.11279296875,-1.03759765625,-1.28173828125,-0.3570556640625,41.8798828125,-150.6280517578125
1761051987.0008934,-0.6474609375,-0.0029296875,0.759765625,3.11279296875,-1.03759765625,-1.28173828125,-0.340576171875,41.8634033203125,-150.6500244140625
1761051987.0081415,-0.64453125,-0.0029296875,0.7578125,1.89208984375,-0.9765625,-1.220703125,-0.3350830078125,41.8524169921875,-150.66650390625
1761051987.0150042,-0.64453125,-0.0029296875,0.7578125,1.89208984375,-0.9765625,-1.220703125,-0.32958984375,41.8359375,-150.6829833984375
1761051987.0296202,-0.6533203125,-0.0126953125,0.77197265625,2.3193359375,-1.03759765625,-1.3427734375,-0.318603515625,41.8194580078125,-150.7049560546875
1761051987.0371633,-0.6533203125,-0.0126953125,0.77197265625,2.3193359375,-1.03759765625,-1.3427734375,-0.3076171875,41.802978515625,-150.7269287109375
1761051987.0511193,-0.6689453125,0.00390625,0.72216796875,3.173828125,-1.03759765625,-1.220703125,-0.2911376953125,41.7864990234375,-150.7489013671875
1761051987.0586405,-0.6689453125,0.00390625,0.72216796875,3.173828125,-1.03759765625,-1.220703125,-0.2691650390625,41.7755126953125,-150.765380859375
1761051987.065058,-0.6826171875,-0.0048828125,0.73681640625,2.86865234375,-0.9765625,-1.64794921875,-0.2581787109375,41.7645263671875,-150.7928466796875
1761051987.080785,-0.6826171875,-0.0048828125,0.73681640625,2.86865234375,-0.9765625,-1.64794921875,-0.24169921875,41.748046875,-150.8148193359375
1761051987.0871928,-0.6826171875,-0.01318359375,0.73046875,1.52587890625,-1.03759765625,-1.64794921875,-0.24169921875,41.737060546875,-150.8367919921875
1761051987.0940676,-0.6826171875,-0.01318359375,0.73046875,1.52587890625,-1.03759765625,-1.64794921875,-0.2471923828125,41.7315673828125,-150.8587646484375
1761051987.1021245,-0.697265625,-0.00244140625,0.7333984375,1.0986328125,-0.79345703125,-1.46484375,-0.2471923828125,41.7205810546875,-150.875244140625
1761051987.1088176,-0.697265625,-0.00244140625,0.7333984375,1.0986328125,-0.79345703125,-1.46484375,-0.252685546875,41.715087890625,-150.897216796875
1761051987.1154335,-0.705078125,-0.00048828125,0.7255859375,-1.03759765625,-0.42724609375,-1.15966796875,-0.274658203125,41.715087890625,-150.908203125
1761051987.1218803,-0.705078125,-0.00048828125,0.7255859375,-1.03759765625,-0.42724609375,-1.15966796875,-0.296630859375,41.715087890625,-150.919189453125
1761051987.128963,-0.7001953125,-0.0166015625,0.72119140625,-0.18310546875,-0.18310546875,-1.220703125,-0.3076171875,41.7205810546875,-150.93017578125
1761051987.1357152,-0.7001953125,-0.0166015625,0.72119140625,-0.18310546875,-0.18310546875,-1.220703125,-0.3240966796875,41.72607421875,-150.941162109375
1761051987.1425416,-0.7041015625,-0.0078125,0.72607421875,1.03759765625,0.1220703125,-1.220703125,-0.3240966796875,41.7315673828125,-150.9521484375
1761051987.1489623,-0.7041015625,-0.0078125,0.72607421875,1.03759765625,0.1220703125,-1.220703125,-0.32958984375,41.7425537109375,-150.963134765625
1761051987.157109,-0.6962890625,0.00341796875,0.7216796875,0.244140625,0.244140625,-1.15966796875,-0.3350830078125,41.7535400390625,-150.97412109375
1761051987.1636286,-0.6962890625,0.00341796875,0.7216796875,0.244140625,0.244140625,-1.15966796875,-0.3460693359375,41.7645263671875,-150.9796142578125
1761051987.1701233,-0.68212890625,-0.00390625,0.72900390625,-1.03759765625,0.3662109375,-1.03759765625,-0.3680419921875,41.7755126953125,-150.985107421875
1761051987.1781015,-0.68212890625,-0.00390625,0.72900390625,-1.03759765625,0.3662109375,-1.03759765625,-0.384521484375,41.7864990234375,-150.99609375
1761051987.1851187,-0.68212890625,-0.00390625,0.72900390625,-1.15966796875,0.42724609375,-0.9765625,-0.406494140625,41.7974853515625,-151.0015869140625
1761051987.1912966,-0.673828125,-0.01025390625,0.76806640625,-1.15966796875,0.42724609375,-0.9765625,-0.428466796875,41.8084716796875,-151.0125732421875
1761051987.1978717,-0.66650390625,-0.009765625,0.751953125,-0.42724609375,0.54931640625,-1.03759765625,-0.439453125,41.8194580078125,-151.01806640625
1761051987.2108185,-0.66650390625,-0.009765625,0.751953125,-0.42724609375,0.54931640625,-1.03759765625,-0.4559326171875,41.8304443359375,-151.029052734375
1761051987.2266507,-0.666015625,-0.0068359375,0.74658203125,0.244140625,0.48828125,-1.03759765625,-0.46142578125,41.8414306640625,-151.0400390625
1761051987.2426932,-0.666015625,-0.0068359375,0.74658203125,0.244140625,0.48828125,-1.03759765625,-0.4669189453125,41.846923828125,-151.051025390625
1761051987.2491136,-0.66357421875,-0.01171875,0.76220703125,1.28173828125,0.42724609375,-1.15966796875,-0.4669189453125,41.8524169921875,-151.0675048828125
1761051987.255993,-0.66357421875,-0.01171875,0.76220703125,1.28173828125,0.42724609375,-1.15966796875,-0.4669189453125,41.8634033203125,-151.083984375
1761051987.2637749,-0.6591796875,-0.00390625,0.7568359375,-1.220703125,0.42724609375,-0.8544921875,-0.4833984375,41.868896484375,-151.0894775390625
1761051987.2701402,-0.6591796875,-0.00390625,0.7568359375,-1.220703125,0.42724609375,-0.8544921875,-0.50537109375,41.8743896484375,-151.1004638671875
1761051987.2774687,-0.6591796875,-0.0146484375,0.77294921875,-0.06103515625,0.18310546875,-1.0986328125,-0.516357421875,41.8743896484375,-151.116943359375
1761051987.2838595,-0.6591796875,-0.0146484375,0.77294921875,-0.06103515625,0.18310546875,-1.0986328125,-0.52734375,41.8743896484375,-151.1334228515625
1761051987.2905788,-0.66455078125,-0.0185546875,0.74169921875,1.8310546875,0.0,-1.0986328125,-0.5218505859375,41.8743896484375,-151.14990234375
1761051987.297372,-0.66455078125,-0.0185546875,0.74169921875,1.8310546875,0.0,-1.0986328125,-0.5108642578125,41.8743896484375,-151.1663818359375
1761051987.3039699,-0.67529296875,-0.0078125,0.74267578125,3.96728515625,-0.244140625,-1.03759765625,-0.4833984375,41.868896484375,-151.182861328125
1761051987.3110194,-0.67529296875,-0.0078125,0.74267578125,3.96728515625,-0.244140625,-1.03759765625,-0.4559326171875,41.8634033203125,-151.1993408203125
1761051987.3198981,-0.68017578125,-0.01611328125,0.74560546875,3.7841796875,0.0,-0.79345703125,-0.428466796875,41.8634033203125,-151.2103271484375
1761051987.3260431,-0.68017578125,-0.01611328125,0.74560546875,3.7841796875,0.0,-0.79345703125,-0.4010009765625,41.8634033203125,-151.2213134765625
1761051987.3333552,-0.685546875,-0.03076171875,0.7490234375,3.41796875,0.244140625,-0.30517578125,-0.37353515625,41.868896484375,-151.226806640625
1761051987.3421957,-0.685546875,-0.03076171875,0.7490234375,3.41796875,0.244140625,-0.30517578125,-0.3460693359375,41.8743896484375,-151.2322998046875
1761051987.3725302,-0.68115234375,-0.02685546875,0.724609375,5.79833984375,0.30517578125,-0.79345703125,-0.296630859375,41.8743896484375,-151.248779296875
1761051987.4122944,-0.68115234375,-0.02685546875,0.724609375,5.79833984375,0.30517578125,-0.79345703125,-0.252685546875,41.8798828125,-151.259765625
1761051987.4370453,-0.68115234375,0.0068359375,0.7236328125,10.55908203125,0.0,-1.77001953125,-0.1702880859375,41.8853759765625,-151.2872314453125
1761051987.455396,-0.68115234375,0.0068359375,0.7236328125,10.55908203125,0.0,-1.77001953125,-0.087890625,41.8853759765625,-151.3092041015625
1761051987.4627995,-0.6728515625,0.0244140625,0.73046875,13.18359375,-0.3662109375,-2.5634765625,0.010986328125,41.8853759765625,-151.34765625
1761051987.4743679,-0.6728515625,0.0244140625,0.73046875,13.18359375,-0.3662109375,-2.5634765625,0.120849609375,41.8853759765625,-151.380615234375
1761051987.4833388,-0.65966796875,0.00927734375,0.76123046875,12.87841796875,-0.54931640625,-2.62451171875,0.2197265625,41.8853759765625,-151.41357421875
1761051987.4926195,-0.65966796875,0.00927734375,0.76123046875,12.87841796875,-0.54931640625,-2.62451171875,0.3240966796875,41.8798828125,-151.446533203125
1761051987.499458,-0.65185546875,-0.0087890625,0.77197265625,11.90185546875,-0.67138671875,-2.685546875,0.4119873046875,41.8743896484375,-151.4849853515625
1761051987.5062833,-0.6484375,-0.0087890625,0.7705078125,12.3291015625,-0.54931640625,-2.86865234375,0.50537109375,41.868896484375,-151.5234375
1761051987.529867,-0.6484375,-0.0087890625,0.7705078125,12.3291015625,-0.54931640625,-2.86865234375,0.5987548828125,41.8634033203125,-151.5618896484375
1761051987.5591855,-0.646484375,0.0185546875,0.75537109375,13.671875,-0.732421875,-3.41796875,0.692138671875,41.8524169921875,-151.611328125
1761051987.5739512,-0.646484375,0.0185546875,0.75537109375,13.671875,-0.732421875,-3.41796875,0.791015625,41.846923828125,-151.6607666015625
1761051987.5816646,-0.65283203125,0.0234375,0.76513671875,14.46533203125,-0.79345703125,-3.7841796875,0.8953857421875,41.8359375,-151.7156982421875
1761051987.5883446,-0.65283203125,0.0234375,0.76513671875,14.46533203125,-0.79345703125,-3.7841796875,0.999755859375,41.824951171875,-151.7706298828125
1761051987.5964131,-0.6552734375,0.01416015625,0.76123046875,12.02392578125,-0.91552734375,-3.84521484375,1.0931396484375,41.81396484375,-151.8255615234375
1761051987.622961,-0.6552734375,0.01416015625,0.76123046875,12.02392578125,-0.91552734375,-3.84521484375,1.175537109375,41.802978515625,-151.8804931640625
1761051987.6313298,-0.65625,0.021484375,0.751953125,10.498046875,-0.79345703125,-4.150390625,1.2469482421875,41.7919921875,-151.94091796875
1761051987.6446757,-0.65625,0.021484375,0.751953125,10.498046875,-0.79345703125,-4.150390625,1.3128662109375,41.781005859375,-152.0013427734375
1761051987.6514475,-0.65869140625,0.0400390625,0.75146484375,8.056640625,-0.91552734375,-4.39453125,1.3623046875,41.7645263671875,-152.0672607421875
1761051987.6745465,-0.65869140625,0.0400390625,0.75146484375,8.056640625,-0.91552734375,-4.39453125,1.4007568359375,41.7535400390625,-152.127685546875
1761051987.6825142,-0.65966796875,0.05078125,0.75,2.99072265625,-0.732421875,-4.21142578125,1.417236328125,41.7425537109375,-152.193603515625
1761051987.6987224,-0.65966796875,0.05078125,0.75,2.99072265625,-0.732421875,-4.21142578125,1.40625,41.737060546875,-152.2540283203125
1761051987.7063107,-0.66064453125,0.03662109375,0.7587890625,-1.953125,-0.48828125,-3.96728515625,1.3787841796875,41.72607421875,-152.3089599609375
1761051987.7212932,-0.66064453125,0.03662109375,0.7587890625,-1.953125,-0.48828125,-3.96728515625,1.3238525390625,41.7205810546875,-152.3638916015625
1761051987.7285028,-0.66162109375,0.02197265625,0.76611328125,-5.43212890625,-0.06103515625,-3.90625,1.2579345703125,41.715087890625,-152.413330078125
1761051987.738056,-0.66162109375,0.02197265625,0.76611328125,-5.43212890625,-0.06103515625,-3.90625,1.1700439453125,41.7095947265625,-152.46826171875
1761051987.74464,-0.64990234375,0.029296875,0.71728515625,-5.55419921875,0.0,-4.08935546875,1.087646484375,41.7041015625,-152.5177001953125
1761051987.7596967,-0.64990234375,0.029296875,0.71728515625,-5.55419921875,0.0,-4.08935546875,0.999755859375,41.7041015625,-152.5726318359375
1761051987.7782316,-0.65283203125,0.015625,0.76611328125,-6.16455078125,0.18310546875,-3.96728515625,0.911865234375,41.7041015625,-152.6220703125
1761051987.7863367,-0.65283203125,0.015625,0.76611328125,-6.16455078125,0.18310546875,-3.96728515625,0.8184814453125,41.7041015625,-152.677001953125
1761051987.796236,-0.65625,0.00634765625,0.76513671875,-10.19287109375,0.42724609375,-3.41796875,0.7086181640625,41.7041015625,-152.720947265625
1761051987.8136468,-0.65625,0.00634765625,0.76513671875,-10.19287109375,0.42724609375,-3.41796875,0.582275390625,41.7041015625,-152.764892578125
1761051987.8258216,-0.65771484375,0.0166015625,0.74755859375,-13.5498046875,0.48828125,-2.9296875,0.4449462890625,41.7041015625,-152.8033447265625
1761051987.837963,-0.65771484375,0.0166015625,0.74755859375,-13.5498046875,0.48828125,-2.9296875,0.2911376953125,41.7041015625,-152.841796875
1761051987.8448853,-0.65966796875,0.01904296875,0.7744140625,-17.2119140625,0.3662109375,-2.38037109375,0.120849609375,41.7041015625,-152.874755859375
1761051987.8594592,-0.65966796875,0.01904296875,0.7744140625,-17.2119140625,0.3662109375,-2.38037109375,-0.0604248046875,41.7041015625,-152.9022216796875
1761051987.8665054,-0.685546875,0.0009765625,0.7158203125,-18.85986328125,0.8544921875,-2.50244140625,-0.252685546875,41.7041015625,-152.9296875
1761051987.8807647,-0.685546875,0.0009765625,0.7158203125,-18.85986328125,0.8544921875,-2.50244140625,-0.450439453125,41.715087890625,-152.9571533203125
1761051987.888676,-0.68701171875,-0.02880859375,0.7236328125,-17.4560546875,-0.06103515625,-2.62451171875,-0.648193359375,41.715087890625,-152.984619140625
1761051987.9049683,-0.68701171875,-0.02880859375,0.7236328125,-17.4560546875,-0.06103515625,-2.62451171875,-0.8349609375,41.715087890625,-153.017578125
1761051987.923976,-0.68896484375,-0.03662109375,0.73583984375,-12.51220703125,0.244140625,-2.99072265625,-0.999755859375,41.715087890625,-153.0450439453125
1761051987.9304442,-0.68896484375,-0.03662109375,0.73583984375,-12.51220703125,0.244140625,-2.99072265625,-1.142578125,41.7205810546875,-153.0780029296875
1761051987.9370604,-0.6943359375,-0.0546875,0.7568359375,-9.82666015625,0.48828125,-3.2958984375,-1.2799072265625,41.72607421875,-153.116455078125
1761051987.944829,-0.6943359375,-0.0546875,0.7568359375,-9.82666015625,0.48828125,-3.2958984375,-1.4007568359375,41.7315673828125,-153.1549072265625
1761051987.9523504,-0.67431640625,-0.03466796875,0.72509765625,-5.9814453125,0.48828125,-3.96728515625,-1.5106201171875,41.737060546875,-153.1988525390625
1761051987.9600315,-0.67431640625,-0.03466796875,0.72509765625,-5.9814453125,0.48828125,-3.96728515625,-1.5985107421875,41.7425537109375,-153.248291015625
1761051987.9677215,-0.6865234375,-0.01123046875,0.7353515625,-3.7841796875,0.6103515625,-4.39453125,-1.6864013671875,41.7535400390625,-153.2977294921875
1761051987.9758546,-0.6865234375,-0.01123046875,0.7353515625,-3.7841796875,0.6103515625,-4.39453125,-1.7578125,41.759033203125,-153.3526611328125
1761051987.9832296,-0.67529296875,-0.0107421875,0.748046875,-3.41796875,0.48828125,-4.5166015625,-1.8292236328125,41.77001953125,-153.4075927734375
1761051987.9904275,-0.67529296875,-0.0107421875,0.748046875,-3.41796875,0.48828125,-4.5166015625,-1.900634765625,41.7755126953125,-153.45703125
1761051987.997979,-0.67822265625,-0.04736328125,0.75537109375,-0.91552734375,0.48828125,-4.57763671875,-1.95556640625,41.781005859375,-153.511962890625
1761051988.0042145,-0.67822265625,-0.04736328125,0.75537109375,-0.91552734375,0.48828125,-4.57763671875,-2.0050048828125,41.7919921875,-153.56689453125
1761051988.0106344,-0.67919921875,-0.0390625,0.74560546875,-0.8544921875,0.67138671875,-4.69970703125,-2.0489501953125,41.7974853515625,-153.621826171875
1761051988.017528,-0.67919921875,-0.0390625,0.74560546875,-0.8544921875,0.67138671875,-4.69970703125,-2.098388671875,41.802978515625,-153.6822509765625
1761051988.0240057,-0.68212890625,-0.01708984375,0.728515625,-1.0986328125,0.42724609375,-5.06591796875,-2.1533203125,41.81396484375,-153.74267578125
1761051988.0304024,-0.68212890625,-0.01708984375,0.728515625,-1.0986328125,0.42724609375,-5.06591796875,-2.2027587890625,41.8194580078125,-153.8031005859375
1761051988.036712,-0.703125,-0.00048828125,0.73974609375,-4.150390625,0.42724609375,-5.4931640625,-2.274169921875,41.824951171875,-153.8690185546875
1761051988.042887,-0.703125,-0.00048828125,0.73974609375,-4.150390625,0.42724609375,-5.4931640625,-2.362060546875,41.8304443359375,-153.9349365234375
1761051988.054998,-0.72412109375,-0.00634765625,0.734375,-10.92529296875,0.67138671875,-5.2490234375,-2.4774169921875,41.8359375,-154.0008544921875
1761051988.0612965,-0.72412109375,-0.00634765625,0.734375,-10.92529296875,0.67138671875,-5.2490234375,-2.625732421875,41.846923828125,-154.0557861328125
1761051988.0679705,-0.73681640625,-0.046875,0.703125,-12.5732421875,1.0986328125,-5.2490234375,-2.7850341796875,41.8634033203125,-154.1162109375
1761051988.0751417,-0.73681640625,-0.046875,0.703125,-12.5732421875,1.0986328125,-5.2490234375,-2.9498291015625,41.8798828125,-154.171142578125
1761051988.0823655,-0.72802734375,-0.06640625,0.6806640625,-10.986328125,1.28173828125,-5.43212890625,-3.109130859375,41.90185546875,-154.22607421875
1761051988.0886898,-0.72802734375,-0.06640625,0.6806640625,-10.986328125,1.28173828125,-5.43212890625,-3.262939453125,41.923828125,-154.2864990234375
1761051988.0954854,-0.71533203125,-0.052734375,0.71484375,-8.97216796875,1.5869140625,-5.4931640625,-3.40576171875,41.94580078125,-154.346923828125
1761051988.1019595,-0.71533203125,-0.052734375,0.71484375,-8.97216796875,1.5869140625,-5.4931640625,-3.5430908203125,41.9732666015625,-154.40185546875
1761051988.1086323,-0.70263671875,-0.04638671875,0.720703125,-9.6435546875,1.46484375,-5.06591796875,-3.6749267578125,42.000732421875,-154.456787109375
1761051988.1155095,-0.70263671875,-0.04638671875,0.720703125,-9.6435546875,1.46484375,-5.06591796875,-3.8177490234375,42.0281982421875,-154.51171875
1761051988.1230633,-0.69677734375,-0.06201171875,0.72314453125,-7.2021484375,1.708984375,-4.69970703125,-3.9385986328125,42.0501708984375,-154.5611572265625
1761051988.1332579,-0.69677734375,-0.06201171875,0.72314453125,-7.2021484375,1.708984375,-4.69970703125,-4.0484619140625,42.07763671875,-154.6051025390625
1761051988.1400864,-0.6787109375,-0.0869140625,0.72900390625,-7.99560546875,1.708984375,-4.21142578125,-4.163818359375,42.1051025390625,-154.654541015625
1761051988.1463141,-0.6787109375,-0.0869140625,0.72900390625,-7.99560546875,1.708984375,-4.21142578125,-4.2791748046875,42.132568359375,-154.698486328125
1761051988.1533983,-0.67822265625,-0.07275390625,0.73583984375,-9.94873046875,1.708984375,-3.90625,-4.405517578125,42.154541015625,-154.7369384765625
1761051988.1597743,-0.67822265625,-0.07275390625,0.73583984375,-9.94873046875,1.708984375,-3.90625,-4.537353515625,42.1820068359375,-154.7808837890625
1761051988.1671033,-0.662109375,-0.05419921875,0.751953125,-8.11767578125,1.15966796875,-4.08935546875,-4.6636962890625,42.198486328125,-154.8248291015625
1761051988.1735666,-0.662109375,-0.05419921875,0.751953125,-8.11767578125,1.15966796875,-4.08935546875,-4.779052734375,42.2149658203125,-154.8687744140625
1761051988.1800678,-0.6787109375,-0.06689453125,0.74267578125,-8.9111328125,1.3427734375,-4.0283203125,-4.89990234375,42.2314453125,-154.918212890625
1761051988.1924481,-0.6787109375,-0.06689453125,0.74267578125,-8.9111328125,1.3427734375,-4.0283203125,-5.020751953125,42.2479248046875,-154.962158203125
1761051988.198743,-0.654296875,-0.06982421875,0.7412109375,-9.21630859375,0.67138671875,-3.96728515625,-5.1470947265625,42.2589111328125,-155.006103515625
1761051988.212555,-0.654296875,-0.06982421875,0.7412109375,-9.21630859375,0.67138671875,-3.96728515625,-5.2679443359375,42.264404296875,-155.0555419921875
1761051988.2191703,-0.658203125,-0.068359375,0.7705078125,-10.8642578125,0.79345703125,-3.60107421875,-5.3997802734375,42.2698974609375,-155.093994140625
1761051988.2265434,-0.658203125,-0.068359375,0.7705078125,-10.8642578125,0.79345703125,-3.60107421875,-5.537109375,42.275390625,-155.137939453125
1761051988.2333183,-0.658203125,-0.0703125,0.7685546875,-15.93017578125,0.6103515625,-3.0517578125,-5.6964111328125,42.2808837890625,-155.1763916015625
1761051988.2553003,-0.658203125,-0.0703125,0.7685546875,-15.93017578125,0.6103515625,-3.0517578125,-5.877685546875,42.2808837890625,-155.2093505859375
1761051988.261746,-0.65869140625,-0.08056640625,0.75244140625,-15.380859375,0.30517578125,-2.99072265625,-6.053466796875,42.2808837890625,-155.247802734375
1761051988.2876673,-0.65869140625,-0.08056640625,0.75244140625,-15.380859375,0.30517578125,-2.99072265625,-6.229248046875,42.2808837890625,-155.28076171875
1761051988.3005779,-0.6572265625,-0.10791015625,0.7421875,-13.36669921875,0.30517578125,-3.23486328125,-6.39404296875,42.275390625,-155.3192138671875
1761051988.3228524,-0.6572265625,-0.10791015625,0.7421875,-13.36669921875,0.30517578125,-3.23486328125,-6.5478515625,42.2698974609375,-155.357666015625
1761051988.3418505,-0.64892578125,-0.09619140625,0.75439453125,-14.0380859375,0.54931640625,-3.0517578125,-6.7071533203125,42.2698974609375,-155.3961181640625
1761051988.3489413,-0.64892578125,-0.09619140625,0.75439453125,-14.0380859375,0.54931640625,-3.0517578125,-6.8719482421875,42.264404296875,-155.4345703125
1761051988.3623235,-0.63134765625,-0.09130859375,0.76611328125,-14.22119140625,0.732421875,-2.9296875,-7.03125,42.264404296875,-155.467529296875
1761051988.3688524,-0.63134765625,-0.09130859375,0.76611328125,-14.22119140625,0.732421875,-2.9296875,-7.196044921875,42.2589111328125,-155.5059814453125
1761051988.375687,-0.6220703125,-0.10546875,0.7685546875,-17.578125,0.48828125,-2.197265625,-7.371826171875,42.2589111328125,-155.5389404296875
1761051988.382064,-0.6220703125,-0.10546875,0.7685546875,-17.578125,0.48828125,-2.197265625,-7.55859375,42.2479248046875,-155.56640625
1761051988.3884268,-0.62255859375,-0.11181640625,0.77294921875,-19.1650390625,0.0,-1.40380859375,-7.7508544921875,42.242431640625,-155.58837890625
1761051988.3950193,-0.62255859375,-0.11181640625,0.77294921875,-19.1650390625,0.0,-1.40380859375,-7.9486083984375,42.2259521484375,-155.6103515625
1761051988.4011514,-0.62548828125,-0.1025390625,0.76513671875,-20.69091796875,-0.30517578125,-1.15966796875,-8.15185546875,42.20947265625,-155.6268310546875
1761051988.4088662,-0.62548828125,-0.1025390625,0.76513671875,-20.69091796875,-0.30517578125,-1.15966796875,-8.360595703125,42.1929931640625,-155.6378173828125
1761051988.420883,-0.63134765625,-0.14208984375,0.75634765625,-16.6015625,-0.48828125,-1.15966796875,-8.54736328125,42.176513671875,-155.654296875
1761051988.4276223,-0.63134765625,-0.14208984375,0.75634765625,-16.6015625,-0.48828125,-1.15966796875,-8.7176513671875,42.154541015625,-155.6707763671875
1761051988.4346318,-0.6630859375,-0.1630859375,0.72705078125,-9.521484375,0.18310546875,-1.0986328125,-8.8494873046875,42.1380615234375,-155.687255859375
1761051988.4409173,-0.6630859375,-0.1630859375,0.72705078125,-9.521484375,0.18310546875,-1.0986328125,-8.9483642578125,42.1270751953125,-155.7037353515625
1761051988.447308,-0.658203125,-0.14453125,0.6259765625,-4.94384765625,0.1220703125,-1.64794921875,-9.03076171875,42.1160888671875,-155.7257080078125
1761051988.4601748,-0.658203125,-0.14453125,0.6259765625,-4.94384765625,0.1220703125,-1.64794921875,-9.0966796875,42.1051025390625,-155.7476806640625
1761051988.4671218,-0.67333984375,-0.1552734375,0.7685546875,-0.1220703125,0.0,-1.3427734375,-9.1351318359375,42.099609375,-155.7696533203125
1761051988.4737773,-0.67333984375,-0.1552734375,0.7685546875,-0.1220703125,0.0,-1.3427734375,-9.151611328125,42.0941162109375,-155.7861328125
1761051988.4801977,-0.67236328125,-0.1298828125,0.72509765625,1.708984375,0.0,-1.953125,-9.16259765625,42.0831298828125,-155.80810546875
1761051988.4865603,-0.67236328125,-0.1298828125,0.72509765625,1.708984375,0.0,-1.953125,-9.1680908203125,42.07763671875,-155.8355712890625
1761051988.4927597,-0.72412109375,-0.12255859375,0.69140625,10.009765625,-0.6103515625,-1.15966796875,-9.1241455078125,42.066650390625,-155.8575439453125
1761051988.4997432,-0.72412109375,-0.12255859375,0.69140625,10.009765625,-0.6103515625,-1.15966796875,-9.0362548828125,42.0556640625,-155.8685302734375
1761051988.5072231,-0.7451171875,-0.10546875,0.669921875,15.80810546875,-0.91552734375,-2.01416015625,-8.9263916015625,42.0501708984375,-155.8795166015625
1761051988.5134926,-0.7451171875,-0.10546875,0.669921875,15.80810546875,-0.91552734375,-2.01416015625,-8.7890625,42.044677734375,-155.9014892578125
1761051988.5433202,-0.78125,-0.1220703125,0.67578125,10.43701171875,-0.91552734375,-1.15966796875,-8.67919921875,42.0391845703125,-155.9124755859375
1761051988.5497575,-0.78125,-0.1220703125,0.67578125,10.43701171875,-0.91552734375,-1.15966796875,-8.59130859375,42.0391845703125,-155.9124755859375
1761051988.5571613,-0.7548828125,-0.1298828125,0.70458984375,4.8828125,-0.48828125,-0.06103515625,-8.525390625,42.044677734375,-155.906982421875
1761051988.5718877,-0.7548828125,-0.1298828125,0.70458984375,4.8828125,-0.48828125,-0.06103515625,-8.4869384765625,42.0556640625,-155.89599609375
1761051988.5781224,-0.72412109375,-0.11474609375,0.69287109375,2.86865234375,-0.06103515625,0.8544921875,-8.45947265625,42.0721435546875,-155.8740234375
1761051988.58438,-0.72412109375,-0.11474609375,0.69287109375,2.86865234375,-0.06103515625,0.8544921875,-8.4320068359375,42.088623046875,-155.8465576171875
1761051988.5906768,-0.69384765625,-0.11474609375,0.697265625,1.708984375,-0.18310546875,1.52587890625,-8.404541015625,42.1051025390625,-155.8135986328125
1761051988.608907,-0.69384765625,-0.11474609375,0.697265625,1.708984375,-0.18310546875,1.52587890625,-8.382568359375,42.12158203125,-155.7806396484375
1761051988.6153002,-0.68310546875,-0.13623046875,0.71923828125,2.50244140625,-0.67138671875,1.89208984375,-8.349609375,42.132568359375,-155.7421875
1761051988.6218302,-0.68310546875,-0.13623046875,0.71923828125,2.50244140625,-0.67138671875,1.89208984375,-8.316650390625,42.1435546875,-155.709228515625
1761051988.628497,-0.67333984375,-0.12255859375,0.73193359375,2.9296875,-1.3427734375,2.44140625,-8.272705078125,42.1435546875,-155.665283203125
1761051988.6358752,-0.67333984375,-0.12255859375,0.73193359375,2.9296875,-1.3427734375,2.44140625,-8.228759765625,42.1490478515625,-155.621337890625
1761051988.6423151,-0.67578125,-0.10400390625,0.75439453125,0.0,-2.0751953125,2.74658203125,-8.2122802734375,42.1435546875,-155.5718994140625
1761051988.6488128,-0.67578125,-0.10400390625,0.75439453125,0.0,-2.0751953125,2.74658203125,-8.1903076171875,42.132568359375,-155.5279541015625
1761051988.6558006,-0.67626953125,-0.09765625,0.76171875,-6.103515625,-2.38037109375,3.35693359375,-8.2232666015625,42.12158203125,-155.4730224609375
1761051988.6624873,-0.67626953125,-0.09765625,0.76171875,-6.103515625,-2.38037109375,3.35693359375,-8.2562255859375,42.110595703125,-155.41259765625
1761051988.6693666,-0.6728515625,-0.111328125,0.72265625,-7.62939453125,-2.38037109375,3.662109375,-8.3056640625,42.099609375,-155.3521728515625
1761051988.6825373,-0.6728515625,-0.111328125,0.72265625,-7.62939453125,-2.38037109375,3.662109375,-8.349609375,42.0831298828125,-155.2972412109375
1761051988.6886475,-0.68115234375,-0.126953125,0.72509765625,-7.75146484375,-2.50244140625,3.96728515625,-8.3880615234375,42.0721435546875,-155.2313232421875
1761051988.695534,-0.68115234375,-0.126953125,0.72509765625,-7.75146484375,-2.50244140625,3.96728515625,-8.4320068359375,42.0611572265625,-155.1708984375
1761051988.7023067,-0.69775390625,-0.1220703125,0.7294921875,-9.1552734375,-2.38037109375,4.08935546875,-8.492431640625,42.0501708984375,-155.10498046875
1761051988.7089884,-0.69775390625,-0.1220703125,0.7294921875,-9.1552734375,-2.38037109375,4.08935546875,-8.54736328125,42.03369140625,-155.0390625
1761051988.7151978,-0.69482421875,-0.09716796875,0.69873046875,-10.31494140625,-2.5634765625,4.0283203125,-8.61328125,42.022705078125,-154.97314453125
1761051988.7221668,-0.69482421875,-0.09716796875,0.69873046875,-10.31494140625,-2.5634765625,4.0283203125,-8.67919921875,42.01171875,-154.9072265625
1761051988.7284193,-0.6943359375,-0.10693359375,0.71630859375,-8.6669921875,-2.50244140625,3.96728515625,-8.7286376953125,42.000732421875,-154.8358154296875
1761051988.7349148,-0.6943359375,-0.10693359375,0.71630859375,-8.6669921875,-2.50244140625,3.96728515625,-8.778076171875,41.98974609375,-154.7698974609375
1761051988.7433946,-0.68017578125,-0.13720703125,0.7294921875,-6.89697265625,-2.44140625,4.150390625,-8.8055419921875,41.9842529296875,-154.698486328125
1761051988.7529097,-0.68017578125,-0.13720703125,0.7294921875,-6.89697265625,-2.44140625,4.150390625,-8.8385009765625,41.9732666015625,-154.6270751953125
1761051988.7707782,-0.6708984375,-0.13671875,0.73388671875,-5.126953125,-2.50244140625,4.69970703125,-8.8494873046875,41.9622802734375,-154.5501708984375
1761051988.7787392,-0.6708984375,-0.13671875,0.73388671875,-5.126953125,-2.50244140625,4.69970703125,-8.85498046875,41.9512939453125,-154.478759765625
1761051988.7850854,-0.67041015625,-0.126953125,0.73974609375,-5.43212890625,-2.50244140625,5.2490234375,-8.865966796875,41.9403076171875,-154.3963623046875
1761051988.7944765,-0.67041015625,-0.126953125,0.73974609375,-5.43212890625,-2.50244140625,5.2490234375,-8.8714599609375,41.9293212890625,-154.31396484375
1761051988.8030586,-0.69970703125,-0.11962890625,0.72705078125,-6.7138671875,-2.13623046875,5.67626953125,-8.8934326171875,41.923828125,-154.2315673828125
1761051988.813778,-0.69970703125,-0.11962890625,0.72705078125,-6.7138671875,-2.13623046875,5.67626953125,-8.909912109375,41.9183349609375,-154.1436767578125
1761051988.823362,-0.72509765625,-0.11669921875,0.68408203125,-6.28662109375,-1.64794921875,5.615234375,-8.9208984375,41.9183349609375,-154.0557861328125
1761051988.8339748,-0.72509765625,-0.11669921875,0.68408203125,-6.28662109375,-1.64794921875,5.615234375,-8.9373779296875,41.9183349609375,-153.973388671875
1761051988.8430538,-0.74072265625,-0.1318359375,0.6552734375,-4.5166015625,-0.91552734375,5.859375,-8.931884765625,41.9293212890625,-153.8800048828125
1761051988.855707,-0.74072265625,-0.1318359375,0.6552734375,-4.5166015625,-0.91552734375,5.859375,-8.931884765625,41.9403076171875,-153.7921142578125
1761051988.865203,-0.72998046875,-0.13916015625,0.697265625,-2.0751953125,-0.6103515625,5.9814453125,-8.9044189453125,41.9622802734375,-153.69873046875
1761051988.87491,-0.72998046875,-0.13916015625,0.697265625,-2.0751953125,-0.6103515625,5.9814453125,-8.876953125,41.978759765625,-153.6053466796875
1761051988.8854134,-0.71484375,-0.1220703125,0.7138671875,-2.62451171875,-0.1220703125,6.89697265625,-8.8494873046875,42.0062255859375,-153.5009765625
1761051988.9006839,-0.71484375,-0.1220703125,0.7138671875,-2.62451171875,-0.1220703125,6.89697265625,-8.822021484375,42.0281982421875,-153.3966064453125
1761051988.9077716,-0.69140625,-0.10888671875,0.7080078125,-3.5400390625,-0.1220703125,7.568359375,-8.800048828125,42.0556640625,-153.2867431640625
1761051988.9142418,-0.69140625,-0.10888671875,0.7080078125,-3.5400390625,-0.1220703125,7.568359375,-8.7725830078125,42.07763671875,-153.17138671875
1761051988.9272745,-0.6689453125,-0.1201171875,0.728515625,-3.2958984375,-0.18310546875,8.056640625,-8.7396240234375,42.1051025390625,-153.0560302734375
1761051988.9425552,-0.6689453125,-0.1201171875,0.728515625,-3.2958984375,-0.18310546875,8.056640625,-8.7066650390625,42.1270751953125,-152.940673828125
1761051988.9496975,-0.65576171875,-0.13720703125,0.7646484375,-2.0751953125,-0.1220703125,8.23974609375,-8.6572265625,42.1490478515625,-152.81982421875
1761051988.956762,-0.65576171875,-0.13720703125,0.7646484375,-2.0751953125,-0.1220703125,8.23974609375,-8.61328125,42.16552734375,-152.7044677734375
1761051988.9630194,-0.6416015625,-0.1201171875,0.74658203125,-2.44140625,-0.30517578125,8.4228515625,-8.5693359375,42.1820068359375,-152.589111328125
1761051988.9736252,-0.6416015625,-0.1201171875,0.74658203125,-2.44140625,-0.30517578125,8.4228515625,-8.525390625,42.1929931640625,-152.4737548828125
1761051988.9910402,-0.63037109375,-0.10595703125,0.77685546875,-2.0751953125,-0.732421875,8.544921875,-8.4759521484375,42.2039794921875,-152.3583984375
1761051988.9994397,-0.63037109375,-0.10595703125,0.77685546875,-2.0751953125,-0.732421875,8.544921875,-8.4210205078125,42.20947265625,-152.2430419921875
1761051989.0069718,-0.62744140625,-0.10595703125,0.78466796875,-3.47900390625,-0.8544921875,8.85009765625,-8.382568359375,42.20947265625,-152.1221923828125
1761051989.0144317,-0.62744140625,-0.10595703125,0.78466796875,-3.47900390625,-0.8544921875,8.85009765625,-8.338623046875,42.20947265625,-152.0068359375
1761051989.029684,-0.625,-0.12353515625,0.775390625,-3.23486328125,-0.9765625,8.9111328125,-8.294677734375,42.2039794921875,-151.885986328125
1761051989.0362618,-0.625,-0.12353515625,0.775390625,-3.23486328125,-0.9765625,8.9111328125,-8.250732421875,42.198486328125,-151.7706298828125
1761051989.0439348,-0.625,-0.126953125,0.75146484375,-0.91552734375,-1.220703125,8.9111328125,-8.184814453125,42.1929931640625,-151.6552734375
1761051989.0609121,-0.625,-0.126953125,0.75146484375,-0.91552734375,-1.220703125,8.9111328125,-8.118896484375,42.1820068359375,-151.54541015625
1761051989.067863,-0.646484375,-0.09619140625,0.78076171875,1.953125,-1.3427734375,8.4228515625,-8.0255126953125,42.1710205078125,-151.435546875
1761051989.0746005,-0.646484375,-0.09619140625,0.78076171875,1.953125,-1.3427734375,8.4228515625,-7.93212890625,42.1600341796875,-151.32568359375
1761051989.084037,-0.68017578125,-0.08203125,0.7802734375,1.64794921875,-1.0986328125,7.99560546875,-7.8497314453125,42.1490478515625,-151.226806640625
1761051989.1145298,-0.68017578125,-0.08203125,0.7802734375,1.64794921875,-1.0986328125,7.99560546875,-7.7618408203125,42.1380615234375,-151.1224365234375
1761051989.1215916,-0.7109375,-0.07861328125,0.720703125,-1.708984375,-0.67138671875,7.568359375,-7.71240234375,42.132568359375,-151.0235595703125
1761051989.1558137,-0.7109375,-0.07861328125,0.720703125,-1.708984375,-0.67138671875,7.568359375,-7.6629638671875,42.132568359375,-150.919189453125
1761051989.164684,-0.72509765625,-0.08154296875,0.6689453125,-5.126953125,-0.48828125,7.38525390625,-7.646484375,42.132568359375,-150.8148193359375
1761051989.1711395,-0.72509765625,-0.08154296875,0.6689453125,-5.126953125,-0.48828125,7.38525390625,-7.6300048828125,42.1380615234375,-150.71044921875
1761051989.1773882,-0.72314453125,-0.0966796875,0.68408203125,-6.9580078125,-0.67138671875,7.50732421875,-7.635498046875,42.1435546875,-150.6005859375
1761051989.1847305,-0.72314453125,-0.0966796875,0.68408203125,-6.9580078125,-0.67138671875,7.50732421875,-7.635498046875,42.154541015625,-150.49072265625
1761051989.2062452,-0.71728515625,-0.10498046875,0.69384765625,-7.9345703125,-0.48828125,7.8125,-7.646484375,42.16552734375,-150.3753662109375
1761051989.212916,-0.71728515625,-0.10498046875,0.69384765625,-7.9345703125,-0.48828125,7.8125,-7.657470703125,42.176513671875,-150.260009765625
1761051989.219356,-0.70751953125,-0.1083984375,0.70556640625,-7.4462890625,-0.79345703125,8.11767578125,-7.657470703125,42.1875,-150.1446533203125
1761051989.2264395,-0.70751953125,-0.1083984375,0.70556640625,-7.4462890625,-0.79345703125,8.11767578125,-7.6629638671875,42.2039794921875,-150.0238037109375
1761051989.2476525,-0.7001953125,-0.1123046875,0.7099609375,-7.62939453125,-0.79345703125,8.36181640625,-7.6629638671875,42.2149658203125,-149.9029541015625
1761051989.2554512,-0.7001953125,-0.1123046875,0.7099609375,-7.62939453125,-0.79345703125,8.36181640625,-7.66845703125,42.2259521484375,-149.776611328125
1761051989.2618282,-0.69091796875,-0.10888671875,0.70654296875,-6.77490234375,-0.8544921875,8.30078125,-7.6629638671875,42.2369384765625,-149.6612548828125
1761051989.2681947,-0.69091796875,-0.10888671875,0.70654296875,-6.77490234375,-0.8544921875,8.30078125,-7.657470703125,42.25341796875,-149.5404052734375
1761051989.2885683,-0.6923828125,-0.10302734375,0.71142578125,-4.69970703125,-0.9765625,8.30078125,-7.635498046875,42.264404296875,-149.4195556640625
1761051989.295886,-0.6923828125,-0.10302734375,0.71142578125,-4.69970703125,-0.9765625,8.30078125,-7.6080322265625,42.275390625,-149.2987060546875
1761051989.3023386,-0.6953125,-0.10302734375,0.7294921875,-2.50244140625,-0.91552734375,8.056640625,-7.5640869140625,42.286376953125,-149.183349609375
1761051989.3094678,-0.6953125,-0.10302734375,0.7294921875,-2.50244140625,-0.91552734375,8.056640625,-7.5201416015625,42.29736328125,-149.0679931640625
1761051989.3161538,-0.6884765625,-0.103515625,0.7314453125,-0.79345703125,-0.67138671875,7.6904296875,-7.4652099609375,42.308349609375,-148.9581298828125
1761051989.3284204,-0.6884765625,-0.103515625,0.7314453125,-0.79345703125,-0.67138671875,7.6904296875,-7.40478515625,42.3193359375,-148.8482666015625
1761051989.3349204,-0.681640625,-0.083984375,0.724609375,-1.40380859375,-0.67138671875,7.2021484375,-7.36083984375,42.330322265625,-148.7493896484375
1761051989.3418167,-0.681640625,-0.083984375,0.724609375,-1.40380859375,-0.67138671875,7.2021484375,-7.3114013671875,42.3358154296875,-148.64501953125
1761051989.348653,-0.66943359375,-0.07275390625,0.7412109375,-2.8076171875,-0.91552734375,6.7138671875,-7.2784423828125,42.3468017578125,-148.546142578125
1761051989.3549018,-0.66943359375,-0.07275390625,0.7412109375,-2.8076171875,-0.91552734375,6.7138671875,-7.2509765625,42.3468017578125,-148.447265625
1761051989.361251,-0.66064453125,-0.08349609375,0.763671875,-3.11279296875,-1.0986328125,6.591796875,-7.218017578125,42.352294921875,-148.3538818359375
1761051989.3683255,-0.66064453125,-0.08349609375,0.763671875,-3.11279296875,-1.0986328125,6.591796875,-7.1905517578125,42.352294921875,-148.2550048828125
1761051989.381073,-0.65625,-0.10498046875,0.765625,-2.74658203125,-1.28173828125,6.4697265625,-7.1575927734375,42.3468017578125,-148.16162109375
1761051989.387885,-0.65625,-0.10498046875,0.765625,-2.74658203125,-1.28173828125,6.4697265625,-7.130126953125,42.34130859375,-148.07373046875
1761051989.3942573,-0.6513671875,-0.10009765625,0.740234375,-2.38037109375,-1.708984375,6.2255859375,-7.09716796875,42.3358154296875,-147.98583984375
1761051989.4008775,-0.6513671875,-0.10009765625,0.740234375,-2.38037109375,-1.708984375,6.2255859375,-7.064208984375,42.3248291015625,-147.89794921875
1761051989.407944,-0.64453125,-0.09619140625,0.75732421875,1.220703125,-2.0751953125,5.79833984375,-6.998291015625,42.308349609375,-147.8155517578125
1761051989.4155908,-0.64453125,-0.09619140625,0.75732421875,1.220703125,-2.0751953125,5.79833984375,-6.932373046875,42.2918701171875,-147.733154296875
1761051989.4289105,-0.64501953125,-0.09326171875,0.78466796875,4.08935546875,-2.13623046875,5.615234375,-6.844482421875,42.2698974609375,-147.65625
1761051989.4358175,-0.64501953125,-0.09326171875,0.78466796875,4.08935546875,-2.13623046875,5.615234375,-6.7510986328125,42.25341796875,-147.5848388671875
1761051989.4434714,-0.64404296875,-0.07861328125,0.771484375,4.33349609375,-2.13623046875,5.55419921875,-6.65771484375,42.2314453125,-147.5079345703125
1761051989.4540062,-0.64404296875,-0.07861328125,0.771484375,4.33349609375,-2.13623046875,5.55419921875,-6.5643310546875,42.20947265625,-147.4310302734375
1761051989.4667537,-0.6474609375,-0.078125,0.75634765625,2.5634765625,-2.0751953125,5.7373046875,-6.4874267578125,42.1875,-147.3541259765625
1761051989.4735267,-0.6474609375,-0.078125,0.75634765625,2.5634765625,-2.0751953125,5.7373046875,-6.4105224609375,42.16552734375,-147.28271484375
1761051989.4839225,-0.63818359375,-0.0810546875,0.76025390625,0.9765625,-2.13623046875,5.4931640625,-6.3555908203125,42.1435546875,-147.205810546875
1761051989.4934053,-0.63818359375,-0.0810546875,0.76025390625,0.9765625,-2.13623046875,5.4931640625,-6.295166015625,42.1160888671875,-147.1343994140625
1761051989.5034783,-0.634765625,-0.076171875,0.76708984375,2.3193359375,-2.197265625,5.31005859375,-6.2237548828125,42.0941162109375,-147.0684814453125
1761051989.5163252,-0.634765625,-0.076171875,0.76708984375,2.3193359375,-2.197265625,5.31005859375,-6.15234375,42.066650390625,-146.9970703125
1761051989.5239315,-0.63916015625,-0.09130859375,0.77099609375,4.33349609375,-2.25830078125,5.126953125,-6.064453125,42.0391845703125,-146.93115234375
1761051989.5388827,-0.63916015625,-0.09130859375,0.77099609375,4.33349609375,-2.25830078125,5.126953125,-5.9765625,42.01171875,-146.865234375
1761051989.546108,-0.64990234375,-0.08935546875,0.7548828125,5.859375,-2.44140625,5.06591796875,-5.8721923828125,41.9842529296875,-146.8048095703125
1761051989.558627,-0.64990234375,-0.08935546875,0.7548828125,5.859375,-2.44140625,5.06591796875,-5.7733154296875,41.9512939453125,-146.7388916015625
1761051989.5657454,-0.66162109375,-0.07080078125,0.73779296875,5.859375,-2.62451171875,5.0048828125,-5.6689453125,41.923828125,-146.678466796875
1761051989.57652,-0.66943359375,-0.04931640625,0.7548828125,2.5634765625,-2.74658203125,5.06591796875,-5.5865478515625,41.8963623046875,-146.6180419921875
1761051989.589092,-0.66943359375,-0.04931640625,0.7548828125,2.5634765625,-2.74658203125,5.06591796875,-5.51513671875,41.8634033203125,-146.5521240234375
1761051989.5971756,-0.68310546875,-0.04736328125,0.7626953125,0.244140625,-2.38037109375,5.43212890625,-5.4547119140625,41.8359375,-146.480712890625
1761051989.6041057,-0.68310546875,-0.04736328125,0.7626953125,0.244140625,-2.38037109375,5.43212890625,-5.4052734375,41.81396484375,-146.4093017578125
1761051989.6134653,-0.68701171875,-0.0517578125,0.67578125,-3.90625,-2.685546875,5.55419921875,-5.372314453125,41.7864990234375,-146.3323974609375
1761051989.6245039,-0.68701171875,-0.0517578125,0.67578125,-3.90625,-2.685546875,5.55419921875,-5.361328125,41.7645263671875,-146.25
1761051989.63947,-0.67041015625,-0.0751953125,0.7470703125,-1.52587890625,-2.5634765625,5.0048828125,-5.33935546875,41.7425537109375,-146.173095703125
1761051989.6476357,-0.67041015625,-0.0751953125,0.7470703125,-1.52587890625,-2.5634765625,5.0048828125,-5.306396484375,41.7205810546875,-146.1016845703125
1761051989.6564653,-0.65673828125,-0.091796875,0.7421875,-1.52587890625,-2.44140625,5.06591796875,-5.2734375,41.7041015625,-146.0302734375
1761051989.6643972,-0.65673828125,-0.091796875,0.7421875,-1.52587890625,-2.44140625,5.06591796875,-5.2459716796875,41.68212890625,-145.9588623046875
1761051989.682774,-0.64404296875,-0.08056640625,0.74609375,1.52587890625,-2.3193359375,4.638671875,-5.2020263671875,41.66015625,-145.8929443359375
1761051989.6908164,-0.64404296875,-0.08056640625,0.74609375,1.52587890625,-2.3193359375,4.638671875,-5.1470947265625,41.6436767578125,-145.83251953125
1761051989.6979144,-0.646484375,-0.068359375,0.74853515625,4.8828125,-1.953125,4.5166015625,-5.0811767578125,41.627197265625,-145.7720947265625
1761051989.7045076,-0.646484375,-0.068359375,0.74853515625,4.8828125,-1.953125,4.5166015625,-4.9932861328125,41.605224609375,-145.711669921875
1761051989.7230248,-0.6474609375,-0.07470703125,0.74560546875,2.86865234375,-1.708984375,4.45556640625,-4.9163818359375,41.59423828125,-145.6512451171875
1761051989.730727,-0.6474609375,-0.07470703125,0.74560546875,2.86865234375,-1.708984375,4.45556640625,-4.8504638671875,41.5777587890625,-145.5908203125
1761051989.7387595,-0.66650390625,-0.0537109375,0.7392578125,4.94384765625,-1.46484375,4.57763671875,-4.779052734375,41.561279296875,-145.5303955078125
1761051989.746391,-0.66650390625,-0.0537109375,0.7392578125,4.94384765625,-1.46484375,4.57763671875,-4.691162109375,41.55029296875,-145.469970703125
1761051989.7628052,-0.689453125,-0.0556640625,0.72705078125,8.72802734375,-1.220703125,4.57763671875,-4.5867919921875,41.539306640625,-145.4095458984375
1761051989.77018,-0.689453125,-0.0556640625,0.72705078125,8.72802734375,-1.220703125,4.57763671875,-4.46044921875,41.5338134765625,-145.34912109375
1761051989.7777963,-0.71240234375,-0.072265625,0.74560546875,9.70458984375,-0.8544921875,4.5166015625,-4.3341064453125,41.5283203125,-145.2886962890625
1761051989.7861173,-0.71240234375,-0.072265625,0.74560546875,9.70458984375,-0.8544921875,4.5166015625,-4.2022705078125,41.5228271484375,-145.228271484375
1761051989.794174,-0.71875,-0.04736328125,0.72412109375,8.85009765625,-1.220703125,4.39453125,-4.075927734375,41.5228271484375,-145.1678466796875
1761051989.8097587,-0.71875,-0.04736328125,0.72412109375,8.85009765625,-1.220703125,4.39453125,-3.955078125,41.517333984375,-145.107421875
1761051989.818332,-0.7236328125,-0.033203125,0.70166015625,8.4228515625,-1.5869140625,3.84521484375,-3.8397216796875,41.5118408203125,-145.052490234375
1761051989.8324773,-0.7236328125,-0.033203125,0.70166015625,8.4228515625,-1.5869140625,3.84521484375,-3.724365234375,41.50634765625,-144.9920654296875
1761051989.8682103,-0.75146484375,-0.02783203125,0.7138671875,7.38525390625,-2.197265625,3.2958984375,-3.6199951171875,41.5008544921875,-144.942626953125
1761051989.8801982,-0.75146484375,-0.02783203125,0.7138671875,7.38525390625,-2.197265625,3.2958984375,-3.5211181640625,41.495361328125,-144.8876953125
1761051989.8876288,-0.75048828125,-0.01708984375,0.6982421875,3.5400390625,-2.3193359375,4.0283203125,-3.4332275390625,41.4898681640625,-144.8272705078125
1761051989.909702,-0.75048828125,-0.01708984375,0.6982421875,3.5400390625,-2.3193359375,4.0283203125,-3.3673095703125,41.484375,-144.7613525390625
1761051989.9165266,-0.7275390625,-0.04638671875,0.693359375,1.52587890625,-2.13623046875,4.5166015625,-3.306884765625,41.484375,-144.68994140625
1761051989.9263742,-0.7275390625,-0.04638671875,0.693359375,1.52587890625,-2.13623046875,4.5166015625,-3.251953125,41.484375,-144.613037109375
1761051989.9501803,-0.69921875,-0.06689453125,0.71044921875,-0.18310546875,-1.89208984375,5.0048828125,-3.2080078125,41.484375,-144.5361328125
1761051989.9582288,-0.69921875,-0.06689453125,0.71044921875,-0.18310546875,-1.89208984375,5.0048828125,-3.1640625,41.4898681640625,-144.4537353515625
1761051989.9698694,-0.66845703125,-0.05126953125,0.7431640625,0.18310546875,-2.01416015625,5.126953125,-3.1256103515625,41.4898681640625,-144.3768310546875
1761051989.976905,-0.66845703125,-0.05126953125,0.7431640625,0.18310546875,-2.01416015625,5.126953125,-3.0816650390625,41.4898681640625,-144.2999267578125
1761051989.9917014,-0.64697265625,-0.02685546875,0.77685546875,1.03759765625,-2.0751953125,4.8828125,-3.0377197265625,41.4898681640625,-144.2230224609375
1761051990.0040934,-0.64697265625,-0.02685546875,0.77685546875,1.03759765625,-2.0751953125,4.8828125,-2.98828125,41.484375,-144.151611328125
1761051990.0137053,-0.634765625,-0.02880859375,0.794921875,-0.6103515625,-2.13623046875,4.7607421875,-2.9443359375,41.4788818359375,-144.0802001953125
1761051990.0207086,-0.634765625,-0.02880859375,0.794921875,-0.6103515625,-2.13623046875,4.7607421875,-2.911376953125,41.4678955078125,-144.0142822265625
1761051990.0386782,-0.62255859375,-0.03271484375,0.78662109375,-1.15966796875,-2.3193359375,4.7607421875,-2.87841796875,41.451416015625,-143.94287109375
1761051990.0454772,-0.62255859375,-0.03271484375,0.78662109375,-1.15966796875,-2.3193359375,4.7607421875,-2.8509521484375,41.4349365234375,-143.876953125
1761051990.059423,-0.62255859375,-0.04248046875,0.79345703125,-0.30517578125,-2.50244140625,4.638671875,-2.8179931640625,41.4129638671875,-143.81103515625
1761051990.0865176,-0.62255859375,-0.04248046875,0.79345703125,-0.30517578125,-2.50244140625,4.638671875,-2.779541015625,41.3909912109375,-143.7506103515625
1761051990.1105583,-0.626953125,-0.03759765625,0.794921875,1.0986328125,-2.5634765625,4.57763671875,-2.735595703125,41.363525390625,-143.690185546875
1761051990.118921,-0.626953125,-0.03759765625,0.794921875,1.0986328125,-2.5634765625,4.57763671875,-2.6861572265625,41.3360595703125,-143.6297607421875
1761051990.1367567,-0.6328125,-0.03125,0.791015625,5.0048828125,-2.50244140625,3.90625,-2.6202392578125,41.30859375,-143.5748291015625
1761051990.149831,-0.6328125,-0.03125,0.791015625,5.0048828125,-2.50244140625,3.90625,-2.537841796875,41.2811279296875,-143.525390625
1761051990.161241,-0.6611328125,-0.0146484375,0.7451171875,5.43212890625,-1.89208984375,3.35693359375,-2.4554443359375,41.253662109375,-143.4814453125
1761051990.1781044,-0.6611328125,-0.0146484375,0.7451171875,5.43212890625,-1.89208984375,3.35693359375,-2.373046875,41.231689453125,-143.4375
1761051990.184693,-0.642578125,-0.0107421875,0.73046875,6.8359375,-2.62451171875,2.5634765625,-2.28515625,41.2042236328125,-143.3990478515625
1761051990.1978297,-0.642578125,-0.0107421875,0.73046875,6.8359375,-2.62451171875,2.5634765625,-2.197265625,41.1767578125,-143.3660888671875
1761051990.2167807,-0.64453125,-0.03076171875,0.791015625,7.99560546875,-2.3193359375,2.3193359375,-2.098388671875,41.1492919921875,-143.3331298828125
1761051990.2242932,-0.64453125,-0.03076171875,0.791015625,7.99560546875,-2.3193359375,2.3193359375,-1.99951171875,41.121826171875,-143.3001708984375
1761051990.23123,-0.62841796875,-0.017578125,0.755859375,7.26318359375,-2.3193359375,2.50244140625,-1.9061279296875,41.0943603515625,-143.2672119140625
1761051990.243336,-0.62841796875,-0.017578125,0.755859375,7.26318359375,-2.3193359375,2.50244140625,-1.812744140625,41.06689453125,-143.2342529296875
1761051990.2575073,-0.6259765625,-0.02587890625,0.77001953125,7.080078125,-2.25830078125,2.5634765625,-1.7193603515625,41.0394287109375,-143.206787109375
1761051990.265015,-0.6259765625,-0.02587890625,0.77001953125,7.080078125,-2.25830078125,2.5634765625,-1.6259765625,41.011962890625,-143.173828125
1761051990.2778509,-0.64892578125,-0.0380859375,0.7685546875,8.544921875,-2.50244140625,2.685546875,-1.527099609375,40.9844970703125,-143.140869140625
1761051990.2912204,-0.64892578125,-0.0380859375,0.7685546875,8.544921875,-2.50244140625,2.685546875,-1.4227294921875,40.9515380859375,-143.10791015625
1761051990.3026645,-0.6689453125,-0.02685546875,0.736328125,10.009765625,-2.197265625,2.5634765625,-1.3128662109375,40.924072265625,-143.0804443359375
1761051990.3099482,-0.6689453125,-0.02685546875,0.736328125,10.009765625,-2.197265625,2.5634765625,-1.197509765625,40.902099609375,-143.052978515625
1761051990.3197792,-0.69140625,-0.00341796875,0.7529296875,10.92529296875,-2.38037109375,2.13623046875,-1.07666015625,40.8746337890625,-143.0255126953125
1761051990.327299,-0.69140625,-0.00341796875,0.7529296875,10.92529296875,-2.38037109375,2.13623046875,-0.955810546875,40.8526611328125,-143.0035400390625
1761051990.3397305,-0.69140625,-0.00341796875,0.7529296875,8.7890625,-2.01416015625,2.44140625,-0.8404541015625,40.8306884765625,-142.97607421875
1761051990.3599544,-0.6982421875,0.0,0.7392578125,8.7890625,-2.01416015625,2.44140625,-0.736083984375,40.814208984375,-142.943115234375
1761051990.3675263,-0.701171875,0.01416015625,0.72412109375,4.33349609375,-2.50244140625,2.685546875,-0.6536865234375,40.792236328125,-142.91015625
1761051990.3804476,-0.701171875,0.01416015625,0.72412109375,4.33349609375,-2.50244140625,2.685546875,-0.5877685546875,40.7757568359375,-142.8717041015625
1761051990.4049425,-0.681640625,-0.01123046875,0.7216796875,1.5869140625,-2.86865234375,2.99072265625,-0.538330078125,40.7537841796875,-142.8277587890625
1761051990.4119692,-0.681640625,-0.01123046875,0.7216796875,1.5869140625,-2.86865234375,2.99072265625,-0.4998779296875,40.7318115234375,-142.7838134765625
1761051990.4389277,-0.66748046875,-0.02783203125,0.751953125,3.2958984375,-2.9296875,3.2958984375,-0.450439453125,40.7098388671875,-142.7398681640625
1761051990.4456277,-0.66748046875,-0.02783203125,0.751953125,3.2958984375,-2.9296875,3.2958984375,-0.3955078125,40.693359375,-142.6904296875
1761051990.4598658,-0.66162109375,0.00634765625,0.7734375,3.5400390625,-3.41796875,3.0517578125,-0.340576171875,40.6658935546875,-142.646484375
1761051990.478935,-0.66162109375,0.00634765625,0.7734375,3.5400390625,-3.41796875,3.0517578125,-0.2801513671875,40.638427734375,-142.6025390625
1761051990.4871216,-0.65380859375,0.0224609375,0.7685546875,2.8076171875,-3.47900390625,2.99072265625,-0.2252197265625,40.6109619140625,-142.55859375
1761051990.495175,-0.65380859375,0.0224609375,0.7685546875,2.8076171875,-3.47900390625,2.99072265625,-0.17578125,40.58349609375,-142.5146484375
1761051990.519594,-0.65283203125,0.0009765625,0.7685546875,3.0517578125,-3.662109375,2.62451171875,-0.120849609375,40.5560302734375,-142.470703125
1761051990.5449321,-0.65283203125,0.0009765625,0.7685546875,3.0517578125,-3.662109375,2.62451171875,-0.0714111328125,40.5230712890625,-142.4322509765625
1761051990.5528505,-0.646484375,-0.00048828125,0.74462890625,4.39453125,-3.90625,2.25830078125,-0.0164794921875,40.4901123046875,-142.393798828125
1761051990.559597,-0.646484375,-0.00048828125,0.74462890625,4.39453125,-3.90625,2.25830078125,0.0384521484375,40.4571533203125,-142.36083984375
1761051990.58053,-0.6513671875,0.02197265625,0.75048828125,6.7138671875,-4.2724609375,1.3427734375,0.10986328125,40.418701171875,-142.3333740234375
1761051990.593836,-0.6513671875,0.02197265625,0.75048828125,6.7138671875,-4.2724609375,1.3427734375,0.186767578125,40.3802490234375,-142.3114013671875
1761051990.6010897,-0.63623046875,0.03564453125,0.76708984375,7.38525390625,-4.82177734375,0.30517578125,0.263671875,40.341796875,-142.294921875
1761051990.6144495,-0.63623046875,0.03564453125,0.76708984375,7.38525390625,-4.82177734375,0.30517578125,0.340576171875,40.2978515625,-142.283935546875
1761051990.6285496,-0.64794921875,0.02978515625,0.7822265625,4.21142578125,-4.2724609375,-0.244140625,0.4010009765625,40.25390625,-142.2784423828125
1761051990.6370676,-0.64794921875,0.02978515625,0.7822265625,4.21142578125,-4.2724609375,-0.244140625,0.439453125,40.2154541015625,-142.2784423828125
1761051990.6498966,-0.67333984375,0.0341796875,0.779296875,0.8544921875,-3.2958984375,-0.30517578125,0.4669189453125,40.177001953125,-142.27294921875
1761051990.664083,-0.67333984375,0.0341796875,0.779296875,0.8544921875,-3.2958984375,-0.30517578125,0.4779052734375,40.1495361328125,-142.2674560546875
1761051990.672176,-0.7001953125,0.0302734375,0.740234375,-4.5166015625,-2.3193359375,0.0,0.46142578125,40.1275634765625,-142.261962890625
1761051990.6839318,-0.7001953125,0.0302734375,0.740234375,-4.5166015625,-2.3193359375,0.0,0.4229736328125,40.1055908203125,-142.2509765625
1761051990.6996143,-0.7109375,0.00390625,0.72119140625,-10.009765625,-1.8310546875,1.03759765625,0.3570556640625,40.0946044921875,-142.2344970703125
1761051990.7093186,-0.7109375,0.00390625,0.72119140625,-10.009765625,-1.8310546875,1.03759765625,0.274658203125,40.0836181640625,-142.20703125
1761051990.716629,-0.6875,-0.033203125,0.6962890625,-9.33837890625,-1.8310546875,1.40380859375,0.1922607421875,40.078125,-142.174072265625
1761051990.7242153,-0.6875,-0.033203125,0.6962890625,-9.33837890625,-1.8310546875,1.40380859375,0.1153564453125,40.0726318359375,-142.1466064453125
1761051990.7347817,-0.673828125,-0.02099609375,0.73388671875,-3.2958984375,-2.38037109375,0.9765625,0.0604248046875,40.0616455078125,-142.1136474609375
1761051990.7500408,-0.673828125,-0.02099609375,0.73388671875,-3.2958984375,-2.38037109375,0.9765625,0.0384521484375,40.05615234375,-142.0916748046875
1761051990.7584162,-0.6767578125,0.02099609375,0.7646484375,-0.18310546875,-2.3193359375,0.3662109375,0.0274658203125,40.045166015625,-142.0697021484375
1761051990.7657552,-0.6767578125,0.02099609375,0.7646484375,-0.18310546875,-2.3193359375,0.3662109375,0.0274658203125,40.0341796875,-142.05322265625
1761051990.781981,-0.6748046875,0.0234375,0.75830078125,-3.47900390625,-2.25830078125,0.30517578125,0.0164794921875,40.023193359375,-142.0367431640625
1761051990.7936666,-0.6748046875,0.0234375,0.75830078125,-3.47900390625,-2.25830078125,0.30517578125,-0.0054931640625,40.0177001953125,-142.020263671875
1761051990.8000207,-0.6669921875,0.005859375,0.75732421875,-5.92041015625,-2.01416015625,0.732421875,-0.0494384765625,40.0067138671875,-142.0037841796875
1761051990.807966,-0.6669921875,0.005859375,0.75732421875,-5.92041015625,-2.01416015625,0.732421875,-0.0933837890625,39.9957275390625,-141.976318359375
1761051990.8150964,-0.6611328125,-0.01806640625,0.7587890625,-5.0048828125,-1.8310546875,0.91552734375,-0.1373291015625,39.990234375,-141.954345703125
1761051990.8288448,-0.6611328125,-0.01806640625,0.7587890625,-5.0048828125,-1.8310546875,0.91552734375,-0.1812744140625,39.9847412109375,-141.9268798828125
1761051990.838887,-0.64892578125,-0.0185546875,0.76318359375,-1.89208984375,-1.46484375,0.79345703125,-0.2032470703125,39.979248046875,-141.9049072265625
1761051990.845689,-0.64892578125,-0.0185546875,0.76318359375,-1.89208984375,-1.46484375,0.79345703125,-0.2142333984375,39.9737548828125,-141.888427734375
1761051990.854022,-0.63232421875,0.00927734375,0.779296875,-0.732421875,-1.03759765625,0.30517578125,-0.2197265625,39.9737548828125,-141.8719482421875
1761051990.8623135,-0.63232421875,0.00927734375,0.779296875,-0.732421875,-1.03759765625,0.30517578125,-0.2197265625,39.96826171875,-141.8609619140625
1761051990.8724396,-0.62646484375,0.01123046875,0.7998046875,-2.197265625,-0.732421875,0.06103515625,-0.24169921875,39.96826171875,-141.8499755859375
1761051990.8789752,-0.62646484375,0.01123046875,0.7998046875,-2.197265625,-0.732421875,0.06103515625,-0.2581787109375,39.9627685546875,-141.8389892578125
1761051990.8947694,-0.6142578125,-0.00439453125,0.79248046875,-2.9296875,-0.48828125,-0.18310546875,-0.28564453125,39.9627685546875,-141.83349609375
1761051990.9044907,-0.6142578125,-0.00439453125,0.79248046875,-2.9296875,-0.48828125,-0.18310546875,-0.3131103515625,39.957275390625,-141.8280029296875
1761051990.9196076,-0.60888671875,-0.0068359375,0.80126953125,-2.3193359375,-0.48828125,-0.6103515625,-0.340576171875,39.9517822265625,-141.83349609375
1761051990.9277184,-0.60888671875,-0.0068359375,0.80126953125,-2.3193359375,-0.48828125,-0.6103515625,-0.3680419921875,39.9462890625,-141.8389892578125
1761051990.9442515,-0.59619140625,-0.00146484375,0.81494140625,-0.6103515625,-0.67138671875,-0.9765625,-0.3790283203125,39.935302734375,-141.844482421875
1761051990.952673,-0.59619140625,-0.00146484375,0.81494140625,-0.6103515625,-0.67138671875,-0.9765625,-0.3900146484375,39.9188232421875,-141.85546875
1761051990.9607909,-0.572265625,0.0087890625,0.81494140625,-0.3662109375,-1.03759765625,-1.220703125,-0.4010009765625,39.90234375,-141.8719482421875
1761051990.9723217,-0.572265625,0.0087890625,0.81494140625,-0.3662109375,-1.03759765625,-1.220703125,-0.4119873046875,39.8858642578125,-141.8829345703125
1761051990.9819481,-0.57373046875,0.01123046875,0.84423828125,-0.79345703125,-1.0986328125,-1.3427734375,-0.428466796875,39.8583984375,-141.9049072265625
1761051990.9890964,-0.57373046875,0.01123046875,0.84423828125,-0.79345703125,-1.0986328125,-1.3427734375,-0.439453125,39.83642578125,-141.92138671875
1761051991.0030792,-0.59326171875,-0.01513671875,0.8095703125,1.220703125,-0.732421875,-1.89208984375,-0.439453125,39.814453125,-141.9488525390625
1761051991.0231347,-0.59326171875,-0.01513671875,0.8095703125,1.220703125,-0.732421875,-1.89208984375,-0.4449462890625,39.79248046875,-141.976318359375
1761051991.0361576,-0.6171875,-0.0146484375,0.80859375,1.708984375,-1.0986328125,-1.953125,-0.439453125,39.7650146484375,-142.0037841796875
1761051991.058774,-0.6171875,-0.0146484375,0.80859375,1.708984375,-1.0986328125,-1.953125,-0.439453125,39.737548828125,-142.03125
1761051991.0672953,-0.671875,0.0234375,0.7890625,-0.6103515625,-0.1220703125,-1.52587890625,-0.450439453125,39.7210693359375,-142.05322265625
1761051991.0765479,-0.671875,0.0234375,0.7890625,-0.6103515625,-0.1220703125,-1.52587890625,-0.4669189453125,39.7100830078125,-142.0751953125
1761051991.084569,-0.673828125,0.01123046875,0.7197265625,-2.0751953125,-0.42724609375,-1.953125,-0.4998779296875,39.6990966796875,-142.09716796875
1761051991.0955524,-0.673828125,0.01123046875,0.7197265625,-2.0751953125,-0.42724609375,-1.953125,-0.5328369140625,39.6881103515625,-142.1136474609375
1761051991.103112,-0.693359375,-0.02294921875,0.74267578125,-0.1220703125,-0.06103515625,-2.0751953125,-0.54931640625,39.6826171875,-142.1356201171875
1761051991.1133494,-0.693359375,-0.02294921875,0.74267578125,-0.1220703125,-0.06103515625,-2.0751953125,-0.560302734375,39.6826171875,-142.152099609375
1761051991.1232932,-0.69970703125,-0.02734375,0.69677734375,4.08935546875,0.18310546875,-2.3193359375,-0.538330078125,39.6826171875,-142.174072265625
1761051991.1305714,-0.69970703125,-0.02734375,0.69677734375,4.08935546875,0.18310546875,-2.3193359375,-0.516357421875,39.6881103515625,-142.196044921875
1761051991.1405752,-0.7001953125,-0.0224609375,0.71533203125,8.544921875,0.244140625,-2.62451171875,-0.4559326171875,39.6990966796875,-142.218017578125
1761051991.1485376,-0.7001953125,-0.0224609375,0.71533203125,8.544921875,0.244140625,-2.62451171875,-0.3900146484375,39.7100830078125,-142.2454833984375
1761051991.1579823,-0.689453125,-0.01953125,0.7158203125,10.498046875,0.42724609375,-2.44140625,-0.3076171875,39.7265625,-142.2674560546875
1761051991.164621,-0.689453125,-0.01953125,0.7158203125,10.498046875,0.42724609375,-2.44140625,-0.230712890625,39.7430419921875,-142.2894287109375
1761051991.1713002,-0.68115234375,0.005859375,0.7587890625,10.25390625,0.6103515625,-2.44140625,-0.1483154296875,39.759521484375,-142.3114013671875
1761051991.183373,-0.68115234375,0.005859375,0.7587890625,10.25390625,0.6103515625,-2.44140625,-0.0714111328125,39.7760009765625,-142.3333740234375
1761051991.191697,-0.662109375,0.02490234375,0.79931640625,10.009765625,1.77001953125,-2.62451171875,0.0,39.8089599609375,-142.3553466796875
1761051991.1989958,-0.662109375,0.02490234375,0.79931640625,10.009765625,1.77001953125,-2.62451171875,0.076904296875,39.83642578125,-142.3773193359375
1761051991.2055132,-0.64599609375,0.0107421875,0.77490234375,11.23046875,3.23486328125,-2.99072265625,0.1593017578125,39.8748779296875,-142.40478515625
1761051991.2143428,-0.64599609375,0.0107421875,0.77490234375,11.23046875,3.23486328125,-2.99072265625,0.2471923828125,39.913330078125,-142.4322509765625
1761051991.2244112,-0.654296875,0.01416015625,0.7685546875,7.568359375,4.2724609375,-2.8076171875,0.296630859375,39.9627685546875,-142.459716796875
1761051991.2317312,-0.654296875,0.01416015625,0.7685546875,7.568359375,4.2724609375,-2.8076171875,0.3515625,40.01220703125,-142.4871826171875
1761051991.2392774,-0.65576171875,0.02685546875,0.73193359375,2.25830078125,4.82177734375,-2.74658203125,0.3515625,40.067138671875,-142.5091552734375
1761051991.247634,-0.65576171875,0.02685546875,0.73193359375,2.25830078125,4.82177734375,-2.74658203125,0.3515625,40.1220703125,-142.53662109375
1761051991.256888,-0.6591796875,0.0185546875,0.75,-1.708984375,4.5166015625,-2.62451171875,0.3131103515625,40.1715087890625,-142.55859375
1761051991.2661426,-0.6591796875,0.0185546875,0.75,-1.708984375,4.5166015625,-2.62451171875,0.274658203125,40.2264404296875,-142.58056640625
1761051991.2732828,-0.6474609375,0.0087890625,0.7724609375,-4.94384765625,3.96728515625,-2.25830078125,0.208740234375,40.2703857421875,-142.5970458984375
1761051991.2807865,-0.6474609375,0.0087890625,0.7724609375,-4.94384765625,3.96728515625,-2.25830078125,0.142822265625,40.3143310546875,-142.613525390625
1761051991.287828,-0.646484375,-0.01416015625,0.755859375,-4.08935546875,3.60107421875,-1.89208984375,0.0933837890625,40.352783203125,-142.6300048828125
1761051991.2969828,-0.646484375,-0.01416015625,0.755859375,-4.08935546875,3.60107421875,-1.89208984375,0.0384521484375,40.3912353515625,-142.646484375
1761051991.304806,-0.63623046875,-0.025390625,0.759765625,-2.74658203125,2.8076171875,-1.52587890625,0.0,40.418701171875,-142.657470703125
1761051991.3122983,-0.63623046875,-0.025390625,0.759765625,-2.74658203125,2.8076171875,-1.52587890625,-0.0384521484375,40.45166015625,-142.6739501953125
1761051991.3209333,-0.61962890625,-0.0146484375,0.7763671875,-3.11279296875,2.13623046875,-1.46484375,-0.0823974609375,40.4736328125,-142.6904296875
1761051991.328246,-0.61962890625,-0.0146484375,0.7763671875,-3.11279296875,2.13623046875,-1.46484375,-0.1263427734375,40.49560546875,-142.7069091796875
1761051991.3364034,-0.61181640625,0.0166015625,0.8134765625,-4.8828125,1.52587890625,-1.40380859375,-0.186767578125,40.506591796875,-142.723388671875
1761051991.3430014,-0.61181640625,0.0166015625,0.8134765625,-4.8828125,1.52587890625,-1.40380859375,-0.2471923828125,40.517578125,-142.7398681640625
1761051991.3493104,-0.61181640625,0.0166015625,0.8134765625,-8.60595703125,1.5869140625,-1.46484375,-0.340576171875,40.528564453125,-142.75634765625
1761051991.3557665,-0.62353515625,0.03271484375,0.8017578125,-8.60595703125,1.5869140625,-1.46484375,-0.4339599609375,40.5340576171875,-142.7728271484375
1761051991.3637002,-0.62451171875,0.0302734375,0.78369140625,-11.474609375,1.03759765625,-1.708984375,-0.5548095703125,40.53955078125,-142.789306640625
1761051991.3706026,-0.62451171875,0.0302734375,0.78369140625,-11.474609375,1.03759765625,-1.708984375,-0.6756591796875,40.53955078125,-142.811279296875
1761051991.377381,-0.65234375,0.00048828125,0.79443359375,-14.404296875,1.15966796875,-1.708984375,-0.8294677734375,40.5450439453125,-142.8277587890625
1761051991.385671,-0.65234375,0.00048828125,0.79443359375,-14.404296875,1.15966796875,-1.708984375,-0.977783203125,40.5450439453125,-142.84423828125
1761051991.3946736,-0.64697265625,-0.0361328125,0.80810546875,-14.58740234375,1.46484375,-1.77001953125,-1.1260986328125,40.550537109375,-142.8607177734375
1761051991.402489,-0.64697265625,-0.0361328125,0.80810546875,-14.58740234375,1.46484375,-1.77001953125,-1.2799072265625,40.5615234375,-142.877197265625
1761051991.410184,-0.650390625,-0.05712890625,0.7470703125,-6.9580078125,1.64794921875,-2.25830078125,-1.3623046875,40.5670166015625,-142.9046630859375
1761051991.416978,-0.650390625,-0.05712890625,0.7470703125,-6.9580078125,1.64794921875,-2.25830078125,-1.4501953125,40.5780029296875,-142.93212890625
1761051991.4245698,-0.65576171875,-0.046875,0.71533203125,1.3427734375,1.28173828125,-3.11279296875,-1.461181640625,40.58349609375,-142.9705810546875
1761051991.4334967,-0.65576171875,-0.046875,0.71533203125,1.3427734375,1.28173828125,-3.11279296875,-1.47216796875,40.5889892578125,-143.009033203125
1761051991.441093,-0.68310546875,-0.0068359375,0.73779296875,4.8828125,1.64794921875,-4.0283203125,-1.4556884765625,40.60546875,-143.0584716796875
1761051991.4477537,-0.68310546875,-0.0068359375,0.73779296875,4.8828125,1.64794921875,-4.0283203125,-1.439208984375,40.616455078125,-143.10791015625
1761051991.4554005,-0.70654296875,0.0166015625,0.73388671875,2.99072265625,2.44140625,-4.5166015625,-1.4447021484375,40.6439208984375,-143.1573486328125
1761051991.4621782,-0.70654296875,0.0166015625,0.73388671875,2.99072265625,2.44140625,-4.5166015625,-1.4501953125,40.67138671875,-143.206787109375
1761051991.4682388,-0.7099609375,-0.00732421875,0.72265625,0.48828125,2.685546875,-4.2724609375,-1.4776611328125,40.6988525390625,-143.250732421875
1761051991.475649,-0.7099609375,-0.00732421875,0.72265625,0.48828125,2.685546875,-4.2724609375,-1.505126953125,40.7318115234375,-143.294677734375
1761051991.4835606,-0.705078125,-0.02734375,0.708984375,-1.28173828125,2.3193359375,-3.84521484375,-1.549072265625,40.75927734375,-143.32763671875
1761051991.490816,-0.705078125,-0.02734375,0.708984375,-1.28173828125,2.3193359375,-3.84521484375,-1.593017578125,40.792236328125,-143.3660888671875
1761051991.4972448,-0.6611328125,-0.0322265625,0.74267578125,0.9765625,1.15966796875,-3.72314453125,-1.6094970703125,40.8087158203125,-143.3990478515625
1761051991.5046158,-0.6611328125,-0.0322265625,0.74267578125,0.9765625,1.15966796875,-3.72314453125,-1.6314697265625,40.8306884765625,-143.4375
1761051991.512254,-0.6748046875,-0.0234375,0.7626953125,-1.220703125,1.52587890625,-2.9296875,-1.669921875,40.8526611328125,-143.45947265625
1761051991.5193691,-0.6748046875,-0.0234375,0.7626953125,-1.220703125,1.52587890625,-2.9296875,-1.702880859375,40.8746337890625,-143.4869384765625
1761051991.5282576,-0.66796875,-0.017578125,0.73974609375,-2.99072265625,0.8544921875,-2.50244140625,-1.7523193359375,40.89111328125,-143.5089111328125
1761051991.535948,-0.66796875,-0.017578125,0.73974609375,-2.99072265625,0.8544921875,-2.50244140625,-1.8017578125,40.902099609375,-143.5308837890625
1761051991.5438867,-0.68310546875,-0.04150390625,0.72216796875,-2.25830078125,1.15966796875,-1.64794921875,-1.8402099609375,40.924072265625,-143.536376953125
1761051991.5514362,-0.68310546875,-0.04150390625,0.72216796875,-2.25830078125,1.15966796875,-1.64794921875,-1.8731689453125,40.9405517578125,-143.54736328125
1761051991.5595522,-0.69580078125,-0.04833984375,0.740234375,-3.41796875,1.40380859375,-1.15966796875,-1.9171142578125,40.9625244140625,-143.5528564453125
1761051991.567534,-0.69580078125,-0.04833984375,0.740234375,-3.41796875,1.40380859375,-1.15966796875,-1.9610595703125,40.9844970703125,-143.558349609375
1761051991.5754213,-0.69775390625,-0.02783203125,0.728515625,-3.2958984375,1.953125,-0.48828125,-1.99951171875,41.0174560546875,-143.5528564453125
1761051991.5821335,-0.69775390625,-0.02783203125,0.728515625,-3.2958984375,1.953125,-0.48828125,-2.0379638671875,41.044921875,-143.5528564453125
1761051991.5896878,-0.69482421875,-0.0302734375,0.72265625,-1.953125,1.89208984375,-0.30517578125,-2.0654296875,41.0723876953125,-143.54736328125
1761051991.59727,-0.69482421875,-0.0302734375,0.72265625,-1.953125,1.89208984375,-0.30517578125,-2.08740234375,41.1053466796875,-143.536376953125
1761051991.6034298,-0.69580078125,-0.03662109375,0.7265625,0.1220703125,1.953125,-0.18310546875,-2.08740234375,41.1328125,-143.5308837890625
1761051991.6103163,-0.69580078125,-0.03662109375,0.7265625,0.1220703125,1.953125,-0.18310546875,-2.0928955078125,41.165771484375,-143.525390625
1761051991.616937,-0.69482421875,-0.03515625,0.71728515625,0.9765625,2.0751953125,-0.42724609375,-2.08740234375,41.19873046875,-143.5198974609375
1761051991.6252778,-0.69482421875,-0.03515625,0.71728515625,0.9765625,2.0751953125,-0.42724609375,-2.0819091796875,41.231689453125,-143.514404296875
1761051991.6331427,-0.68701171875,-0.02587890625,0.72802734375,1.46484375,2.13623046875,-0.48828125,-2.076416015625,41.2646484375,-143.514404296875
1761051991.6420035,-0.68701171875,-0.02587890625,0.72802734375,1.46484375,2.13623046875,-0.48828125,-2.0709228515625,41.297607421875,-143.5089111328125
1761051991.648491,-0.67626953125,-0.01953125,0.75,1.40380859375,2.197265625,-0.54931640625,-2.0599365234375,41.33056640625,-143.50341796875
1761051991.656429,-0.67626953125,-0.01953125,0.75,1.40380859375,2.197265625,-0.54931640625,-2.054443359375,41.363525390625,-143.50341796875
1761051991.6635404,-0.6572265625,-0.02734375,0.7666015625,0.42724609375,2.197265625,-0.6103515625,-2.054443359375,41.3909912109375,-143.50341796875
1761051991.672223,-0.6572265625,-0.02734375,0.7666015625,0.42724609375,2.197265625,-0.6103515625,-2.0599365234375,41.41845703125,-143.50341796875
1761051991.6794505,-0.650390625,-0.0283203125,0.7568359375,0.42724609375,2.01416015625,-0.732421875,-2.0599365234375,41.4459228515625,-143.50341796875
1761051991.686598,-0.650390625,-0.0283203125,0.7568359375,0.42724609375,2.01416015625,-0.732421875,-2.0654296875,41.473388671875,-143.50341796875
1761051991.692818,-0.64013671875,-0.0234375,0.75048828125,1.0986328125,1.52587890625,-1.15966796875,-2.0654296875,41.4898681640625,-143.514404296875
1761051991.7001257,-0.64013671875,-0.0234375,0.75048828125,1.0986328125,1.52587890625,-1.15966796875,-2.0654296875,41.50634765625,-143.525390625
1761051991.7072334,-0.64599609375,-0.03369140625,0.78857421875,1.8310546875,1.0986328125,-1.3427734375,-2.0599365234375,41.517333984375,-143.536376953125
1761051991.7179778,-0.64599609375,-0.03369140625,0.78857421875,1.8310546875,1.0986328125,-1.3427734375,-2.054443359375,41.5283203125,-143.54736328125
1761051991.7249026,-0.64013671875,-0.02685546875,0.77880859375,1.8310546875,0.91552734375,-1.220703125,-2.0489501953125,41.5338134765625,-143.5638427734375
1761051991.7323105,-0.64013671875,-0.02685546875,0.77880859375,1.8310546875,0.91552734375,-1.220703125,-2.0379638671875,41.5447998046875,-143.5748291015625
1761051991.7392342,-0.63427734375,-0.0185546875,0.77783203125,1.8310546875,0.6103515625,-1.03759765625,-2.032470703125,41.5447998046875,-143.5858154296875
1761051991.747679,-0.6376953125,-0.0380859375,0.77587890625,1.03759765625,0.54931640625,-0.91552734375,-2.0269775390625,41.5447998046875,-143.5968017578125
1761051991.756815,-0.6376953125,-0.0380859375,0.77587890625,1.03759765625,0.54931640625,-0.91552734375,-2.021484375,41.5447998046875,-143.6077880859375
1761051991.7649686,-0.6376953125,-0.0380859375,0.77587890625,2.0751953125,0.48828125,-1.03759765625,-2.0159912109375,41.5447998046875,-143.624267578125
1761051991.7726407,-0.64404296875,-0.0400390625,0.76220703125,2.0751953125,0.48828125,-1.03759765625,-2.010498046875,41.539306640625,-143.6407470703125
1761051991.780731,-0.6435546875,-0.03662109375,0.75244140625,5.0048828125,0.30517578125,-1.52587890625,-1.988525390625,41.539306640625,-143.6572265625
1761051991.788021,-0.6435546875,-0.03662109375,0.75244140625,5.0048828125,0.30517578125,-1.52587890625,-1.9500732421875,41.5338134765625,-143.67919921875
1761051991.7949908,-0.650390625,-0.03173828125,0.76806640625,6.591796875,0.30517578125,-1.5869140625,-1.91162109375,41.5283203125,-143.701171875
1761051991.8038564,-0.650390625,-0.03173828125,0.76806640625,6.591796875,0.30517578125,-1.5869140625,-1.8621826171875,41.5283203125,-143.7286376953125
1761051991.8112507,-0.67333984375,-0.01171875,0.7607421875,6.34765625,-0.06103515625,-0.8544921875,-1.812744140625,41.5228271484375,-143.7451171875
1761051991.818118,-0.67333984375,-0.01171875,0.7607421875,6.34765625,-0.06103515625,-0.8544921875,-1.7578125,41.5118408203125,-143.756103515625
1761051991.8245769,-0.7236328125,-0.013671875,0.6982421875,6.53076171875,0.1220703125,-0.3662109375,-1.702880859375,41.5118408203125,-143.76708984375
1761051991.8314595,-0.7236328125,-0.013671875,0.6982421875,6.53076171875,0.1220703125,-0.3662109375,-1.6424560546875,41.50634765625,-143.76708984375
1761051991.838051,-0.76708984375,-0.033203125,0.6572265625,5.859375,-0.06103515625,0.1220703125,-1.58203125,41.5118408203125,-143.7615966796875
1761051991.845459,-0.76708984375,-0.033203125,0.6572265625,5.859375,-0.06103515625,0.1220703125,-1.527099609375,41.517333984375,-143.756103515625
1761051991.8535666,-0.78564453125,-0.0244140625,0.6455078125,5.92041015625,0.67138671875,0.0,-1.47216796875,41.5283203125,-143.7451171875
1761051991.8611503,-0.78564453125,-0.0244140625,0.6455078125,5.92041015625,0.67138671875,0.0,-1.417236328125,41.55029296875,-143.734130859375
1761051991.8703098,-0.765625,-0.01025390625,0.65576171875,4.638671875,1.0986328125,-0.1220703125,-1.3677978515625,41.5777587890625,-143.72314453125
1761051991.8775175,-0.765625,-0.01025390625,0.65576171875,4.638671875,1.0986328125,-0.1220703125,-1.329345703125,41.6107177734375,-143.712158203125
1761051991.8869953,-0.72412109375,-0.00390625,0.6865234375,2.9296875,1.3427734375,-0.244140625,-1.29638671875,41.6436767578125,-143.701171875
1761051991.8942327,-0.72412109375,-0.00390625,0.6865234375,2.9296875,1.3427734375,-0.244140625,-1.2744140625,41.68212890625,-143.6846923828125
1761051991.9006417,-0.67919921875,-0.02392578125,0.7392578125,2.0751953125,1.46484375,0.0,-1.25244140625,41.7205810546875,-143.6737060546875
1761051991.907663,-0.67919921875,-0.02392578125,0.7392578125,2.0751953125,1.46484375,0.0,-1.2359619140625,41.7535400390625,-143.6572265625
1761051991.9162025,-0.65478515625,-0.03515625,0.7744140625,1.8310546875,1.5869140625,0.54931640625,-1.2139892578125,41.7864990234375,-143.6407470703125
1761051991.923902,-0.65478515625,-0.03515625,0.7744140625,1.8310546875,1.5869140625,0.54931640625,-1.197509765625,41.8194580078125,-143.624267578125
1761051991.9321482,-0.64599609375,-0.02490234375,0.7978515625,3.173828125,1.64794921875,1.03759765625,-1.1700439453125,41.846923828125,-143.6077880859375
1761051991.9389014,-0.64599609375,-0.02490234375,0.7978515625,3.173828125,1.64794921875,1.03759765625,-1.131591796875,41.8743896484375,-143.5858154296875
1761051991.9469414,-0.65673828125,-0.0126953125,0.76904296875,2.0751953125,1.77001953125,1.46484375,-1.0986328125,41.90185546875,-143.5693359375
1761051991.956517,-0.65673828125,-0.0126953125,0.76904296875,2.0751953125,1.77001953125,1.46484375,-1.0711669921875,41.923828125,-143.54736328125
1761051991.9669192,-0.669921875,-0.00244140625,0.7373046875,2.44140625,1.5869140625,1.28173828125,-1.0382080078125,41.94580078125,-143.525390625
1761051991.9758062,-0.669921875,-0.00244140625,0.7373046875,2.44140625,1.5869140625,1.28173828125,-1.0052490234375,41.9677734375,-143.50341796875
1761051991.9853232,-0.68115234375,-0.0185546875,0.74658203125,4.0283203125,1.77001953125,1.03759765625,-0.966796875,41.9842529296875,-143.4869384765625
1761051991.99698,-0.68115234375,-0.0185546875,0.74658203125,4.0283203125,1.77001953125,1.03759765625,-0.9173583984375,42.0062255859375,-143.470458984375
1761051992.0055883,-0.681640625,-0.005859375,0.7392578125,5.9814453125,1.8310546875,0.6103515625,-0.867919921875,42.0281982421875,-143.45947265625
1761051992.0152686,-0.681640625,-0.005859375,0.7392578125,5.9814453125,1.8310546875,0.6103515625,-0.802001953125,42.0501708984375,-143.448486328125
1761051992.0266266,-0.67529296875,0.0048828125,0.72119140625,4.94384765625,1.46484375,0.30517578125,-0.7470703125,42.0721435546875,-143.4375
1761051992.0355656,-0.67529296875,0.0048828125,0.72119140625,4.94384765625,1.46484375,0.30517578125,-0.6976318359375,42.088623046875,-143.4320068359375
1761051992.0465863,-0.68212890625,-0.01025390625,0.74365234375,5.06591796875,1.15966796875,0.18310546875,-0.648193359375,42.1051025390625,-143.4210205078125
1761051992.0562644,-0.68212890625,-0.01025390625,0.74365234375,5.06591796875,1.15966796875,0.18310546875,-0.5987548828125,42.12158203125,-143.41552734375
1761051992.066214,-0.66796875,-0.02099609375,0.75537109375,7.32421875,0.91552734375,0.06103515625,-0.5328369140625,42.132568359375,-143.4100341796875
1761051992.084097,-0.66796875,-0.02099609375,0.75537109375,7.32421875,0.91552734375,0.06103515625,-0.4669189453125,42.1435546875,-143.404541015625
1761051992.0926483,-0.65380859375,-0.0078125,0.748046875,7.32421875,0.54931640625,0.18310546875,-0.3955078125,42.154541015625,-143.404541015625
1761051992.1005132,-0.65380859375,-0.0078125,0.748046875,7.32421875,0.54931640625,0.18310546875,-0.3240966796875,42.1600341796875,-143.3990478515625
1761051992.1092546,-0.669921875,-0.0087890625,0.77294921875,6.40869140625,0.54931640625,0.91552734375,-0.252685546875,42.16552734375,-143.3935546875
1761051992.122771,-0.669921875,-0.0087890625,0.77294921875,6.40869140625,0.54931640625,0.91552734375,-0.186767578125,42.1710205078125,-143.382568359375
1761051992.1299262,-0.6640625,-0.0087890625,0.75244140625,3.2958984375,0.732421875,1.5869140625,-0.1318359375,42.176513671875,-143.37158203125
1761051992.1370313,-0.6640625,-0.0087890625,0.75244140625,3.2958984375,0.732421875,1.5869140625,-0.087890625,42.1820068359375,-143.3551025390625
1761051992.1454353,-0.66943359375,0.0087890625,0.74072265625,2.9296875,0.732421875,1.89208984375,-0.0439453125,42.1875,-143.3331298828125
