timestamp,acc_x,acc_y,acc_z,gyro_x,gyro_y,gyro_z,angle_x,angle_y,angle_z
1759066872.300718,-0.67041015625,0.07177734375,0.7421875,-0.91552734375,0.6103515625,0.1220703125,6.339111328125,41.9512939453125,71.553955078125
1759066872.3095691,-0.67138671875,0.07763671875,0.73779296875,-0.67138671875,0.67138671875,0.1220703125,6.328125,41.9622802734375,71.5594482421875
1759066872.3225965,-0.67138671875,0.07763671875,0.73779296875,-0.67138671875,0.67138671875,0.1220703125,6.3226318359375,41.9677734375,71.5594482421875
1759066872.3363004,-0.67041015625,0.08154296875,0.73291015625,-0.30517578125,0.67138671875,0.1220703125,6.317138671875,41.9732666015625,71.56494140625
1759066872.3458698,-0.67041015625,0.08154296875,0.73291015625,-0.30517578125,0.67138671875,0.1220703125,6.317138671875,41.978759765625,71.56494140625
1759066872.3531277,-0.67138671875,0.0830078125,0.734375,-0.8544921875,0.54931640625,0.30517578125,6.3116455078125,41.9842529296875,71.5704345703125
1759066872.3607004,-0.67138671875,0.0830078125,0.734375,-0.8544921875,0.54931640625,0.30517578125,6.3006591796875,41.98974609375,71.575927734375
1759066872.3684862,-0.67529296875,0.08203125,0.73486328125,-0.91552734375,0.30517578125,0.30517578125,6.295166015625,41.9952392578125,71.5814208984375
1759066872.37798,-0.67529296875,0.08203125,0.73486328125,-0.91552734375,0.30517578125,0.30517578125,6.2896728515625,41.9952392578125,71.5814208984375
1759066872.3879912,-0.6806640625,0.08203125,0.72998046875,-0.54931640625,0.244140625,0.06103515625,6.2841796875,42.000732421875,71.5814208984375
1759066872.3981519,-0.6806640625,0.08203125,0.72998046875,-0.54931640625,0.244140625,0.06103515625,6.2786865234375,42.000732421875,71.5869140625
1759066872.4084833,-0.673828125,0.08203125,0.73193359375,-0.42724609375,0.42724609375,-0.30517578125,6.273193359375,42.01171875,71.5814208984375
1759066872.4179878,-0.673828125,0.08203125,0.73193359375,-0.42724609375,0.42724609375,-0.30517578125,6.2677001953125,42.0172119140625,71.575927734375
1759066872.4278426,-0.66552734375,0.0830078125,0.7431640625,-0.79345703125,0.48828125,-0.6103515625,6.251220703125,42.022705078125,71.5704345703125
1759066872.4378855,-0.66552734375,0.0830078125,0.7431640625,-0.79345703125,0.48828125,-0.6103515625,6.240234375,42.0281982421875,71.5594482421875
1759066872.4478517,-0.66162109375,0.08251953125,0.74560546875,-1.03759765625,0.244140625,-0.8544921875,6.2237548828125,42.03369140625,71.5484619140625
1759066872.4578538,-0.66162109375,0.08251953125,0.74560546875,-1.03759765625,0.244140625,-0.8544921875,6.207275390625,42.03369140625,71.5374755859375
1759066872.4682355,-0.6611328125,0.0791015625,0.744140625,-1.52587890625,0.0,-0.8544921875,6.1798095703125,42.03369140625,71.5264892578125
1759066872.4779558,-0.6611328125,0.0791015625,0.744140625,-1.52587890625,0.0,-0.8544921875,6.1578369140625,42.0391845703125,71.5155029296875
1759066872.4878864,-0.67041015625,0.07958984375,0.73681640625,-1.46484375,-0.54931640625,-0.67138671875,6.141357421875,42.03369140625,71.5045166015625
1759066872.4979005,-0.67041015625,0.07958984375,0.73681640625,-1.46484375,-0.54931640625,-0.67138671875,6.119384765625,42.0281982421875,71.4990234375
1759066872.5079224,-0.67529296875,0.080078125,0.7255859375,-1.5869140625,-1.15966796875,-0.18310546875,6.1029052734375,42.0172119140625,71.4935302734375
1759066872.5179222,-0.67529296875,0.080078125,0.7255859375,-1.5869140625,-1.15966796875,-0.18310546875,6.0809326171875,42.0062255859375,71.488037109375
1759066872.5280108,-0.67236328125,0.07275390625,0.7265625,-2.0751953125,-1.89208984375,0.6103515625,6.064453125,41.9842529296875,71.4935302734375
1759066872.5380118,-0.67236328125,0.07275390625,0.7265625,-2.0751953125,-1.89208984375,0.6103515625,6.0479736328125,41.9677734375,71.4990234375
1759066872.5480125,-0.66943359375,0.06298828125,0.73193359375,-1.89208984375,-2.62451171875,1.8310546875,6.04248046875,41.9403076171875,71.52099609375
1759066872.558009,-0.66943359375,0.06298828125,0.73193359375,-1.89208984375,-2.62451171875,1.8310546875,6.0369873046875,41.912841796875,71.54296875
1759066872.5680103,-0.67724609375,0.0576171875,0.7314453125,-0.8544921875,-3.11279296875,2.86865234375,6.053466796875,41.8853759765625,71.5704345703125
1759066872.5780196,-0.67724609375,0.0576171875,0.7314453125,-0.8544921875,-3.11279296875,2.86865234375,6.064453125,41.8524169921875,71.6033935546875
1759066872.588053,-0.67724609375,0.0576171875,0.7314453125,-1.15966796875,-3.0517578125,3.662109375,6.0809326171875,41.8194580078125,71.6473388671875
1759066872.5980253,-0.68212890625,0.05712890625,0.7275390625,-1.15966796875,-3.0517578125,3.662109375,6.0919189453125,41.7919921875,71.6912841796875
1759066872.6080384,-0.681640625,0.0693359375,0.7275390625,-0.54931640625,-2.62451171875,4.21142578125,6.119384765625,41.7645263671875,71.74072265625
1759066872.618054,-0.681640625,0.0693359375,0.7275390625,-0.54931640625,-2.62451171875,4.21142578125,6.1468505859375,41.737060546875,71.7901611328125
1759066872.6280756,-0.67529296875,0.07666015625,0.73779296875,-0.732421875,-2.0751953125,4.2724609375,6.1688232421875,41.7205810546875,71.839599609375
1759066872.63808,-0.67529296875,0.07666015625,0.73779296875,-0.732421875,-2.0751953125,4.2724609375,6.1907958984375,41.6986083984375,71.89453125
1759066872.6480992,-0.66845703125,0.08251953125,0.74658203125,-2.0751953125,-1.40380859375,3.84521484375,6.2017822265625,41.68212890625,71.9384765625
1759066872.6581166,-0.66845703125,0.08251953125,0.74658203125,-2.0751953125,-1.40380859375,3.84521484375,6.2127685546875,41.671142578125,71.9879150390625
1759066872.6681244,-0.658203125,0.09326171875,0.75244140625,-2.44140625,-0.732421875,3.23486328125,6.2127685546875,41.6656494140625,72.0263671875
1759066872.678131,-0.658203125,0.09326171875,0.75244140625,-2.44140625,-0.732421875,3.23486328125,6.2127685546875,41.6546630859375,72.0648193359375
1759066872.6881526,-0.65087890625,0.09521484375,0.75830078125,-2.50244140625,-0.244140625,2.38037109375,6.207275390625,41.6546630859375,72.0977783203125
1759066872.698149,-0.65087890625,0.09521484375,0.75830078125,-2.50244140625,-0.244140625,2.38037109375,6.2017822265625,41.649169921875,72.1307373046875
1759066872.7081757,-0.6455078125,0.09423828125,0.75927734375,-2.50244140625,-0.3662109375,1.220703125,6.1907958984375,41.6436767578125,72.1417236328125
1759066872.7181811,-0.6455078125,0.09423828125,0.75927734375,-2.50244140625,-0.3662109375,1.220703125,6.17431640625,41.63818359375,72.158203125
1759066872.728163,-0.64892578125,0.09326171875,0.7568359375,-1.40380859375,-0.48828125,0.0,6.163330078125,41.6326904296875,72.158203125
1759066872.7381783,-0.64892578125,0.09326171875,0.7568359375,-1.40380859375,-0.48828125,0.0,6.1468505859375,41.627197265625,72.158203125
1759066872.7482207,-0.66455078125,0.09228515625,0.7470703125,0.0,-0.3662109375,-1.40380859375,6.141357421875,41.6217041015625,72.1417236328125
1759066872.7582462,-0.66455078125,0.09228515625,0.7470703125,0.0,-0.3662109375,-1.40380859375,6.13037109375,41.6162109375,72.1197509765625
1759066872.7682614,-0.67236328125,0.0888671875,0.75341796875,-0.18310546875,-0.1220703125,-2.44140625,6.1083984375,41.6162109375,72.09228515625
1759066872.7782695,-0.67236328125,0.0888671875,0.75341796875,-0.18310546875,-0.1220703125,-2.44140625,6.08642578125,41.6162109375,72.059326171875
1759066872.7883065,-0.6689453125,0.09033203125,0.6884765625,5.31005859375,-4.638671875,-3.72314453125,6.1083984375,41.572265625,72.00439453125
1759066872.7983012,-0.6689453125,0.09033203125,0.6884765625,5.31005859375,-4.638671875,-3.72314453125,6.1248779296875,41.5338134765625,71.949462890625
1759066872.8083205,-0.6552734375,0.08935546875,0.6064453125,5.859375,-8.056640625,-3.5400390625,6.15234375,41.46240234375,71.89453125
1759066872.818335,-0.6552734375,0.08935546875,0.6064453125,5.859375,-8.056640625,-3.5400390625,6.17431640625,41.3909912109375,71.8341064453125
1759066872.8283782,-0.701171875,0.06005859375,0.7802734375,2.3193359375,-5.859375,-4.5166015625,6.1578369140625,41.3470458984375,71.7681884765625
1759066872.8383787,-0.701171875,0.06005859375,0.7802734375,2.3193359375,-5.859375,-4.5166015625,6.1358642578125,41.297607421875,71.69677734375
1759066872.84837,-0.6865234375,0.06298828125,0.78564453125,5.126953125,-5.06591796875,-3.84521484375,6.15234375,41.2591552734375,71.641845703125
1759066872.8583944,-0.6865234375,0.06298828125,0.78564453125,5.126953125,-5.06591796875,-3.84521484375,6.163330078125,41.220703125,71.5814208984375
1759066872.8683932,-0.65771484375,0.0849609375,0.7373046875,6.53076171875,-3.84521484375,-3.72314453125,6.1962890625,41.1932373046875,71.5264892578125
1759066872.8784747,-0.65771484375,0.0849609375,0.7373046875,6.53076171875,-3.84521484375,-3.72314453125,6.2237548828125,41.165771484375,71.4715576171875
1759066872.8885105,-0.65380859375,0.08447265625,0.7548828125,2.38037109375,-2.38037109375,-3.173828125,6.21826171875,41.1492919921875,71.4276123046875
1759066872.8985543,-0.65380859375,0.08447265625,0.7548828125,2.38037109375,-2.38037109375,-3.173828125,6.2127685546875,41.1328125,71.378173828125
1759066872.908572,-0.64697265625,0.080078125,0.7734375,1.3427734375,-1.28173828125,-2.44140625,6.2017822265625,41.1273193359375,71.34521484375
1759066872.9186957,-0.64697265625,0.080078125,0.7734375,1.3427734375,-1.28173828125,-2.44140625,6.1907958984375,41.1163330078125,71.312255859375
1759066872.9285138,-0.64111328125,0.07080078125,0.767578125,1.3427734375,-0.732421875,-1.708984375,6.1907958984375,41.1163330078125,71.290283203125
1759066872.9391878,-0.64111328125,0.07080078125,0.767578125,1.3427734375,-0.732421875,-1.708984375,6.185302734375,41.11083984375,71.268310546875
1759066872.948522,-0.63623046875,0.0712890625,0.76611328125,0.3662109375,-0.18310546875,-0.9765625,6.1798095703125,41.1053466796875,71.2518310546875
1759066872.9585972,-0.63623046875,0.0712890625,0.76611328125,0.3662109375,-0.18310546875,-0.9765625,6.17431640625,41.1053466796875,71.2408447265625
1759066872.9690208,-0.6416015625,0.0517578125,0.74658203125,-0.30517578125,0.1220703125,-0.6103515625,6.163330078125,41.1053466796875,71.2353515625
1759066872.9785972,-0.6416015625,0.0517578125,0.74658203125,-0.30517578125,0.1220703125,-0.6103515625,6.15234375,41.1053466796875,71.224365234375
1759066872.9886599,-0.64453125,0.09912109375,0.7900390625,0.732421875,1.3427734375,-1.0986328125,6.1468505859375,41.1163330078125,71.21337890625
1759066872.9996305,-0.6455078125,0.08984375,0.7724609375,1.46484375,1.03759765625,0.06103515625,6.15234375,41.1273193359375,71.2078857421875
1759066873.00867,-0.6455078125,0.08984375,0.7724609375,1.46484375,1.03759765625,0.06103515625,6.1688232421875,41.1328125,71.21337890625
1759066873.0186453,-0.654296875,0.08642578125,0.72998046875,-2.50244140625,0.30517578125,0.79345703125,6.163330078125,41.1328125,71.2188720703125
1759066873.0288324,-0.654296875,0.08642578125,0.72998046875,-2.50244140625,0.30517578125,0.79345703125,6.1468505859375,41.1328125,71.2298583984375
1759066873.0386882,-0.6669921875,0.0625,0.73291015625,-3.72314453125,0.0,1.40380859375,6.1248779296875,41.1328125,71.246337890625
1759066873.048682,-0.6669921875,0.0625,0.73291015625,-3.72314453125,0.0,1.40380859375,6.097412109375,41.1273193359375,71.2628173828125
1759066873.059152,-0.673828125,0.060546875,0.74365234375,0.3662109375,-0.48828125,1.03759765625,6.0919189453125,41.121826171875,71.279296875
1759066873.0686681,-0.673828125,0.060546875,0.74365234375,0.3662109375,-0.48828125,1.03759765625,6.1029052734375,41.1163330078125,71.290283203125
1759066873.0786731,-0.67138671875,0.07958984375,0.72412109375,4.08935546875,-1.28173828125,0.42724609375,6.1248779296875,41.1053466796875,71.2957763671875
1759066873.0887861,-0.67138671875,0.07958984375,0.72412109375,4.08935546875,-1.28173828125,0.42724609375,6.1688232421875,41.0943603515625,71.2957763671875
1759066873.0987306,-0.67822265625,0.091796875,0.7236328125,3.90625,-1.708984375,0.06103515625,6.2017822265625,41.0833740234375,71.2957763671875
1759066873.108805,-0.67822265625,0.091796875,0.7236328125,3.90625,-1.708984375,0.06103515625,6.240234375,41.06689453125,71.2957763671875
1759066873.1187909,-0.6875,0.10107421875,0.73193359375,1.5869140625,-1.953125,0.3662109375,6.2677001953125,41.055908203125,71.2957763671875
1759066873.1289024,-0.6875,0.10107421875,0.73193359375,1.5869140625,-1.953125,0.3662109375,6.2841796875,41.0394287109375,71.2957763671875
1759066873.138781,-0.6865234375,0.07568359375,0.73291015625,-0.48828125,-1.8310546875,0.91552734375,6.295166015625,41.02294921875,71.2957763671875
1759066873.1487987,-0.6865234375,0.07568359375,0.73291015625,-0.48828125,-1.8310546875,0.91552734375,6.295166015625,41.011962890625,71.3067626953125
1759066873.1592674,-0.69140625,0.07958984375,0.7275390625,-0.42724609375,-1.220703125,0.91552734375,6.295166015625,41.0009765625,71.312255859375
1759066873.1688006,-0.69140625,0.07958984375,0.7275390625,-0.42724609375,-1.220703125,0.91552734375,6.3006591796875,40.9954833984375,71.3232421875
1759066873.1788235,-0.70166015625,0.08837890625,0.7197265625,2.13623046875,-0.30517578125,1.46484375,6.317138671875,40.9954833984375,71.334228515625
1759066873.1890235,-0.70166015625,0.08837890625,0.7197265625,2.13623046875,-0.30517578125,1.46484375,6.35009765625,41.0009765625,71.3507080078125
1759066873.198851,-0.720703125,0.087890625,0.6962890625,3.5400390625,1.03759765625,2.50244140625,6.3995361328125,41.011962890625,71.3726806640625
1759066873.2088544,-0.720703125,0.087890625,0.6962890625,3.5400390625,1.03759765625,2.50244140625,6.4544677734375,41.033935546875,71.4056396484375
1759066873.2190678,-0.68994140625,0.05810546875,0.720703125,-0.732421875,2.8076171875,2.8076171875,6.492919921875,41.0614013671875,71.4385986328125
1759066873.229056,-0.68994140625,0.05810546875,0.720703125,-0.732421875,2.8076171875,2.8076171875,6.514892578125,41.099853515625,71.47705078125
1759066873.2389994,-0.642578125,0.0498046875,0.77099609375,-0.30517578125,3.41796875,1.77001953125,6.52587890625,41.143798828125,71.510009765625
1759066873.2490048,-0.642578125,0.0498046875,0.77099609375,-0.30517578125,3.41796875,1.77001953125,6.5423583984375,41.1822509765625,71.531982421875
1759066873.2593927,-0.60302734375,0.06201171875,0.7841796875,7.99560546875,2.5634765625,0.732421875,6.5863037109375,41.220703125,71.5484619140625
1759066873.2689664,-0.60302734375,0.06201171875,0.7841796875,7.99560546875,2.5634765625,0.732421875,6.668701171875,41.2481689453125,71.56494140625
1759066873.279297,-0.61279296875,0.08544921875,0.78857421875,12.87841796875,0.91552734375,-0.30517578125,6.767578125,41.2701416015625,71.56494140625
1759066873.290004,-0.61279296875,0.08544921875,0.78857421875,12.87841796875,0.91552734375,-0.30517578125,6.888427734375,41.275634765625,71.56494140625
1759066873.2991016,-0.65625,0.126953125,0.7568359375,6.77490234375,0.48828125,-1.64794921875,6.9708251953125,41.28662109375,71.5484619140625
1759066873.3090096,-0.65625,0.126953125,0.7568359375,6.77490234375,0.48828125,-1.64794921875,7.020263671875,41.28662109375,71.5264892578125
1759066873.3192797,-0.64990234375,0.16357421875,0.740234375,0.0,0.8544921875,-1.46484375,7.0367431640625,41.297607421875,71.510009765625
1759066873.3291464,-0.64990234375,0.16357421875,0.740234375,0.0,0.8544921875,-1.46484375,7.0257568359375,41.3031005859375,71.4935302734375
1759066873.3391888,-0.62060546875,0.1611328125,0.76611328125,-4.39453125,1.03759765625,-0.67138671875,6.998291015625,41.30859375,71.4825439453125
1759066873.3491266,-0.62060546875,0.1611328125,0.76611328125,-4.39453125,1.03759765625,-0.67138671875,6.9598388671875,41.319580078125,71.47705078125
1759066873.3593898,-0.63720703125,0.146484375,0.7783203125,-10.7421875,0.54931640625,0.30517578125,6.888427734375,41.319580078125,71.47705078125
1759066873.369235,-0.63720703125,0.146484375,0.7783203125,-10.7421875,0.54931640625,0.30517578125,6.7950439453125,41.319580078125,71.488037109375
1759066873.3791637,-0.65576171875,0.13134765625,0.76611328125,-14.404296875,0.48828125,1.46484375,6.690673828125,41.3140869140625,71.5045166015625
1759066873.389327,-0.65576171875,0.13134765625,0.76611328125,-14.404296875,0.48828125,1.46484375,6.5753173828125,41.3140869140625,71.531982421875
1759066873.3992321,-0.64697265625,0.13525390625,0.751953125,-15.13671875,0.79345703125,2.74658203125,6.4599609375,41.30859375,71.56494140625
1759066873.4092774,-0.64697265625,0.13525390625,0.751953125,-15.13671875,0.79345703125,2.74658203125,6.35009765625,41.30859375,71.6033935546875
1759066873.424369,-0.63720703125,0.1220703125,0.7666015625,-17.39501953125,0.8544921875,4.2724609375,6.240234375,41.3031005859375,71.6583251953125
1759066873.431154,-0.63720703125,0.1220703125,0.7666015625,-17.39501953125,0.8544921875,4.2724609375,6.119384765625,41.3031005859375,71.71875
1759066873.43924,-0.642578125,0.091796875,0.76123046875,-19.4091796875,0.30517578125,5.18798828125,5.99853515625,41.2921142578125,71.7901611328125
1759066873.4495041,-0.642578125,0.091796875,0.76123046875,-19.4091796875,0.30517578125,5.18798828125,5.86669921875,41.2811279296875,71.861572265625
1759066873.4594479,-0.6533203125,0.0927734375,0.7490234375,-14.892578125,-0.18310546875,5.92041015625,5.7623291015625,41.2701416015625,71.9384765625
1759066873.4692621,-0.6533203125,0.0927734375,0.7490234375,-14.892578125,-0.18310546875,5.92041015625,5.679931640625,41.2591552734375,72.0208740234375
1759066873.479205,-0.66064453125,0.095703125,0.74658203125,-8.97216796875,-0.30517578125,6.8359375,5.635986328125,41.24267578125,72.1087646484375
1759066873.4894376,-0.66064453125,0.095703125,0.74658203125,-8.97216796875,-0.30517578125,6.8359375,5.6195068359375,41.2261962890625,72.2021484375
1759066873.499426,-0.66552734375,0.0859375,0.74072265625,-8.72802734375,0.0,7.2021484375,5.6085205078125,41.2152099609375,72.301025390625
1759066873.5093114,-0.66552734375,0.0859375,0.74072265625,-8.72802734375,0.0,7.2021484375,5.5975341796875,41.2042236328125,72.39990234375
1759066873.5194166,-0.654296875,0.06494140625,0.73779296875,-10.80322265625,0.1220703125,6.8359375,5.5755615234375,41.1932373046875,72.4932861328125
1759066873.5293255,-0.654296875,0.06494140625,0.73779296875,-10.80322265625,0.1220703125,6.8359375,5.5426025390625,41.1822509765625,72.586669921875
1759066873.5393014,-0.65380859375,0.04296875,0.7490234375,-10.55908203125,0.3662109375,5.92041015625,5.4986572265625,41.1767578125,72.674560546875
1759066873.5492918,-0.65380859375,0.04296875,0.7490234375,-10.55908203125,0.3662109375,5.92041015625,5.4547119140625,41.1767578125,72.75146484375
1759066873.5596485,-0.65087890625,0.02490234375,0.75927734375,-7.2021484375,0.732421875,5.18798828125,5.4217529296875,41.1712646484375,72.828369140625
1759066873.569423,-0.65087890625,0.02490234375,0.75927734375,-7.2021484375,0.732421875,5.18798828125,5.3997802734375,41.1712646484375,72.894287109375
1759066873.579346,-0.63818359375,0.0029296875,0.76416015625,-2.50244140625,0.732421875,3.96728515625,5.394287109375,41.1712646484375,72.9547119140625
1759066873.5896173,-0.63818359375,0.0029296875,0.76416015625,-2.50244140625,0.732421875,3.96728515625,5.3997802734375,41.1767578125,73.0096435546875
1759066873.5994513,-0.6376953125,0.01025390625,0.76806640625,-0.48828125,0.67138671875,2.50244140625,5.4107666015625,41.1767578125,73.0535888671875
1759066873.6094728,-0.6376953125,0.01025390625,0.76806640625,-0.48828125,0.67138671875,2.50244140625,5.4217529296875,41.1767578125,73.0865478515625
1759066873.6195755,-0.64453125,0.03125,0.77294921875,2.8076171875,0.67138671875,1.52587890625,5.438232421875,41.1767578125,73.114013671875
1759066873.6295745,-0.64453125,0.03125,0.77294921875,2.8076171875,0.67138671875,1.52587890625,5.47119140625,41.1767578125,73.1304931640625
1759066873.6393998,-0.65234375,0.0556640625,0.7548828125,4.638671875,0.6103515625,0.8544921875,5.5096435546875,41.1767578125,73.14697265625
1759066873.6496792,-0.65234375,0.0556640625,0.7548828125,4.638671875,0.6103515625,0.8544921875,5.5535888671875,41.1767578125,73.157958984375
1759066873.6595643,-0.6533203125,0.0693359375,0.74951171875,2.0751953125,0.67138671875,0.6103515625,5.5810546875,41.1767578125,73.1689453125
1759066873.6696527,-0.6533203125,0.0693359375,0.74951171875,2.0751953125,0.67138671875,0.6103515625,5.5975341796875,41.1822509765625,73.179931640625
1759066873.6795552,-0.642578125,0.0673828125,0.75341796875,-1.708984375,0.244140625,0.67138671875,5.5975341796875,41.1822509765625,73.1854248046875
1759066873.6897833,-0.642578125,0.0673828125,0.75341796875,-1.708984375,0.244140625,0.67138671875,5.5755615234375,41.1767578125,73.1964111328125
1759066873.6996965,-0.6376953125,0.05712890625,0.76953125,-3.35693359375,-0.1220703125,0.9765625,5.5535888671875,41.1767578125,73.2073974609375
1759066873.7096448,-0.6376953125,0.05712890625,0.76953125,-3.35693359375,-0.1220703125,0.9765625,5.5206298828125,41.165771484375,73.2183837890625
1759066873.7197158,-0.63671875,0.03955078125,0.76318359375,-2.01416015625,-0.732421875,1.220703125,5.4931640625,41.15478515625,73.23486328125
1759066873.7296085,-0.63671875,0.03955078125,0.76318359375,-2.01416015625,-0.732421875,1.220703125,5.4766845703125,41.143798828125,73.2513427734375
1759066873.7395413,-0.6357421875,0.03369140625,0.7578125,0.9765625,-1.15966796875,0.79345703125,5.47119140625,41.1273193359375,73.2623291015625
1759066873.7496827,-0.6357421875,0.03369140625,0.7578125,0.9765625,-1.15966796875,0.79345703125,5.4766845703125,41.11083984375,73.2733154296875
1759066873.7596104,-0.63427734375,0.03173828125,0.76123046875,3.41796875,-1.52587890625,0.54931640625,5.4876708984375,41.0888671875,73.27880859375
1759066873.7696626,-0.63427734375,0.03173828125,0.76123046875,3.41796875,-1.52587890625,0.54931640625,5.51513671875,41.06689453125,73.2843017578125
1759066873.779836,-0.63671875,0.0361328125,0.76220703125,2.62451171875,-1.8310546875,0.18310546875,5.537109375,41.044921875,73.289794921875
1759066873.789725,-0.63671875,0.0361328125,0.76220703125,2.62451171875,-1.8310546875,0.18310546875,5.548095703125,41.02294921875,73.289794921875
1759066873.799785,-0.64404296875,0.0380859375,0.76416015625,2.25830078125,-2.01416015625,-0.42724609375,5.55908203125,40.9954833984375,73.2843017578125
1759066873.8097196,-0.64404296875,0.0380859375,0.76416015625,2.25830078125,-2.01416015625,-0.42724609375,5.55908203125,40.9735107421875,73.2733154296875
1759066873.8199832,-0.6552734375,0.05859375,0.755859375,4.39453125,-1.89208984375,-0.79345703125,5.5755615234375,40.946044921875,73.2623291015625
1759066873.829716,-0.6552734375,0.05859375,0.755859375,4.39453125,-1.89208984375,-0.79345703125,5.5975341796875,40.924072265625,73.2513427734375
1759066873.8396907,-0.65380859375,0.0703125,0.7529296875,6.16455078125,-1.8310546875,-1.220703125,5.625,40.902099609375,73.23486328125
1759066873.8500628,-0.65380859375,0.0703125,0.7529296875,6.16455078125,-1.8310546875,-1.220703125,5.6634521484375,40.8856201171875,73.2183837890625
1759066873.8597279,-0.66015625,0.09228515625,0.7529296875,4.638671875,-1.708984375,-1.52587890625,5.69091796875,40.8636474609375,73.1964111328125
1759066873.8697436,-0.66015625,0.09228515625,0.7529296875,4.638671875,-1.708984375,-1.52587890625,5.712890625,40.84716796875,73.1744384765625
1759066873.8799624,-0.66845703125,0.08642578125,0.7421875,1.3427734375,-1.40380859375,-1.46484375,5.723876953125,40.8306884765625,73.1524658203125
1759066873.8905542,-0.66845703125,0.08642578125,0.7421875,1.3427734375,-1.40380859375,-1.46484375,5.7183837890625,40.814208984375,73.135986328125
1759066873.9002516,-0.67138671875,0.08642578125,0.73681640625,0.18310546875,-1.3427734375,-1.40380859375,5.7073974609375,40.80322265625,73.114013671875
1759066873.9098325,-0.67138671875,0.08642578125,0.73681640625,0.18310546875,-1.3427734375,-1.40380859375,5.69091796875,40.792236328125,73.0975341796875
1759066873.9202356,-0.6689453125,0.0888671875,0.73974609375,0.67138671875,-1.03759765625,-1.03759765625,5.679931640625,40.78125,73.0810546875
1759066873.9298697,-0.6689453125,0.0888671875,0.73974609375,0.67138671875,-1.03759765625,-1.03759765625,5.6744384765625,40.7757568359375,73.070068359375
1759066873.9398363,-0.6796875,0.0830078125,0.74267578125,0.18310546875,-0.79345703125,-0.6103515625,5.6689453125,40.770263671875,73.05908203125
1759066873.9498217,-0.6796875,0.0830078125,0.74267578125,0.18310546875,-0.79345703125,-0.6103515625,5.6634521484375,40.7647705078125,73.048095703125
1759066873.959858,-0.68017578125,0.07080078125,0.7314453125,-1.0986328125,-0.6103515625,-0.42724609375,5.657958984375,40.7647705078125,73.0426025390625
1759066873.9698553,-0.68017578125,0.07080078125,0.7314453125,-1.0986328125,-0.6103515625,-0.42724609375,5.6414794921875,40.7647705078125,73.037109375
1759066873.9798667,-0.66943359375,0.06591796875,0.72265625,0.42724609375,-0.54931640625,-0.42724609375,5.6304931640625,40.7647705078125,73.026123046875
1759066873.9900126,-0.66943359375,0.06591796875,0.72265625,0.42724609375,-0.54931640625,-0.42724609375,5.6304931640625,40.7647705078125,73.0206298828125
1759066873.9999278,-0.65771484375,0.064453125,0.7607421875,0.6103515625,-0.8544921875,-0.48828125,5.6304931640625,40.7647705078125,73.01513671875
1759066874.0099638,-0.65771484375,0.064453125,0.7607421875,0.6103515625,-0.8544921875,-0.48828125,5.6304931640625,40.75927734375,73.004150390625
1759066874.0202768,-0.6533203125,0.06689453125,0.75390625,-2.197265625,-1.220703125,-0.06103515625,5.6195068359375,40.7537841796875,72.9986572265625
1759066874.0299828,-0.6533203125,0.06689453125,0.75390625,-2.197265625,-1.220703125,-0.06103515625,5.5975341796875,40.748291015625,72.9986572265625
1759066874.03996,-0.65380859375,0.07373046875,0.7431640625,-0.42724609375,-1.64794921875,-0.54931640625,5.5810546875,40.7373046875,72.9876708984375
1759066874.049951,-0.65380859375,0.07373046875,0.7431640625,-0.42724609375,-1.64794921875,-0.54931640625,5.570068359375,40.726318359375,72.982177734375
1759066874.0605938,-0.65380859375,0.07275390625,0.7548828125,-0.79345703125,-1.953125,-0.48828125,5.55908203125,40.7098388671875,72.97119140625
1759066874.069983,-0.65380859375,0.07275390625,0.7548828125,-0.79345703125,-1.953125,-0.48828125,5.5426025390625,40.693359375,72.9656982421875
1759066874.0800025,-0.6533203125,0.07470703125,0.7548828125,-0.732421875,-2.13623046875,-0.91552734375,5.526123046875,40.6768798828125,72.94921875
1759066874.0913854,-0.6533203125,0.07470703125,0.7548828125,-0.732421875,-2.13623046875,-0.91552734375,5.5096435546875,40.660400390625,72.938232421875
1759066874.1006393,-0.65185546875,0.07177734375,0.76171875,-1.953125,-2.3193359375,-0.91552734375,5.4766845703125,40.6439208984375,72.9217529296875
1759066874.110019,-0.65185546875,0.07177734375,0.76171875,-1.953125,-2.3193359375,-0.91552734375,5.44921875,40.6219482421875,72.9052734375
1759066874.1204958,-0.65966796875,0.0703125,0.74609375,-2.99072265625,-2.38037109375,-1.220703125,5.4052734375,40.60546875,72.8887939453125
1759066874.13014,-0.65966796875,0.0703125,0.74609375,-2.99072265625,-2.38037109375,-1.220703125,5.3668212890625,40.58349609375,72.872314453125
1759066874.1401877,-0.65673828125,0.06396484375,0.748046875,-0.67138671875,-2.25830078125,-1.3427734375,5.3448486328125,40.5670166015625,72.850341796875
1759066874.1501474,-0.65673828125,0.06396484375,0.748046875,-0.67138671875,-2.25830078125,-1.3427734375,5.328369140625,40.550537109375,72.828369140625
1759066874.1605785,-0.65625,0.07861328125,0.76171875,-2.25830078125,-2.0751953125,-0.9765625,5.29541015625,40.5340576171875,72.8118896484375
1759066874.1700764,-0.65625,0.07861328125,0.76171875,-2.25830078125,-2.0751953125,-0.9765625,5.262451171875,40.517578125,72.8009033203125
1759066874.180232,-0.6591796875,0.07421875,0.7509765625,-1.64794921875,-1.8310546875,-1.28173828125,5.2349853515625,40.5010986328125,72.7789306640625
1759066874.1910934,-0.6591796875,0.07421875,0.7509765625,-1.64794921875,-1.8310546875,-1.28173828125,5.20751953125,40.4901123046875,72.762451171875
1759066874.2005765,-0.65771484375,0.068359375,0.75146484375,-0.732421875,-1.64794921875,-1.220703125,5.1910400390625,40.4736328125,72.740478515625
1759066874.2101128,-0.65771484375,0.068359375,0.75146484375,-0.732421875,-1.64794921875,-1.220703125,5.174560546875,40.462646484375,72.7239990234375
1759066874.220691,-0.65380859375,0.0673828125,0.7529296875,-1.46484375,-1.52587890625,-1.03759765625,5.152587890625,40.45166015625,72.70751953125
1759066874.2302144,-0.65380859375,0.0673828125,0.7529296875,-1.46484375,-1.52587890625,-1.03759765625,5.1251220703125,40.440673828125,72.696533203125
1759066874.2401764,-0.65380859375,0.06640625,0.76025390625,-2.38037109375,-1.46484375,-0.79345703125,5.09765625,40.4296875,72.6800537109375
1759066874.250299,-0.65380859375,0.06640625,0.76025390625,-2.38037109375,-1.46484375,-0.79345703125,5.064697265625,40.418701171875,72.6690673828125
1759066874.2607427,-0.6572265625,0.05615234375,0.7548828125,-1.77001953125,-1.220703125,-0.8544921875,5.042724609375,40.4132080078125,72.6580810546875
1759066874.270208,-0.6572265625,0.05615234375,0.7548828125,-1.77001953125,-1.220703125,-0.8544921875,5.0152587890625,40.4022216796875,72.6470947265625
1759066874.280216,-0.65576171875,0.0517578125,0.7470703125,-0.1220703125,-1.0986328125,-0.9765625,5.0042724609375,40.396728515625,72.630615234375
1759066874.290542,-0.65576171875,0.0517578125,0.7470703125,-0.1220703125,-1.0986328125,-0.9765625,4.9932861328125,40.3912353515625,72.61962890625
1759066874.3002765,-0.64990234375,0.06396484375,0.75537109375,-0.732421875,-0.91552734375,-0.91552734375,4.976806640625,40.3857421875,72.6031494140625
1759066874.3103392,-0.64990234375,0.06396484375,0.75537109375,-0.732421875,-0.91552734375,-0.91552734375,4.9603271484375,40.3802490234375,72.5921630859375
1759066874.3207579,-0.6455078125,0.0625,0.7626953125,-0.732421875,-0.9765625,-0.8544921875,4.9493408203125,40.374755859375,72.5811767578125
1759066874.3303237,-0.6455078125,0.0625,0.7626953125,-0.732421875,-0.9765625,-0.8544921875,4.932861328125,40.3692626953125,72.5701904296875
1759066874.340302,-0.63671875,0.06396484375,0.77197265625,-0.79345703125,-1.03759765625,-0.6103515625,4.9163818359375,40.3582763671875,72.5592041015625
1759066874.3503726,-0.63671875,0.06396484375,0.77197265625,-0.79345703125,-1.03759765625,-0.6103515625,4.89990234375,40.352783203125,72.5482177734375
1759066874.360709,-0.63671875,0.05322265625,0.77001953125,-0.79345703125,-1.15966796875,-0.54931640625,4.888916015625,40.341796875,72.542724609375
1759066874.3703666,-0.63671875,0.05322265625,0.77001953125,-0.79345703125,-1.15966796875,-0.54931640625,4.8724365234375,40.330810546875,72.53173828125
1759066874.380339,-0.63671875,0.05322265625,0.77001953125,-0.3662109375,-1.3427734375,-0.67138671875,4.8614501953125,40.31982421875,72.520751953125
1759066874.3906515,-0.64111328125,0.05078125,0.76611328125,-0.3662109375,-1.3427734375,-0.67138671875,4.8504638671875,40.3033447265625,72.509765625
1759066874.4003518,-0.64599609375,0.0537109375,0.7587890625,0.6103515625,-1.28173828125,-0.79345703125,4.844970703125,40.2923583984375,72.498779296875
1759066874.410377,-0.64599609375,0.0537109375,0.7587890625,0.6103515625,-1.28173828125,-0.79345703125,4.8394775390625,40.2813720703125,72.48779296875
1759066874.4207091,-0.646484375,0.052734375,0.76025390625,1.46484375,-1.28173828125,-0.8544921875,4.844970703125,40.2703857421875,72.476806640625
1759066874.430406,-0.646484375,0.052734375,0.76025390625,1.46484375,-1.28173828125,-0.8544921875,4.8504638671875,40.25390625,72.4658203125
1759066874.4404218,-0.64306640625,0.05126953125,0.76220703125,2.0751953125,-1.220703125,-1.03759765625,4.85595703125,40.242919921875,72.4493408203125
1759066874.4504802,-0.64306640625,0.05126953125,0.76220703125,2.0751953125,-1.220703125,-1.03759765625,4.8614501953125,40.23193359375,72.432861328125
1759066874.4608982,-0.6416015625,0.05322265625,0.76318359375,2.74658203125,-1.28173828125,-1.3427734375,4.8779296875,40.220947265625,72.4163818359375
1759066874.470506,-0.6416015625,0.05322265625,0.76318359375,2.74658203125,-1.28173828125,-1.3427734375,4.888916015625,40.2099609375,72.3944091796875
1759066874.4805012,-0.64306640625,0.0595703125,0.765625,2.9296875,-1.28173828125,-1.5869140625,4.89990234375,40.198974609375,72.3724365234375
1759066874.4908514,-0.64306640625,0.0595703125,0.765625,2.9296875,-1.28173828125,-1.5869140625,4.910888671875,40.18798828125,72.3504638671875
1759066874.5004616,-0.63818359375,0.06640625,0.76513671875,2.9296875,-1.3427734375,-1.708984375,4.9163818359375,40.177001953125,72.3284912109375
1759066874.5105317,-0.63818359375,0.06640625,0.76513671875,2.9296875,-1.3427734375,-1.708984375,4.9273681640625,40.1605224609375,72.301025390625
1759066874.5208843,-0.63427734375,0.0703125,0.76904296875,2.50244140625,-1.52587890625,-1.77001953125,4.932861328125,40.1495361328125,72.279052734375
1759066874.5305858,-0.63427734375,0.0703125,0.76904296875,2.50244140625,-1.52587890625,-1.77001953125,4.94384765625,40.133056640625,72.2515869140625
1759066874.5405228,-0.64013671875,0.0703125,0.771484375,1.89208984375,-1.5869140625,-1.77001953125,4.94384765625,40.1165771484375,72.2296142578125
1759066874.5509555,-0.64013671875,0.0703125,0.771484375,1.89208984375,-1.5869140625,-1.77001953125,4.94384765625,40.10009765625,72.2021484375
1759066874.5610023,-0.64208984375,0.07568359375,0.7626953125,1.953125,-1.64794921875,-1.708984375,4.94384765625,40.0836181640625,72.18017578125
1759066874.5706744,-0.64208984375,0.07568359375,0.7626953125,1.953125,-1.64794921875,-1.708984375,4.9493408203125,40.0726318359375,72.158203125
1759066874.5805693,-0.6494140625,0.07177734375,0.759765625,1.52587890625,-1.52587890625,-1.64794921875,4.9493408203125,40.05615234375,72.1307373046875
1759066874.5910223,-0.6494140625,0.07177734375,0.759765625,1.52587890625,-1.52587890625,-1.64794921875,4.9493408203125,40.0396728515625,72.1087646484375
1759066874.6006308,-0.654296875,0.07177734375,0.755859375,0.732421875,-1.3427734375,-1.52587890625,4.94384765625,40.0286865234375,72.0867919921875
1759066874.6108172,-0.654296875,0.07177734375,0.755859375,0.732421875,-1.3427734375,-1.52587890625,4.9383544921875,40.0177001953125,72.0648193359375
1759066874.6209514,-0.6513671875,0.07958984375,0.75244140625,-0.06103515625,-1.220703125,-1.15966796875,4.9273681640625,40.0067138671875,72.04833984375
1759066874.6307406,-0.6513671875,0.07958984375,0.75244140625,-0.06103515625,-1.220703125,-1.15966796875,4.9163818359375,39.9957275390625,72.0318603515625
1759066874.6406393,-0.6494140625,0.0791015625,0.7568359375,0.6103515625,-1.0986328125,-0.79345703125,4.9163818359375,39.990234375,72.0208740234375
1759066874.650618,-0.6494140625,0.0791015625,0.7568359375,0.6103515625,-1.0986328125,-0.79345703125,4.921875,39.979248046875,72.0098876953125
1759066874.6610205,-0.6474609375,0.07763671875,0.76416015625,0.732421875,-1.0986328125,-0.3662109375,4.9273681640625,39.9737548828125,72.00439453125
1759066874.670666,-0.6474609375,0.07763671875,0.76416015625,0.732421875,-1.0986328125,-0.3662109375,4.932861328125,39.9627685546875,71.9989013671875
1759066874.6806648,-0.64990234375,0.06982421875,0.7578125,-1.52587890625,-1.0986328125,-0.06103515625,4.9163818359375,39.9517822265625,71.9989013671875
1759066874.6909547,-0.64990234375,0.06982421875,0.7578125,-1.52587890625,-1.0986328125,-0.06103515625,4.9053955078125,39.9462890625,71.993408203125
1759066874.700711,-0.6513671875,0.0673828125,0.75439453125,-1.03759765625,-1.03759765625,-0.244140625,4.8944091796875,39.935302734375,71.9879150390625
1759066874.7107604,-0.6513671875,0.0673828125,0.75439453125,-1.03759765625,-1.03759765625,-0.244140625,4.8834228515625,39.9298095703125,71.9879150390625
1759066874.7210562,-0.64599609375,0.06103515625,0.7587890625,-0.48828125,-0.91552734375,-0.18310546875,4.8779296875,39.92431640625,71.982421875
1759066874.7308085,-0.64599609375,0.06103515625,0.7587890625,-0.48828125,-0.91552734375,-0.18310546875,4.8779296875,39.9188232421875,71.9769287109375
1759066874.7407508,-0.64453125,0.06005859375,0.76416015625,-0.42724609375,-0.91552734375,-0.18310546875,4.8724365234375,39.9078369140625,71.971435546875
1759066874.750799,-0.64453125,0.06005859375,0.76416015625,-0.42724609375,-0.91552734375,-0.18310546875,4.866943359375,39.90234375,71.971435546875
1759066874.761157,-0.638671875,0.0625,0.76220703125,0.3662109375,-0.91552734375,0.0,4.8724365234375,39.8968505859375,71.9659423828125
1759066874.7707748,-0.638671875,0.0625,0.76220703125,0.3662109375,-0.91552734375,0.0,4.8724365234375,39.891357421875,71.9659423828125
1759066874.7812254,-0.640625,0.064453125,0.76953125,0.79345703125,-0.91552734375,0.0,4.8834228515625,39.88037109375,71.96044921875
1759066874.7926505,-0.640625,0.064453125,0.76953125,0.79345703125,-0.91552734375,0.0,4.888916015625,39.8748779296875,71.96044921875
1759066874.8019993,-0.6416015625,0.06689453125,0.76513671875,0.30517578125,-0.8544921875,0.0,4.8944091796875,39.869384765625,71.96044921875
1759066874.8109415,-0.6416015625,0.06689453125,0.76513671875,0.30517578125,-0.8544921875,0.0,4.8944091796875,39.8583984375,71.9549560546875
1759066874.8211353,-0.640625,0.06982421875,0.763671875,-0.48828125,-0.8544921875,0.0,4.888916015625,39.8529052734375,71.9549560546875
1759066874.8308318,-0.640625,0.06982421875,0.763671875,-0.48828125,-0.8544921875,0.0,4.8834228515625,39.847412109375,71.9549560546875
1759066874.8409545,-0.6318359375,0.07080078125,0.7685546875,-1.03759765625,-0.9765625,0.18310546875,4.8779296875,39.83642578125,71.9549560546875
1759066874.8508992,-0.6318359375,0.07080078125,0.7685546875,-1.03759765625,-0.9765625,0.18310546875,4.866943359375,39.825439453125,71.9549560546875
1759066874.8609915,-0.63037109375,0.06689453125,0.77783203125,-0.9765625,-1.0986328125,0.244140625,4.8614501953125,39.814453125,71.9549560546875
1759066874.8709214,-0.63037109375,0.06689453125,0.77783203125,-0.9765625,-1.0986328125,0.244140625,4.85595703125,39.803466796875,71.96044921875
1759066874.8809357,-0.63330078125,0.0615234375,0.7724609375,-1.0986328125,-1.0986328125,0.42724609375,4.844970703125,39.79248046875,71.96044921875
1759066874.8913803,-0.63330078125,0.0615234375,0.7724609375,-1.0986328125,-1.0986328125,0.42724609375,4.8394775390625,39.781494140625,71.9659423828125
1759066874.9009213,-0.634765625,0.06005859375,0.7685546875,-0.30517578125,-1.28173828125,0.244140625,4.8394775390625,39.7650146484375,71.9659423828125
1759066874.910936,-0.634765625,0.06005859375,0.7685546875,-0.30517578125,-1.28173828125,0.244140625,4.833984375,39.7540283203125,71.9659423828125
1759066874.9211829,-0.63818359375,0.0576171875,0.7705078125,0.06103515625,-1.28173828125,0.1220703125,4.833984375,39.737548828125,71.9659423828125
1759066874.931049,-0.63818359375,0.0576171875,0.7705078125,0.06103515625,-1.28173828125,0.1220703125,4.833984375,39.7265625,71.9659423828125
1759066874.9409947,-0.6435546875,0.05859375,0.76416015625,0.6103515625,-1.40380859375,-0.06103515625,4.8394775390625,39.7100830078125,71.96044921875
1759066874.951009,-0.6435546875,0.05859375,0.76416015625,0.6103515625,-1.40380859375,-0.06103515625,4.844970703125,39.6990966796875,71.96044921875
1759066874.9615622,-0.65185546875,0.06201171875,0.75830078125,1.8310546875,-1.40380859375,-0.3662109375,4.85595703125,39.6826171875,71.9549560546875
1759066874.971099,-0.65185546875,0.06201171875,0.75830078125,1.8310546875,-1.40380859375,-0.3662109375,4.8724365234375,39.671630859375,71.9439697265625
1759066874.9810615,-0.6513671875,0.068359375,0.74853515625,1.708984375,-1.40380859375,-0.48828125,4.8834228515625,39.66064453125,71.9384765625
1759066874.9914143,-0.6513671875,0.068359375,0.74853515625,1.708984375,-1.40380859375,-0.48828125,4.8944091796875,39.649658203125,71.927490234375
1759066875.0012643,-0.65625,0.0634765625,0.75634765625,0.244140625,-1.3427734375,-0.8544921875,4.888916015625,39.638671875,71.91650390625
1759066875.011111,-0.65625,0.0634765625,0.75634765625,0.244140625,-1.3427734375,-0.8544921875,4.8779296875,39.627685546875,71.9000244140625
1759066875.0215173,-0.6435546875,0.064453125,0.759765625,-2.3193359375,-1.28173828125,-0.244140625,4.85595703125,39.61669921875,71.89453125
1759066875.031116,-0.6435546875,0.064453125,0.759765625,-2.3193359375,-1.28173828125,-0.244140625,4.8284912109375,39.6112060546875,71.8890380859375
1759066875.0412602,-0.63916015625,0.07373046875,0.76318359375,-1.15966796875,-1.3427734375,-0.18310546875,4.81201171875,39.6002197265625,71.883544921875
1759066875.051155,-0.63916015625,0.07373046875,0.76318359375,-1.15966796875,-1.3427734375,-0.18310546875,4.801025390625,39.5892333984375,71.8780517578125
1759066875.0620944,-0.6416015625,0.07275390625,0.7744140625,-0.42724609375,-1.3427734375,0.0,4.7955322265625,39.5782470703125,71.87255859375
1759066875.071177,-0.64013671875,0.0634765625,0.7646484375,-1.708984375,-0.91552734375,-0.06103515625,4.7845458984375,39.57275390625,71.87255859375
1759066875.0815268,-0.64013671875,0.0634765625,0.7646484375,-1.708984375,-0.91552734375,-0.06103515625,4.76806640625,39.5672607421875,71.8670654296875
1759066875.0929568,-0.62890625,0.08349609375,0.77197265625,-2.44140625,-1.0986328125,0.54931640625,4.7515869140625,39.5562744140625,71.8670654296875
1759066875.101574,-0.62890625,0.08349609375,0.77197265625,-2.44140625,-1.0986328125,0.54931640625,4.7296142578125,39.5452880859375,71.87255859375
1759066875.1112206,-0.63134765625,0.0732421875,0.7802734375,-3.23486328125,-1.03759765625,0.91552734375,4.713134765625,39.539794921875,71.8780517578125
1759066875.1213603,-0.63134765625,0.0732421875,0.7802734375,-3.23486328125,-1.03759765625,0.91552734375,4.691162109375,39.52880859375,71.8890380859375
1759066875.1312084,-0.6298828125,0.06787109375,0.76904296875,-3.96728515625,-1.220703125,0.91552734375,4.6636962890625,39.517822265625,71.9000244140625
1759066875.1412203,-0.6298828125,0.06787109375,0.76904296875,-3.96728515625,-1.220703125,0.91552734375,4.6307373046875,39.5013427734375,71.9110107421875
1759066875.1512113,-0.62939453125,0.06201171875,0.7763671875,-4.69970703125,-1.220703125,1.03759765625,4.5977783203125,39.4903564453125,71.9219970703125
1759066875.161871,-0.62939453125,0.06201171875,0.7763671875,-4.69970703125,-1.220703125,1.03759765625,4.5648193359375,39.4793701171875,71.9329833984375
1759066875.1713576,-0.625,0.06103515625,0.7802734375,-5.18798828125,-1.3427734375,0.79345703125,4.5263671875,39.462890625,71.9384765625
1759066875.1813262,-0.625,0.06103515625,0.7802734375,-5.18798828125,-1.3427734375,0.79345703125,4.482421875,39.451904296875,71.949462890625
1759066875.1916716,-0.62451171875,0.0546875,0.77392578125,-5.31005859375,-1.52587890625,0.67138671875,4.4384765625,39.4354248046875,71.9549560546875
1759066875.201328,-0.62451171875,0.0546875,0.77392578125,-5.31005859375,-1.52587890625,0.67138671875,4.3890380859375,39.4189453125,71.9659423828125
1759066875.2115407,-0.63134765625,0.05078125,0.771484375,-5.18798828125,-1.77001953125,0.18310546875,4.3450927734375,39.39697265625,71.9659423828125
1759066875.2213123,-0.63134765625,0.05078125,0.771484375,-5.18798828125,-1.77001953125,0.18310546875,4.295654296875,39.3804931640625,71.9659423828125
1759066875.2316966,-0.6376953125,0.0478515625,0.77001953125,-4.39453125,-1.708984375,-0.1220703125,4.2462158203125,39.364013671875,71.9659423828125
1759066875.2414265,-0.6376953125,0.0478515625,0.77001953125,-4.39453125,-1.708984375,-0.1220703125,4.2022705078125,39.342041015625,71.96044921875
1759066875.251749,-0.64208984375,0.04541015625,0.7626953125,-3.90625,-1.5869140625,-0.54931640625,4.1583251953125,39.3255615234375,71.9549560546875
1759066875.2620778,-0.64208984375,0.04541015625,0.7626953125,-3.90625,-1.5869140625,-0.54931640625,4.1143798828125,39.3145751953125,71.9439697265625
1759066875.2714014,-0.64404296875,0.04296875,0.7626953125,-3.60107421875,-1.46484375,-0.79345703125,4.0704345703125,39.298095703125,71.9329833984375
1759066875.2814271,-0.64404296875,0.04296875,0.7626953125,-3.60107421875,-1.46484375,-0.79345703125,4.0264892578125,39.287109375,71.9219970703125
1759066875.2918851,-0.64013671875,0.0400390625,0.7646484375,-2.38037109375,-1.40380859375,-0.9765625,3.9935302734375,39.276123046875,71.905517578125
1759066875.3014493,-0.64013671875,0.0400390625,0.7646484375,-2.38037109375,-1.40380859375,-0.9765625,3.9605712890625,39.26513671875,71.8890380859375
1759066875.3116262,-0.6396484375,0.0400390625,0.7666015625,-1.03759765625,-1.3427734375,-1.0986328125,3.93310546875,39.254150390625,71.87255859375
1759066875.3214307,-0.6396484375,0.0400390625,0.7666015625,-1.03759765625,-1.3427734375,-1.0986328125,3.9111328125,39.2431640625,71.8560791015625
1759066875.3320365,-0.638671875,0.04150390625,0.76904296875,-0.244140625,-1.220703125,-1.0986328125,3.8946533203125,39.232177734375,71.839599609375
1759066875.3414571,-0.638671875,0.04150390625,0.76904296875,-0.244140625,-1.220703125,-1.0986328125,3.878173828125,39.22119140625,71.8231201171875
1759066875.3517365,-0.63525390625,0.0419921875,0.77001953125,0.0,-1.0986328125,-1.0986328125,3.8671875,39.2156982421875,71.8011474609375
1759066875.3620715,-0.63525390625,0.0419921875,0.77001953125,0.0,-1.0986328125,-1.0986328125,3.856201171875,39.2047119140625,71.78466796875
1759066875.3714802,-0.63037109375,0.0439453125,0.775390625,-0.1220703125,-0.9765625,-1.03759765625,3.84521484375,39.19921875,71.7681884765625
1759066875.3817523,-0.63037109375,0.0439453125,0.775390625,-0.1220703125,-0.9765625,-1.03759765625,3.8287353515625,39.1937255859375,71.751708984375
1759066875.3919895,-0.6279296875,0.0419921875,0.77978515625,-0.30517578125,-0.91552734375,-0.79345703125,3.8177490234375,39.188232421875,71.7352294921875
1759066875.4015298,-0.6279296875,0.0419921875,0.77978515625,-0.30517578125,-0.91552734375,-0.79345703125,3.8067626953125,39.17724609375,71.7242431640625
1759066875.41183,-0.6318359375,0.04150390625,0.775390625,-0.79345703125,-0.9765625,-0.6103515625,3.790283203125,39.1717529296875,71.7132568359375
1759066875.4215844,-0.6318359375,0.04150390625,0.775390625,-0.79345703125,-0.9765625,-0.6103515625,3.7738037109375,39.1607666015625,71.7022705078125
1759066875.4321043,-0.63330078125,0.0380859375,0.77197265625,-1.28173828125,-0.91552734375,-0.54931640625,3.75732421875,39.1552734375,71.6912841796875
1759066875.4415724,-0.63330078125,0.0380859375,0.77197265625,-1.28173828125,-0.91552734375,-0.54931640625,3.7353515625,39.1497802734375,71.6802978515625
1759066875.45166,-0.634765625,0.0361328125,0.77197265625,-1.03759765625,-0.8544921875,-0.48828125,3.7188720703125,39.1387939453125,71.6693115234375
1759066875.4620998,-0.634765625,0.0361328125,0.77197265625,-1.03759765625,-0.8544921875,-0.48828125,3.6968994140625,39.13330078125,71.663818359375
1759066875.4715698,-0.6357421875,0.0361328125,0.7705078125,-0.3662109375,-0.91552734375,-0.54931640625,3.6859130859375,39.1278076171875,71.65283203125
1759066875.4816608,-0.6357421875,0.0361328125,0.7705078125,-0.3662109375,-0.91552734375,-0.54931640625,3.66943359375,39.1168212890625,71.641845703125
1759066875.4918666,-0.6396484375,0.03955078125,0.767578125,0.0,-0.91552734375,-0.67138671875,3.658447265625,39.111328125,71.630859375
1759066875.5016434,-0.6396484375,0.03955078125,0.767578125,0.0,-0.91552734375,-0.67138671875,3.6529541015625,39.1058349609375,71.619873046875
1759066875.5116217,-0.64111328125,0.04052734375,0.7666015625,0.0,-0.79345703125,-0.732421875,3.6419677734375,39.100341796875,71.60888671875
1759066875.521631,-0.64111328125,0.04052734375,0.7666015625,0.0,-0.79345703125,-0.732421875,3.6309814453125,39.0948486328125,71.597900390625
1759066875.5320537,-0.6416015625,0.04345703125,0.76513671875,0.18310546875,-0.67138671875,-0.79345703125,3.6199951171875,39.08935546875,71.5814208984375
1759066875.5417244,-0.6416015625,0.04345703125,0.76513671875,0.18310546875,-0.67138671875,-0.79345703125,3.614501953125,39.08935546875,71.5704345703125
1759066875.5519888,-0.6416015625,0.04296875,0.76953125,0.6103515625,-0.6103515625,-0.9765625,3.6090087890625,39.0838623046875,71.553955078125
1759066875.5622559,-0.6416015625,0.04296875,0.76953125,0.6103515625,-0.6103515625,-0.9765625,3.603515625,39.0838623046875,71.54296875
1759066875.571742,-0.64208984375,0.04296875,0.76708984375,0.732421875,-0.67138671875,-1.0986328125,3.5980224609375,39.078369140625,71.5264892578125
1759066875.5818293,-0.64208984375,0.04296875,0.76708984375,0.732421875,-0.67138671875,-1.0986328125,3.592529296875,39.078369140625,71.5045166015625
1759066875.59186,-0.64208984375,0.04296875,0.76708984375,0.9765625,-0.79345703125,-1.220703125,3.5870361328125,39.0728759765625,71.488037109375
1759066875.601759,-0.64306640625,0.04345703125,0.76220703125,0.9765625,-0.79345703125,-1.220703125,3.5870361328125,39.0728759765625,71.4715576171875
1759066875.6117506,-0.63916015625,0.04443359375,0.7646484375,0.9765625,-0.8544921875,-1.28173828125,3.58154296875,39.0673828125,71.4495849609375
1759066875.6217651,-0.63916015625,0.04443359375,0.7646484375,0.9765625,-0.8544921875,-1.28173828125,3.5760498046875,39.0618896484375,71.43310546875
1759066875.6321774,-0.630859375,0.0478515625,0.77294921875,0.54931640625,-1.0986328125,-1.28173828125,3.570556640625,39.0618896484375,71.4111328125
1759066875.6417742,-0.630859375,0.0478515625,0.77294921875,0.54931640625,-1.0986328125,-1.28173828125,3.5650634765625,39.0509033203125,71.3946533203125
1759066875.6518373,-0.625,0.0498046875,0.77978515625,0.244140625,-1.220703125,-1.3427734375,3.5540771484375,39.04541015625,71.3726806640625
1759066875.662317,-0.625,0.0498046875,0.77978515625,0.244140625,-1.220703125,-1.3427734375,3.5430908203125,39.0399169921875,71.3507080078125
1759066875.6718407,-0.62451171875,0.0498046875,0.78125,-0.244140625,-1.220703125,-1.40380859375,3.5321044921875,39.0289306640625,71.334228515625
1759066875.6827865,-0.62451171875,0.0498046875,0.78125,-0.244140625,-1.220703125,-1.40380859375,3.515625,39.0179443359375,71.312255859375
1759066875.6935117,-0.62548828125,0.048828125,0.7802734375,-0.3662109375,-1.15966796875,-1.40380859375,3.4991455078125,39.012451171875,71.290283203125
1759066875.7018995,-0.62548828125,0.048828125,0.7802734375,-0.3662109375,-1.15966796875,-1.40380859375,3.482666015625,39.00146484375,71.268310546875
1759066875.7118905,-0.6201171875,0.0517578125,0.7822265625,0.0,-1.03759765625,-1.46484375,3.4716796875,38.990478515625,71.2518310546875
1759066875.721914,-0.6201171875,0.0517578125,0.7822265625,0.0,-1.03759765625,-1.46484375,3.460693359375,38.9849853515625,71.2298583984375
1759066875.732305,-0.619140625,0.0556640625,0.78662109375,-0.1220703125,-0.9765625,-1.3427734375,3.4442138671875,38.9739990234375,71.2078857421875
1759066875.7419107,-0.619140625,0.0556640625,0.78662109375,-0.1220703125,-0.9765625,-1.3427734375,3.4332275390625,38.9630126953125,71.1859130859375
1759066875.7520354,-0.619140625,0.05712890625,0.783203125,-0.8544921875,-0.8544921875,-1.03759765625,3.4222412109375,38.95751953125,71.16943359375
1759066875.7625458,-0.619140625,0.05712890625,0.783203125,-0.8544921875,-0.8544921875,-1.03759765625,3.40576171875,38.946533203125,71.1529541015625
1759066875.771906,-0.62255859375,0.05517578125,0.78271484375,-1.52587890625,-0.732421875,-0.48828125,3.3892822265625,38.935546875,71.1419677734375
1759066875.7821343,-0.62255859375,0.05517578125,0.78271484375,-1.52587890625,-0.732421875,-0.48828125,3.372802734375,38.9300537109375,71.136474609375
1759066875.7919824,-0.6279296875,0.05126953125,0.77880859375,-2.38037109375,-0.6103515625,-0.1220703125,3.350830078125,38.924560546875,71.1309814453125
1759066875.80193,-0.6279296875,0.05126953125,0.77880859375,-2.38037109375,-0.6103515625,-0.1220703125,3.328857421875,38.91357421875,71.12548828125
1759066875.812011,-0.62744140625,0.0478515625,0.7802734375,-3.2958984375,-0.42724609375,0.06103515625,3.3013916015625,38.9080810546875,71.12548828125
1759066875.8220093,-0.62744140625,0.0478515625,0.7802734375,-3.2958984375,-0.42724609375,0.06103515625,3.27392578125,38.902587890625,71.12548828125
1759066875.8323517,-0.6337890625,0.04052734375,0.78125,-3.0517578125,-0.1220703125,0.244140625,3.2464599609375,38.8970947265625,71.12548828125
1759066875.8420603,-0.6337890625,0.04052734375,0.78125,-3.0517578125,-0.1220703125,0.244140625,3.218994140625,38.8970947265625,71.12548828125
1759066875.8521757,-0.6357421875,0.03515625,0.76611328125,-2.3193359375,0.0,0.18310546875,3.197021484375,38.8970947265625,71.12548828125
1759066875.8628662,-0.6357421875,0.03515625,0.76611328125,-2.3193359375,0.0,0.18310546875,3.175048828125,38.8970947265625,71.12548828125
1759066875.8720012,-0.6357421875,0.03515625,0.76611328125,-1.8310546875,0.0,0.0,3.1585693359375,38.8970947265625,71.12548828125
1759066875.8823032,-0.63720703125,0.03759765625,0.7666015625,-1.8310546875,0.0,0.0,3.1365966796875,38.8970947265625,71.12548828125
1759066875.8921497,-0.62744140625,0.04150390625,0.77734375,-1.77001953125,0.0,0.06103515625,3.1201171875,38.8970947265625,71.1199951171875
1759066875.9021666,-0.62744140625,0.04150390625,0.77734375,-1.77001953125,0.0,0.06103515625,3.1036376953125,38.8970947265625,71.1199951171875
1759066875.912056,-0.6279296875,0.0390625,0.77978515625,-1.953125,-0.06103515625,0.06103515625,3.087158203125,38.8970947265625,71.1199951171875
1759066875.922053,-0.6279296875,0.0390625,0.77978515625,-1.953125,-0.06103515625,0.06103515625,3.0706787109375,38.8970947265625,71.114501953125
1759066875.9325724,-0.634765625,0.03466796875,0.7705078125,-1.8310546875,-0.1220703125,0.0,3.05419921875,38.8970947265625,71.114501953125
1759066875.9420726,-0.634765625,0.03466796875,0.7705078125,-1.8310546875,-0.1220703125,0.0,3.0322265625,38.8970947265625,71.114501953125
1759066875.9524486,-0.6396484375,0.03173828125,0.7685546875,-1.46484375,-0.18310546875,-0.06103515625,3.0157470703125,38.8970947265625,71.1090087890625
1759066875.9626617,-0.6396484375,0.03173828125,0.7685546875,-1.46484375,-0.18310546875,-0.06103515625,3.0047607421875,38.8970947265625,71.1090087890625
1759066875.9721255,-0.6328125,0.0341796875,0.7724609375,-0.8544921875,-0.1220703125,-0.18310546875,2.98828125,38.8970947265625,71.103515625
1759066875.9830961,-0.6328125,0.0341796875,0.7724609375,-0.8544921875,-0.1220703125,-0.18310546875,2.977294921875,38.8970947265625,71.0980224609375
1759066875.9941218,-0.62158203125,0.037109375,0.77880859375,-0.54931640625,-0.1220703125,-0.30517578125,2.96630859375,38.8970947265625,71.092529296875
1759066876.0022476,-0.62158203125,0.037109375,0.77880859375,-0.54931640625,-0.1220703125,-0.30517578125,2.9608154296875,38.902587890625,71.0870361328125
1759066876.0121663,-0.6171875,0.03955078125,0.78515625,-0.8544921875,-0.30517578125,-0.3662109375,2.9498291015625,38.8970947265625,71.08154296875
1759066876.02221,-0.6171875,0.03955078125,0.78515625,-0.8544921875,-0.30517578125,-0.3662109375,2.9388427734375,38.8970947265625,71.070556640625
1759066876.032412,-0.61279296875,0.03955078125,0.7890625,-1.15966796875,-0.48828125,-0.3662109375,2.92236328125,38.8916015625,71.0650634765625
1759066876.0422053,-0.61279296875,0.03955078125,0.7890625,-1.15966796875,-0.48828125,-0.3662109375,2.911376953125,38.8861083984375,71.0595703125
1759066876.0528378,-0.6123046875,0.037109375,0.7880859375,-1.03759765625,-0.6103515625,-0.244140625,2.8948974609375,38.880615234375,71.0540771484375
1759066876.0628102,-0.6123046875,0.037109375,0.7880859375,-1.03759765625,-0.6103515625,-0.244140625,2.8839111328125,38.8751220703125,71.048583984375
1759066876.0722017,-0.61328125,0.03466796875,0.78857421875,-0.54931640625,-0.732421875,-0.30517578125,2.8729248046875,38.8641357421875,71.0430908203125
1759066876.0826104,-0.61328125,0.03466796875,0.78857421875,-0.54931640625,-0.732421875,-0.30517578125,2.8619384765625,38.8531494140625,71.03759765625
1759066876.0924864,-0.623046875,0.02978515625,0.783203125,-0.1220703125,-0.79345703125,-0.3662109375,2.8564453125,38.84765625,71.0321044921875
1759066876.1022403,-0.623046875,0.02978515625,0.783203125,-0.1220703125,-0.79345703125,-0.3662109375,2.8509521484375,38.836669921875,71.026611328125
1759066876.112354,-0.63232421875,0.0263671875,0.77197265625,0.48828125,-0.8544921875,-0.54931640625,2.845458984375,38.82568359375,71.015625
1759066876.1224318,-0.63232421875,0.0263671875,0.77197265625,0.48828125,-0.8544921875,-0.54931640625,2.845458984375,38.814697265625,71.0101318359375
1759066876.132884,-0.63623046875,0.0302734375,0.7705078125,1.3427734375,-0.8544921875,-0.8544921875,2.8509521484375,38.8037109375,70.99365234375
1759066876.1423266,-0.63623046875,0.0302734375,0.7705078125,1.3427734375,-0.8544921875,-0.8544921875,2.8509521484375,38.7982177734375,70.982666015625
1759066876.1524267,-0.6318359375,0.03759765625,0.7724609375,1.52587890625,-0.79345703125,-1.03759765625,2.8564453125,38.7872314453125,70.9661865234375
1759066876.1627164,-0.6318359375,0.03759765625,0.7724609375,1.52587890625,-0.79345703125,-1.03759765625,2.8619384765625,38.78173828125,70.94970703125
1759066876.17252,-0.63427734375,0.044921875,0.77783203125,0.54931640625,-0.79345703125,-1.03759765625,2.8564453125,38.7762451171875,70.9332275390625
1759066876.1825879,-0.63427734375,0.044921875,0.77783203125,0.54931640625,-0.79345703125,-1.03759765625,2.8509521484375,38.770751953125,70.916748046875
1759066876.193293,-0.63525390625,0.0439453125,0.7744140625,-0.18310546875,-0.67138671875,-0.91552734375,2.845458984375,38.7652587890625,70.90576171875
1759066876.2023587,-0.63525390625,0.0439453125,0.7744140625,-0.18310546875,-0.67138671875,-0.91552734375,2.83447265625,38.759765625,70.8892822265625
1759066876.2127194,-0.63427734375,0.0419921875,0.7705078125,-0.42724609375,-0.67138671875,-0.8544921875,2.823486328125,38.7542724609375,70.8782958984375
1759066876.222551,-0.63427734375,0.0419921875,0.7705078125,-0.42724609375,-0.67138671875,-0.8544921875,2.8125,38.748779296875,70.86181640625
1759066876.233069,-0.6337890625,0.0400390625,0.77392578125,-0.67138671875,-0.54931640625,-0.79345703125,2.7960205078125,38.7432861328125,70.850830078125
1759066876.2423863,-0.6337890625,0.0400390625,0.77392578125,-0.67138671875,-0.54931640625,-0.79345703125,2.7850341796875,38.7432861328125,70.83984375
1759066876.2529573,-0.63037109375,0.04052734375,0.77783203125,-1.3427734375,-0.42724609375,-0.6103515625,2.7685546875,38.7432861328125,70.828857421875
1759066876.2628174,-0.63037109375,0.04052734375,0.77783203125,-1.3427734375,-0.42724609375,-0.6103515625,2.7520751953125,38.73779296875,70.81787109375
1759066876.2730277,-0.62939453125,0.03662109375,0.78076171875,-1.40380859375,-0.42724609375,-0.42724609375,2.735595703125,38.73779296875,70.806884765625
1759066876.2825358,-0.62939453125,0.03662109375,0.78076171875,-1.40380859375,-0.42724609375,-0.42724609375,2.7191162109375,38.7322998046875,70.8013916015625
1759066876.2934906,-0.6298828125,0.0341796875,0.77685546875,-1.03759765625,-0.3662109375,-0.244140625,2.70263671875,38.7322998046875,70.7904052734375
1759066876.3024843,-0.6298828125,0.0341796875,0.77685546875,-1.03759765625,-0.3662109375,-0.244140625,2.691650390625,38.7322998046875,70.784912109375
1759066876.3129175,-0.6337890625,0.0341796875,0.771484375,-0.8544921875,-0.30517578125,-0.1220703125,2.6861572265625,38.7322998046875,70.784912109375
1759066876.3226225,-0.6337890625,0.0341796875,0.771484375,-0.8544921875,-0.30517578125,-0.1220703125,2.6751708984375,38.726806640625,70.7794189453125
1759066876.3334858,-0.640625,0.03369140625,0.7724609375,-1.03759765625,-0.18310546875,-0.1220703125,2.6641845703125,38.726806640625,70.77392578125
1759066876.3424804,-0.640625,0.03369140625,0.7724609375,-1.03759765625,-0.18310546875,-0.1220703125,2.6531982421875,38.7322998046875,70.7684326171875
1759066876.3530812,-0.64013671875,0.02978515625,0.7705078125,-1.5869140625,0.0,-0.1220703125,2.63671875,38.7322998046875,70.762939453125
1759066876.3628666,-0.64013671875,0.02978515625,0.7705078125,-1.5869140625,0.0,-0.1220703125,2.6202392578125,38.73779296875,70.7574462890625
1759066876.373226,-0.6337890625,0.02783203125,0.77001953125,-1.28173828125,0.0,-0.18310546875,2.603759765625,38.73779296875,70.751953125
1759066876.3826122,-0.6337890625,0.02783203125,0.77001953125,-1.28173828125,0.0,-0.18310546875,2.5872802734375,38.7432861328125,70.7464599609375
1759066876.3940275,-0.6279296875,0.02880859375,0.77880859375,-0.48828125,-0.06103515625,-0.06103515625,2.581787109375,38.748779296875,70.740966796875
1759066876.4026265,-0.6279296875,0.02880859375,0.77880859375,-0.48828125,-0.06103515625,-0.06103515625,2.5762939453125,38.748779296875,70.740966796875
1759066876.412792,-0.6240234375,0.03271484375,0.78076171875,-0.18310546875,-0.1220703125,0.0,2.5762939453125,38.748779296875,70.7354736328125
1759066876.4226382,-0.6240234375,0.03271484375,0.78076171875,-0.18310546875,-0.1220703125,0.0,2.57080078125,38.748779296875,70.72998046875
1759066876.432745,-0.62451171875,0.03662109375,0.7783203125,-0.6103515625,-0.244140625,0.0,2.5653076171875,38.748779296875,70.72998046875
1759066876.442623,-0.62451171875,0.03662109375,0.7783203125,-0.6103515625,-0.244140625,0.0,2.559814453125,38.748779296875,70.7244873046875
1759066876.4525845,-0.623046875,0.03515625,0.7802734375,-1.0986328125,-0.30517578125,0.0,2.548828125,38.748779296875,70.7244873046875
1759066876.4629068,-0.623046875,0.03515625,0.7802734375,-1.0986328125,-0.30517578125,0.0,2.537841796875,38.748779296875,70.718994140625
1759066876.4728916,-0.62255859375,0.03662109375,0.7822265625,-1.0986328125,-0.42724609375,0.06103515625,2.52685546875,38.7432861328125,70.718994140625
1759066876.4826775,-0.62255859375,0.03662109375,0.7822265625,-1.0986328125,-0.42724609375,0.06103515625,2.515869140625,38.73779296875,70.718994140625
1759066876.493009,-0.625,0.03515625,0.7822265625,-0.79345703125,-0.48828125,0.1220703125,2.5048828125,38.73779296875,70.718994140625
1759066876.5027134,-0.625,0.03515625,0.7822265625,-0.79345703125,-0.48828125,0.1220703125,2.4993896484375,38.7322998046875,70.7135009765625
1759066876.5126605,-0.625,0.0341796875,0.77783203125,-0.67138671875,-0.54931640625,0.18310546875,2.493896484375,38.726806640625,70.7135009765625
1759066876.5229104,-0.625,0.0341796875,0.77783203125,-0.67138671875,-0.54931640625,0.18310546875,2.4884033203125,38.7213134765625,70.7135009765625
1759066876.5329373,-0.62109375,0.033203125,0.77880859375,-0.67138671875,-0.6103515625,0.18310546875,2.48291015625,38.7158203125,70.7135009765625
1759066876.5426958,-0.62109375,0.033203125,0.77880859375,-0.67138671875,-0.6103515625,0.18310546875,2.4774169921875,38.7103271484375,70.7135009765625
1759066876.552781,-0.61865234375,0.0322265625,0.7861328125,-0.91552734375,-0.67138671875,0.18310546875,2.471923828125,38.704833984375,70.7135009765625
1759066876.5630624,-0.61865234375,0.0322265625,0.7861328125,-0.91552734375,-0.67138671875,0.18310546875,2.4664306640625,38.69384765625,70.7135009765625
1759066876.5729084,-0.6181640625,0.03173828125,0.78662109375,-1.220703125,-0.732421875,0.30517578125,2.4554443359375,38.6883544921875,70.7135009765625
1759066876.5835166,-0.6181640625,0.03173828125,0.78662109375,-1.220703125,-0.732421875,0.30517578125,2.4444580078125,38.6773681640625,70.7135009765625
1759066876.5938363,-0.6181640625,0.03173828125,0.78662109375,-1.5869140625,-0.9765625,0.244140625,2.427978515625,38.671875,70.7135009765625
1759066876.6029055,-0.61962890625,0.025390625,0.78125,-1.5869140625,-0.9765625,0.244140625,2.4169921875,38.660888671875,70.7135009765625
1759066876.612737,-0.6181640625,0.02587890625,0.78271484375,-0.91552734375,-1.0986328125,0.18310546875,2.406005859375,38.6444091796875,70.7135009765625
1759066876.623579,-0.6181640625,0.02587890625,0.78271484375,-0.91552734375,-1.0986328125,0.18310546875,2.39501953125,38.6334228515625,70.7135009765625
1759066876.63309,-0.6142578125,0.02734375,0.787109375,-0.8544921875,-1.15966796875,0.18310546875,2.3895263671875,38.6224365234375,70.7135009765625
1759066876.6430748,-0.6142578125,0.02734375,0.787109375,-0.8544921875,-1.15966796875,0.18310546875,2.3785400390625,38.6114501953125,70.7080078125
1759066876.652768,-0.6162109375,0.03125,0.78857421875,-1.3427734375,-1.28173828125,0.1220703125,2.3675537109375,38.594970703125,70.7080078125
1759066876.663601,-0.6162109375,0.03125,0.78857421875,-1.3427734375,-1.28173828125,0.1220703125,2.35107421875,38.5784912109375,70.7080078125
1759066876.6732755,-0.6201171875,0.02978515625,0.78515625,-1.5869140625,-1.28173828125,0.244140625,2.340087890625,38.5675048828125,70.7080078125
1759066876.6830218,-0.6201171875,0.02978515625,0.78515625,-1.5869140625,-1.28173828125,0.244140625,2.3236083984375,38.551025390625,70.7080078125
1759066876.6928713,-0.62060546875,0.0244140625,0.7822265625,-1.40380859375,-1.220703125,0.30517578125,2.3126220703125,38.5400390625,70.7080078125
1759066876.703814,-0.62060546875,0.0244140625,0.7822265625,-1.40380859375,-1.220703125,0.30517578125,2.296142578125,38.5235595703125,70.7080078125
1759066876.712905,-0.61865234375,0.02490234375,0.7841796875,-1.15966796875,-1.3427734375,0.30517578125,2.28515625,38.507080078125,70.7080078125
1759066876.7238805,-0.61865234375,0.02490234375,0.7841796875,-1.15966796875,-1.3427734375,0.30517578125,2.274169921875,38.49609375,70.7080078125
1759066876.7332594,-0.61865234375,0.02685546875,0.7861328125,-1.220703125,-1.28173828125,0.30517578125,2.26318359375,38.4796142578125,70.7080078125
1759066876.7434258,-0.61865234375,0.02685546875,0.7861328125,-1.220703125,-1.28173828125,0.30517578125,2.252197265625,38.4686279296875,70.7135009765625
1759066876.7529144,-0.62158203125,0.0283203125,0.78515625,-1.40380859375,-1.15966796875,0.30517578125,2.2412109375,38.4521484375,70.7135009765625
1759066876.7639947,-0.62158203125,0.0283203125,0.78515625,-1.40380859375,-1.15966796875,0.30517578125,2.2247314453125,38.441162109375,70.7135009765625
1759066876.7734394,-0.626953125,0.02685546875,0.78125,-1.3427734375,-0.9765625,0.30517578125,2.2137451171875,38.43017578125,70.718994140625
1759066876.7836668,-0.626953125,0.02685546875,0.78125,-1.3427734375,-0.9765625,0.30517578125,2.2027587890625,38.419189453125,70.718994140625
1759066876.7932062,-0.626953125,0.025390625,0.7763671875,-1.46484375,-0.91552734375,0.244140625,2.186279296875,38.4136962890625,70.718994140625
1759066876.802956,-0.626953125,0.025390625,0.7763671875,-1.46484375,-0.91552734375,0.244140625,2.17529296875,38.4027099609375,70.718994140625
1759066876.8129601,-0.62744140625,0.0234375,0.77978515625,-2.01416015625,-0.79345703125,0.30517578125,2.1533203125,38.397216796875,70.718994140625
1759066876.8229527,-0.62744140625,0.0234375,0.77978515625,-2.01416015625,-0.79345703125,0.30517578125,2.1368408203125,38.38623046875,70.7244873046875
1759066876.8355377,-0.62548828125,0.0234375,0.78173828125,-2.197265625,-0.732421875,0.30517578125,2.1148681640625,38.3807373046875,70.7244873046875
1759066876.8433638,-0.62548828125,0.0234375,0.78173828125,-2.197265625,-0.732421875,0.30517578125,2.0928955078125,38.375244140625,70.7244873046875
1759066876.853336,-0.626953125,0.0205078125,0.7802734375,-1.708984375,-0.6103515625,0.3662109375,2.076416015625,38.3697509765625,70.7244873046875
1759066876.8652833,-0.626953125,0.0205078125,0.7802734375,-1.708984375,-0.6103515625,0.3662109375,2.0654296875,38.3642578125,70.72998046875
1759066876.8730316,-0.62548828125,0.0185546875,0.77880859375,-0.79345703125,-0.54931640625,0.3662109375,2.054443359375,38.3587646484375,70.72998046875
1759066876.8838503,-0.62548828125,0.0185546875,0.77880859375,-0.79345703125,-0.54931640625,0.3662109375,2.0489501953125,38.3587646484375,70.72998046875
1759066876.8933177,-0.61962890625,0.015625,0.78564453125,-0.732421875,-0.54931640625,0.3662109375,2.04345703125,38.353271484375,70.72998046875
1759066876.903265,-0.61962890625,0.015625,0.78564453125,-0.732421875,-0.54931640625,0.3662109375,2.0379638671875,38.3477783203125,70.7354736328125
1759066876.9130626,-0.61865234375,0.017578125,0.78564453125,-0.9765625,-0.48828125,0.244140625,2.0269775390625,38.34228515625,70.7354736328125
1759066876.9230711,-0.61865234375,0.017578125,0.78564453125,-0.9765625,-0.48828125,0.244140625,2.0159912109375,38.34228515625,70.7354736328125
1759066876.9332654,-0.62255859375,0.01904296875,0.7841796875,-1.03759765625,-0.42724609375,0.06103515625,1.99951171875,38.3367919921875,70.72998046875
1759066876.943139,-0.62255859375,0.01904296875,0.7841796875,-1.03759765625,-0.42724609375,0.06103515625,1.988525390625,38.331298828125,70.72998046875
1759066876.9530423,-0.62158203125,0.021484375,0.78125,-0.42724609375,-0.42724609375,0.0,1.9830322265625,38.331298828125,70.7244873046875
1759066876.9633703,-0.62158203125,0.021484375,0.78125,-0.42724609375,-0.42724609375,0.0,1.9775390625,38.3258056640625,70.7244873046875
1759066876.9731295,-0.61669921875,0.0244140625,0.7861328125,0.06103515625,-0.42724609375,-0.06103515625,1.9720458984375,38.3258056640625,70.718994140625
1759066876.9831712,-0.61669921875,0.0244140625,0.7861328125,0.06103515625,-0.42724609375,-0.06103515625,1.9720458984375,38.3203125,70.718994140625
1759066876.993292,-0.61572265625,0.02392578125,0.79052734375,-0.42724609375,-0.48828125,-0.1220703125,1.9610595703125,38.3148193359375,70.7135009765625
1759066877.003207,-0.61572265625,0.02392578125,0.79052734375,-0.42724609375,-0.48828125,-0.1220703125,1.95556640625,38.309326171875,70.7080078125
1759066877.0132205,-0.62255859375,0.0224609375,0.78173828125,-0.8544921875,-0.48828125,-0.30517578125,1.944580078125,38.3038330078125,70.7025146484375
1759066877.0232158,-0.62255859375,0.0224609375,0.78173828125,-0.8544921875,-0.48828125,-0.30517578125,1.9281005859375,38.3038330078125,70.697021484375
1759066877.0335865,-0.62451171875,0.02099609375,0.7802734375,-0.30517578125,-0.3662109375,-0.48828125,1.922607421875,38.29833984375,70.68603515625
1759066877.0431888,-0.62451171875,0.02099609375,0.7802734375,-0.30517578125,-0.3662109375,-0.48828125,1.91162109375,38.29833984375,70.6805419921875
1759066877.0532906,-0.62109375,0.0205078125,0.7841796875,0.30517578125,-0.30517578125,-0.67138671875,1.9061279296875,38.2928466796875,70.6695556640625
1759066877.0634942,-0.62109375,0.0205078125,0.7841796875,0.30517578125,-0.30517578125,-0.67138671875,1.900634765625,38.2928466796875,70.6585693359375
1759066877.0734832,-0.619140625,0.025390625,0.78466796875,0.48828125,-0.3662109375,-0.79345703125,1.900634765625,38.287353515625,70.64208984375
1759066877.0835383,-0.619140625,0.025390625,0.78466796875,0.48828125,-0.3662109375,-0.79345703125,1.8951416015625,38.287353515625,70.631103515625
1759066877.1003125,-0.6201171875,0.0263671875,0.78466796875,0.0,-0.42724609375,-0.732421875,1.8896484375,38.2818603515625,70.6201171875
1759066877.107688,-0.6201171875,0.0263671875,0.78466796875,0.0,-0.42724609375,-0.732421875,1.8841552734375,38.2818603515625,70.609130859375
1759066877.1141934,-0.6201171875,0.0224609375,0.78515625,-0.67138671875,-0.42724609375,-0.732421875,1.86767578125,38.2763671875,70.59814453125
1759066877.127328,-0.6201171875,0.0224609375,0.78515625,-0.67138671875,-0.42724609375,-0.732421875,1.856689453125,38.2708740234375,70.5816650390625
1759066877.1342762,-0.61669921875,0.01904296875,0.7841796875,-0.54931640625,-0.42724609375,-0.6103515625,1.845703125,38.2708740234375,70.576171875
1759066877.1467803,-0.61669921875,0.01904296875,0.7841796875,-0.54931640625,-0.42724609375,-0.6103515625,1.8292236328125,38.265380859375,70.565185546875
1759066877.1534028,-0.6181640625,0.0166015625,0.787109375,-0.48828125,-0.42724609375,-0.54931640625,1.8182373046875,38.2598876953125,70.55419921875
1759066877.163411,-0.6181640625,0.0166015625,0.787109375,-0.48828125,-0.42724609375,-0.54931640625,1.8072509765625,38.25439453125,70.5487060546875
1759066877.1738715,-0.61669921875,0.01611328125,0.78564453125,-0.48828125,-0.3662109375,-0.6103515625,1.7962646484375,38.25439453125,70.5377197265625
1759066877.1834042,-0.61669921875,0.01611328125,0.78564453125,-0.48828125,-0.3662109375,-0.6103515625,1.7852783203125,38.2489013671875,70.5267333984375
1759066877.1941295,-0.61328125,0.01416015625,0.78955078125,-0.06103515625,-0.42724609375,-0.48828125,1.77978515625,38.243408203125,70.5157470703125
1759066877.203458,-0.60986328125,0.01123046875,0.79150390625,-0.244140625,-0.48828125,-0.54931640625,1.7742919921875,38.243408203125,70.51025390625
1759066877.2140825,-0.60986328125,0.01123046875,0.79150390625,-0.244140625,-0.48828125,-0.54931640625,1.7633056640625,38.2379150390625,70.499267578125
1759066877.223474,-0.61376953125,0.0087890625,0.7890625,-0.54931640625,-0.54931640625,-0.732421875,1.7523193359375,38.232421875,70.48828125
1759066877.2340777,-0.61376953125,0.0087890625,0.7890625,-0.54931640625,-0.54931640625,-0.732421875,1.73583984375,38.221435546875,70.477294921875
1759066877.2435296,-0.61669921875,0.0087890625,0.78515625,-0.06103515625,-0.54931640625,-0.8544921875,1.724853515625,38.2159423828125,70.4608154296875
1759066877.2540264,-0.61669921875,0.0087890625,0.78515625,-0.06103515625,-0.54931640625,-0.8544921875,1.7138671875,38.21044921875,70.4498291015625
1759066877.2637296,-0.61474609375,0.01025390625,0.78857421875,0.79345703125,-0.54931640625,-1.03759765625,1.702880859375,38.2049560546875,70.433349609375
1759066877.2734902,-0.61474609375,0.01025390625,0.78857421875,0.79345703125,-0.54931640625,-1.03759765625,1.702880859375,38.199462890625,70.4168701171875
1759066877.2835195,-0.61181640625,0.01318359375,0.79248046875,1.220703125,-0.48828125,-1.220703125,1.6973876953125,38.1939697265625,70.400390625
1759066877.293511,-0.61181640625,0.01318359375,0.79248046875,1.220703125,-0.48828125,-1.220703125,1.6973876953125,38.1884765625,70.3839111328125
1759066877.3035352,-0.61376953125,0.0166015625,0.78857421875,1.77001953125,-0.6103515625,-1.40380859375,1.6973876953125,38.1829833984375,70.367431640625
1759066877.3135006,-0.61376953125,0.0166015625,0.78857421875,1.77001953125,-0.6103515625,-1.40380859375,1.6973876953125,38.1719970703125,70.345458984375
1759066877.3239899,-0.61328125,0.01953125,0.78515625,1.89208984375,-0.732421875,-1.52587890625,1.702880859375,38.16650390625,70.323486328125
1759066877.333607,-0.61328125,0.01953125,0.78515625,1.89208984375,-0.732421875,-1.52587890625,1.702880859375,38.1610107421875,70.301513671875
1759066877.3438413,-0.61328125,0.0224609375,0.78857421875,1.28173828125,-0.79345703125,-1.708984375,1.702880859375,38.1500244140625,70.279541015625
1759066877.35358,-0.61328125,0.0224609375,0.78857421875,1.28173828125,-0.79345703125,-1.708984375,1.6973876953125,38.1390380859375,70.2520751953125
1759066877.3640878,-0.61865234375,0.0263671875,0.78857421875,0.67138671875,-0.67138671875,-1.708984375,1.69189453125,38.133544921875,70.2301025390625
1759066877.3736506,-0.61865234375,0.0263671875,0.78857421875,0.67138671875,-0.67138671875,-1.708984375,1.680908203125,38.1280517578125,70.2081298828125
1759066877.383664,-0.62109375,0.0263671875,0.783203125,0.18310546875,-0.48828125,-1.708984375,1.669921875,38.12255859375,70.1806640625
1759066877.3938148,-0.62109375,0.0263671875,0.783203125,0.18310546875,-0.48828125,-1.708984375,1.658935546875,38.1170654296875,70.15869140625
1759066877.4037127,-0.6201171875,0.0263671875,0.783203125,-0.244140625,-0.48828125,-1.64794921875,1.6424560546875,38.111572265625,70.13671875
1759066877.4137251,-0.6201171875,0.0263671875,0.783203125,-0.244140625,-0.48828125,-1.64794921875,1.6259765625,38.1060791015625,70.1092529296875
1759066877.4237587,-0.6181640625,0.02783203125,0.787109375,-0.06103515625,-0.48828125,-1.52587890625,1.614990234375,38.1005859375,70.0872802734375
1759066877.4337575,-0.6181640625,0.02783203125,0.787109375,-0.06103515625,-0.48828125,-1.52587890625,1.5985107421875,38.0950927734375,70.0653076171875
1759066877.4437444,-0.61865234375,0.02685546875,0.787109375,0.0,-0.42724609375,-1.3427734375,1.5875244140625,38.0950927734375,70.0433349609375
1759066877.4537113,-0.61865234375,0.02685546875,0.787109375,0.0,-0.42724609375,-1.3427734375,1.58203125,38.089599609375,70.02685546875
1759066877.464107,-0.62158203125,0.02392578125,0.7822265625,0.0,-0.48828125,-1.28173828125,1.571044921875,38.0841064453125,70.0048828125
1759066877.4737284,-0.62158203125,0.02392578125,0.7822265625,0.0,-0.48828125,-1.28173828125,1.56005859375,38.07861328125,69.9884033203125
1759066877.4846475,-0.61865234375,0.02001953125,0.78173828125,-0.3662109375,-0.54931640625,-1.220703125,1.549072265625,38.07861328125,69.9664306640625
1759066877.4942315,-0.61865234375,0.02001953125,0.78173828125,-0.3662109375,-0.54931640625,-1.220703125,1.5380859375,38.0731201171875,69.949951171875
1759066877.504162,-0.61572265625,0.01953125,0.787109375,-0.42724609375,-0.6103515625,-1.0986328125,1.527099609375,38.067626953125,69.927978515625
1759066877.5137713,-0.61572265625,0.01953125,0.787109375,-0.42724609375,-0.6103515625,-1.0986328125,1.5106201171875,38.0621337890625,69.9114990234375
1759066877.5241318,-0.61083984375,0.02001953125,0.7900390625,-0.1220703125,-0.732421875,-1.03759765625,1.4996337890625,38.056640625,69.89501953125
1759066877.5338264,-0.61083984375,0.02001953125,0.7900390625,-0.1220703125,-0.732421875,-1.03759765625,1.494140625,38.0511474609375,69.8785400390625
1759066877.5441341,-0.61181640625,0.01953125,0.79150390625,0.0,-0.8544921875,-1.03759765625,1.483154296875,38.045654296875,69.862060546875
1759066877.5537634,-0.61181640625,0.01953125,0.79150390625,0.0,-0.8544921875,-1.03759765625,1.4776611328125,38.03466796875,69.8455810546875
1759066877.5647414,-0.61865234375,0.017578125,0.787109375,0.18310546875,-0.91552734375,-1.03759765625,1.47216796875,38.023681640625,69.8291015625
1759066877.573882,-0.61865234375,0.017578125,0.787109375,0.18310546875,-0.91552734375,-1.03759765625,1.461181640625,38.0181884765625,69.8126220703125
1759066877.5843542,-0.6201171875,0.01806640625,0.78125,0.91552734375,-1.03759765625,-1.15966796875,1.461181640625,38.0072021484375,69.796142578125
1759066877.593994,-0.6201171875,0.01806640625,0.78125,0.91552734375,-1.03759765625,-1.15966796875,1.461181640625,37.9962158203125,69.7796630859375
1759066877.6043377,-0.619140625,0.02001953125,0.7841796875,0.9765625,-1.15966796875,-1.220703125,1.461181640625,37.99072265625,69.7576904296875
1759066877.6141386,-0.619140625,0.02001953125,0.7841796875,0.9765625,-1.15966796875,-1.220703125,1.461181640625,37.979736328125,69.7412109375
1759066877.6275833,-0.62109375,0.01953125,0.78662109375,0.244140625,-1.15966796875,-1.220703125,1.4556884765625,37.96875,69.71923828125
1759066877.6358545,-0.62109375,0.01953125,0.78662109375,0.244140625,-1.15966796875,-1.220703125,1.4501953125,37.957763671875,69.7027587890625
1759066877.6442502,-0.62548828125,0.01416015625,0.78125,0.06103515625,-1.28173828125,-1.28173828125,1.439208984375,37.94677734375,69.6807861328125
1759066877.6539865,-0.62548828125,0.01416015625,0.78125,0.06103515625,-1.28173828125,-1.28173828125,1.4337158203125,37.935791015625,69.664306640625
1759066877.6649866,-0.6279296875,0.01220703125,0.7802734375,0.9765625,-1.220703125,-1.40380859375,1.4227294921875,37.9248046875,69.642333984375
1759066877.6739256,-0.6279296875,0.01220703125,0.7802734375,0.9765625,-1.220703125,-1.40380859375,1.4227294921875,37.9193115234375,69.620361328125
1759066877.6853302,-0.623046875,0.01513671875,0.7822265625,1.953125,-1.03759765625,-1.46484375,1.42822265625,37.9083251953125,69.598388671875
1759066877.6940856,-0.623046875,0.01513671875,0.7822265625,1.953125,-1.03759765625,-1.46484375,1.4337158203125,37.90283203125,69.576416015625
1759066877.7045364,-0.6181640625,0.0166015625,0.78564453125,1.220703125,-1.0986328125,-1.5869140625,1.4337158203125,37.8973388671875,69.554443359375
1759066877.7140234,-0.6181640625,0.0166015625,0.78564453125,1.220703125,-1.0986328125,-1.5869140625,1.4337158203125,37.8863525390625,69.532470703125
1759066877.7241628,-0.61572265625,0.0126953125,0.7890625,-0.42724609375,-1.0986328125,-1.46484375,1.4227294921875,37.880859375,69.5050048828125
1759066877.734597,-0.61572265625,0.0126953125,0.7890625,-0.42724609375,-1.0986328125,-1.46484375,1.40625,37.869873046875,69.4830322265625
1759066877.7440388,-0.6162109375,0.015625,0.78564453125,0.0,-1.0986328125,-1.3427734375,1.395263671875,37.8643798828125,69.4610595703125
1759066877.754393,-0.6162109375,0.015625,0.78564453125,0.0,-1.0986328125,-1.3427734375,1.3787841796875,37.8533935546875,69.444580078125
1759066877.764351,-0.61962890625,0.02099609375,0.78662109375,1.0986328125,-1.03759765625,-1.220703125,1.373291015625,37.847900390625,69.422607421875
1759066877.7740693,-0.61962890625,0.02099609375,0.78662109375,1.0986328125,-1.03759765625,-1.220703125,1.373291015625,37.8369140625,69.4061279296875
1759066877.7852366,-0.619140625,0.0234375,0.7880859375,0.732421875,-1.03759765625,-1.0986328125,1.373291015625,37.8314208984375,69.3841552734375
1759066877.7945218,-0.619140625,0.0234375,0.7880859375,0.732421875,-1.03759765625,-1.0986328125,1.373291015625,37.825927734375,69.36767578125
1759066877.8044388,-0.61328125,0.0244140625,0.78759765625,0.54931640625,-1.03759765625,-0.91552734375,1.373291015625,37.81494140625,69.3511962890625
1759066877.8141346,-0.61328125,0.0244140625,0.78759765625,0.54931640625,-1.03759765625,-0.91552734375,1.3677978515625,37.8094482421875,69.334716796875
1759066877.8242562,-0.6103515625,0.0224609375,0.791015625,0.48828125,-1.03759765625,-0.732421875,1.3677978515625,37.7984619140625,69.3182373046875
1759066877.8346143,-0.6103515625,0.0224609375,0.791015625,0.48828125,-1.03759765625,-0.732421875,1.3677978515625,37.79296875,69.3072509765625
1759066877.8441586,-0.61474609375,0.0224609375,0.794921875,0.0,-0.8544921875,-0.67138671875,1.3677978515625,37.781982421875,69.2962646484375
1759066877.8541265,-0.61474609375,0.0224609375,0.794921875,0.0,-0.8544921875,-0.67138671875,1.3623046875,37.7764892578125,69.27978515625
1759066877.8645294,-0.6220703125,0.01953125,0.7861328125,-0.42724609375,-0.67138671875,-0.54931640625,1.3568115234375,37.77099609375,69.268798828125
1759066877.8742151,-0.6220703125,0.01953125,0.7861328125,-0.42724609375,-0.67138671875,-0.54931640625,1.3458251953125,37.7655029296875,69.2578125
1759066877.8844135,-0.62255859375,0.0146484375,0.78173828125,-0.3662109375,-0.54931640625,-0.48828125,1.34033203125,37.760009765625,69.246826171875
1759066877.8943539,-0.62255859375,0.0146484375,0.78173828125,-0.3662109375,-0.54931640625,-0.48828125,1.3348388671875,37.760009765625,69.23583984375
1759066877.9041896,-0.619140625,0.01416015625,0.78564453125,0.0,-0.6103515625,-0.42724609375,1.329345703125,37.7545166015625,69.2303466796875
1759066877.9142413,-0.619140625,0.01416015625,0.78564453125,0.0,-0.6103515625,-0.42724609375,1.3238525390625,37.7545166015625,69.2193603515625
1759066877.9244127,-0.615234375,0.0166015625,0.78662109375,-0.30517578125,-0.6103515625,-0.3662109375,1.318359375,37.7490234375,69.2083740234375
1759066877.9352448,-0.615234375,0.0166015625,0.78662109375,-0.30517578125,-0.6103515625,-0.3662109375,1.3128662109375,37.7435302734375,69.1973876953125
1759066877.9442494,-0.61181640625,0.01708984375,0.791015625,-0.79345703125,-0.67138671875,-0.30517578125,1.307373046875,37.7435302734375,69.19189453125
1759066877.954308,-0.61181640625,0.01708984375,0.791015625,-0.79345703125,-0.67138671875,-0.30517578125,1.29638671875,37.738037109375,69.180908203125
1759066877.9645166,-0.6083984375,0.013671875,0.7919921875,-1.03759765625,-0.8544921875,-0.30517578125,1.285400390625,37.7325439453125,69.1754150390625
1759066877.9743047,-0.6083984375,0.013671875,0.7919921875,-1.03759765625,-0.8544921875,-0.30517578125,1.2689208984375,37.7215576171875,69.1644287109375
1759066877.9845376,-0.6083984375,0.0087890625,0.79248046875,-1.15966796875,-0.9765625,-0.244140625,1.2579345703125,37.716064453125,69.158935546875
1759066877.9947312,-0.6083984375,0.0087890625,0.79248046875,-1.15966796875,-0.9765625,-0.244140625,1.241455078125,37.705078125,69.14794921875
1759066878.004304,-0.61181640625,0.0078125,0.7900390625,-1.28173828125,-1.03759765625,-0.30517578125,1.2249755859375,37.6995849609375,69.1424560546875
1759066878.014812,-0.61181640625,0.0078125,0.7900390625,-1.28173828125,-1.03759765625,-0.30517578125,1.20849609375,37.6885986328125,69.1314697265625
1759066878.0245886,-0.61572265625,0.00390625,0.79345703125,-0.9765625,-1.03759765625,-0.244140625,1.197509765625,37.6776123046875,69.1259765625
1759066878.0360544,-0.61572265625,0.00390625,0.79345703125,-0.9765625,-1.03759765625,-0.244140625,1.1810302734375,37.672119140625,69.1204833984375
1759066878.044354,-0.6142578125,0.0,0.79052734375,-0.244140625,-0.9765625,-0.30517578125,1.1700439453125,37.6611328125,69.1094970703125
1759066878.054901,-0.6142578125,0.0,0.79052734375,-0.244140625,-0.9765625,-0.30517578125,1.16455078125,37.6556396484375,69.10400390625
1759066878.0648026,-0.61376953125,0.001953125,0.78857421875,1.40380859375,-0.9765625,-0.6103515625,1.16455078125,37.6446533203125,69.093017578125
1759066878.0747344,-0.61376953125,0.001953125,0.78857421875,1.40380859375,-0.9765625,-0.6103515625,1.1700439453125,37.63916015625,69.08203125
1759066878.084864,-0.6162109375,0.0087890625,0.78955078125,3.0517578125,-0.9765625,-0.6103515625,1.1865234375,37.628173828125,69.071044921875
1759066878.1010945,-0.6162109375,0.0087890625,0.78955078125,3.0517578125,-0.9765625,-0.6103515625,1.20849609375,37.6226806640625,69.0545654296875
1759066878.1084082,-0.6162109375,0.0107421875,0.7890625,2.9296875,-0.9765625,-0.79345703125,1.2249755859375,37.6116943359375,69.0435791015625
1759066878.1151826,-0.6162109375,0.0107421875,0.7890625,2.9296875,-0.9765625,-0.79345703125,1.2469482421875,37.606201171875,69.027099609375
1759066878.1307197,-0.623046875,0.02294921875,0.7861328125,2.25830078125,-0.91552734375,-0.67138671875,1.263427734375,37.59521484375,69.01611328125
1759066878.1389232,-0.623046875,0.02294921875,0.7861328125,2.25830078125,-0.91552734375,-0.67138671875,1.2799072265625,37.5897216796875,68.9996337890625
1759066878.1452096,-0.625,0.03662109375,0.77685546875,2.44140625,-0.91552734375,-0.6103515625,1.29638671875,37.584228515625,68.9886474609375
1759066878.1545427,-0.625,0.03662109375,0.77685546875,2.44140625,-0.91552734375,-0.6103515625,1.3128662109375,37.5787353515625,68.97216796875
1759066878.1688848,-0.6279296875,0.0380859375,0.7744140625,0.67138671875,-0.91552734375,-0.42724609375,1.3238525390625,37.5732421875,68.961181640625
1759066878.1756444,-0.6279296875,0.0380859375,0.7744140625,0.67138671875,-0.91552734375,-0.42724609375,1.3238525390625,37.5677490234375,68.9556884765625
1759066878.184739,-0.6201171875,0.0205078125,0.77783203125,-1.52587890625,-1.0986328125,-0.3662109375,1.318359375,37.562255859375,68.9447021484375
1759066878.2011476,-0.6201171875,0.0205078125,0.77783203125,-1.52587890625,-1.0986328125,-0.3662109375,1.3018798828125,37.5567626953125,68.9337158203125
1759066878.2083895,-0.6005859375,0.0,0.798828125,-2.50244140625,-1.3427734375,-0.48828125,1.2799072265625,37.5457763671875,68.9227294921875
1759066878.2151275,-0.6005859375,0.0,0.798828125,-2.50244140625,-1.3427734375,-0.48828125,1.25244140625,37.540283203125,68.9117431640625
1759066878.2310205,-0.58447265625,0.00146484375,0.81982421875,-4.21142578125,-1.64794921875,-0.30517578125,1.2139892578125,37.5238037109375,68.9007568359375
1759066878.238919,-0.58447265625,0.00146484375,0.81982421875,-4.21142578125,-1.64794921875,-0.30517578125,1.1700439453125,37.5128173828125,68.895263671875
1759066878.2452068,-0.59375,0.01611328125,0.8056640625,-2.74658203125,-1.5869140625,-0.79345703125,1.1260986328125,37.496337890625,68.88427734375
1759066878.2549183,-0.59375,0.01611328125,0.8056640625,-2.74658203125,-1.5869140625,-0.79345703125,1.0931396484375,37.4798583984375,68.873291015625
1759066878.2690158,-0.6123046875,0.01416015625,0.7939453125,0.79345703125,-1.15966796875,-1.0986328125,1.0931396484375,37.4688720703125,68.8568115234375
1759066878.2752395,-0.6123046875,0.01416015625,0.7939453125,0.79345703125,-1.15966796875,-1.0986328125,1.0931396484375,37.4578857421875,68.84033203125
1759066878.2845933,-0.62939453125,0.01708984375,0.79345703125,1.3427734375,-0.54931640625,-1.15966796875,1.0931396484375,37.452392578125,68.818359375
1759066878.3015943,-0.62939453125,0.01708984375,0.79345703125,1.3427734375,-0.54931640625,-1.15966796875,1.0986328125,37.4468994140625,68.8018798828125
1759066878.307798,-0.6337890625,0.02294921875,0.7783203125,1.15966796875,-0.06103515625,-1.0986328125,1.1041259765625,37.4468994140625,68.785400390625
1759066878.314868,-0.6337890625,0.02294921875,0.7783203125,1.15966796875,-0.06103515625,-1.0986328125,1.1041259765625,37.452392578125,68.7689208984375
1759066878.3250203,-0.63525390625,0.02587890625,0.77392578125,1.15966796875,0.06103515625,-0.8544921875,1.1151123046875,37.4578857421875,68.75244140625
1759066878.3351843,-0.63525390625,0.02587890625,0.77392578125,1.15966796875,0.06103515625,-0.8544921875,1.12060546875,37.46337890625,68.741455078125
1759066878.344723,-0.63720703125,0.02978515625,0.7744140625,0.6103515625,0.18310546875,-0.3662109375,1.1260986328125,37.4688720703125,68.73046875
1759066878.3547108,-0.63720703125,0.02978515625,0.7744140625,0.6103515625,0.18310546875,-0.3662109375,1.1260986328125,37.474365234375,68.719482421875
1759066878.3651392,-0.62890625,0.01953125,0.77197265625,0.30517578125,0.18310546875,-0.1220703125,1.131591796875,37.4853515625,68.7139892578125
1759066878.3748639,-0.62890625,0.01953125,0.77197265625,0.30517578125,0.18310546875,-0.1220703125,1.1370849609375,37.4908447265625,68.70849609375
1759066878.3851051,-0.62158203125,0.01611328125,0.78515625,0.30517578125,0.06103515625,0.06103515625,1.142578125,37.496337890625,68.70849609375
1759066878.3951097,-0.62158203125,0.01611328125,0.78515625,0.30517578125,0.06103515625,0.06103515625,1.1480712890625,37.50732421875,68.7030029296875
1759066878.404826,-0.61767578125,0.01806640625,0.78662109375,0.244140625,0.0,0.30517578125,1.153564453125,37.5128173828125,68.7030029296875
1759066878.4148006,-0.61767578125,0.01806640625,0.78662109375,0.244140625,0.0,0.30517578125,1.1590576171875,37.518310546875,68.697509765625
1759066878.4264143,-0.61865234375,0.021484375,0.78564453125,-0.30517578125,0.0,0.42724609375,1.16455078125,37.5238037109375,68.697509765625
1759066878.4348881,-0.61865234375,0.021484375,0.78564453125,-0.30517578125,0.0,0.42724609375,1.16455078125,37.529296875,68.7030029296875
1759066878.4451609,-0.61962890625,0.01708984375,0.7841796875,-1.0986328125,0.0,0.3662109375,1.1590576171875,37.529296875,68.697509765625
1759066878.4548457,-0.61962890625,0.01708984375,0.7841796875,-1.0986328125,0.0,0.3662109375,1.1480712890625,37.5347900390625,68.697509765625
1759066878.4659486,-0.61767578125,0.01220703125,0.78662109375,-1.220703125,0.0,0.48828125,1.142578125,37.540283203125,68.7030029296875
1759066878.4748738,-0.61767578125,0.01220703125,0.78662109375,-1.220703125,0.0,0.48828125,1.1370849609375,37.5457763671875,68.7030029296875
1759066878.4852042,-0.61865234375,0.0107421875,0.7890625,-0.732421875,0.0,0.3662109375,1.131591796875,37.55126953125,68.7030029296875
1759066878.4949374,-0.61865234375,0.0107421875,0.7890625,-0.732421875,0.0,0.3662109375,1.1260986328125,37.5567626953125,68.7030029296875
1759066878.5053484,-0.61865234375,0.0068359375,0.78955078125,-0.244140625,0.0,0.30517578125,1.1260986328125,37.562255859375,68.7030029296875
1759066878.5150795,-0.61865234375,0.0068359375,0.78955078125,-0.244140625,0.0,0.30517578125,1.1260986328125,37.562255859375,68.7030029296875
1759066878.5259113,-0.6162109375,0.0078125,0.78857421875,0.18310546875,0.0,0.244140625,1.131591796875,37.5677490234375,68.697509765625
1759066878.5349197,-0.6162109375,0.0078125,0.78857421875,0.18310546875,0.0,0.244140625,1.131591796875,37.5732421875,68.697509765625
1759066878.5454252,-0.615234375,0.01025390625,0.78955078125,0.06103515625,0.1220703125,0.1220703125,1.1370849609375,37.5787353515625,68.697509765625
1759066878.5548844,-0.615234375,0.01025390625,0.78955078125,0.06103515625,0.1220703125,0.1220703125,1.1370849609375,37.5787353515625,68.6920166015625
1759066878.565927,-0.61376953125,0.01025390625,0.79150390625,-0.3662109375,0.1220703125,0.06103515625,1.131591796875,37.584228515625,68.6920166015625
1759066878.5749276,-0.61376953125,0.01025390625,0.79150390625,-0.3662109375,0.1220703125,0.06103515625,1.1260986328125,37.5897216796875,68.6865234375
1759066878.5855207,-0.60986328125,0.00830078125,0.7939453125,-0.3662109375,0.18310546875,0.1220703125,1.12060546875,37.59521484375,68.6865234375
1759066878.5951145,-0.60986328125,0.00830078125,0.7939453125,-0.3662109375,0.18310546875,0.1220703125,1.1151123046875,37.6007080078125,68.6865234375
1759066878.6049852,-0.607421875,0.00732421875,0.79443359375,-0.3662109375,0.244140625,0.1220703125,1.1151123046875,37.6007080078125,68.6810302734375
1759066878.6152139,-0.607421875,0.00732421875,0.79443359375,-0.3662109375,0.244140625,0.1220703125,1.109619140625,37.606201171875,68.6810302734375
1759066878.6252332,-0.60595703125,0.00341796875,0.7958984375,-0.54931640625,0.244140625,0.1220703125,1.1041259765625,37.6116943359375,68.6810302734375
1759066878.6360505,-0.60595703125,0.00341796875,0.7958984375,-0.54931640625,0.244140625,0.1220703125,1.0931396484375,37.6116943359375,68.675537109375
1759066878.6450014,-0.60400390625,0.0,0.796875,-0.6103515625,0.244140625,0.06103515625,1.087646484375,37.6171875,68.675537109375
1759066878.6550603,-0.60400390625,0.0,0.796875,-0.6103515625,0.244140625,0.06103515625,1.07666015625,37.6226806640625,68.6700439453125
1759066878.665518,-0.6025390625,-0.001953125,0.79736328125,-0.244140625,0.244140625,0.0,1.0711669921875,37.6226806640625,68.6700439453125
1759066878.6751273,-0.6025390625,-0.001953125,0.79736328125,-0.244140625,0.244140625,0.0,1.065673828125,37.6226806640625,68.66455078125
1759066878.6854086,-0.6025390625,-0.00146484375,0.79931640625,0.244140625,0.244140625,-0.18310546875,1.0601806640625,37.628173828125,68.6590576171875
1759066878.695555,-0.6025390625,-0.00146484375,0.79931640625,0.244140625,0.244140625,-0.18310546875,1.0601806640625,37.628173828125,68.653564453125
1759066878.705479,-0.60595703125,0.00146484375,0.79638671875,0.48828125,0.18310546875,-0.3662109375,1.0546875,37.628173828125,68.6480712890625
1759066878.715113,-0.60595703125,0.00146484375,0.79638671875,0.48828125,0.18310546875,-0.3662109375,1.0546875,37.628173828125,68.642578125
1759066878.7253263,-0.6123046875,0.00390625,0.7939453125,0.732421875,0.244140625,-0.42724609375,1.0546875,37.628173828125,68.631591796875
1759066878.7354183,-0.6123046875,0.00390625,0.7939453125,0.732421875,0.244140625,-0.42724609375,1.0546875,37.6336669921875,68.6260986328125
1759066878.7451856,-0.61328125,0.00439453125,0.7919921875,0.8544921875,0.3662109375,-0.42724609375,1.0546875,37.6336669921875,68.6151123046875
1759066878.7551355,-0.61328125,0.00439453125,0.7919921875,0.8544921875,0.3662109375,-0.42724609375,1.0546875,37.63916015625,68.609619140625
1759066878.7655435,-0.611328125,0.005859375,0.78955078125,1.0986328125,0.3662109375,-0.48828125,1.0546875,37.63916015625,68.6041259765625
1759066878.775203,-0.611328125,0.005859375,0.78955078125,1.0986328125,0.3662109375,-0.48828125,1.0601806640625,37.6446533203125,68.5931396484375
1759066878.7851477,-0.61083984375,0.00732421875,0.79296875,1.3427734375,0.3662109375,-0.54931640625,1.065673828125,37.6446533203125,68.5821533203125
1759066878.7953613,-0.61083984375,0.00732421875,0.79296875,1.3427734375,0.3662109375,-0.54931640625,1.0711669921875,37.650146484375,68.57666015625
1759066878.8051553,-0.6103515625,0.0107421875,0.79248046875,1.89208984375,0.30517578125,-0.6103515625,1.0821533203125,37.6556396484375,68.565673828125
1759066878.8154364,-0.6103515625,0.0107421875,0.79248046875,1.89208984375,0.30517578125,-0.6103515625,1.087646484375,37.6556396484375,68.5546875
1759066878.8253257,-0.6103515625,0.01416015625,0.78955078125,2.0751953125,0.244140625,-0.67138671875,1.1041259765625,37.6556396484375,68.543701171875
1759066878.835456,-0.6103515625,0.01416015625,0.78955078125,2.0751953125,0.244140625,-0.67138671875,1.1151123046875,37.6611328125,68.53271484375
1759066878.8452024,-0.60986328125,0.01904296875,0.79345703125,2.01416015625,0.30517578125,-0.6103515625,1.1260986328125,37.6611328125,68.521728515625
1759066878.8552182,-0.60986328125,0.01904296875,0.79345703125,2.01416015625,0.30517578125,-0.6103515625,1.1370849609375,37.6666259765625,68.5107421875
1759066878.8656993,-0.60498046875,0.02197265625,0.79345703125,2.01416015625,0.244140625,-0.48828125,1.153564453125,37.6666259765625,68.5052490234375
1759066878.875316,-0.60498046875,0.02197265625,0.79345703125,2.01416015625,0.244140625,-0.48828125,1.1700439453125,37.6666259765625,68.4942626953125
1759066878.8852694,-0.6025390625,0.0234375,0.796875,1.953125,0.1220703125,-0.3662109375,1.1810302734375,37.6666259765625,68.48876953125
1759066878.8957732,-0.6025390625,0.0234375,0.796875,1.953125,0.1220703125,-0.3662109375,1.197509765625,37.6666259765625,68.4832763671875
1759066878.9054046,-0.60498046875,0.02001953125,0.798828125,1.89208984375,0.06103515625,-0.18310546875,1.2139892578125,37.6666259765625,68.477783203125
1759066878.9159741,-0.60498046875,0.02001953125,0.798828125,1.89208984375,0.06103515625,-0.18310546875,1.23046875,37.6666259765625,68.4722900390625
1759066878.931895,-0.60693359375,0.01904296875,0.78955078125,1.46484375,0.0,-0.244140625,1.241455078125,37.6666259765625,68.466796875
1759066878.9385405,-0.60693359375,0.01904296875,0.78955078125,1.46484375,0.0,-0.244140625,1.2579345703125,37.6666259765625,68.4613037109375
1759066878.9453468,-0.609375,0.0185546875,0.79345703125,0.91552734375,-0.06103515625,-0.3662109375,1.263427734375,37.6611328125,68.455810546875
1759066878.955343,-0.609375,0.0185546875,0.79345703125,0.91552734375,-0.06103515625,-0.3662109375,1.2689208984375,37.6611328125,68.4503173828125
1759066878.9691927,-0.6103515625,0.02294921875,0.79443359375,0.54931640625,-0.18310546875,-0.30517578125,1.2689208984375,37.6556396484375,68.44482421875
1759066878.9755468,-0.6103515625,0.02294921875,0.79443359375,0.54931640625,-0.18310546875,-0.30517578125,1.2744140625,37.6556396484375,68.4393310546875
1759066878.9855528,-0.61328125,0.02490234375,0.787109375,1.3427734375,-0.244140625,-0.48828125,1.2799072265625,37.650146484375,68.433837890625
1759066879.0017614,-0.61328125,0.02490234375,0.787109375,1.3427734375,-0.244140625,-0.48828125,1.2908935546875,37.650146484375,68.4283447265625
1759066879.00795,-0.61328125,0.0263671875,0.78759765625,1.220703125,-0.48828125,-0.30517578125,1.3018798828125,37.6446533203125,68.4228515625
1759066879.0157511,-0.61328125,0.0263671875,0.78759765625,1.220703125,-0.48828125,-0.30517578125,1.3128662109375,37.63916015625,68.4173583984375
1759066879.0318723,-0.61474609375,0.02734375,0.78515625,0.54931640625,-0.6103515625,-0.42724609375,1.318359375,37.6336669921875,68.4063720703125
1759066879.0390701,-0.61474609375,0.02734375,0.78515625,0.54931640625,-0.6103515625,-0.42724609375,1.318359375,37.628173828125,68.40087890625
1759066879.0461648,-0.61279296875,0.02099609375,0.78759765625,0.1220703125,-0.54931640625,-0.3662109375,1.318359375,37.6226806640625,68.3953857421875
1759066879.0555785,-0.61279296875,0.02099609375,0.78759765625,0.1220703125,-0.54931640625,-0.3662109375,1.318359375,37.6171875,68.3843994140625
1759066879.0660262,-0.61376953125,0.017578125,0.794921875,0.6103515625,-0.54931640625,-0.42724609375,1.3238525390625,37.6116943359375,68.37890625
1759066879.0756,-0.61376953125,0.017578125,0.794921875,0.6103515625,-0.54931640625,-0.42724609375,1.329345703125,37.606201171875,68.3734130859375
1759066879.0856063,-0.615234375,0.01513671875,0.7900390625,1.46484375,-0.3662109375,-0.30517578125,1.34033203125,37.606201171875,68.367919921875
1759066879.096623,-0.615234375,0.01513671875,0.7900390625,1.46484375,-0.3662109375,-0.30517578125,1.351318359375,37.6007080078125,68.3624267578125
1759066879.1054718,-0.61962890625,0.0146484375,0.78955078125,2.197265625,-0.06103515625,-0.244140625,1.373291015625,37.6007080078125,68.35693359375
1759066879.115562,-0.61962890625,0.0146484375,0.78955078125,2.197265625,-0.06103515625,-0.244140625,1.395263671875,37.6007080078125,68.3514404296875
1759066879.131806,-0.61962890625,0.0146484375,0.78955078125,2.74658203125,0.30517578125,-0.18310546875,1.417236328125,37.606201171875,68.345947265625
1759066879.139596,-0.62255859375,0.01318359375,0.7890625,2.74658203125,0.30517578125,-0.18310546875,1.4447021484375,37.6116943359375,68.3404541015625
1759066879.146603,-0.62353515625,0.0185546875,0.78955078125,1.46484375,0.67138671875,0.06103515625,1.461181640625,37.6226806640625,68.3404541015625
1759066879.155812,-0.62353515625,0.0185546875,0.78955078125,1.46484375,0.67138671875,0.06103515625,1.47216796875,37.628173828125,68.3404541015625
1759066879.1661606,-0.6220703125,0.015625,0.7861328125,1.28173828125,1.0986328125,0.1220703125,1.4886474609375,37.6446533203125,68.3404541015625
1759066879.1756966,-0.6220703125,0.015625,0.7861328125,1.28173828125,1.0986328125,0.1220703125,1.4996337890625,37.6556396484375,68.3404541015625
1759066879.1856754,-0.6279296875,0.0166015625,0.7861328125,2.25830078125,1.64794921875,0.244140625,1.5216064453125,37.672119140625,68.3404541015625
1759066879.1968243,-0.6279296875,0.0166015625,0.7861328125,2.25830078125,1.64794921875,0.244140625,1.5435791015625,37.694091796875,68.3404541015625
1759066879.2057953,-0.6279296875,0.02001953125,0.7841796875,2.38037109375,2.197265625,0.3662109375,1.571044921875,37.716064453125,68.345947265625
1759066879.2157521,-0.6279296875,0.02001953125,0.7841796875,2.38037109375,2.197265625,0.3662109375,1.593017578125,37.7435302734375,68.345947265625
1759066879.2260737,-0.6240234375,0.02197265625,0.78662109375,2.25830078125,2.5634765625,0.3662109375,1.6204833984375,37.77099609375,68.3514404296875
1759066879.2357504,-0.6240234375,0.02197265625,0.78662109375,2.25830078125,2.5634765625,0.3662109375,1.6424560546875,37.7984619140625,68.3514404296875
1759066879.2464015,-0.6220703125,0.021484375,0.78857421875,2.44140625,2.9296875,0.6103515625,1.669921875,37.8314208984375,68.35693359375
1759066879.2557092,-0.6220703125,0.021484375,0.78857421875,2.44140625,2.9296875,0.6103515625,1.6973876953125,37.8643798828125,68.3624267578125
1759066879.2663944,-0.625,0.0146484375,0.7822265625,2.50244140625,3.0517578125,0.67138671875,1.7303466796875,37.8973388671875,68.3734130859375
1759066879.275771,-0.625,0.0146484375,0.7822265625,2.50244140625,3.0517578125,0.67138671875,1.7578125,37.9302978515625,68.37890625
1759066879.289018,-0.6201171875,0.01611328125,0.7802734375,2.86865234375,2.99072265625,0.6103515625,1.790771484375,37.9632568359375,68.3843994140625
1759066879.2998524,-0.6201171875,0.01611328125,0.7802734375,2.86865234375,2.99072265625,0.6103515625,1.8182373046875,37.99072265625,68.3953857421875
1759066879.3081794,-0.6123046875,0.02099609375,0.78564453125,3.41796875,2.685546875,0.54931640625,1.856689453125,38.023681640625,68.40087890625
1759066879.3159919,-0.6123046875,0.02099609375,0.78564453125,3.41796875,2.685546875,0.54931640625,1.8896484375,38.0511474609375,68.4063720703125
1759066879.3266776,-0.6083984375,0.02490234375,0.79150390625,3.11279296875,2.25830078125,0.54931640625,1.922607421875,38.0731201171875,68.411865234375
1759066879.3359282,-0.60693359375,0.0224609375,0.78857421875,1.953125,1.77001953125,0.6103515625,1.9500732421875,38.0950927734375,68.4173583984375
1759066879.3469439,-0.60693359375,0.0224609375,0.78857421875,1.953125,1.77001953125,0.6103515625,1.9720458984375,38.111572265625,68.4228515625
1759066879.3558288,-0.60546875,0.0244140625,0.7890625,0.67138671875,1.28173828125,0.54931640625,1.988525390625,38.12255859375,68.433837890625
1759066879.3670268,-0.60546875,0.0244140625,0.7890625,0.67138671875,1.28173828125,0.54931640625,1.9940185546875,38.1390380859375,68.4393310546875
1759066879.3758848,-0.60205078125,0.0244140625,0.7939453125,0.1220703125,0.8544921875,0.48828125,1.99951171875,38.14453125,68.44482421875
1759066879.3863463,-0.60205078125,0.0244140625,0.7939453125,0.1220703125,0.8544921875,0.48828125,2.0050048828125,38.1500244140625,68.4503173828125
1759066879.396876,-0.5986328125,0.02783203125,0.79833984375,0.79345703125,0.3662109375,0.3662109375,2.010498046875,38.155517578125,68.455810546875
1759066879.406338,-0.5986328125,0.02783203125,0.79833984375,0.79345703125,0.3662109375,0.3662109375,2.0159912109375,38.155517578125,68.4613037109375
1759066879.4160058,-0.599609375,0.0302734375,0.79345703125,1.15966796875,0.0,0.30517578125,2.0269775390625,38.155517578125,68.4613037109375
1759066879.4268584,-0.599609375,0.0302734375,0.79345703125,1.15966796875,0.0,0.30517578125,2.0379638671875,38.1500244140625,68.466796875
1759066879.435959,-0.60107421875,0.0302734375,0.79541015625,0.91552734375,-0.3662109375,0.18310546875,2.0489501953125,38.14453125,68.466796875
1759066879.4469116,-0.60107421875,0.0302734375,0.79541015625,0.91552734375,-0.3662109375,0.18310546875,2.0599365234375,38.1390380859375,68.4722900390625
1759066879.4559326,-0.6005859375,0.02880859375,0.7978515625,0.6103515625,-0.6103515625,0.244140625,2.0654296875,38.1280517578125,68.4722900390625
1759066879.4675047,-0.6005859375,0.02880859375,0.7978515625,0.6103515625,-0.6103515625,0.244140625,2.076416015625,38.1170654296875,68.477783203125
1759066879.4759839,-0.60400390625,0.02880859375,0.79345703125,1.15966796875,-0.8544921875,0.18310546875,2.0819091796875,38.1060791015625,68.477783203125
1759066879.4861267,-0.60400390625,0.02880859375,0.79345703125,1.15966796875,-0.8544921875,0.18310546875,2.0928955078125,38.0950927734375,68.4832763671875
1759066879.4972851,-0.6142578125,0.0283203125,0.7890625,1.46484375,-0.91552734375,0.0,2.109375,38.07861328125,68.4832763671875
1759066879.5060303,-0.6142578125,0.0283203125,0.7890625,1.46484375,-0.91552734375,0.0,2.120361328125,38.067626953125,68.4832763671875
1759066879.5159822,-0.6171875,0.0263671875,0.7880859375,1.46484375,-0.67138671875,-0.06103515625,2.13134765625,38.056640625,68.4832763671875
1759066879.526292,-0.6171875,0.0263671875,0.7880859375,1.46484375,-0.67138671875,-0.06103515625,2.1478271484375,38.045654296875,68.4832763671875
1759066879.5360618,-0.61474609375,0.02783203125,0.7939453125,1.89208984375,-0.3662109375,-0.18310546875,2.1588134765625,38.03466796875,68.477783203125
1759066879.5462058,-0.61474609375,0.02783203125,0.7939453125,1.89208984375,-0.3662109375,-0.18310546875,2.17529296875,38.0291748046875,68.477783203125
1759066879.5559978,-0.6171875,0.02978515625,0.7861328125,1.953125,-0.244140625,-0.06103515625,2.1917724609375,38.023681640625,68.477783203125
1759066879.5665846,-0.6171875,0.02978515625,0.7861328125,1.953125,-0.244140625,-0.06103515625,2.208251953125,38.0181884765625,68.4722900390625
1759066879.5760067,-0.62109375,0.03076171875,0.7861328125,2.44140625,-0.1220703125,0.0,2.230224609375,38.0181884765625,68.4722900390625
1759066879.5885127,-0.62109375,0.03076171875,0.7861328125,2.44140625,-0.1220703125,0.0,2.252197265625,38.0126953125,68.4722900390625
1759066879.6010883,-0.62109375,0.03076171875,0.7861328125,2.50244140625,0.0,0.1220703125,2.2796630859375,38.0126953125,68.4722900390625
1759066879.607837,-0.62158203125,0.0302734375,0.783203125,2.50244140625,0.0,0.1220703125,2.3016357421875,38.0126953125,68.477783203125
1759066879.616074,-0.6220703125,0.0302734375,0.78466796875,2.25830078125,0.06103515625,0.244140625,2.3236083984375,38.0126953125,68.477783203125
1759066879.6260676,-0.6220703125,0.0302734375,0.78466796875,2.25830078125,0.06103515625,0.244140625,2.35107421875,38.0126953125,68.477783203125
1759066879.636635,-0.6220703125,0.0302734375,0.78466796875,2.01416015625,0.06103515625,0.3662109375,2.373046875,38.0126953125,68.4832763671875
1759066879.6462052,-0.62744140625,0.02978515625,0.78125,2.01416015625,0.06103515625,0.3662109375,2.39501953125,38.0126953125,68.4832763671875
1759066879.656386,-0.62646484375,0.02734375,0.77783203125,1.708984375,0.06103515625,0.42724609375,2.4114990234375,38.0126953125,68.48876953125
1759066879.6669846,-0.62646484375,0.02734375,0.77783203125,1.708984375,0.06103515625,0.42724609375,2.427978515625,38.0181884765625,68.4942626953125
1759066879.6762247,-0.62548828125,0.02685546875,0.779296875,1.708984375,0.0,0.3662109375,2.449951171875,38.0181884765625,68.499755859375
1759066879.6862457,-0.62548828125,0.02685546875,0.779296875,1.708984375,0.0,0.3662109375,2.4664306640625,38.0181884765625,68.499755859375
1759066879.6968486,-0.6220703125,0.029296875,0.7802734375,1.8310546875,-0.1220703125,0.244140625,2.48291015625,38.0181884765625,68.5052490234375
1759066879.706188,-0.6220703125,0.029296875,0.7802734375,1.8310546875,-0.1220703125,0.244140625,2.4993896484375,38.023681640625,68.5052490234375
1759066879.7171366,-0.62060546875,0.03125,0.783203125,2.197265625,-0.30517578125,0.244140625,2.5213623046875,38.0181884765625,68.5052490234375
1759066879.726191,-0.62060546875,0.03125,0.783203125,2.197265625,-0.30517578125,0.244140625,2.5433349609375,38.0181884765625,68.5052490234375
1759066879.7376347,-0.6171875,0.033203125,0.7861328125,1.77001953125,-0.48828125,0.1220703125,2.559814453125,38.0181884765625,68.5107421875
1759066879.7462463,-0.6171875,0.033203125,0.7861328125,1.77001953125,-0.48828125,0.1220703125,2.5762939453125,38.0126953125,68.5052490234375
1759066879.7566104,-0.6171875,0.037109375,0.7841796875,1.3427734375,-0.54931640625,0.0,2.5927734375,38.0126953125,68.5052490234375
1759066879.767866,-0.6171875,0.037109375,0.7841796875,1.3427734375,-0.54931640625,0.0,2.603759765625,38.0072021484375,68.5052490234375
1759066879.7768357,-0.6162109375,0.04150390625,0.78515625,1.3427734375,-0.6103515625,-0.06103515625,2.61474609375,38.001708984375,68.5052490234375
1759066879.7863376,-0.6162109375,0.04150390625,0.78515625,1.3427734375,-0.6103515625,-0.06103515625,2.625732421875,38.001708984375,68.5052490234375
1759066879.7976644,-0.61767578125,0.04345703125,0.79248046875,1.0986328125,-0.3662109375,0.18310546875,2.63671875,37.9962158203125,68.5052490234375
1759066879.8063374,-0.61767578125,0.04345703125,0.79248046875,1.0986328125,-0.3662109375,0.18310546875,2.647705078125,37.9962158203125,68.5052490234375
1759066879.8169062,-0.6181640625,0.03955078125,0.78662109375,1.5869140625,-0.1220703125,0.42724609375,2.6641845703125,37.99072265625,68.5107421875
1759066879.8263428,-0.6181640625,0.03955078125,0.78662109375,1.5869140625,-0.1220703125,0.42724609375,2.6806640625,37.99072265625,68.5162353515625
1759066879.8377407,-0.6220703125,0.0322265625,0.779296875,2.3193359375,-0.06103515625,0.3662109375,2.70263671875,37.99072265625,68.5162353515625
1759066879.8464909,-0.6220703125,0.0322265625,0.779296875,2.3193359375,-0.06103515625,0.3662109375,2.724609375,37.99072265625,68.521728515625
1759066879.856541,-0.6220703125,0.02685546875,0.78271484375,3.173828125,0.06103515625,0.18310546875,2.757568359375,37.9962158203125,68.5272216796875
1759066879.8673108,-0.6220703125,0.02685546875,0.78271484375,3.173828125,0.06103515625,0.18310546875,2.7850341796875,37.9962158203125,68.5272216796875
1759066879.876346,-0.6171875,0.02783203125,0.7890625,4.39453125,0.18310546875,-0.1220703125,2.823486328125,38.001708984375,68.5272216796875
1759066879.886553,-0.6171875,0.02783203125,0.7890625,4.39453125,0.18310546875,-0.1220703125,2.8619384765625,38.001708984375,68.5272216796875
1759066879.896552,-0.61328125,0.02783203125,0.7890625,5.43212890625,0.18310546875,-0.3662109375,2.9058837890625,38.0072021484375,68.521728515625
1759066879.906427,-0.61328125,0.02783203125,0.7890625,5.43212890625,0.18310546875,-0.3662109375,2.955322265625,38.0072021484375,68.5162353515625
1759066879.9164321,-0.61376953125,0.03173828125,0.78369140625,5.7373046875,0.1220703125,-0.6103515625,3.0047607421875,38.0126953125,68.5107421875
1759066879.9264457,-0.61376953125,0.03173828125,0.78369140625,5.7373046875,0.1220703125,-0.6103515625,3.05419921875,38.0126953125,68.499755859375
1759066879.9370506,-0.6103515625,0.03466796875,0.78857421875,6.04248046875,0.18310546875,-0.732421875,3.09814453125,38.0181884765625,68.4942626953125
1759066879.9465344,-0.6103515625,0.03466796875,0.78857421875,6.04248046875,0.18310546875,-0.732421875,3.153076171875,38.0181884765625,68.4832763671875
1759066879.9567974,-0.6025390625,0.037109375,0.79638671875,6.2255859375,0.18310546875,-0.8544921875,3.2025146484375,38.023681640625,68.4722900390625
1759066879.9673777,-0.6025390625,0.037109375,0.79638671875,6.2255859375,0.18310546875,-0.8544921875,3.251953125,38.023681640625,68.4613037109375
1759066879.976462,-0.59765625,0.0419921875,0.794921875,6.7138671875,0.1220703125,-0.9765625,3.3013916015625,38.023681640625,68.4503173828125
1759066879.9867835,-0.59765625,0.0419921875,0.794921875,6.7138671875,0.1220703125,-0.9765625,3.3563232421875,38.023681640625,68.4393310546875
1759066879.9967556,-0.60107421875,0.0498046875,0.80029296875,6.8359375,0.0,-1.28173828125,3.4112548828125,38.023681640625,68.4228515625
1759066880.0066261,-0.60107421875,0.0498046875,0.80029296875,6.8359375,0.0,-1.28173828125,3.4661865234375,38.023681640625,68.411865234375
1759066880.0166833,-0.6015625,0.05859375,0.794921875,6.04248046875,0.0,-1.220703125,3.515625,38.0181884765625,68.3953857421875
1759066880.026492,-0.6015625,0.05859375,0.794921875,6.04248046875,0.0,-1.220703125,3.5650634765625,38.0181884765625,68.37890625
1759066880.0371003,-0.59912109375,0.064453125,0.796875,5.859375,0.06103515625,-1.15966796875,3.6090087890625,38.0181884765625,68.3624267578125
1759066880.0466678,-0.59912109375,0.064453125,0.796875,5.859375,0.06103515625,-1.15966796875,3.658447265625,38.0126953125,68.3514404296875
1759066880.056605,-0.59912109375,0.06884765625,0.79931640625,5.37109375,0.06103515625,-0.9765625,3.702392578125,38.0126953125,68.3404541015625
1759066880.0675616,-0.59912109375,0.06884765625,0.79931640625,5.37109375,0.06103515625,-0.9765625,3.746337890625,38.0072021484375,68.3294677734375
1759066880.07659,-0.603515625,0.07275390625,0.7919921875,4.0283203125,0.0,-0.732421875,3.7847900390625,38.001708984375,68.3184814453125
1759066880.087403,-0.603515625,0.07275390625,0.7919921875,4.0283203125,0.0,-0.732421875,3.8232421875,38.001708984375,68.31298828125
1759066880.0968647,-0.60693359375,0.07373046875,0.794921875,2.5634765625,0.0,-0.42724609375,3.8507080078125,37.9962158203125,68.3074951171875
1759066880.1073813,-0.60693359375,0.07373046875,0.794921875,2.5634765625,0.0,-0.42724609375,3.8726806640625,37.99072265625,68.302001953125
1759066880.1167622,-0.61083984375,0.0693359375,0.79345703125,1.220703125,0.0,0.0,3.8946533203125,37.9852294921875,68.302001953125
1759066880.1271994,-0.61083984375,0.0693359375,0.79345703125,1.220703125,0.0,0.0,3.9056396484375,37.979736328125,68.302001953125
1759066880.1372914,-0.611328125,0.06640625,0.78759765625,0.91552734375,0.0,0.30517578125,3.922119140625,37.979736328125,68.3074951171875
1759066880.147506,-0.611328125,0.06640625,0.78759765625,0.91552734375,0.0,0.30517578125,3.93310546875,37.9742431640625,68.31298828125
1759066880.1572247,-0.61279296875,0.0625,0.7880859375,0.9765625,0.06103515625,0.48828125,3.9495849609375,37.96875,68.3184814453125
1759066880.1678813,-0.61279296875,0.0625,0.7880859375,0.9765625,0.06103515625,0.48828125,3.966064453125,37.96875,68.323974609375
1759066880.1766927,-0.6142578125,0.05810546875,0.78515625,0.79345703125,0.06103515625,0.6103515625,3.9825439453125,37.9632568359375,68.3349609375
1759066880.188571,-0.6142578125,0.05810546875,0.78515625,0.79345703125,0.06103515625,0.6103515625,3.9990234375,37.9632568359375,68.3404541015625
1759066880.1996021,-0.6201171875,0.0576171875,0.7880859375,0.42724609375,0.06103515625,0.67138671875,4.010009765625,37.957763671875,68.3514404296875
1759066880.2082927,-0.6201171875,0.0576171875,0.7880859375,0.42724609375,0.06103515625,0.67138671875,4.02099609375,37.957763671875,68.3624267578125
1759066880.216806,-0.6240234375,0.05224609375,0.7822265625,1.220703125,0.18310546875,0.42724609375,4.0374755859375,37.957763671875,68.367919921875
1759066880.227467,-0.6240234375,0.05224609375,0.7822265625,1.220703125,0.18310546875,0.42724609375,4.053955078125,37.957763671875,68.3734130859375
1759066880.2372162,-0.625,0.05419921875,0.77490234375,1.953125,0.244140625,0.30517578125,4.075927734375,37.957763671875,68.37890625
1759066880.2477033,-0.625,0.05419921875,0.77490234375,1.953125,0.244140625,0.30517578125,4.097900390625,37.957763671875,68.3843994140625
1759066880.257105,-0.623046875,0.05322265625,0.77978515625,2.8076171875,0.30517578125,0.1220703125,4.1253662109375,37.9632568359375,68.389892578125
1759066880.268358,-0.623046875,0.05322265625,0.77978515625,2.8076171875,0.30517578125,0.1220703125,4.15283203125,37.9632568359375,68.389892578125
1759066880.2767406,-0.625,0.05908203125,0.7822265625,3.47900390625,0.30517578125,0.06103515625,4.185791015625,37.96875,68.389892578125
1759066880.2868292,-0.625,0.05908203125,0.7822265625,3.47900390625,0.30517578125,0.06103515625,4.21875,37.9742431640625,68.3953857421875
1759066880.297396,-0.62646484375,0.0625,0.779296875,2.99072265625,0.3662109375,0.1220703125,4.251708984375,37.979736328125,68.3953857421875
1759066880.3074152,-0.62646484375,0.0625,0.779296875,2.99072265625,0.3662109375,0.1220703125,4.28466796875,37.9852294921875,68.3953857421875
1759066880.3171241,-0.62451171875,0.06396484375,0.77978515625,2.86865234375,0.42724609375,0.1220703125,4.3121337890625,37.99072265625,68.40087890625
1759066880.3269463,-0.62451171875,0.06396484375,0.77978515625,2.86865234375,0.42724609375,0.1220703125,4.3450927734375,37.9962158203125,68.40087890625
1759066880.3375063,-0.62255859375,0.0634765625,0.7822265625,2.9296875,0.48828125,0.1220703125,4.37255859375,38.001708984375,68.40087890625
1759066880.347053,-0.62255859375,0.0634765625,0.7822265625,2.9296875,0.48828125,0.1220703125,4.405517578125,38.0072021484375,68.40087890625
1759066880.3572636,-0.6220703125,0.06591796875,0.77587890625,2.62451171875,0.3662109375,0.06103515625,4.4329833984375,38.0126953125,68.4063720703125
1759066880.3676605,-0.6220703125,0.06591796875,0.77587890625,2.62451171875,0.3662109375,0.06103515625,4.46044921875,38.0181884765625,68.4063720703125
1759066880.3768723,-0.6240234375,0.06640625,0.7802734375,2.25830078125,0.244140625,0.1220703125,4.4879150390625,38.023681640625,68.4063720703125
1759066880.387149,-0.6240234375,0.06640625,0.7802734375,2.25830078125,0.244140625,0.1220703125,4.5098876953125,38.0291748046875,68.411865234375
1759066880.397138,-0.62158203125,0.0673828125,0.78173828125,2.197265625,0.18310546875,0.18310546875,4.5318603515625,38.03466796875,68.411865234375
1759066880.4074638,-0.62158203125,0.0673828125,0.78173828125,2.197265625,0.18310546875,0.18310546875,4.559326171875,38.0401611328125,68.4173583984375
1759066880.4169803,-0.61767578125,0.0654296875,0.78173828125,1.5869140625,0.1220703125,0.42724609375,4.5758056640625,38.0401611328125,68.4228515625
1759066880.4270961,-0.61767578125,0.0654296875,0.78173828125,1.5869140625,0.1220703125,0.42724609375,4.5977783203125,38.045654296875,68.4283447265625
1759066880.4375455,-0.62109375,0.06689453125,0.7822265625,2.3193359375,0.244140625,0.54931640625,4.625244140625,38.0511474609375,68.433837890625
1759066880.4471242,-0.62109375,0.06689453125,0.7822265625,2.3193359375,0.244140625,0.54931640625,4.6527099609375,38.0511474609375,68.4393310546875
1759066880.4577157,-0.609375,0.05810546875,0.7890625,2.01416015625,0.244140625,0.67138671875,4.6746826171875,38.056640625,68.4503173828125
1759066880.467711,-0.609375,0.05810546875,0.7890625,2.01416015625,0.244140625,0.67138671875,4.7021484375,38.056640625,68.4613037109375
1759066880.4770553,-0.6044921875,0.06103515625,0.79052734375,1.708984375,0.3662109375,0.732421875,4.72412109375,38.0621337890625,68.466796875
