timestamp,acc_x,acc_y,acc_z,gyro_x,gyro_y,gyro_z,angle_x,angle_y,angle_z
1758878057.0734065,0.0,0.0,0.0,0.0,0.0,0.0,4.1748046875,40.8966064453125,-65.7366943359375
1758878057.084084,-0.65673828125,0.0498046875,0.7568359375,-2.3193359375,-1.64794921875,0.9765625,4.1583251953125,40.880126953125,-65.7257080078125
1758878057.095181,-0.64794921875,0.05029296875,0.7578125,-1.220703125,-1.220703125,0.9765625,4.15283203125,40.869140625,-65.7147216796875
1758878057.1082747,-0.64794921875,0.05029296875,0.7578125,-1.220703125,-1.220703125,0.9765625,4.1473388671875,40.858154296875,-65.709228515625
1758878057.1180928,-0.6435546875,0.056640625,0.76123046875,-0.8544921875,-0.67138671875,0.91552734375,4.1473388671875,40.8526611328125,-65.6982421875
1758878057.1267824,-0.6435546875,0.056640625,0.76123046875,-0.8544921875,-0.67138671875,0.91552734375,4.1473388671875,40.84716796875,-65.687255859375
1758878057.134949,-0.62109375,0.0576171875,0.77880859375,-0.91552734375,-0.18310546875,0.79345703125,4.141845703125,40.8416748046875,-65.6817626953125
1758878057.144043,-0.62109375,0.0576171875,0.77880859375,-0.91552734375,-0.18310546875,0.79345703125,4.141845703125,40.8416748046875,-65.6707763671875
1758878057.1527169,-0.61572265625,0.056640625,0.79541015625,-0.732421875,0.18310546875,0.54931640625,4.1363525390625,40.836181640625,-65.665283203125
1758878057.163094,-0.61572265625,0.056640625,0.79541015625,-0.732421875,0.18310546875,0.54931640625,4.1363525390625,40.836181640625,-65.654296875
1758878057.1727273,-0.63720703125,0.0546875,0.77587890625,0.42724609375,0.67138671875,0.244140625,4.141845703125,40.836181640625,-65.654296875
1758878057.1826744,-0.63720703125,0.0546875,0.77587890625,0.42724609375,0.67138671875,0.244140625,4.1473388671875,40.836181640625,-65.6488037109375
1758878057.1928241,-0.6376953125,0.052734375,0.75146484375,2.0751953125,0.54931640625,-0.244140625,4.1693115234375,40.836181640625,-65.654296875
1758878057.2027705,-0.6376953125,0.052734375,0.75146484375,2.0751953125,0.54931640625,-0.244140625,4.185791015625,40.836181640625,-65.654296875
1758878057.212655,-0.65673828125,0.05419921875,0.75048828125,4.0283203125,0.0,-0.8544921875,4.21875,40.8306884765625,-65.665283203125
1758878057.2224538,-0.65673828125,0.05419921875,0.75048828125,4.0283203125,0.0,-0.8544921875,4.251708984375,40.8251953125,-65.67626953125
1758878057.2326045,-0.6669921875,0.05859375,0.7421875,5.2490234375,-0.6103515625,-1.46484375,4.2901611328125,40.8197021484375,-65.6982421875
1758878057.2426102,-0.6669921875,0.05859375,0.7421875,5.2490234375,-0.6103515625,-1.46484375,4.32861328125,40.8087158203125,-65.72021484375
1758878057.2527106,-0.671875,0.0654296875,0.72998046875,5.615234375,-1.0986328125,-2.01416015625,4.3670654296875,40.7977294921875,-65.7476806640625
1758878057.262591,-0.671875,0.0654296875,0.72998046875,5.615234375,-1.0986328125,-2.01416015625,4.405517578125,40.792236328125,-65.7806396484375
1758878057.2725606,-0.671875,0.0654296875,0.72998046875,4.0283203125,-1.46484375,-2.50244140625,4.4219970703125,40.78125,-65.8135986328125
1758878057.2825837,-0.67431640625,0.0703125,0.732421875,4.0283203125,-1.46484375,-2.50244140625,4.4384765625,40.770263671875,-65.8465576171875
1758878057.292559,-0.6708984375,0.0751953125,0.736328125,0.8544921875,-1.46484375,-2.74658203125,4.4219970703125,40.75927734375,-65.885009765625
1758878057.3025672,-0.6708984375,0.0751953125,0.736328125,0.8544921875,-1.46484375,-2.74658203125,4.4110107421875,40.748291015625,-65.9234619140625
1758878057.3126023,-0.65087890625,0.06884765625,0.751953125,-0.3662109375,-1.708984375,-3.0517578125,4.383544921875,40.7373046875,-65.9619140625
1758878057.3225923,-0.65087890625,0.06884765625,0.751953125,-0.3662109375,-1.708984375,-3.0517578125,4.3560791015625,40.726318359375,-66.0003662109375
1758878057.3326552,-0.64453125,0.052734375,0.76123046875,-0.06103515625,-1.89208984375,-3.2958984375,4.32861328125,40.71533203125,-66.0443115234375
1758878057.342629,-0.64453125,0.052734375,0.76123046875,-0.06103515625,-1.89208984375,-3.2958984375,4.3011474609375,40.6988525390625,-66.0882568359375
1758878057.3526528,-0.64697265625,0.04931640625,0.76611328125,1.708984375,-1.77001953125,-3.60107421875,4.28466796875,40.6878662109375,-66.1376953125
1758878057.3626704,-0.64697265625,0.04931640625,0.76611328125,1.708984375,-1.77001953125,-3.60107421875,4.273681640625,40.67138671875,-66.181640625
1758878057.372688,-0.6435546875,0.05322265625,0.76025390625,3.41796875,-1.77001953125,-3.662109375,4.273681640625,40.660400390625,-66.2310791015625
1758878057.382707,-0.6435546875,0.05322265625,0.76025390625,3.41796875,-1.77001953125,-3.662109375,4.2791748046875,40.6439208984375,-66.280517578125
1758878057.392712,-0.6455078125,0.0517578125,0.7548828125,4.21142578125,-1.953125,-3.662109375,4.2901611328125,40.62744140625,-66.3299560546875
1758878057.4027097,-0.6455078125,0.0517578125,0.7548828125,4.21142578125,-1.953125,-3.662109375,4.295654296875,40.6109619140625,-66.37939453125
1758878057.4127474,-0.64892578125,0.052734375,0.7529296875,5.2490234375,-2.197265625,-3.72314453125,4.317626953125,40.594482421875,-66.434326171875
1758878057.4227505,-0.64892578125,0.052734375,0.7529296875,5.2490234375,-2.197265625,-3.72314453125,4.3341064453125,40.572509765625,-66.4837646484375
1758878057.4327796,-0.64501953125,0.0537109375,0.76123046875,6.28662109375,-2.01416015625,-4.0283203125,4.361572265625,40.5560302734375,-66.5386962890625
1758878057.442767,-0.64501953125,0.0537109375,0.76123046875,6.28662109375,-2.01416015625,-4.0283203125,4.3890380859375,40.53955078125,-66.5936279296875
1758878057.4527922,-0.64013671875,0.06591796875,0.77001953125,6.65283203125,-1.77001953125,-4.5166015625,4.41650390625,40.528564453125,-66.654052734375
1758878057.4628005,-0.64013671875,0.06591796875,0.77001953125,6.65283203125,-1.77001953125,-4.5166015625,4.4384765625,40.5120849609375,-66.7144775390625
1758878057.4728281,-0.62841796875,0.07275390625,0.76513671875,5.43212890625,-1.52587890625,-4.8828125,4.4549560546875,40.5010986328125,-66.7803955078125
1758878057.4828403,-0.62841796875,0.07275390625,0.76513671875,5.43212890625,-1.52587890625,-4.8828125,4.4659423828125,40.484619140625,-66.8463134765625
1758878057.4928687,-0.6240234375,0.07568359375,0.779296875,4.57763671875,-1.46484375,-5.31005859375,4.4659423828125,40.4736328125,-66.9122314453125
1758878057.5028675,-0.6240234375,0.07568359375,0.779296875,4.57763671875,-1.46484375,-5.31005859375,4.4659423828125,40.462646484375,-66.9781494140625
1758878057.5129044,-0.60302734375,0.06494140625,0.7802734375,3.72314453125,-1.8310546875,-5.2490234375,4.46044921875,40.440673828125,-67.0440673828125
1758878057.5228906,-0.60302734375,0.06494140625,0.7802734375,3.72314453125,-1.8310546875,-5.2490234375,4.4549560546875,40.4241943359375,-67.1099853515625
1758878057.532932,-0.58984375,0.0478515625,0.796875,3.35693359375,-2.25830078125,-5.0048828125,4.4439697265625,40.396728515625,-67.1759033203125
1758878057.5429165,-0.58984375,0.0478515625,0.796875,3.35693359375,-2.25830078125,-5.0048828125,4.4329833984375,40.3692626953125,-67.236328125
1758878057.5529406,-0.58837890625,0.0458984375,0.83056640625,5.0048828125,-2.38037109375,-5.37109375,4.4384765625,40.341796875,-67.30224609375
1758878057.5630198,-0.58837890625,0.0458984375,0.83056640625,5.0048828125,-2.38037109375,-5.37109375,4.4384765625,40.308837890625,-67.3736572265625
1758878057.5730069,-0.57763671875,0.0595703125,0.83056640625,8.36181640625,-2.8076171875,-6.28662109375,4.4659423828125,40.2703857421875,-67.4505615234375
1758878057.5829992,-0.57763671875,0.0595703125,0.83056640625,8.36181640625,-2.8076171875,-6.28662109375,4.493408203125,40.23193359375,-67.532958984375
1758878057.5930185,-0.57763671875,0.0654296875,0.81982421875,11.41357421875,-3.47900390625,-7.38525390625,4.5428466796875,40.18798828125,-67.6263427734375
1758878057.6030529,-0.57763671875,0.0654296875,0.81982421875,11.41357421875,-3.47900390625,-7.38525390625,4.5867919921875,40.1385498046875,-67.7197265625
1758878057.6131094,-0.58935546875,0.06884765625,0.83544921875,8.30078125,-3.84521484375,-7.8125,4.603271484375,40.089111328125,-67.818603515625
1758878057.6230671,-0.58935546875,0.06884765625,0.83544921875,8.30078125,-3.84521484375,-7.8125,4.6142578125,40.0396728515625,-67.91748046875
1758878057.6331263,-0.5654296875,0.0849609375,0.84326171875,3.96728515625,-3.5400390625,-8.7890625,4.581298828125,39.990234375,-68.02734375
1758878057.6431432,-0.5654296875,0.0849609375,0.84326171875,3.96728515625,-3.5400390625,-8.7890625,4.5428466796875,39.935302734375,-68.1317138671875
1758878057.6531255,-0.5556640625,0.07763671875,0.875,2.25830078125,-3.7841796875,-9.521484375,4.4879150390625,39.8858642578125,-68.2470703125
1758878057.6633136,-0.5556640625,0.07763671875,0.875,2.25830078125,-3.7841796875,-9.521484375,4.427490234375,39.825439453125,-68.3624267578125
1758878057.673281,-0.55322265625,0.0693359375,0.876953125,-5.18798828125,-4.08935546875,-10.009765625,4.295654296875,39.7650146484375,-68.477783203125
1758878057.6833022,-0.55322265625,0.0693359375,0.876953125,-5.18798828125,-4.08935546875,-10.009765625,4.1583251953125,39.70458984375,-68.5986328125
1758878057.6932638,-0.55908203125,0.06640625,0.85205078125,-10.68115234375,-4.39453125,-10.3759765625,3.9715576171875,39.638671875,-68.719482421875
1758878057.703203,-0.55908203125,0.06640625,0.85205078125,-10.68115234375,-4.39453125,-10.3759765625,3.779296875,39.57275390625,-68.8348388671875
1758878057.7163317,-0.5810546875,0.05908203125,0.8271484375,-14.404296875,-3.7841796875,-10.55908203125,3.5540771484375,39.5123291015625,-68.9556884765625
1758878057.7232454,-0.5810546875,0.05908203125,0.8271484375,-14.404296875,-3.7841796875,-10.55908203125,3.328857421875,39.451904296875,-69.0765380859375
1758878057.7333124,-0.59423828125,0.046875,0.82177734375,-18.61572265625,-2.86865234375,-10.25390625,3.0706787109375,39.39697265625,-69.19189453125
1758878057.7495222,-0.59423828125,0.046875,0.82177734375,-18.61572265625,-2.86865234375,-10.25390625,2.8070068359375,39.3475341796875,-69.3017578125
1758878057.7562397,-0.578125,0.04296875,0.77685546875,-13.24462890625,-1.708984375,-10.43701171875,2.5982666015625,39.30908203125,-69.4171142578125
1758878057.763282,-0.60205078125,0.0068359375,0.728515625,0.6103515625,-1.220703125,-10.8642578125,2.4609375,39.276123046875,-69.5379638671875
1758878057.7733052,-0.60205078125,0.0068359375,0.728515625,0.6103515625,-1.220703125,-10.8642578125,2.384033203125,39.2431640625,-69.6588134765625
1758878057.7899885,-0.62255859375,-0.0205078125,0.7333984375,8.7890625,-1.40380859375,-11.77978515625,2.3455810546875,39.2156982421875,-69.7906494140625
1758878057.796768,-0.62255859375,-0.0205078125,0.7333984375,8.7890625,-1.40380859375,-11.77978515625,2.340087890625,39.1937255859375,-69.927978515625
1758878057.8033075,-0.64306640625,-0.01708984375,0.767578125,16.78466796875,-1.708984375,-12.87841796875,2.373046875,39.166259765625,-70.081787109375
1758878057.8134751,-0.64306640625,-0.01708984375,0.767578125,16.78466796875,-1.708984375,-12.87841796875,2.4334716796875,39.144287109375,-70.2410888671875
1758878057.823709,-0.623046875,-0.013671875,0.70703125,27.64892578125,-2.197265625,-13.7939453125,2.5433349609375,39.1168212890625,-70.411376953125
1758878057.8362257,-0.623046875,-0.013671875,0.70703125,27.64892578125,-2.197265625,-13.7939453125,2.6971435546875,39.0948486328125,-70.587158203125
1758878057.8434486,-0.63916015625,0.00927734375,0.71826171875,33.0810546875,-2.99072265625,-14.22119140625,2.87841796875,39.0728759765625,-70.7684326171875
1758878057.854297,-0.63916015625,0.00927734375,0.71826171875,33.0810546875,-2.99072265625,-14.22119140625,3.0816650390625,39.04541015625,-70.9552001953125
1758878057.8673804,-0.64794921875,0.02880859375,0.74853515625,34.0576171875,-3.35693359375,-14.404296875,3.2904052734375,39.0179443359375,-71.1419677734375
1758878057.874112,-0.64794921875,0.02880859375,0.74853515625,34.0576171875,-3.35693359375,-14.404296875,3.4991455078125,38.9959716796875,-71.334228515625
1758878057.8834662,-0.6328125,0.03125,0.744140625,36.92626953125,-3.5400390625,-14.46533203125,3.724365234375,38.968505859375,-71.5264892578125
1758878057.8935144,-0.6328125,0.03125,0.744140625,36.92626953125,-3.5400390625,-14.46533203125,3.9605712890625,38.946533203125,-71.71875
1758878057.906907,-0.6396484375,0.0380859375,0.736328125,34.66796875,-3.23486328125,-14.09912109375,4.185791015625,38.924560546875,-71.9110107421875
1758878057.9135587,-0.6396484375,0.0380859375,0.736328125,34.66796875,-3.23486328125,-14.09912109375,4.405517578125,38.9080810546875,-72.0977783203125
1758878057.9235318,-0.62353515625,0.0751953125,0.75048828125,27.52685546875,-2.99072265625,-13.427734375,4.5867919921875,38.8916015625,-72.2845458984375
1758878057.9335752,-0.62353515625,0.0751953125,0.75048828125,27.52685546875,-2.99072265625,-13.427734375,4.735107421875,38.8751220703125,-72.4658203125
1758878057.9471037,-0.638671875,0.10205078125,0.73486328125,11.53564453125,-1.708984375,-12.14599609375,4.8175048828125,38.86962890625,-72.630615234375
1758878057.9536746,-0.638671875,0.10205078125,0.73486328125,11.53564453125,-1.708984375,-12.14599609375,4.822998046875,38.86962890625,-72.7899169921875
1758878057.9636188,-0.63134765625,0.08984375,0.71630859375,6.7138671875,-0.67138671875,-11.29150390625,4.81201171875,38.86962890625,-72.938232421875
1758878057.9778469,-0.63134765625,0.08984375,0.71630859375,6.7138671875,-0.67138671875,-11.29150390625,4.7845458984375,38.880615234375,-73.0810546875
1758878057.9863124,-0.64599609375,0.03662109375,0.80908203125,7.9345703125,-0.244140625,-10.68115234375,4.7625732421875,38.8916015625,-73.2183837890625
1758878057.9940677,-0.64599609375,0.03662109375,0.80908203125,7.9345703125,-0.244140625,-10.68115234375,4.7515869140625,38.9080810546875,-73.3502197265625
1758878058.0057209,-0.65576171875,0.00048828125,0.837890625,15.869140625,-0.48828125,-10.25390625,4.7845458984375,38.91357421875,-73.4820556640625
1758878058.0144062,-0.65576171875,0.00048828125,0.837890625,15.869140625,-0.48828125,-10.25390625,4.8504638671875,38.924560546875,-73.6138916015625
1758878058.02385,-0.65869140625,-0.0263671875,0.74755859375,35.5224609375,-0.91552734375,-10.55908203125,5.009765625,38.9300537109375,-73.751220703125
1758878058.0344176,-0.65869140625,-0.0263671875,0.74755859375,35.5224609375,-0.91552734375,-10.55908203125,5.262451171875,38.935546875,-73.89404296875
1758878058.0453584,-0.658203125,-0.0029296875,0.71728515625,48.52294921875,-1.64794921875,-10.80322265625,5.5755615234375,38.935546875,-74.0478515625
1758878058.0540683,-0.658203125,-0.0029296875,0.71728515625,48.52294921875,-1.64794921875,-10.80322265625,5.9490966796875,38.9410400390625,-74.20166015625
1758878058.06401,-0.6689453125,0.04248046875,0.71875,50.9033203125,-0.9765625,-11.71875,6.328125,38.946533203125,-74.366455078125
1758878058.074956,-0.6689453125,0.04248046875,0.71875,50.9033203125,-0.9765625,-11.71875,6.7181396484375,38.9630126953125,-74.5367431640625
1758878058.0853963,-0.6748046875,0.13427734375,0.74072265625,44.37255859375,-0.1220703125,-11.65771484375,7.0697021484375,38.9849853515625,-74.70703125
1758878058.0941048,-0.6748046875,0.13427734375,0.74072265625,44.37255859375,-0.1220703125,-11.65771484375,7.393798828125,39.0069580078125,-74.871826171875
1758878058.1040328,-0.68310546875,0.15673828125,0.74853515625,32.53173828125,0.91552734375,-11.29150390625,7.66845703125,39.0399169921875,-75.025634765625
1758878058.1151738,-0.68310546875,0.15673828125,0.74853515625,32.53173828125,0.91552734375,-11.29150390625,7.8826904296875,39.078369140625,-75.179443359375
1758878058.1245081,-0.68115234375,0.173828125,0.740234375,19.8974609375,1.52587890625,-10.498046875,8.0419921875,39.1168212890625,-75.3167724609375
1758878058.1351037,-0.68115234375,0.173828125,0.740234375,19.8974609375,1.52587890625,-10.498046875,8.1463623046875,39.1607666015625,-75.4541015625
1758878058.1452174,-0.6591796875,0.14501953125,0.7490234375,9.70458984375,1.5869140625,-9.521484375,8.206787109375,39.2047119140625,-75.574951171875
1758878058.1545892,-0.6591796875,0.14501953125,0.7490234375,9.70458984375,1.5869140625,-9.521484375,8.2232666015625,39.2431640625,-75.6903076171875
1758878058.1657343,-0.6513671875,0.14013671875,0.76171875,-0.8544921875,1.15966796875,-9.033203125,8.1903076171875,39.2816162109375,-75.8001708984375
1758878058.1747851,-0.6513671875,0.14013671875,0.76171875,-0.8544921875,1.15966796875,-9.033203125,8.10791015625,39.320068359375,-75.904541015625
1758878058.1853027,-0.63720703125,0.12890625,0.74462890625,-5.2490234375,0.48828125,-8.7890625,8.0035400390625,39.35302734375,-76.0089111328125
1758878058.194643,-0.63720703125,0.12890625,0.74462890625,-5.2490234375,0.48828125,-8.7890625,7.8826904296875,39.375,-76.11328125
1758878058.205386,-0.6416015625,0.1083984375,0.759765625,-10.92529296875,0.0,-8.23974609375,7.734375,39.4024658203125,-76.2066650390625
1758878058.2157118,-0.6416015625,0.1083984375,0.759765625,-10.92529296875,0.0,-8.23974609375,7.5640869140625,39.4189453125,-76.300048828125
1758878058.2245479,-0.6572265625,0.0869140625,0.759765625,-7.6904296875,-0.6103515625,-7.62939453125,7.4102783203125,39.4354248046875,-76.3934326171875
1758878058.235155,-0.6572265625,0.0869140625,0.759765625,-7.6904296875,-0.6103515625,-7.62939453125,7.2784423828125,39.4464111328125,-76.475830078125
1758878058.2453625,-0.671875,0.029296875,0.765625,4.150390625,-0.9765625,-7.62939453125,7.196044921875,39.4573974609375,-76.563720703125
1758878058.2548585,-0.671875,0.029296875,0.765625,4.150390625,-0.9765625,-7.62939453125,7.1795654296875,39.462890625,-76.6571044921875
1758878058.2646282,-0.6689453125,0.02099609375,0.7490234375,15.56396484375,-1.28173828125,-7.87353515625,7.20703125,39.4683837890625,-76.7559814453125
1758878058.2769868,-0.6689453125,0.02099609375,0.7490234375,15.56396484375,-1.28173828125,-7.87353515625,7.294921875,39.473876953125,-76.8548583984375
1758878058.2852426,-0.669921875,0.05224609375,0.751953125,28.99169921875,-1.5869140625,-7.99560546875,7.437744140625,39.4793701171875,-76.959228515625
1758878058.2948601,-0.669921875,0.05224609375,0.751953125,28.99169921875,-1.5869140625,-7.99560546875,7.6519775390625,39.48486328125,-77.069091796875
1758878058.3055718,-0.6552734375,0.0771484375,0.73876953125,35.888671875,-1.64794921875,-7.8125,7.899169921875,39.4903564453125,-77.178955078125
1758878058.315115,-0.6552734375,0.0771484375,0.73876953125,35.888671875,-1.64794921875,-7.8125,8.173828125,39.495849609375,-77.288818359375
1758878058.324682,-0.65380859375,0.11328125,0.73486328125,32.53173828125,-0.9765625,-6.9580078125,8.4375,39.5013427734375,-77.3931884765625
1758878058.3368468,-0.65380859375,0.11328125,0.73486328125,32.53173828125,-0.9765625,-6.9580078125,8.690185546875,39.5123291015625,-77.486572265625
1758878058.345348,-0.64208984375,0.1357421875,0.75732421875,27.9541015625,-0.1220703125,-6.04248046875,8.9263916015625,39.52880859375,-77.574462890625
1758878058.354913,-0.64208984375,0.1357421875,0.75732421875,27.9541015625,-0.1220703125,-6.04248046875,9.140625,39.5452880859375,-77.6568603515625
1758878058.365096,-0.634765625,0.13916015625,0.7744140625,23.8037109375,0.48828125,-5.18798828125,9.33837890625,39.5672607421875,-77.7337646484375
1758878058.3760853,-0.634765625,0.13916015625,0.7744140625,23.8037109375,0.48828125,-5.18798828125,9.525146484375,39.583740234375,-77.7996826171875
1758878058.3853855,-0.634765625,0.13916015625,0.76806640625,19.83642578125,1.0986328125,-4.69970703125,9.68994140625,39.605712890625,-77.860107421875
1758878058.3944516,-0.634765625,0.13916015625,0.76806640625,19.83642578125,1.0986328125,-4.69970703125,9.84375,39.6331787109375,-77.9205322265625
1758878058.405724,-0.63134765625,0.146484375,0.7548828125,16.17431640625,1.64794921875,-4.21142578125,9.9755859375,39.6551513671875,-77.9754638671875
1758878058.414452,-0.63134765625,0.146484375,0.7548828125,16.17431640625,1.64794921875,-4.21142578125,10.096435546875,39.6826171875,-78.02490234375
1758878058.4249413,-0.640625,0.1513671875,0.767578125,14.70947265625,1.89208984375,-3.60107421875,10.2117919921875,39.7100830078125,-78.06884765625
1758878058.4371269,-0.640625,0.1513671875,0.767578125,14.70947265625,1.89208984375,-3.60107421875,10.3271484375,39.737548828125,-78.1072998046875
1758878058.445075,-0.6630859375,0.14599609375,0.77294921875,11.04736328125,1.953125,-3.2958984375,10.4205322265625,39.7650146484375,-78.145751953125
1758878058.4544587,-0.6630859375,0.14599609375,0.77294921875,11.04736328125,1.953125,-3.2958984375,10.5029296875,39.79248046875,-78.1787109375
1758878058.4652505,-0.65869140625,0.1630859375,0.7470703125,2.50244140625,1.708984375,-2.50244140625,10.5413818359375,39.814453125,-78.2061767578125
1758878058.4752345,-0.65869140625,0.1630859375,0.7470703125,2.50244140625,1.708984375,-2.50244140625,10.5413818359375,39.83642578125,-78.233642578125
1758878058.485489,-0.65869140625,0.15771484375,0.74462890625,1.220703125,1.3427734375,-2.0751953125,10.5413818359375,39.8583984375,-78.2501220703125
1758878058.4945605,-0.65869140625,0.15771484375,0.74462890625,1.220703125,1.3427734375,-2.0751953125,10.535888671875,39.88037109375,-78.2666015625
1758878058.5061228,-0.66357421875,0.1416015625,0.74462890625,0.79345703125,0.8544921875,-1.8310546875,10.5303955078125,39.8968505859375,-78.2830810546875
1758878058.5145593,-0.66357421875,0.1416015625,0.74462890625,0.79345703125,0.8544921875,-1.8310546875,10.52490234375,39.9078369140625,-78.299560546875
1758878058.5258904,-0.6630859375,0.13720703125,0.73681640625,1.89208984375,0.42724609375,-1.5869140625,10.52490234375,39.92431640625,-78.310546875
1758878058.535438,-0.6630859375,0.13720703125,0.73681640625,1.89208984375,0.42724609375,-1.5869140625,10.5303955078125,39.935302734375,-78.321533203125
1758878058.545142,-0.66552734375,0.14208984375,0.72802734375,3.60107421875,0.30517578125,-1.3427734375,10.546875,39.9462890625,-78.33251953125
1758878058.554924,-0.66552734375,0.14208984375,0.72802734375,3.60107421875,0.30517578125,-1.3427734375,10.56884765625,39.957275390625,-78.343505859375
1758878058.565992,-0.6533203125,0.14453125,0.73779296875,2.99072265625,0.54931640625,-0.79345703125,10.5963134765625,39.96826171875,-78.3489990234375
1758878058.5746408,-0.6533203125,0.14453125,0.73779296875,2.99072265625,0.54931640625,-0.79345703125,10.6182861328125,39.979248046875,-78.3489990234375
1758878058.5860302,-0.64453125,0.150390625,0.75927734375,2.01416015625,1.03759765625,-0.3662109375,10.6402587890625,39.9957275390625,-78.3489990234375
1758878058.5965354,-0.64453125,0.150390625,0.75927734375,2.01416015625,1.03759765625,-0.3662109375,10.65673828125,40.0067138671875,-78.343505859375
1758878058.6057892,-0.623046875,0.1474609375,0.77001953125,-0.3662109375,1.40380859375,0.0,10.667724609375,40.023193359375,-78.33251953125
1758878058.6147077,-0.623046875,0.1474609375,0.77001953125,-0.3662109375,1.40380859375,0.0,10.667724609375,40.0396728515625,-78.321533203125
1758878058.6267128,-0.611328125,0.14697265625,0.783203125,-2.99072265625,1.46484375,0.244140625,10.65673828125,40.05615234375,-78.310546875
1758878058.6354225,-0.611328125,0.14697265625,0.783203125,-2.99072265625,1.46484375,0.244140625,10.6292724609375,40.067138671875,-78.299560546875
1758878058.6456957,-0.60546875,0.15478515625,0.7890625,-5.92041015625,1.3427734375,0.54931640625,10.5908203125,40.078125,-78.2830810546875
1758878058.6550965,-0.60546875,0.15478515625,0.7890625,-5.92041015625,1.3427734375,0.54931640625,10.5413818359375,40.089111328125,-78.2611083984375
1758878058.6667464,-0.58984375,0.14111328125,0.77587890625,-9.8876953125,1.52587890625,0.48828125,10.469970703125,40.0946044921875,-78.2391357421875
1758878058.6747887,-0.58984375,0.14111328125,0.77587890625,-9.8876953125,1.52587890625,0.48828125,10.3765869140625,40.1055908203125,-78.22265625
1758878058.6866534,-0.58447265625,0.1669921875,0.80029296875,-17.4560546875,1.220703125,0.732421875,10.250244140625,40.1055908203125,-78.20068359375
1758878058.6956604,-0.58447265625,0.1669921875,0.80029296875,-17.4560546875,1.220703125,0.732421875,10.0909423828125,40.1055908203125,-78.1732177734375
1758878058.705874,-0.5712890625,0.1728515625,0.81982421875,-23.74267578125,1.15966796875,1.15966796875,9.898681640625,40.1055908203125,-78.145751953125
1758878058.7148726,-0.5712890625,0.1728515625,0.81982421875,-23.74267578125,1.15966796875,1.15966796875,9.6844482421875,40.10009765625,-78.11279296875
1758878058.7270095,-0.55224609375,0.15087890625,0.80419921875,-30.82275390625,0.91552734375,1.220703125,9.4317626953125,40.0946044921875,-78.0743408203125
1758878058.7356827,-0.55224609375,0.15087890625,0.80419921875,-30.82275390625,0.91552734375,1.220703125,9.1461181640625,40.0836181640625,-78.035888671875
1758878058.7457516,-0.54248046875,0.1337890625,0.79150390625,-34.72900390625,0.91552734375,1.64794921875,8.8275146484375,40.067138671875,-77.991943359375
1758878058.755719,-0.54248046875,0.1337890625,0.79150390625,-34.72900390625,0.91552734375,1.64794921875,8.5089111328125,40.05615234375,-77.947998046875
1758878058.7680366,-0.56201171875,0.1162109375,0.78759765625,-33.0810546875,1.40380859375,2.0751953125,8.2122802734375,40.045166015625,-77.89306640625
1758878058.7752159,-0.56201171875,0.1162109375,0.78759765625,-33.0810546875,1.40380859375,2.0751953125,7.9156494140625,40.0341796875,-77.838134765625
1758878058.7860901,-0.59521484375,0.09326171875,0.80517578125,-31.6162109375,2.5634765625,2.44140625,7.6409912109375,40.0341796875,-77.7777099609375
1758878058.7957354,-0.59521484375,0.09326171875,0.80517578125,-31.6162109375,2.5634765625,2.44140625,7.36083984375,40.0341796875,-77.7227783203125
1758878058.8057215,-0.654296875,0.0615234375,0.818359375,-27.4658203125,3.47900390625,2.99072265625,7.130126953125,40.0396728515625,-77.6568603515625
1758878058.815024,-0.654296875,0.0615234375,0.818359375,-27.4658203125,3.47900390625,2.99072265625,6.8939208984375,40.0506591796875,-77.5909423828125
1758878058.825393,-0.68896484375,0.01611328125,0.76708984375,-9.27734375,5.126953125,3.35693359375,6.844482421875,40.0836181640625,-77.5250244140625
1758878058.8369093,-0.68896484375,0.01611328125,0.76708984375,-9.27734375,5.126953125,3.35693359375,6.78955078125,40.111083984375,-77.464599609375
1758878058.8457394,-0.72021484375,0.0126953125,0.7578125,-2.5634765625,6.16455078125,3.0517578125,6.7950439453125,40.1605224609375,-77.40966796875
1758878058.8550682,-0.72021484375,0.0126953125,0.7578125,-2.5634765625,6.16455078125,3.0517578125,6.7950439453125,40.2099609375,-77.3602294921875
1758878058.865688,-0.74609375,0.09814453125,0.7119140625,-2.99072265625,8.30078125,3.41796875,6.800537109375,40.2813720703125,-77.2998046875
1758878058.8756027,-0.74609375,0.09814453125,0.7119140625,-2.99072265625,8.30078125,3.41796875,6.8060302734375,40.3582763671875,-77.2393798828125
1758878058.88527,-0.7255859375,0.13427734375,0.646484375,-5.55419921875,9.82666015625,4.0283203125,6.7950439453125,40.45166015625,-77.16796875
1758878058.8953364,-0.7255859375,0.13427734375,0.646484375,-5.55419921875,9.82666015625,4.0283203125,6.7840576171875,40.550537109375,-77.091064453125
1758878058.906706,-0.71484375,0.13525390625,0.65478515625,-13.5498046875,10.986328125,5.31005859375,6.712646484375,40.660400390625,-76.9976806640625
1758878058.9152117,-0.71484375,0.13525390625,0.65478515625,-13.5498046875,10.986328125,5.31005859375,6.6412353515625,40.7757568359375,-76.8988037109375
1758878058.9256608,-0.6884765625,0.1025390625,0.677734375,-15.625,11.29150390625,6.16455078125,6.558837890625,40.89111328125,-76.7889404296875
1758878058.9358742,-0.6884765625,0.1025390625,0.677734375,-15.625,11.29150390625,6.16455078125,6.470947265625,41.011962890625,-76.6790771484375
1758878058.9453437,-0.669921875,0.0625,0.703125,-13.3056640625,10.498046875,6.4697265625,6.416015625,41.1163330078125,-76.5692138671875
1758878058.9553218,-0.669921875,0.0625,0.703125,-13.3056640625,10.498046875,6.4697265625,6.3555908203125,41.2261962890625,-76.453857421875
1758878058.9661787,-0.65185546875,0.04638671875,0.7275390625,-6.40869140625,9.27734375,6.4697265625,6.361083984375,41.3250732421875,-76.3494873046875
1758878058.9752936,-0.65185546875,0.04638671875,0.7275390625,-6.40869140625,9.27734375,6.4697265625,6.3665771484375,41.41845703125,-76.2451171875
1758878058.9854195,-0.650390625,0.05517578125,0.7373046875,0.8544921875,8.23974609375,6.04248046875,6.43798828125,41.5008544921875,-76.1517333984375
1758878058.9966383,-0.650390625,0.05517578125,0.7373046875,0.8544921875,8.23974609375,6.04248046875,6.5093994140625,41.583251953125,-76.0528564453125
1758878059.0062108,-0.65576171875,0.08544921875,0.72998046875,4.150390625,7.8125,5.43212890625,6.602783203125,41.66015625,-75.970458984375
1758878059.0158472,-0.65576171875,0.08544921875,0.72998046875,4.150390625,7.8125,5.43212890625,6.70166015625,41.7315673828125,-75.882568359375
1758878059.025527,-0.65869140625,0.10693359375,0.73291015625,4.82177734375,7.568359375,5.06591796875,6.800537109375,41.8084716796875,-75.8001708984375
1758878059.0384145,-0.65869140625,0.10693359375,0.73291015625,4.82177734375,7.568359375,5.06591796875,6.8994140625,41.8798828125,-75.7177734375
1758878059.0456567,-0.65966796875,0.11083984375,0.734375,1.89208984375,7.6904296875,5.18798828125,6.976318359375,41.9512939453125,-75.6298828125
1758878059.0568519,-0.65966796875,0.11083984375,0.734375,1.89208984375,7.6904296875,5.18798828125,7.0477294921875,42.022705078125,-75.5419921875
1758878059.066422,-0.6728515625,0.0966796875,0.73388671875,-0.9765625,7.87353515625,5.31005859375,7.09716796875,42.0941162109375,-75.4541015625
1758878059.077693,-0.6728515625,0.0966796875,0.73388671875,-0.9765625,7.87353515625,5.31005859375,7.14111328125,42.16552734375,-75.3662109375
1758878059.0855103,-0.6923828125,0.09912109375,0.74462890625,-6.591796875,8.1787109375,5.615234375,7.1356201171875,42.242431640625,-75.2728271484375
1758878059.0959654,-0.6923828125,0.09912109375,0.74462890625,-6.591796875,8.1787109375,5.615234375,7.130126953125,42.3138427734375,-75.179443359375
1758878059.105689,-0.68798828125,0.10791015625,0.72412109375,-13.48876953125,8.23974609375,6.103515625,7.064208984375,42.3907470703125,-75.08056640625
1758878059.1169274,-0.68798828125,0.10791015625,0.72412109375,-13.48876953125,8.23974609375,6.103515625,6.9927978515625,42.462158203125,-74.9761962890625
1758878059.1256013,-0.6904296875,0.11328125,0.73193359375,-15.68603515625,8.056640625,6.7138671875,6.910400390625,42.5335693359375,-74.8663330078125
1758878059.1360261,-0.6904296875,0.11328125,0.73193359375,-15.68603515625,8.056640625,6.7138671875,6.8280029296875,42.60498046875,-74.7564697265625
1758878059.1476092,-0.68505859375,0.0966796875,0.72607421875,-15.93017578125,7.87353515625,7.14111328125,6.7510986328125,42.6763916015625,-74.64111328125
1758878059.15617,-0.68505859375,0.0966796875,0.72607421875,-15.93017578125,7.87353515625,7.14111328125,6.668701171875,42.7423095703125,-74.520263671875
1758878059.1655564,-0.6796875,0.08642578125,0.71142578125,-20.08056640625,7.26318359375,7.50732421875,6.5533447265625,42.8082275390625,-74.3994140625
1758878059.1761508,-0.6796875,0.08642578125,0.71142578125,-20.08056640625,7.26318359375,7.50732421875,6.43798828125,42.8741455078125,-74.278564453125
1758878059.186481,-0.68408203125,0.0810546875,0.69921875,-20.263671875,7.2021484375,7.75146484375,6.317138671875,42.9345703125,-74.15771484375
1758878059.196069,-0.68408203125,0.0810546875,0.69921875,-20.263671875,7.2021484375,7.75146484375,6.2017822265625,43.00048828125,-74.0313720703125
1758878059.205767,-0.68408203125,0.0634765625,0.71435546875,-14.16015625,7.26318359375,7.9345703125,6.1468505859375,43.0609130859375,-73.905029296875
1758878059.2176025,-0.68408203125,0.0634765625,0.71435546875,-14.16015625,7.26318359375,7.9345703125,6.0919189453125,43.1268310546875,-73.7841796875
1758878059.2257943,-0.68310546875,0.05078125,0.72705078125,-8.36181640625,7.26318359375,8.30078125,6.097412109375,43.187255859375,-73.65234375
1758878059.235503,-0.68310546875,0.05078125,0.72705078125,-8.36181640625,7.26318359375,8.30078125,6.1029052734375,43.253173828125,-73.5260009765625
1758878059.2461286,-0.67333984375,0.05419921875,0.71923828125,-4.5166015625,6.7138671875,8.72802734375,6.1468505859375,43.30810546875,-73.399658203125
1758878059.256147,-0.67333984375,0.05419921875,0.71923828125,-4.5166015625,6.7138671875,8.72802734375,6.1907958984375,43.363037109375,-73.267822265625
1758878059.2657175,-0.66259765625,0.052734375,0.708984375,-2.50244140625,5.7373046875,9.09423828125,6.251220703125,43.4124755859375,-73.1414794921875
1758878059.2756696,-0.66259765625,0.052734375,0.708984375,-2.50244140625,5.7373046875,9.09423828125,6.317138671875,43.4564208984375,-73.0096435546875
1758878059.2863915,-0.6806640625,0.06884765625,0.72509765625,0.54931640625,4.7607421875,9.21630859375,6.4105224609375,43.4893798828125,-72.8778076171875
1758878059.2957187,-0.6806640625,0.06884765625,0.72509765625,0.54931640625,4.7607421875,9.21630859375,6.50390625,43.52783203125,-72.75146484375
1758878059.3058975,-0.68896484375,0.0888671875,0.73583984375,3.23486328125,4.21142578125,9.46044921875,6.624755859375,43.5552978515625,-72.61962890625
1758878059.3168247,-0.68896484375,0.0888671875,0.73583984375,3.23486328125,4.21142578125,9.46044921875,6.74560546875,43.582763671875,-72.48779296875
1758878059.326492,-0.68359375,0.09326171875,0.7177734375,0.3662109375,3.72314453125,9.6435546875,6.8389892578125,43.604736328125,-72.3504638671875
1758878059.3356209,-0.68359375,0.09326171875,0.7177734375,0.3662109375,3.72314453125,9.6435546875,6.932373046875,43.626708984375,-72.2186279296875
1758878059.3468618,-0.6904296875,0.09228515625,0.728515625,-4.150390625,3.2958984375,9.765625,6.9818115234375,43.6431884765625,-72.081298828125
1758878059.356015,-0.6904296875,0.09228515625,0.728515625,-4.150390625,3.2958984375,9.765625,7.03125,43.65966796875,-71.949462890625
1758878059.3659275,-0.705078125,0.087890625,0.732421875,-4.33349609375,2.62451171875,9.6435546875,7.0806884765625,43.670654296875,-71.817626953125
1758878059.376081,-0.705078125,0.087890625,0.732421875,-4.33349609375,2.62451171875,9.6435546875,7.130126953125,43.6871337890625,-71.6802978515625
1758878059.3865705,-0.69580078125,0.08642578125,0.7138671875,-0.06103515625,2.01416015625,9.33837890625,7.2125244140625,43.692626953125,-71.553955078125
1758878059.3959255,-0.69580078125,0.08642578125,0.7138671875,-0.06103515625,2.01416015625,9.33837890625,7.3004150390625,43.6981201171875,-71.4276123046875
1758878059.4064074,-0.71337890625,0.08740234375,0.69921875,3.84521484375,1.52587890625,8.7890625,7.415771484375,43.6981201171875,-71.312255859375
1758878059.4172132,-0.71337890625,0.08740234375,0.69921875,3.84521484375,1.52587890625,8.7890625,7.53662109375,43.70361328125,-71.1968994140625
1758878059.4264445,-0.75537109375,0.0908203125,0.67431640625,4.57763671875,1.28173828125,8.30078125,7.657470703125,43.7091064453125,-71.0870361328125
1758878059.4357471,-0.75537109375,0.0908203125,0.67431640625,4.57763671875,1.28173828125,8.30078125,7.7783203125,43.714599609375,-70.9771728515625
1758878059.4474032,-0.73876953125,0.08984375,0.66943359375,8.544921875,0.6103515625,7.6904296875,7.93212890625,43.714599609375,-70.8837890625
1758878059.457075,-0.73876953125,0.08984375,0.66943359375,8.544921875,0.6103515625,7.6904296875,8.0859375,43.7200927734375,-70.784912109375
1758878059.466516,-0.74951171875,0.11474609375,0.6572265625,10.009765625,1.0986328125,6.65283203125,8.23974609375,43.7310791015625,-70.7025146484375
1758878059.4758458,-0.74951171875,0.11474609375,0.6572265625,10.009765625,1.0986328125,6.65283203125,8.3990478515625,43.7420654296875,-70.6146240234375
1758878059.4874456,-0.7431640625,0.13916015625,0.65771484375,8.30078125,1.5869140625,6.04248046875,8.5418701171875,43.7640380859375,-70.5377197265625
1758878059.496989,-0.7431640625,0.13916015625,0.65771484375,8.30078125,1.5869140625,6.04248046875,8.67919921875,43.7860107421875,-70.4608154296875
1758878059.5065305,-0.73876953125,0.14599609375,0.66943359375,4.33349609375,2.38037109375,5.55419921875,8.778076171875,43.8134765625,-70.3839111328125
1758878059.5160573,-0.73876953125,0.14599609375,0.66943359375,4.33349609375,2.38037109375,5.55419921875,8.876953125,43.8409423828125,-70.301513671875
1758878059.5277026,-0.72607421875,0.1376953125,0.6796875,1.77001953125,3.0517578125,5.31005859375,8.953857421875,43.87939453125,-70.224609375
1758878059.5359442,-0.72607421875,0.1376953125,0.6796875,1.77001953125,3.0517578125,5.31005859375,9.03076171875,43.9178466796875,-70.147705078125
1758878059.5470583,-0.712890625,0.1201171875,0.68017578125,-1.15966796875,3.662109375,5.0048828125,9.07470703125,43.956298828125,-70.0762939453125
1758878059.5572026,-0.712890625,0.1201171875,0.68017578125,-1.15966796875,3.662109375,5.0048828125,9.11865234375,44.000244140625,-69.9993896484375
1758878059.5670059,-0.70361328125,0.12255859375,0.70263671875,0.6103515625,3.2958984375,4.5166015625,9.173583984375,44.0386962890625,-69.9334716796875
1758878059.5759888,-0.70361328125,0.12255859375,0.70263671875,0.6103515625,3.2958984375,4.5166015625,9.228515625,44.0771484375,-69.8675537109375
1758878059.5869353,-0.69482421875,0.11474609375,0.7080078125,2.50244140625,2.99072265625,4.150390625,9.2999267578125,44.110107421875,-69.80712890625
1758878059.5980127,-0.69482421875,0.11474609375,0.7080078125,2.50244140625,2.99072265625,4.150390625,9.371337890625,44.1375732421875,-69.7467041015625
1758878059.6068788,-0.67724609375,0.1220703125,0.70947265625,2.99072265625,2.3193359375,3.7841796875,9.4427490234375,44.1650390625,-69.6917724609375
1758878059.6161578,-0.67724609375,0.1220703125,0.70947265625,2.99072265625,2.3193359375,3.7841796875,9.51416015625,44.18701171875,-69.642333984375
1758878059.6279597,-0.67578125,0.12841796875,0.72998046875,3.2958984375,1.953125,3.35693359375,9.580078125,44.2034912109375,-69.5928955078125
1758878059.637269,-0.67578125,0.12841796875,0.72998046875,3.2958984375,1.953125,3.35693359375,9.6514892578125,44.219970703125,-69.5489501953125
1758878059.646621,-0.66162109375,0.13232421875,0.73876953125,1.953125,1.28173828125,2.86865234375,9.700927734375,44.23095703125,-69.510498046875
1758878059.657848,-0.66162109375,0.13232421875,0.73876953125,1.953125,1.28173828125,2.86865234375,9.7503662109375,44.2364501953125,-69.4720458984375
1758878059.6688197,-0.64697265625,0.13427734375,0.74560546875,-0.18310546875,0.30517578125,2.685546875,9.7723388671875,44.2364501953125,-69.4390869140625
1758878059.6775167,-0.64697265625,0.13427734375,0.74560546875,-0.18310546875,0.30517578125,2.685546875,9.7998046875,44.2254638671875,-69.400634765625
1758878059.6863718,-0.63720703125,0.12646484375,0.744140625,-1.3427734375,-1.03759765625,2.50244140625,9.8052978515625,44.208984375,-69.3731689453125
1758878059.6972213,-0.63720703125,0.12646484375,0.744140625,-1.3427734375,-1.03759765625,2.50244140625,9.8162841796875,44.18701171875,-69.3402099609375
1758878059.7071826,-0.64111328125,0.12646484375,0.7568359375,-2.197265625,-2.38037109375,2.44140625,9.8162841796875,44.1485595703125,-69.3182373046875
1758878059.7162297,-0.64208984375,0.12744140625,0.75341796875,-5.43212890625,-3.23486328125,2.38037109375,9.7943115234375,44.1046142578125,-69.290771484375
1758878059.7264354,-0.64208984375,0.12744140625,0.75341796875,-5.43212890625,-3.23486328125,2.38037109375,9.755859375,44.05517578125,-69.268798828125
1758878059.7375164,-0.63525390625,0.138671875,0.73779296875,-7.9345703125,-3.7841796875,2.44140625,9.7064208984375,44.0057373046875,-69.246826171875
1758878059.7468336,-0.63525390625,0.138671875,0.73779296875,-7.9345703125,-3.7841796875,2.44140625,9.64599609375,43.9508056640625,-69.224853515625
1758878059.7575917,-0.63037109375,0.14404296875,0.7470703125,-10.55908203125,-3.5400390625,2.62451171875,9.5745849609375,43.8958740234375,-69.1973876953125
1758878059.7664616,-0.63037109375,0.14404296875,0.7470703125,-10.55908203125,-3.5400390625,2.62451171875,9.4921875,43.8409423828125,-69.1644287109375
1758878059.7771559,-0.63232421875,0.13427734375,0.765625,-13.3056640625,-2.9296875,2.99072265625,9.3988037109375,43.79150390625,-69.1314697265625
1758878059.7867596,-0.63232421875,0.13427734375,0.765625,-13.3056640625,-2.9296875,2.99072265625,9.29443359375,43.7420654296875,-69.093017578125
1758878059.7983239,-0.62255859375,0.1142578125,0.76416015625,-18.98193359375,-1.89208984375,3.5400390625,9.16259765625,43.692626953125,-69.049072265625
1758878059.8063912,-0.62255859375,0.1142578125,0.76416015625,-18.98193359375,-1.89208984375,3.5400390625,9.0087890625,43.648681640625,-69.005126953125
1758878059.817004,-0.63037109375,0.12255859375,0.75341796875,-24.90234375,-1.220703125,4.33349609375,8.8275146484375,43.6102294921875,-68.9501953125
1758878059.8270087,-0.63037109375,0.12255859375,0.75341796875,-24.90234375,-1.220703125,4.33349609375,8.624267578125,43.57177734375,-68.8897705078125
1758878059.8374035,-0.64990234375,0.11572265625,0.78271484375,-32.3486328125,-1.0986328125,5.126953125,8.3880615234375,43.5333251953125,-68.818359375
1758878059.8469167,-0.64990234375,0.11572265625,0.78271484375,-32.3486328125,-1.0986328125,5.126953125,8.1243896484375,43.494873046875,-68.7469482421875
1758878059.8581734,-0.6181640625,0.11376953125,0.748046875,-33.5693359375,-1.03759765625,5.4931640625,7.8497314453125,43.4564208984375,-68.66455078125
1758878059.866522,-0.6181640625,0.11376953125,0.748046875,-33.5693359375,-1.03759765625,5.4931640625,7.5750732421875,43.4234619140625,-68.587646484375
1758878059.87751,-0.64306640625,0.1044921875,0.755859375,-37.41455078125,-0.6103515625,5.126953125,7.283935546875,43.385009765625,-68.5052490234375
1758878059.8870955,-0.64306640625,0.1044921875,0.755859375,-37.41455078125,-0.6103515625,5.126953125,6.9708251953125,43.35205078125,-68.4283447265625
1758878059.8985543,-0.65966796875,0.14892578125,0.7294921875,-53.7109375,0.06103515625,5.55419921875,6.5753173828125,43.3245849609375,-68.3404541015625
1758878059.9064105,-0.65966796875,0.14892578125,0.7294921875,-53.7109375,0.06103515625,5.55419921875,6.1138916015625,43.3026123046875,-68.2525634765625
1758878059.9176896,-0.6845703125,0.173828125,0.66796875,-67.07763671875,0.54931640625,6.103515625,5.5865478515625,43.2806396484375,-68.148193359375
1758878059.9273667,-0.6845703125,0.173828125,0.66796875,-67.07763671875,0.54931640625,6.103515625,5.0042724609375,43.26416015625,-68.038330078125
1758878059.9375253,-0.72802734375,0.08056640625,0.658203125,-69.9462890625,-0.06103515625,6.103515625,4.4110107421875,43.253173828125,-67.928466796875
1758878059.947108,-0.72802734375,0.08056640625,0.658203125,-69.9462890625,-0.06103515625,6.103515625,3.8067626953125,43.2421875,-67.8131103515625
1758878059.9621139,-0.78955078125,-0.06640625,0.73876953125,-54.931640625,-1.89208984375,5.43212890625,3.27392578125,43.2257080078125,-67.708740234375
1758878059.9697576,-0.78955078125,-0.06640625,0.73876953125,-54.931640625,-1.89208984375,5.43212890625,2.8070068359375,43.2037353515625,-67.6153564453125
1758878059.978056,-0.81396484375,-0.154296875,0.75341796875,-15.9912109375,-3.7841796875,3.96728515625,2.515869140625,43.17626953125,-67.5439453125
1758878059.986682,-0.81396484375,-0.154296875,0.75341796875,-15.9912109375,-3.7841796875,3.96728515625,2.406005859375,43.1378173828125,-67.4945068359375
1758878059.9990885,-0.76416015625,-0.01708984375,0.6318359375,11.1083984375,-4.638671875,3.662109375,2.4224853515625,43.1048583984375,-67.4560546875
1758878060.006612,-0.76416015625,-0.01708984375,0.6318359375,11.1083984375,-4.638671875,3.662109375,2.5653076171875,43.06640625,-67.4176025390625
1758878060.0170453,-0.74462890625,0.1416015625,0.5947265625,-3.96728515625,-3.35693359375,3.7841796875,2.63671875,43.0389404296875,-67.379150390625
1758878060.0276787,-0.74462890625,0.1416015625,0.5947265625,-3.96728515625,-3.35693359375,3.7841796875,2.63671875,43.0224609375,-67.335205078125
1758878060.0372097,-0.724609375,0.1650390625,0.6357421875,-33.99658203125,-2.01416015625,4.5166015625,2.4993896484375,43.0169677734375,-67.2802734375
1758878060.0466363,-0.724609375,0.1650390625,0.6357421875,-33.99658203125,-2.01416015625,4.5166015625,2.21923828125,43.0169677734375,-67.21435546875
1758878060.0572176,-0.68603515625,0.08447265625,0.712890625,-52.24609375,-0.8544921875,5.0048828125,1.856689453125,43.0224609375,-67.137451171875
1758878060.0672898,-0.68603515625,0.08447265625,0.712890625,-52.24609375,-0.8544921875,5.0048828125,1.40625,43.033447265625,-67.049560546875
1758878060.0772412,-0.6767578125,0.0009765625,0.79296875,-46.69189453125,-0.79345703125,4.638671875,0.9832763671875,43.0389404296875,-66.9671630859375
1758878060.0869293,-0.6767578125,0.0009765625,0.79296875,-46.69189453125,-0.79345703125,4.638671875,0.5877685546875,43.0499267578125,-66.8902587890625
1758878060.0991943,-0.6552734375,-0.0361328125,0.783203125,-34.5458984375,-0.48828125,4.5166015625,0.252685546875,43.0499267578125,-66.807861328125
1758878060.1072776,-0.6552734375,-0.0361328125,0.783203125,-34.5458984375,-0.48828125,4.5166015625,-0.02197265625,43.055419921875,-66.7364501953125
1758878060.1172736,-0.64501953125,0.0087890625,0.7666015625,-26.30615234375,-0.42724609375,3.84521484375,-0.2691650390625,43.0609130859375,-66.6650390625
1758878060.1280727,-0.64501953125,0.0087890625,0.7666015625,-26.30615234375,-0.42724609375,3.84521484375,-0.472412109375,43.0609130859375,-66.59912109375
1758878060.1374373,-0.66455078125,-0.00341796875,0.78759765625,-25.146484375,-0.06103515625,2.9296875,-0.6756591796875,43.055419921875,-66.5386962890625
1758878060.1469338,-0.66455078125,-0.00341796875,0.78759765625,-25.146484375,-0.06103515625,2.9296875,-0.8843994140625,43.055419921875,-66.4892578125
1758878060.1583893,-0.669921875,-0.01904296875,0.77392578125,-28.4423828125,0.1220703125,2.13623046875,-1.1041259765625,43.055419921875,-66.4398193359375
1758878060.1668835,-0.669921875,-0.01904296875,0.77392578125,-28.4423828125,0.1220703125,2.13623046875,-1.351318359375,43.055419921875,-66.3958740234375
1758878060.1773977,-0.677734375,-0.01708984375,0.74267578125,-25.87890625,0.8544921875,1.15966796875,-1.5875244140625,43.055419921875,-66.357421875
1758878060.1880088,-0.677734375,-0.01708984375,0.74267578125,-25.87890625,0.8544921875,1.15966796875,-1.8182373046875,43.0609130859375,-66.3299560546875
1758878060.1974912,-0.70068359375,-0.017578125,0.74267578125,-19.47021484375,1.40380859375,0.244140625,-2.021484375,43.0718994140625,-66.3079833984375
1758878060.207492,-0.70068359375,-0.017578125,0.74267578125,-19.47021484375,1.40380859375,0.244140625,-2.197265625,43.0828857421875,-66.29150390625
1758878060.2184622,-0.685546875,-0.037109375,0.74072265625,-16.357421875,1.40380859375,-0.91552734375,-2.362060546875,43.0938720703125,-66.280517578125
1758878060.228141,-0.685546875,-0.037109375,0.74072265625,-16.357421875,1.40380859375,-0.91552734375,-2.5213623046875,43.1048583984375,-66.280517578125
1758878060.2372391,-0.67041015625,-0.04150390625,0.73388671875,-15.13671875,0.42724609375,-1.89208984375,-2.6751708984375,43.1103515625,-66.29150390625
1758878060.247803,-0.67041015625,-0.04150390625,0.73388671875,-15.13671875,0.42724609375,-1.89208984375,-2.8289794921875,43.1103515625,-66.3079833984375
1758878060.2585442,-0.697265625,-0.0400390625,0.74951171875,-9.8876953125,-0.67138671875,-2.5634765625,-2.9608154296875,43.1048583984375,-66.324462890625
1758878060.2676358,-0.697265625,-0.0400390625,0.74951171875,-9.8876953125,-0.67138671875,-2.5634765625,-3.0706787109375,43.0938720703125,-66.3519287109375
1758878060.2774632,-0.697265625,-0.0400390625,0.74951171875,0.244140625,-1.708984375,-3.2958984375,-3.1365966796875,43.077392578125,-66.37939453125
1758878060.2897167,-0.70068359375,-0.0595703125,0.75244140625,0.244140625,-1.708984375,-3.2958984375,-3.153076171875,43.0609130859375,-66.412353515625
1758878060.2974255,-0.68310546875,-0.0751953125,0.72216796875,12.02392578125,-2.13623046875,-3.96728515625,-3.1146240234375,43.033447265625,-66.456298828125
1758878060.3076549,-0.68310546875,-0.0751953125,0.72216796875,12.02392578125,-2.13623046875,-3.96728515625,-3.0267333984375,43.011474609375,-66.5057373046875
1758878060.318154,-0.67138671875,-0.08642578125,0.697265625,21.484375,-2.13623046875,-4.2724609375,-2.8948974609375,42.9840087890625,-66.5606689453125
1758878060.328032,-0.67138671875,-0.08642578125,0.697265625,21.484375,-2.13623046875,-4.2724609375,-2.7191162109375,42.9620361328125,-66.62109375
1758878060.337403,-0.66845703125,-0.080078125,0.71923828125,25.20751953125,-2.01416015625,-4.2724609375,-2.5323486328125,42.9400634765625,-66.6815185546875
1758878060.3481812,-0.66845703125,-0.080078125,0.71923828125,25.20751953125,-2.01416015625,-4.2724609375,-2.3236083984375,42.9180908203125,-66.7474365234375
1758878060.3582327,-0.666015625,-0.05712890625,0.71923828125,28.564453125,-1.89208984375,-3.72314453125,-2.1038818359375,42.8961181640625,-66.8133544921875
1758878060.367754,-0.666015625,-0.05712890625,0.71923828125,28.564453125,-1.89208984375,-3.72314453125,-1.8621826171875,42.879638671875,-66.873779296875
1758878060.377488,-0.67138671875,-0.052734375,0.73095703125,33.14208984375,-1.8310546875,-2.99072265625,-1.5985107421875,42.857666015625,-66.9342041015625
1758878060.3892827,-0.67138671875,-0.052734375,0.73095703125,33.14208984375,-1.8310546875,-2.99072265625,-1.3128662109375,42.8411865234375,-66.9891357421875
1758878060.3974352,-0.67822265625,-0.0693359375,0.7646484375,37.29248046875,-1.5869140625,-2.0751953125,-0.999755859375,42.82470703125,-67.03857421875
1758878060.4072776,-0.67822265625,-0.0693359375,0.7646484375,37.29248046875,-1.5869140625,-2.0751953125,-0.6646728515625,42.8082275390625,-67.0880126953125
1758878060.418233,-0.69482421875,-0.0595703125,0.7373046875,44.12841796875,-1.52587890625,-1.5869140625,-0.3021240234375,42.791748046875,-67.1319580078125
1758878060.4274104,-0.69482421875,-0.0595703125,0.7373046875,44.12841796875,-1.52587890625,-1.5869140625,0.0933837890625,42.7752685546875,-67.181396484375
1758878060.4375243,-0.697265625,-0.03125,0.7119140625,47.7294921875,-1.03759765625,-1.15966796875,0.516357421875,42.7642822265625,-67.225341796875
1758878060.447376,-0.697265625,-0.03125,0.7119140625,47.7294921875,-1.03759765625,-1.15966796875,0.9503173828125,42.7532958984375,-67.2747802734375
1758878060.4583054,-0.7236328125,-0.00830078125,0.6904296875,49.4384765625,0.06103515625,-0.06103515625,1.4007568359375,42.7532958984375,-67.313232421875
1758878060.4672549,-0.7236328125,-0.00830078125,0.6904296875,49.4384765625,0.06103515625,-0.06103515625,1.8621826171875,42.7587890625,-67.34619140625
1758878060.4776182,-0.70556640625,0.01611328125,0.68896484375,43.5791015625,0.18310546875,1.0986328125,2.3016357421875,42.7642822265625,-67.3681640625
1758878060.4877434,-0.70556640625,0.01611328125,0.68896484375,43.5791015625,0.18310546875,1.0986328125,2.713623046875,42.7752685546875,-67.3846435546875
1758878060.4980018,-0.6767578125,0.0283203125,0.69677734375,38.6962890625,0.06103515625,1.8310546875,3.109130859375,42.78076171875,-67.401123046875
1758878060.5073726,-0.6767578125,0.0283203125,0.69677734375,38.6962890625,0.06103515625,1.8310546875,3.4771728515625,42.791748046875,-67.4066162109375
1758878060.5177386,-0.65576171875,0.05615234375,0.697265625,27.77099609375,0.0,1.953125,3.7957763671875,42.7972412109375,-67.4176025390625
1758878060.5280373,-0.65576171875,0.05615234375,0.697265625,27.77099609375,0.0,1.953125,4.06494140625,42.802734375,-67.4176025390625
1758878060.5377097,-0.65380859375,0.091796875,0.72119140625,23.86474609375,-0.18310546875,1.220703125,4.3121337890625,42.8082275390625,-67.4285888671875
1758878060.5477967,-0.65380859375,0.091796875,0.72119140625,23.86474609375,-0.18310546875,1.220703125,4.537353515625,42.813720703125,-67.4395751953125
1758878060.5593255,-0.65380859375,0.091796875,0.72119140625,25.57373046875,0.0,0.18310546875,4.76806640625,42.8192138671875,-67.4505615234375
1758878060.5679123,-0.65185546875,0.08251953125,0.7373046875,25.57373046875,0.0,0.18310546875,5.0042724609375,42.8192138671875,-67.4725341796875
1758878060.577809,-0.662109375,0.06005859375,0.75244140625,22.0947265625,0.67138671875,-0.54931640625,5.2239990234375,42.82470703125,-67.4945068359375
1758878060.589329,-0.662109375,0.06005859375,0.75244140625,22.0947265625,0.67138671875,-0.54931640625,5.4217529296875,42.835693359375,-67.52197265625
1758878060.5986423,-0.6630859375,0.0576171875,0.73193359375,17.822265625,1.953125,-0.79345703125,5.5975341796875,42.8466796875,-67.5494384765625
1758878060.6075578,-0.6630859375,0.0576171875,0.73193359375,17.822265625,1.953125,-0.79345703125,5.7513427734375,42.86865234375,-67.576904296875
1758878060.6181755,-0.673828125,0.06689453125,0.744140625,20.5078125,3.23486328125,-1.220703125,5.921630859375,42.8961181640625,-67.6043701171875
1758878060.6293788,-0.673828125,0.06689453125,0.744140625,20.5078125,3.23486328125,-1.220703125,6.097412109375,42.9290771484375,-67.6373291015625
1758878060.6382859,-0.68310546875,0.0693359375,0.73583984375,20.01953125,4.45556640625,-2.01416015625,6.273193359375,42.9620361328125,-67.6702880859375
1758878060.647617,-0.68310546875,0.0693359375,0.73583984375,20.01953125,4.45556640625,-2.01416015625,6.4434814453125,43.011474609375,-67.7142333984375
1758878060.6593657,-0.6767578125,0.08447265625,0.6962890625,19.47021484375,5.18798828125,-3.23486328125,6.602783203125,43.055419921875,-67.7581787109375
1758878060.6681943,-0.6767578125,0.08447265625,0.6962890625,19.47021484375,5.18798828125,-3.23486328125,6.756591796875,43.1103515625,-67.8131103515625
1758878060.6782444,-0.6943359375,0.13232421875,0.72802734375,21.05712890625,6.04248046875,-4.150390625,6.9158935546875,43.1707763671875,-67.87353515625
1758878060.6881807,-0.6943359375,0.13232421875,0.72802734375,21.05712890625,6.04248046875,-4.150390625,7.086181640625,43.231201171875,-67.9339599609375
1758878060.699291,-0.6923828125,0.150390625,0.7138671875,14.22119140625,7.14111328125,-4.45556640625,7.18505859375,43.30810546875,-67.9888916015625
1758878060.7082272,-0.6923828125,0.150390625,0.7138671875,14.22119140625,7.14111328125,-4.45556640625,7.283935546875,43.385009765625,-68.0438232421875
1758878060.7183733,-0.68603515625,0.1513671875,0.7236328125,2.8076171875,7.9345703125,-4.638671875,7.2784423828125,43.4674072265625,-68.0987548828125
1758878060.729312,-0.68603515625,0.1513671875,0.7236328125,2.8076171875,7.9345703125,-4.638671875,7.27294921875,43.5498046875,-68.148193359375
1758878060.738595,-0.6962890625,0.115234375,0.6943359375,-4.39453125,9.33837890625,-4.638671875,7.196044921875,43.6431884765625,-68.1976318359375
1758878060.7477326,-0.6962890625,0.115234375,0.6943359375,-4.39453125,9.33837890625,-4.638671875,7.1246337890625,43.736572265625,-68.2415771484375
1758878060.7589073,-0.7041015625,0.06396484375,0.7001953125,1.953125,9.58251953125,-4.69970703125,7.1136474609375,43.83544921875,-68.291015625
1758878060.769015,-0.7041015625,0.06396484375,0.7001953125,1.953125,9.58251953125,-4.69970703125,7.1026611328125,43.934326171875,-68.3349609375
1758878060.7786424,-0.71630859375,0.0517578125,0.72705078125,7.62939453125,10.07080078125,-5.126953125,7.14111328125,44.044189453125,-68.3953857421875
1758878060.7877693,-0.71630859375,0.0517578125,0.72705078125,7.62939453125,10.07080078125,-5.126953125,7.174072265625,44.1485595703125,-68.4503173828125
1758878060.7997272,-0.71142578125,0.06298828125,0.7001953125,9.033203125,10.43701171875,-5.37109375,7.2235107421875,44.2529296875,-68.5162353515625
1758878060.8091571,-0.71142578125,0.06298828125,0.7001953125,9.033203125,10.43701171875,-5.37109375,7.2674560546875,44.36279296875,-68.5821533203125
1758878060.8186417,-0.71142578125,0.0712890625,0.6943359375,10.7421875,10.7421875,-5.4931640625,7.3333740234375,44.4781494140625,-68.6480712890625
1758878060.828045,-0.71142578125,0.0712890625,0.6943359375,10.7421875,10.7421875,-5.4931640625,7.393798828125,44.5880126953125,-68.7139892578125
1758878060.8397186,-0.708984375,0.08544921875,0.6953125,12.6953125,10.55908203125,-5.18798828125,7.4761962890625,44.6978759765625,-68.7744140625
1758878060.847938,-0.708984375,0.08544921875,0.6953125,12.6953125,10.55908203125,-5.18798828125,7.55859375,44.8077392578125,-68.8348388671875
1758878060.8612995,-0.70458984375,0.08642578125,0.68505859375,16.17431640625,10.31494140625,-5.06591796875,7.679443359375,44.9176025390625,-68.895263671875
1758878060.8689165,-0.70458984375,0.08642578125,0.68505859375,16.17431640625,10.31494140625,-5.06591796875,7.7947998046875,45.02197265625,-68.9556884765625
1758878060.878814,-0.69482421875,0.09716796875,0.69091796875,13.85498046875,10.19287109375,-4.94384765625,7.8936767578125,45.1263427734375,-69.01611328125
1758878060.888065,-0.69482421875,0.09716796875,0.69091796875,13.85498046875,10.19287109375,-4.94384765625,7.987060546875,45.2362060546875,-69.071044921875
1758878060.898261,-0.69482421875,0.11083984375,0.6943359375,8.11767578125,10.19287109375,-4.57763671875,8.031005859375,45.340576171875,-69.1259765625
1758878060.9102445,-0.69482421875,0.11083984375,0.6943359375,8.11767578125,10.19287109375,-4.57763671875,8.074951171875,45.439453125,-69.1754150390625
1758878060.91825,-0.693359375,0.10546875,0.693359375,5.31005859375,9.94873046875,-4.2724609375,8.096923828125,45.5438232421875,-69.2193603515625
1758878060.9281104,-0.693359375,0.10546875,0.693359375,5.31005859375,9.94873046875,-4.2724609375,8.118896484375,45.6427001953125,-69.2633056640625
1758878060.9390314,-0.70458984375,0.10498046875,0.67041015625,7.2021484375,9.8876953125,-4.2724609375,8.1573486328125,45.7415771484375,-69.3072509765625
1758878060.9483478,-0.70458984375,0.10498046875,0.67041015625,7.2021484375,9.8876953125,-4.2724609375,8.19580078125,45.8404541015625,-69.3511962890625
1758878060.95879,-0.716796875,0.10009765625,0.685546875,6.40869140625,8.7890625,-3.84521484375,8.228759765625,45.9228515625,-69.3896484375
1758878060.9692137,-0.716796875,0.10009765625,0.685546875,6.40869140625,8.7890625,-3.84521484375,8.2672119140625,46.0107421875,-69.4281005859375
1758878060.9784608,-0.7216796875,0.107421875,0.705078125,-0.9765625,8.1787109375,-3.90625,8.228759765625,46.0931396484375,-69.466552734375
1758878060.9882205,-0.7216796875,0.107421875,0.705078125,-0.9765625,8.1787109375,-3.90625,8.1903076171875,46.175537109375,-69.5050048828125
1758878060.9989789,-0.75732421875,0.12548828125,0.69091796875,-8.97216796875,7.2021484375,-3.5400390625,8.074951171875,46.2469482421875,-69.54345703125
1758878061.0101125,-0.75732421875,0.12548828125,0.69091796875,-8.97216796875,7.2021484375,-3.5400390625,7.9595947265625,46.318359375,-69.576416015625
1758878061.0184853,-0.77880859375,0.1337890625,0.6923828125,-15.869140625,5.7373046875,-2.99072265625,7.7838134765625,46.373291015625,-69.6038818359375
1758878061.029329,-0.77880859375,0.1337890625,0.6923828125,-15.869140625,5.7373046875,-2.99072265625,7.6080322265625,46.4337158203125,-69.6258544921875
1758878061.0389793,-0.7822265625,0.10693359375,0.669921875,-17.39501953125,3.96728515625,-3.0517578125,7.415771484375,46.4776611328125,-69.6588134765625
1758878061.0492284,-0.7822265625,0.10693359375,0.669921875,-17.39501953125,3.96728515625,-3.0517578125,7.2235107421875,46.51611328125,-69.686279296875
1758878061.0590482,-0.75732421875,0.08349609375,0.65380859375,-19.287109375,2.0751953125,-2.99072265625,7.0147705078125,46.5435791015625,-69.7137451171875
1758878061.0704288,-0.75732421875,0.08349609375,0.65380859375,-19.287109375,2.0751953125,-2.99072265625,6.8060302734375,46.571044921875,-69.7467041015625
1758878061.0784771,-0.7353515625,0.0732421875,0.64111328125,-11.41357421875,0.91552734375,-3.0517578125,6.668701171875,46.5875244140625,-69.78515625
1758878061.0892704,-0.7353515625,0.0732421875,0.64111328125,-11.41357421875,0.91552734375,-3.0517578125,6.536865234375,46.60400390625,-69.818115234375
1758878061.0987701,-0.7177734375,0.064453125,0.66064453125,-4.33349609375,0.30517578125,-2.86865234375,6.470947265625,46.614990234375,-69.85107421875
1758878061.1108818,-0.7177734375,0.064453125,0.66064453125,-4.33349609375,0.30517578125,-2.86865234375,6.405029296875,46.6259765625,-69.8895263671875
1758878061.1184983,-0.7099609375,0.07666015625,0.70361328125,-3.5400390625,-0.06103515625,-2.38037109375,6.3555908203125,46.6314697265625,-69.9169921875
1758878061.1283484,-0.7099609375,0.07666015625,0.70361328125,-3.5400390625,-0.06103515625,-2.38037109375,6.3006591796875,46.636962890625,-69.9444580078125
1758878061.1427414,-0.6904296875,0.07470703125,0.69921875,-3.5400390625,-0.244140625,-1.40380859375,6.2567138671875,46.636962890625,-69.9609375
1758878061.1506147,-0.6904296875,0.07470703125,0.69921875,-3.5400390625,-0.244140625,-1.40380859375,6.2127685546875,46.6314697265625,-69.9774169921875
1758878061.159345,-0.69580078125,0.06494140625,0.6865234375,-3.72314453125,-0.6103515625,-0.30517578125,6.17431640625,46.6259765625,-69.9774169921875
1758878061.170498,-0.69580078125,0.06494140625,0.6865234375,-3.72314453125,-0.6103515625,-0.30517578125,6.141357421875,46.6204833984375,-69.9774169921875
1758878061.1790414,-0.69677734375,0.0712890625,0.70263671875,-5.79833984375,-1.40380859375,0.48828125,6.0919189453125,46.5985107421875,-69.9664306640625
1758878061.188291,-0.69677734375,0.0712890625,0.70263671875,-5.79833984375,-1.40380859375,0.48828125,6.0369873046875,46.58203125,-69.9554443359375
1758878061.198322,-0.73388671875,0.07666015625,0.68701171875,-6.28662109375,-1.5869140625,1.03759765625,5.987548828125,46.56005859375,-69.93896484375
1758878061.2144294,-0.73388671875,0.07666015625,0.68701171875,-6.28662109375,-1.5869140625,1.03759765625,5.9381103515625,46.5435791015625,-69.9224853515625
1758878061.222047,-0.75,0.0634765625,0.69921875,-7.568359375,-2.9296875,1.64794921875,5.8831787109375,46.5106201171875,-69.89501953125
1758878061.2289975,-0.75,0.0634765625,0.69921875,-7.568359375,-2.9296875,1.64794921875,5.82275390625,46.4776611328125,-69.873046875
1758878061.238692,-0.724609375,0.05810546875,0.68310546875,-7.01904296875,-2.9296875,1.8310546875,5.7733154296875,46.4447021484375,-69.85107421875
1758878061.2499604,-0.724609375,0.05810546875,0.68310546875,-7.01904296875,-2.9296875,1.8310546875,5.7183837890625,46.4117431640625,-69.8236083984375
1758878061.2586415,-0.7197265625,0.03271484375,0.6455078125,-1.3427734375,-3.60107421875,1.77001953125,5.723876953125,46.3787841796875,-69.8016357421875
1758878061.268897,-0.7197265625,0.03271484375,0.6455078125,-1.3427734375,-3.60107421875,1.77001953125,5.723876953125,46.34033203125,-69.78515625
1758878061.2793322,-0.7197265625,0.03271484375,0.6455078125,1.28173828125,-4.33349609375,1.89208984375,5.7513427734375,46.29638671875,-69.7686767578125
1758878061.2890189,-0.72021484375,0.04296875,0.6826171875,1.28173828125,-4.33349609375,1.89208984375,5.7733154296875,46.25244140625,-69.752197265625
1758878061.2986188,-0.7216796875,0.072265625,0.68359375,3.5400390625,-4.82177734375,1.5869140625,5.8172607421875,46.20849609375,-69.7412109375
1758878061.310595,-0.7216796875,0.072265625,0.68359375,3.5400390625,-4.82177734375,1.5869140625,5.8612060546875,46.1590576171875,-69.730224609375
1758878061.3191593,-0.71533203125,0.09130859375,0.658203125,4.7607421875,-5.0048828125,1.28173828125,5.9161376953125,46.109619140625,-69.71923828125
1758878061.328977,-0.71533203125,0.09130859375,0.658203125,4.7607421875,-5.0048828125,1.28173828125,5.965576171875,46.065673828125,-69.7137451171875
1758878061.3388054,-0.7216796875,0.0908203125,0.6552734375,4.0283203125,-4.82177734375,1.0986328125,6.0150146484375,46.0162353515625,-69.708251953125
1758878061.3505354,-0.7216796875,0.0908203125,0.6552734375,4.0283203125,-4.82177734375,1.0986328125,6.0589599609375,45.9722900390625,-69.697265625
1758878061.3586946,-0.73779296875,0.095703125,0.68603515625,-3.41796875,-4.8828125,0.9765625,6.031494140625,45.9283447265625,-69.6917724609375
1758878061.370086,-0.73779296875,0.095703125,0.68603515625,-3.41796875,-4.8828125,0.9765625,6.0040283203125,45.8843994140625,-69.6807861328125
1758878061.379492,-0.75146484375,0.107421875,0.65576171875,-13.916015625,-4.21142578125,1.03759765625,5.877685546875,45.8514404296875,-69.6697998046875
1758878061.3891685,-0.75146484375,0.107421875,0.65576171875,-13.916015625,-4.21142578125,1.03759765625,5.7513427734375,45.81298828125,-69.6588134765625
1758878061.3994071,-0.77587890625,0.09521484375,0.64404296875,-18.49365234375,-3.84521484375,0.54931640625,5.5755615234375,45.7855224609375,-69.6478271484375
1758878061.409896,-0.77587890625,0.09521484375,0.64404296875,-18.49365234375,-3.84521484375,0.54931640625,5.4052734375,45.758056640625,-69.6368408203125
1758878061.4193249,-0.7880859375,0.08984375,0.67626953125,-23.681640625,-2.8076171875,0.42724609375,5.1800537109375,45.7415771484375,-69.63134765625
1758878061.4292285,-0.7880859375,0.08984375,0.67626953125,-23.681640625,-2.8076171875,0.42724609375,4.9603271484375,45.72509765625,-69.620361328125
1758878061.4397328,-0.75927734375,0.05908203125,0.6357421875,-20.20263671875,-2.197265625,0.30517578125,4.7735595703125,45.7196044921875,-69.609375
1758878061.4500375,-0.75927734375,0.05908203125,0.6357421875,-20.20263671875,-2.197265625,0.30517578125,4.5867919921875,45.714111328125,-69.598388671875
1758878061.4605217,-0.7451171875,0.02685546875,0.63427734375,-12.02392578125,-2.01416015625,-0.06103515625,4.4769287109375,45.7086181640625,-69.598388671875
1758878061.4696686,-0.7451171875,0.02685546875,0.63427734375,-12.02392578125,-2.01416015625,-0.06103515625,4.361572265625,45.7086181640625,-69.598388671875
1758878061.4811177,-0.751953125,0.0283203125,0.6591796875,-4.69970703125,-1.77001953125,-0.6103515625,4.317626953125,45.7086181640625,-69.6038818359375
1758878061.4894857,-0.751953125,0.0283203125,0.6591796875,-4.69970703125,-1.77001953125,-0.6103515625,4.2681884765625,45.7086181640625,-69.6148681640625
1758878061.4995337,-0.73388671875,0.04150390625,0.662109375,1.40380859375,-1.89208984375,-1.3427734375,4.273681640625,45.703125,-69.6368408203125
1758878061.5100594,-0.73388671875,0.04150390625,0.662109375,1.40380859375,-1.89208984375,-1.3427734375,4.2791748046875,45.703125,-69.6588134765625
1758878061.520503,-0.73095703125,0.05712890625,0.66748046875,5.2490234375,-1.77001953125,-2.01416015625,4.317626953125,45.703125,-69.686279296875
1758878061.5293808,-0.73095703125,0.05712890625,0.66748046875,5.2490234375,-1.77001953125,-2.01416015625,4.3505859375,45.703125,-69.71923828125
1758878061.53963,-0.72900390625,0.05810546875,0.67822265625,7.32421875,-1.28173828125,-2.38037109375,4.4000244140625,45.7086181640625,-69.752197265625
1758878061.5504196,-0.72900390625,0.05810546875,0.67822265625,7.32421875,-1.28173828125,-2.38037109375,4.4549560546875,45.7086181640625,-69.7906494140625
1758878061.5597446,-0.72900390625,0.05810546875,0.67822265625,7.080078125,-0.732421875,-2.62451171875,4.4989013671875,45.7196044921875,-69.8291015625
1758878061.569473,-0.7265625,0.05419921875,0.68359375,7.080078125,-0.732421875,-2.62451171875,4.5428466796875,45.72509765625,-69.8675537109375
1758878061.5810444,-0.72607421875,0.0556640625,0.6943359375,7.01904296875,-0.30517578125,-2.62451171875,4.59228515625,45.736083984375,-69.9005126953125
1758878061.5896564,-0.72607421875,0.0556640625,0.6943359375,7.01904296875,-0.30517578125,-2.62451171875,4.63623046875,45.7470703125,-69.93896484375
1758878061.5990083,-0.72265625,0.0517578125,0.6904296875,9.21630859375,0.0,-2.74658203125,4.7021484375,45.758056640625,-69.9774169921875
1758878061.609987,-0.72265625,0.0517578125,0.6904296875,9.21630859375,0.0,-2.74658203125,4.7625732421875,45.76904296875,-70.0213623046875
1758878061.6205142,-0.7216796875,0.0458984375,0.68798828125,12.39013671875,0.06103515625,-3.0517578125,4.85595703125,45.780029296875,-70.0653076171875
1758878061.6294513,-0.7216796875,0.0458984375,0.68798828125,12.39013671875,0.06103515625,-3.0517578125,4.9493408203125,45.791015625,-70.1092529296875
1758878061.6391525,-0.728515625,0.0517578125,0.68505859375,15.869140625,0.06103515625,-3.5400390625,5.064697265625,45.802001953125,-70.1641845703125
1758878061.6503956,-0.72802734375,0.0673828125,0.68115234375,18.1884765625,0.244140625,-4.08935546875,5.196533203125,45.8184814453125,-70.2191162109375
1758878061.6590636,-0.72802734375,0.0673828125,0.68115234375,18.1884765625,0.244140625,-4.08935546875,5.3338623046875,45.8294677734375,-70.279541015625
1758878061.6695592,-0.72705078125,0.07958984375,0.677734375,16.78466796875,0.48828125,-4.08935546875,5.460205078125,45.845947265625,-70.3399658203125
1758878061.6799047,-0.72705078125,0.07958984375,0.677734375,16.78466796875,0.48828125,-4.08935546875,5.5810546875,45.8624267578125,-70.400390625
1758878061.689563,-0.73388671875,0.08544921875,0.6845703125,13.916015625,1.15966796875,-3.7841796875,5.6964111328125,45.87890625,-70.455322265625
1758878061.6992037,-0.73388671875,0.08544921875,0.6845703125,13.916015625,1.15966796875,-3.7841796875,5.7952880859375,45.90087890625,-70.51025390625
1758878061.7109818,-0.73046875,0.0791015625,0.6865234375,11.29150390625,1.89208984375,-3.35693359375,5.8831787109375,45.9228515625,-70.5596923828125
1758878061.7193186,-0.73046875,0.0791015625,0.6865234375,11.29150390625,1.89208984375,-3.35693359375,5.9600830078125,45.9503173828125,-70.6036376953125
1758878061.729702,-0.7255859375,0.06640625,0.6845703125,9.765625,2.38037109375,-2.8076171875,6.0369873046875,45.9832763671875,-70.64208984375
1758878061.7400396,-0.7255859375,0.06640625,0.6845703125,9.765625,2.38037109375,-2.8076171875,6.1029052734375,46.0162353515625,-70.6805419921875
1758878061.7499406,-0.7255859375,0.06787109375,0.6796875,9.21630859375,2.62451171875,-2.44140625,6.17431640625,46.043701171875,-70.718994140625
1758878061.7600744,-0.7255859375,0.06787109375,0.6796875,9.21630859375,2.62451171875,-2.44140625,6.240234375,46.07666015625,-70.751953125
1758878061.7719803,-0.71875,0.07177734375,0.685546875,10.009765625,2.9296875,-2.13623046875,6.3116455078125,46.1151123046875,-70.7794189453125
1758878061.7796588,-0.71875,0.07177734375,0.685546875,10.009765625,2.9296875,-2.13623046875,6.3885498046875,46.1480712890625,-70.8123779296875
1758878061.7902682,-0.72216796875,0.07958984375,0.697265625,10.43701171875,3.2958984375,-1.953125,6.470947265625,46.1865234375,-70.83984375
1758878061.8011858,-0.72216796875,0.07958984375,0.697265625,10.43701171875,3.2958984375,-1.953125,6.5533447265625,46.219482421875,-70.86181640625
1758878061.8109772,-0.7138671875,0.08447265625,0.68896484375,8.7890625,3.173828125,-1.708984375,6.6302490234375,46.2579345703125,-70.8892822265625
1758878061.8198788,-0.7138671875,0.08447265625,0.68896484375,8.7890625,3.173828125,-1.708984375,6.6961669921875,46.2908935546875,-70.9112548828125
1758878061.8311462,-0.708984375,0.0888671875,0.6943359375,6.591796875,2.86865234375,-1.40380859375,6.7620849609375,46.3238525390625,-70.927734375
1758878061.8401146,-0.708984375,0.0888671875,0.6943359375,6.591796875,2.86865234375,-1.40380859375,6.8115234375,46.351318359375,-70.9442138671875
1758878061.8502553,-0.7109375,0.0908203125,0.6884765625,7.50732421875,2.62451171875,-1.708984375,6.866455078125,46.3787841796875,-70.9661865234375
1758878061.8594835,-0.7109375,0.0908203125,0.6884765625,7.50732421875,2.62451171875,-1.708984375,6.92138671875,46.40625,-70.9881591796875
1758878061.8719003,-0.7080078125,0.08544921875,0.69775390625,7.62939453125,2.74658203125,-1.64794921875,6.9818115234375,46.4337158203125,-71.004638671875
1758878061.879403,-0.7080078125,0.08544921875,0.69775390625,7.62939453125,2.74658203125,-1.64794921875,7.042236328125,46.461181640625,-71.026611328125
1758878061.890453,-0.69873046875,0.08740234375,0.70751953125,5.7373046875,2.9296875,-1.220703125,7.09716796875,46.4886474609375,-71.0430908203125
1758878061.900158,-0.69873046875,0.08740234375,0.70751953125,5.7373046875,2.9296875,-1.220703125,7.14111328125,46.5106201171875,-71.0540771484375
1758878061.9103632,-0.68603515625,0.08056640625,0.71240234375,4.82177734375,2.9296875,-0.732421875,7.18505859375,46.5380859375,-71.0595703125
1758878061.9200294,-0.68603515625,0.08056640625,0.71240234375,4.82177734375,2.9296875,-0.732421875,7.2235107421875,46.56005859375,-71.0650634765625
1758878061.9314747,-0.67578125,0.07861328125,0.7216796875,4.2724609375,2.8076171875,-0.48828125,7.261962890625,46.58203125,-71.070556640625
1758878061.9401963,-0.67578125,0.07861328125,0.7216796875,4.2724609375,2.8076171875,-0.48828125,7.3004150390625,46.5985107421875,-71.0760498046875
1758878061.9497519,-0.66748046875,0.08251953125,0.7333984375,5.4931640625,2.5634765625,-0.48828125,7.3443603515625,46.614990234375,-71.08154296875
1758878061.9596524,-0.66748046875,0.08251953125,0.7333984375,5.4931640625,2.5634765625,-0.48828125,7.393798828125,46.6314697265625,-71.08154296875
1758878061.9719384,-0.66650390625,0.09033203125,0.7353515625,6.9580078125,2.25830078125,-0.732421875,7.4432373046875,46.6424560546875,-71.0870361328125
1758878061.9795442,-0.66650390625,0.09033203125,0.7353515625,6.9580078125,2.25830078125,-0.732421875,7.503662109375,46.64794921875,-71.0980224609375
1758878061.9899263,-0.6708984375,0.1015625,0.72119140625,6.16455078125,1.8310546875,-0.8544921875,7.55859375,46.6534423828125,-71.1090087890625
1758878062.0002227,-0.6708984375,0.1015625,0.72119140625,6.16455078125,1.8310546875,-0.8544921875,7.6080322265625,46.6534423828125,-71.114501953125
1758878062.0099204,-0.68310546875,0.10595703125,0.71826171875,2.44140625,1.52587890625,-0.67138671875,7.6409912109375,46.6534423828125,-71.12548828125
1758878062.0201917,-0.68310546875,0.10595703125,0.71826171875,2.44140625,1.52587890625,-0.67138671875,7.657470703125,46.6534423828125,-71.1309814453125
1758878062.0303268,-0.68310546875,0.10595703125,0.71484375,-0.9765625,1.0986328125,-0.244140625,7.6629638671875,46.64794921875,-71.1309814453125
1758878062.0403793,-0.68310546875,0.10595703125,0.71484375,-0.9765625,1.0986328125,-0.244140625,7.646484375,46.6424560546875,-71.1309814453125
1758878062.0499067,-0.69921875,0.09521484375,0.71240234375,-3.23486328125,0.30517578125,0.0,7.62451171875,46.6314697265625,-71.12548828125
1758878062.059804,-0.69921875,0.09521484375,0.71240234375,-3.23486328125,0.30517578125,0.0,7.591552734375,46.614990234375,-71.1199951171875
1758878062.0747607,-0.69921875,0.09521484375,0.71240234375,-7.62939453125,-0.42724609375,-0.06103515625,7.53662109375,46.5985107421875,-71.1199951171875
1758878062.0820832,-0.7236328125,0.0966796875,0.703125,-7.62939453125,-0.42724609375,-0.06103515625,7.459716796875,46.5765380859375,-71.114501953125
1758878062.0900373,-0.74267578125,0.1162109375,0.67626953125,-11.16943359375,-0.67138671875,-0.1220703125,7.3663330078125,46.5545654296875,-71.114501953125
1758878062.0999923,-0.74267578125,0.1162109375,0.67626953125,-11.16943359375,-0.67138671875,-0.1220703125,7.2564697265625,46.5380859375,-71.1090087890625
1758878062.1109145,-0.75048828125,0.10791015625,0.65869140625,-16.05224609375,-0.6103515625,-0.06103515625,7.119140625,46.5216064453125,-71.103515625
1758878062.1203191,-0.75048828125,0.10791015625,0.65869140625,-16.05224609375,-0.6103515625,-0.06103515625,6.96533203125,46.505126953125,-71.0980224609375
1758878062.1300678,-0.76611328125,0.0986328125,0.66064453125,-23.62060546875,-0.48828125,0.18310546875,6.778564453125,46.494140625,-71.0870361328125
1758878062.1422353,-0.76611328125,0.0986328125,0.66064453125,-23.62060546875,-0.48828125,0.18310546875,6.5533447265625,46.483154296875,-71.0760498046875
1758878062.1501288,-0.76416015625,0.0810546875,0.62890625,-24.90234375,-0.18310546875,0.3662109375,6.3226318359375,46.4776611328125,-71.0650634765625
1758878062.1617057,-0.76416015625,0.0810546875,0.62890625,-24.90234375,-0.18310546875,0.3662109375,6.08642578125,46.4776611328125,-71.048583984375
1758878062.170917,-0.765625,0.0595703125,0.625,-22.52197265625,0.06103515625,0.42724609375,5.86669921875,46.4776611328125,-71.0321044921875
1758878062.180528,-0.765625,0.0595703125,0.625,-22.52197265625,0.06103515625,0.42724609375,5.657958984375,46.483154296875,-71.015625
1758878062.1902032,-0.7685546875,0.06103515625,0.64306640625,-19.53125,0.42724609375,0.42724609375,5.4656982421875,46.494140625,-71.004638671875
1758878062.2003558,-0.7685546875,0.06103515625,0.64306640625,-19.53125,0.42724609375,0.42724609375,5.2899169921875,46.505126953125,-70.9881591796875
1758878062.209796,-0.76171875,0.06103515625,0.6552734375,-15.80810546875,0.67138671875,0.244140625,5.1251220703125,46.5216064453125,-70.9716796875
1758878062.2198465,-0.76171875,0.06103515625,0.6552734375,-15.80810546875,0.67138671875,0.244140625,4.9822998046875,46.5325927734375,-70.960693359375
1758878062.230129,-0.75537109375,0.0615234375,0.650390625,-14.58740234375,1.0986328125,0.18310546875,4.844970703125,46.5545654296875,-70.94970703125
1758878062.2399065,-0.75537109375,0.0615234375,0.650390625,-14.58740234375,1.0986328125,0.18310546875,4.713134765625,46.5765380859375,-70.9332275390625
1758878062.2498918,-0.75537109375,0.05859375,0.66015625,-13.00048828125,1.5869140625,0.1220703125,4.59228515625,46.5985107421875,-70.9222412109375
1758878062.2599633,-0.75537109375,0.05859375,0.66015625,-13.00048828125,1.5869140625,0.1220703125,4.471435546875,46.6259765625,-70.9112548828125
1758878062.2702157,-0.751953125,0.04541015625,0.66357421875,-11.474609375,2.13623046875,0.1220703125,4.3670654296875,46.6534423828125,-70.9002685546875
1758878062.2800283,-0.751953125,0.04541015625,0.66357421875,-11.474609375,2.13623046875,0.1220703125,4.2626953125,46.6864013671875,-70.8892822265625
1758878062.289983,-0.7490234375,0.0341796875,0.66943359375,-9.3994140625,2.62451171875,0.244140625,4.1748046875,46.7193603515625,-70.8782958984375
1758878062.3001976,-0.7490234375,0.0341796875,0.66943359375,-9.3994140625,2.62451171875,0.244140625,4.0924072265625,46.7578125,-70.8673095703125
1758878062.3099375,-0.74072265625,0.03271484375,0.6630859375,-6.4697265625,2.8076171875,0.0,4.02099609375,46.7962646484375,-70.8563232421875
1758878062.3199031,-0.74072265625,0.03271484375,0.6630859375,-6.4697265625,2.8076171875,0.0,3.966064453125,46.8292236328125,-70.850830078125
1758878062.3302102,-0.7373046875,0.04833984375,0.677734375,-3.2958984375,2.74658203125,-0.18310546875,3.922119140625,46.86767578125,-70.8453369140625
1758878062.340502,-0.7373046875,0.04833984375,0.677734375,-3.2958984375,2.74658203125,-0.18310546875,3.8946533203125,46.9061279296875,-70.8453369140625
1758878062.3500407,-0.740234375,0.05126953125,0.671875,-2.9296875,2.9296875,-0.48828125,3.8671875,46.9390869140625,-70.83984375
1758878062.3622146,-0.740234375,0.05126953125,0.671875,-2.9296875,2.9296875,-0.48828125,3.8397216796875,46.9775390625,-70.8453369140625
1758878062.3710701,-0.732421875,0.0546875,0.67578125,-4.150390625,3.173828125,-0.79345703125,3.8067626953125,47.0159912109375,-70.8453369140625
1758878062.3804207,-0.732421875,0.0546875,0.67578125,-4.150390625,3.173828125,-0.79345703125,3.7628173828125,47.0489501953125,-70.850830078125
1758878062.3900807,-0.72998046875,0.0439453125,0.6865234375,-2.9296875,3.60107421875,-0.732421875,3.724365234375,47.0928955078125,-70.850830078125
1758878062.4000885,-0.72998046875,0.0439453125,0.6865234375,-2.9296875,3.60107421875,-0.732421875,3.6968994140625,47.13134765625,-70.8563232421875
1758878062.4106522,-0.72607421875,0.0322265625,0.6923828125,-1.708984375,3.84521484375,-0.8544921875,3.66943359375,47.1697998046875,-70.8563232421875
1758878062.4201376,-0.72607421875,0.0322265625,0.6923828125,-1.708984375,3.84521484375,-0.8544921875,3.6529541015625,47.2137451171875,-70.86181640625
1758878062.430281,-0.71923828125,0.03662109375,0.69482421875,-0.48828125,4.150390625,-1.0986328125,3.636474609375,47.252197265625,-70.8673095703125
1758878062.4406874,-0.71923828125,0.03662109375,0.69482421875,-0.48828125,4.150390625,-1.0986328125,3.62548828125,47.296142578125,-70.8782958984375
1758878062.4502146,-0.70703125,0.04296875,0.70263671875,0.3662109375,4.33349609375,-1.220703125,3.614501953125,47.340087890625,-70.8892822265625
1758878062.460248,-0.70703125,0.04296875,0.70263671875,0.3662109375,4.33349609375,-1.220703125,3.6090087890625,47.3785400390625,-70.894775390625
1758878062.470219,-0.6962890625,0.04345703125,0.71923828125,0.42724609375,4.5166015625,-1.15966796875,3.603515625,47.4224853515625,-70.90576171875
1758878062.4807405,-0.6962890625,0.04345703125,0.71923828125,0.42724609375,4.5166015625,-1.15966796875,3.603515625,47.4609375,-70.916748046875
1758878062.4903185,-0.68310546875,0.03564453125,0.728515625,0.732421875,4.39453125,-0.91552734375,3.5980224609375,47.4993896484375,-70.9222412109375
1758878062.5002952,-0.68310546875,0.03564453125,0.728515625,0.732421875,4.39453125,-0.91552734375,3.603515625,47.5323486328125,-70.927734375
1758878062.5105386,-0.6640625,0.02685546875,0.74169921875,0.91552734375,4.150390625,-0.67138671875,3.603515625,47.5653076171875,-70.927734375
1758878062.5202932,-0.6640625,0.02685546875,0.74169921875,0.91552734375,4.150390625,-0.67138671875,3.6090087890625,47.5927734375,-70.9332275390625
1758878062.5303135,-0.64111328125,0.02587890625,0.75439453125,1.64794921875,3.90625,-0.6103515625,3.614501953125,47.61474609375,-70.9332275390625
1758878062.5403492,-0.64111328125,0.02587890625,0.75439453125,1.64794921875,3.90625,-0.6103515625,3.6199951171875,47.63671875,-70.938720703125
1758878062.55069,-0.6103515625,0.0283203125,0.7529296875,4.638671875,3.662109375,-1.03759765625,3.6419677734375,47.6531982421875,-70.938720703125
1758878062.560297,-0.6103515625,0.0283203125,0.7529296875,4.638671875,3.662109375,-1.03759765625,3.6749267578125,47.6641845703125,-70.94970703125
1758878062.570614,-0.5869140625,0.02880859375,0.75537109375,11.962890625,3.72314453125,-1.708984375,3.7408447265625,47.6751708984375,-70.960693359375
1758878062.5804815,-0.5869140625,0.02880859375,0.75537109375,11.962890625,3.72314453125,-1.708984375,3.8397216796875,47.6806640625,-70.982666015625
1758878062.5905428,-0.57177734375,0.01220703125,0.7666015625,18.49365234375,4.2724609375,-2.50244140625,3.966064453125,47.6861572265625,-71.004638671875
1758878062.6006136,-0.57177734375,0.01220703125,0.7666015625,18.49365234375,4.2724609375,-2.50244140625,4.1143798828125,47.6971435546875,-71.03759765625
1758878062.6107907,-0.619140625,0.0263671875,0.7890625,20.81298828125,5.126953125,-2.8076171875,4.28466796875,47.7081298828125,-71.0760498046875
1758878062.6204462,-0.619140625,0.0263671875,0.7890625,20.81298828125,5.126953125,-2.8076171875,4.4549560546875,47.724609375,-71.1090087890625
1758878062.6305623,-0.6923828125,0.04052734375,0.80126953125,18.798828125,5.37109375,-2.99072265625,4.5977783203125,47.735595703125,-71.1474609375
1758878062.6410036,-0.6923828125,0.04052734375,0.80126953125,18.798828125,5.37109375,-2.99072265625,4.74609375,47.7520751953125,-71.19140625
1758878062.6505299,-0.74462890625,0.099609375,0.7490234375,10.3759765625,5.2490234375,-3.11279296875,4.8065185546875,47.7685546875,-71.2298583984375
1758878062.6626515,-0.74462890625,0.099609375,0.7490234375,10.3759765625,5.2490234375,-3.11279296875,4.8724365234375,47.7850341796875,-71.268310546875
1758878062.6712434,-0.82763671875,0.1318359375,0.69091796875,2.62451171875,4.7607421875,-3.90625,4.8504638671875,47.801513671875,-71.312255859375
1758878062.6812153,-0.82763671875,0.1318359375,0.69091796875,2.62451171875,4.7607421875,-3.90625,4.8394775390625,47.823486328125,-71.3507080078125
1758878062.6905212,-0.857421875,0.12158203125,0.65380859375,-5.43212890625,3.72314453125,-4.5166015625,4.7406005859375,47.8399658203125,-71.4056396484375
1758878062.700557,-0.857421875,0.12158203125,0.65380859375,-5.43212890625,3.72314453125,-4.5166015625,4.647216796875,47.8619384765625,-71.4495849609375
1758878062.7108138,-0.78271484375,0.06787109375,0.57861328125,-8.6669921875,3.5400390625,-5.06591796875,4.515380859375,47.889404296875,-71.5045166015625
1758878062.7205887,-0.78271484375,0.06787109375,0.57861328125,-8.6669921875,3.5400390625,-5.06591796875,4.383544921875,47.9168701171875,-71.5594482421875
1758878062.7305844,-0.7412109375,0.029296875,0.52783203125,-4.94384765625,3.5400390625,-5.55419921875,4.28466796875,47.9498291015625,-71.6253662109375
1758878062.7409074,-0.7412109375,0.029296875,0.52783203125,-4.94384765625,3.5400390625,-5.55419921875,4.185791015625,47.98828125,-71.6912841796875
1758878062.7509506,-0.74267578125,0.02001953125,0.5908203125,1.708984375,3.662109375,-6.04248046875,4.1473388671875,48.0322265625,-71.7681884765625
1758878062.7606053,-0.74267578125,0.02001953125,0.5908203125,1.708984375,3.662109375,-6.04248046875,4.1033935546875,48.0706787109375,-71.8505859375
1758878062.770724,-0.78759765625,0.0146484375,0.64404296875,11.1083984375,3.35693359375,-7.01904296875,4.141845703125,48.1146240234375,-71.9439697265625
1758878062.7809756,-0.78759765625,0.0146484375,0.64404296875,11.1083984375,3.35693359375,-7.01904296875,4.1802978515625,48.1585693359375,-72.0428466796875
1758878062.790693,-0.79150390625,0.01611328125,0.66015625,20.99609375,2.8076171875,-7.87353515625,4.3011474609375,48.197021484375,-72.158203125
1758878062.8006809,-0.79150390625,0.01611328125,0.66015625,20.99609375,2.8076171875,-7.87353515625,4.4219970703125,48.2354736328125,-72.2735595703125
1758878062.8107228,-0.765625,0.03857421875,0.60693359375,26.0009765625,3.11279296875,-8.11767578125,4.5867919921875,48.2794189453125,-72.388916015625
1758878062.8211212,-0.765625,0.03857421875,0.60693359375,26.0009765625,3.11279296875,-8.11767578125,4.7515869140625,48.3233642578125,-72.509765625
1758878062.830706,-0.81005859375,0.072265625,0.630859375,23.0712890625,3.72314453125,-8.056640625,4.8944091796875,48.3782958984375,-72.630615234375
1758878062.8407562,-0.81005859375,0.072265625,0.630859375,23.0712890625,3.72314453125,-8.056640625,5.03173828125,48.427734375,-72.7459716796875
1758878062.85097,-0.8037109375,0.0791015625,0.62109375,9.82666015625,4.21142578125,-7.32421875,5.0482177734375,48.4881591796875,-72.850341796875
1758878062.8608258,-0.8037109375,0.0791015625,0.62109375,9.82666015625,4.21142578125,-7.32421875,5.064697265625,48.548583984375,-72.94921875
1758878062.8707888,-0.77587890625,0.08935546875,0.59375,-1.8310546875,5.18798828125,-6.8359375,4.976806640625,48.6199951171875,-73.0426025390625
1758878062.8812535,-0.77587890625,0.08935546875,0.59375,-1.8310546875,5.18798828125,-6.8359375,4.888916015625,48.6859130859375,-73.135986328125
1758878062.8911474,-0.7685546875,0.0634765625,0.59716796875,-3.35693359375,5.67626953125,-6.103515625,4.7900390625,48.7628173828125,-73.212890625
1758878062.9008324,-0.7685546875,0.0634765625,0.59716796875,-3.35693359375,5.67626953125,-6.103515625,4.7021484375,48.834228515625,-73.289794921875
1758878062.9108703,-0.78076171875,0.033203125,0.62255859375,-1.89208984375,5.43212890625,-5.615234375,4.625244140625,48.9056396484375,-73.3612060546875
1758878062.9209516,-0.78076171875,0.033203125,0.62255859375,-1.89208984375,5.43212890625,-5.615234375,4.54833984375,48.97705078125,-73.4326171875
1758878062.9308612,-0.7841796875,0.01416015625,0.62890625,5.31005859375,5.126953125,-5.31005859375,4.54833984375,49.0484619140625,-73.5040283203125
1758878062.9409134,-0.7841796875,0.01416015625,0.62890625,5.31005859375,5.126953125,-5.31005859375,4.5428466796875,49.1143798828125,-73.5809326171875
1758878062.9512882,-0.78125,0.02294921875,0.61474609375,13.61083984375,4.82177734375,-5.43212890625,4.6197509765625,49.1802978515625,-73.6578369140625
1758878062.961263,-0.78125,0.02294921875,0.61474609375,13.61083984375,4.82177734375,-5.43212890625,4.6966552734375,49.24072265625,-73.7347412109375
1758878062.9709644,-0.79345703125,0.0322265625,0.619140625,19.95849609375,5.0048828125,-5.4931640625,4.8284912109375,49.3121337890625,-73.817138671875
1758878062.9814978,-0.79345703125,0.0322265625,0.619140625,19.95849609375,5.0048828125,-5.4931640625,4.9658203125,49.3780517578125,-73.89404296875
1758878062.9909976,-0.79150390625,0.041015625,0.61572265625,22.3388671875,5.126953125,-5.37109375,5.1251220703125,49.4439697265625,-73.9764404296875
1758878063.0010438,-0.79150390625,0.041015625,0.61572265625,22.3388671875,5.126953125,-5.37109375,5.2789306640625,49.5098876953125,-74.0533447265625
1758878063.0111902,-0.77490234375,0.0595703125,0.6103515625,23.98681640625,5.2490234375,-5.18798828125,5.4547119140625,49.581298828125,-74.1302490234375
1758878063.021066,-0.77490234375,0.0595703125,0.6103515625,23.98681640625,5.2490234375,-5.18798828125,5.635986328125,49.6527099609375,-74.2071533203125
1758878063.0310314,-0.75927734375,0.07177734375,0.62841796875,24.2919921875,5.31005859375,-5.06591796875,5.8172607421875,49.7186279296875,-74.278564453125
1758878063.0418806,-0.75927734375,0.07177734375,0.62841796875,24.2919921875,5.31005859375,-5.06591796875,5.99853515625,49.7845458984375,-74.3499755859375
1758878063.0510895,-0.7568359375,0.076171875,0.6455078125,18.98193359375,5.0048828125,-4.8828125,6.1248779296875,49.8504638671875,-74.42138671875
1758878063.0611563,-0.7568359375,0.076171875,0.6455078125,18.98193359375,5.0048828125,-4.8828125,6.2567138671875,49.910888671875,-74.4873046875
1758878063.071378,-0.7392578125,0.0810546875,0.64453125,16.2353515625,4.45556640625,-4.69970703125,6.361083984375,49.9658203125,-74.55322265625
1758878063.0811517,-0.7392578125,0.0810546875,0.64453125,16.2353515625,4.45556640625,-4.69970703125,6.470947265625,50.0152587890625,-74.619140625
1758878063.0911427,-0.73828125,0.0869140625,0.64794921875,11.41357421875,3.7841796875,-4.39453125,6.5313720703125,50.064697265625,-74.6795654296875
1758878063.101459,-0.73828125,0.0869140625,0.64794921875,11.41357421875,3.7841796875,-4.39453125,6.591796875,50.1031494140625,-74.739990234375
1758878063.1111863,-0.75390625,0.095703125,0.67236328125,3.23486328125,3.2958984375,-3.60107421875,6.580810546875,50.1416015625,-74.783935546875
1758878063.1211832,-0.75390625,0.095703125,0.67236328125,3.23486328125,3.2958984375,-3.60107421875,6.5753173828125,50.174560546875,-74.827880859375
1758878063.1316676,-0.74560546875,0.0859375,0.677734375,-4.8828125,2.9296875,-2.50244140625,6.4984130859375,50.2020263671875,-74.8553466796875
1758878063.141294,-0.74560546875,0.0859375,0.677734375,-4.8828125,2.9296875,-2.50244140625,6.427001953125,50.2294921875,-74.8828125
1758878063.1512375,-0.73193359375,0.05712890625,0.68701171875,-9.765625,2.5634765625,-1.953125,6.30615234375,50.25146484375,-74.90478515625
1758878063.1617875,-0.73193359375,0.05712890625,0.68701171875,-9.765625,2.5634765625,-1.953125,6.1907958984375,50.2734375,-74.9212646484375
1758878063.1713662,-0.72265625,0.04296875,0.6826171875,-6.8359375,2.0751953125,-1.40380859375,6.1083984375,50.284423828125,-74.9322509765625
1758878063.1813269,-0.72265625,0.04296875,0.6826171875,-6.8359375,2.0751953125,-1.40380859375,6.0205078125,50.29541015625,-74.94873046875
1758878063.1913664,-0.71435546875,0.03173828125,0.66748046875,-2.01416015625,1.77001953125,-0.91552734375,5.987548828125,50.3009033203125,-74.9542236328125
1758878063.201887,-0.71435546875,0.03173828125,0.66748046875,-2.01416015625,1.77001953125,-0.91552734375,5.95458984375,50.306396484375,-74.9652099609375
1758878063.2113442,-0.73388671875,0.0546875,0.65380859375,3.11279296875,1.5869140625,-0.6103515625,5.9765625,50.3118896484375,-74.970703125
1758878063.2213948,-0.73388671875,0.0546875,0.65380859375,3.11279296875,1.5869140625,-0.6103515625,5.9930419921875,50.3118896484375,-74.9761962890625
1758878063.231595,-0.75146484375,0.0625,0.6337890625,10.07080078125,1.77001953125,-0.42724609375,6.08642578125,50.3173828125,-74.981689453125
1758878063.2414002,-0.75146484375,0.0625,0.6337890625,10.07080078125,1.77001953125,-0.42724609375,6.1798095703125,50.328369140625,-74.981689453125
1758878063.2513514,-0.7666015625,0.0693359375,0.654296875,10.25390625,1.64794921875,-0.244140625,6.273193359375,50.3338623046875,-74.981689453125
1758878063.2641244,-0.7666015625,0.0693359375,0.654296875,10.25390625,1.64794921875,-0.244140625,6.3720703125,50.33935546875,-74.981689453125
1758878063.2737722,-0.77587890625,0.09228515625,0.64501953125,5.43212890625,1.708984375,0.06103515625,6.4215087890625,50.3448486328125,-74.9761962890625
1758878063.2815812,-0.77587890625,0.09228515625,0.64501953125,5.43212890625,1.708984375,0.06103515625,6.4764404296875,50.3558349609375,-74.970703125
1758878063.2914147,-0.7841796875,0.10400390625,0.6337890625,-0.244140625,1.46484375,0.48828125,6.4764404296875,50.361328125,-74.9542236328125
1758878063.3014157,-0.7841796875,0.10400390625,0.6337890625,-0.244140625,1.46484375,0.48828125,6.48193359375,50.3668212890625,-74.937744140625
1758878063.312049,-0.83837890625,0.09033203125,0.61767578125,-2.38037109375,1.220703125,0.3662109375,6.4654541015625,50.372314453125,-74.9267578125
1758878063.321473,-0.83837890625,0.09033203125,0.61767578125,-2.38037109375,1.220703125,0.3662109375,6.448974609375,50.38330078125,-74.9102783203125
1758878063.3315187,-0.85009765625,0.06396484375,0.5927734375,-4.5166015625,0.42724609375,0.42724609375,6.4105224609375,50.38330078125,-74.8992919921875
1758878063.3419874,-0.85009765625,0.06396484375,0.5927734375,-4.5166015625,0.42724609375,0.42724609375,6.3775634765625,50.394287109375,-74.8828125
1758878063.352368,-0.83447265625,0.06689453125,0.56103515625,-1.15966796875,0.06103515625,0.244140625,6.3665771484375,50.3997802734375,-74.8773193359375
1758878063.3617125,-0.83447265625,0.06689453125,0.56103515625,-1.15966796875,0.06103515625,0.244140625,6.361083984375,50.4052734375,-74.8663330078125
1758878063.372253,-0.8310546875,0.0517578125,0.58203125,5.06591796875,-0.18310546875,0.0,6.416015625,50.416259765625,-74.8663330078125
1758878063.3816757,-0.8310546875,0.0517578125,0.58203125,5.06591796875,-0.18310546875,0.0,6.4654541015625,50.42724609375,-74.8663330078125
1758878063.391708,-0.85009765625,0.072265625,0.60400390625,2.01416015625,-0.30517578125,-0.244140625,6.48193359375,50.4327392578125,-74.8663330078125
1758878063.4018526,-0.85009765625,0.072265625,0.60400390625,2.01416015625,-0.30517578125,-0.244140625,6.4984130859375,50.4437255859375,-74.871826171875
1758878063.41165,-0.85107421875,0.09228515625,0.55322265625,-1.708984375,-0.06103515625,-0.48828125,6.4764404296875,50.460205078125,-74.8773193359375
1758878063.4217355,-0.85107421875,0.09228515625,0.55322265625,-1.708984375,-0.06103515625,-0.48828125,6.4544677734375,50.482177734375,-74.8828125
1758878063.431968,-0.86767578125,0.083984375,0.50048828125,4.0283203125,0.0,-0.91552734375,6.4874267578125,50.504150390625,-74.8883056640625
1758878063.4420657,-0.86767578125,0.083984375,0.50048828125,4.0283203125,0.0,-0.91552734375,6.5203857421875,50.526123046875,-74.8992919921875
1758878063.4517555,-0.88232421875,0.072265625,0.4833984375,5.37109375,0.8544921875,-1.15966796875,6.56982421875,50.5645751953125,-74.9102783203125
1758878063.4618313,-0.88232421875,0.072265625,0.4833984375,5.37109375,0.8544921875,-1.15966796875,6.61376953125,50.60302734375,-74.9212646484375
1758878063.4722044,-0.85986328125,0.07177734375,0.46142578125,3.0517578125,2.3193359375,-1.220703125,6.6357421875,50.6634521484375,-74.9322509765625
1758878063.4817832,-0.85986328125,0.07177734375,0.46142578125,3.0517578125,2.3193359375,-1.220703125,6.6632080078125,50.723876953125,-74.9432373046875
1758878063.4917965,-0.8505859375,0.0888671875,0.47412109375,0.6103515625,3.7841796875,-1.28173828125,6.6632080078125,50.80078125,-74.94873046875
1758878063.501933,-0.8505859375,0.0888671875,0.47412109375,0.6103515625,3.7841796875,-1.28173828125,6.668701171875,50.877685546875,-74.9542236328125
1758878063.5118742,-0.8447265625,0.09619140625,0.50390625,-0.91552734375,4.7607421875,-1.3427734375,6.65771484375,50.965576171875,-74.959716796875
1758878063.5218835,-0.8447265625,0.09619140625,0.50390625,-0.91552734375,4.7607421875,-1.3427734375,6.6522216796875,51.0589599609375,-74.9652099609375
1758878063.5323808,-0.8134765625,0.08984375,0.55078125,-3.96728515625,5.126953125,-1.52587890625,6.6082763671875,51.1468505859375,-74.970703125
1758878063.541905,-0.8134765625,0.08984375,0.55078125,-3.96728515625,5.126953125,-1.52587890625,6.56982421875,51.240234375,-74.970703125
1758878063.5519438,-0.79150390625,0.080078125,0.60302734375,-4.08935546875,5.55419921875,-1.64794921875,6.52587890625,51.328125,-74.9761962890625
1758878063.5648167,-0.79150390625,0.080078125,0.60302734375,-4.08935546875,5.55419921875,-1.64794921875,6.4874267578125,51.416015625,-74.981689453125
1758878063.5744333,-0.77880859375,0.0595703125,0.63134765625,-2.86865234375,5.9814453125,-1.52587890625,6.4544677734375,51.50390625,-74.9871826171875
1758878063.5822625,-0.7666015625,0.052734375,0.65185546875,-2.5634765625,5.7373046875,-1.220703125,6.427001953125,51.591796875,-74.9871826171875
1758878063.5919855,-0.7666015625,0.052734375,0.65185546875,-2.5634765625,5.7373046875,-1.220703125,6.3995361328125,51.668701171875,-74.99267578125
1758878063.602185,-0.75439453125,0.0625,0.67333984375,-0.48828125,4.94384765625,-1.15966796875,6.383056640625,51.7401123046875,-74.99267578125
1758878063.6121054,-0.75439453125,0.0625,0.67333984375,-0.48828125,4.94384765625,-1.15966796875,6.3775634765625,51.800537109375,-74.9981689453125
1758878063.62211,-0.7421875,0.06787109375,0.673828125,1.64794921875,4.21142578125,-1.220703125,6.3775634765625,51.85546875,-75.003662109375
1758878063.6323564,-0.7421875,0.06787109375,0.673828125,1.64794921875,4.21142578125,-1.220703125,6.383056640625,51.9049072265625,-75.0091552734375
1758878063.6420338,-0.7568359375,0.07373046875,0.671875,1.5869140625,3.662109375,-1.28173828125,6.39404296875,51.943359375,-75.0146484375
1758878063.6520803,-0.7568359375,0.07373046875,0.671875,1.5869140625,3.662109375,-1.28173828125,6.3995361328125,51.9818115234375,-75.0201416015625
1758878063.6624973,-0.7744140625,0.06787109375,0.640625,2.0751953125,3.72314453125,-1.3427734375,6.405029296875,52.0147705078125,-75.0311279296875
1758878063.6721816,-0.7744140625,0.06787109375,0.640625,2.0751953125,3.72314453125,-1.3427734375,6.416015625,52.0477294921875,-75.0421142578125
1758878063.6821833,-0.783203125,0.0712890625,0.6162109375,1.3427734375,3.662109375,-1.3427734375,6.4215087890625,52.0806884765625,-75.047607421875
1758878063.6921134,-0.783203125,0.0712890625,0.6162109375,1.3427734375,3.662109375,-1.3427734375,6.4215087890625,52.1136474609375,-75.05859375
1758878063.7021935,-0.783203125,0.07470703125,0.609375,1.64794921875,3.72314453125,-1.46484375,6.427001953125,52.152099609375,-75.069580078125
1758878063.7121582,-0.783203125,0.07470703125,0.609375,1.64794921875,3.72314453125,-1.46484375,6.4324951171875,52.18505859375,-75.0750732421875
1758878063.7221549,-0.77783203125,0.06787109375,0.61962890625,2.38037109375,3.7841796875,-1.40380859375,6.43798828125,52.218017578125,-75.0860595703125
1758878063.732209,-0.77783203125,0.06787109375,0.61962890625,2.38037109375,3.7841796875,-1.40380859375,6.448974609375,52.2509765625,-75.0970458984375
1758878063.7427735,-0.78076171875,0.06689453125,0.63671875,2.685546875,3.60107421875,-1.28173828125,6.4654541015625,52.283935546875,-75.1080322265625
1758878063.7521372,-0.78076171875,0.06689453125,0.63671875,2.685546875,3.60107421875,-1.28173828125,6.48193359375,52.31689453125,-75.113525390625
1758878063.7626693,-0.7822265625,0.06103515625,0.6376953125,3.5400390625,3.41796875,-0.9765625,6.4984130859375,52.3443603515625,-75.1190185546875
1758878063.7723393,-0.7822265625,0.06103515625,0.6376953125,3.5400390625,3.41796875,-0.9765625,6.52587890625,52.371826171875,-75.12451171875
1758878063.7823453,-0.77880859375,0.060546875,0.6201171875,4.0283203125,3.11279296875,-0.79345703125,6.558837890625,52.3992919921875,-75.1300048828125
1758878063.7923312,-0.77880859375,0.060546875,0.6201171875,4.0283203125,3.11279296875,-0.79345703125,6.591796875,52.4267578125,-75.1300048828125
1758878063.8026874,-0.76806640625,0.07421875,0.6318359375,2.50244140625,2.38037109375,-0.732421875,6.61376953125,52.4432373046875,-75.135498046875
1758878063.8123007,-0.76806640625,0.07421875,0.6318359375,2.50244140625,2.38037109375,-0.732421875,6.6302490234375,52.459716796875,-75.135498046875
1758878063.8223505,-0.76953125,0.0771484375,0.640625,0.06103515625,1.64794921875,-0.732421875,6.6357421875,52.470703125,-75.1409912109375
1758878063.8325708,-0.76953125,0.0771484375,0.640625,0.06103515625,1.64794921875,-0.732421875,6.624755859375,52.481689453125,-75.1409912109375
1758878063.8426485,-0.763671875,0.0703125,0.64990234375,2.01416015625,0.30517578125,-1.28173828125,6.624755859375,52.481689453125,-75.1519775390625
1758878063.8523092,-0.763671875,0.0703125,0.64990234375,2.01416015625,0.30517578125,-1.28173828125,6.624755859375,52.4761962890625,-75.16845703125
1758878063.8625057,-0.75927734375,0.0693359375,0.65625,5.55419921875,-0.9765625,-1.953125,6.6412353515625,52.459716796875,-75.1904296875
1758878063.8728356,-0.75927734375,0.0693359375,0.65625,5.55419921875,-0.9765625,-1.953125,6.668701171875,52.4432373046875,-75.2178955078125
1758878063.882537,-0.7490234375,0.08251953125,0.6748046875,4.21142578125,-2.38037109375,-2.25830078125,6.6851806640625,52.415771484375,-75.2508544921875
1758878063.892526,-0.7490234375,0.08251953125,0.6748046875,4.21142578125,-2.38037109375,-2.25830078125,6.690673828125,52.3773193359375,-75.2838134765625
1758878063.902686,-0.72216796875,0.08837890625,0.67626953125,-3.2958984375,-3.173828125,-2.44140625,6.65771484375,52.3388671875,-75.322265625
1758878063.9124684,-0.72216796875,0.08837890625,0.67626953125,-3.2958984375,-3.173828125,-2.44140625,6.591796875,52.294921875,-75.355224609375
1758878063.9224546,-0.69970703125,0.10498046875,0.6962890625,-10.80322265625,-3.90625,-2.01416015625,6.4874267578125,52.239990234375,-75.38818359375
1758878063.9329731,-0.69970703125,0.10498046875,0.6962890625,-10.80322265625,-3.90625,-2.01416015625,6.35009765625,52.18505859375,-75.4156494140625
1758878063.942561,-0.67236328125,0.10302734375,0.7451171875,-18.5546875,-4.39453125,-1.5869140625,6.1798095703125,52.119140625,-75.4376220703125
1758878063.952567,-0.67236328125,0.10302734375,0.7451171875,-18.5546875,-4.39453125,-1.5869140625,5.9765625,52.05322265625,-75.4541015625
1758878063.9626355,-0.64501953125,0.07763671875,0.740234375,-23.193359375,-4.7607421875,-1.15966796875,5.7568359375,51.976318359375,-75.4595947265625
1758878063.9729817,-0.64501953125,0.07763671875,0.740234375,-23.193359375,-4.7607421875,-1.15966796875,5.51513671875,51.8994140625,-75.465087890625
1758878063.9825556,-0.60791015625,0.03662109375,0.7412109375,-25.146484375,-5.31005859375,-0.79345703125,5.262451171875,51.8170166015625,-75.465087890625
1758878063.9926264,-0.60791015625,0.03662109375,0.7412109375,-25.146484375,-5.31005859375,-0.79345703125,5.009765625,51.7236328125,-75.4595947265625
1758878064.0030825,-0.5712890625,0.0244140625,0.6923828125,-24.2919921875,-4.8828125,-0.6103515625,4.757080078125,51.6302490234375,-75.4595947265625
1758878064.0126197,-0.5712890625,0.0244140625,0.6923828125,-24.2919921875,-4.8828125,-0.6103515625,4.5098876953125,51.5423583984375,-75.4541015625
1758878064.0225973,-0.58447265625,0.01318359375,0.66552734375,-16.41845703125,-4.5166015625,-0.6103515625,4.3011474609375,51.448974609375,-75.4486083984375
1758878064.0331137,-0.58447265625,0.01318359375,0.66552734375,-16.41845703125,-4.5166015625,-0.6103515625,4.130859375,51.3555908203125,-75.443115234375
1758878064.0428903,-0.70703125,0.0234375,0.7939453125,-6.8359375,-5.92041015625,-0.3662109375,4.010009765625,51.2567138671875,-75.4376220703125
1758878064.0526505,-0.70703125,0.0234375,0.7939453125,-6.8359375,-5.92041015625,-0.3662109375,3.93310546875,51.15234375,-75.43212890625
1758878064.0628195,-0.814453125,-0.0009765625,0.86376953125,11.8408203125,-8.48388671875,-0.8544921875,3.9495849609375,51.031494140625,-75.4376220703125
1758878064.0730565,-0.814453125,-0.0009765625,0.86376953125,11.8408203125,-8.48388671875,-0.8544921875,4.0484619140625,50.9051513671875,-75.4541015625
1758878064.0827422,-0.8427734375,0.013671875,0.7685546875,21.8505859375,-10.31494140625,-2.197265625,4.1802978515625,50.7623291015625,-75.4815673828125
1758878064.092733,-0.8427734375,0.013671875,0.7685546875,21.8505859375,-10.31494140625,-2.197265625,4.3560791015625,50.625,-75.5255126953125
1758878064.1034782,-0.91943359375,0.0576171875,0.67626953125,15.31982421875,-11.29150390625,-1.5869140625,4.4989013671875,50.4766845703125,-75.5694580078125
1758878064.1127613,-0.91943359375,0.0576171875,0.67626953125,15.31982421875,-11.29150390625,-1.5869140625,4.6087646484375,50.33935546875,-75.60791015625
1758878064.1227589,-0.88134765625,0.04443359375,0.56494140625,4.08935546875,-11.77978515625,-0.48828125,4.6746826171875,50.2020263671875,-75.6353759765625
1758878064.1332123,-0.88134765625,0.04443359375,0.56494140625,4.08935546875,-11.77978515625,-0.48828125,4.6856689453125,50.064697265625,-75.662841796875
1758878064.143151,-0.76123046875,0.06982421875,0.4365234375,0.91552734375,-12.02392578125,-0.1220703125,4.691162109375,49.9383544921875,-75.684814453125
1758878064.1533337,-0.76123046875,0.06982421875,0.4365234375,0.91552734375,-12.02392578125,-0.1220703125,4.68017578125,49.81201171875,-75.7012939453125
1758878064.1659238,-0.74609375,0.0634765625,0.40966796875,9.1552734375,-11.53564453125,-1.220703125,4.7076416015625,49.7021484375,-75.7232666015625
1758878064.174795,-0.74609375,0.0634765625,0.40966796875,9.1552734375,-11.53564453125,-1.220703125,4.7735595703125,49.5977783203125,-75.7562255859375
1758878064.182904,-0.8759765625,0.0634765625,0.53271484375,19.1650390625,-10.8642578125,-2.01416015625,4.8834228515625,49.4989013671875,-75.794677734375
1758878064.1929035,-0.8759765625,0.0634765625,0.53271484375,19.1650390625,-10.8642578125,-2.01416015625,5.0372314453125,49.4110107421875,-75.838623046875
1758878064.2033021,-0.955078125,0.033203125,0.576171875,34.0576171875,-9.6435546875,-2.5634765625,5.2679443359375,49.3341064453125,-75.882568359375
1758878064.2130537,-0.955078125,0.033203125,0.576171875,34.0576171875,-9.6435546875,-2.5634765625,5.5645751953125,49.2681884765625,-75.9375
1758878064.2229931,-0.9658203125,-0.00244140625,0.5087890625,39.55078125,-7.01904296875,-3.0517578125,5.8831787109375,49.21875,-75.9979248046875
1758878064.2333348,-0.9658203125,-0.00244140625,0.5087890625,39.55078125,-7.01904296875,-3.0517578125,6.2237548828125,49.1912841796875,-76.0693359375
1758878064.2430203,-0.95556640625,0.0625,0.43896484375,26.4892578125,-2.74658203125,-2.50244140625,6.50390625,49.185791015625,-76.1297607421875
1758878064.2530622,-0.95556640625,0.0625,0.43896484375,26.4892578125,-2.74658203125,-2.50244140625,6.7236328125,49.207763671875,-76.1846923828125
1758878064.263027,-0.91064453125,0.1376953125,0.400390625,12.20703125,1.8310546875,-1.3427734375,6.8829345703125,49.2572021484375,-76.22314453125
1758878064.2735965,-0.91064453125,0.1376953125,0.400390625,12.20703125,1.8310546875,-1.3427734375,6.9873046875,49.3341064453125,-76.2451171875
1758878064.2832377,-0.91064453125,0.1376953125,0.400390625,1.46484375,5.92041015625,-0.1220703125,7.05322265625,49.4329833984375,-76.2506103515625
1758878064.2930667,-0.8837890625,0.14453125,0.40234375,1.46484375,5.92041015625,-0.1220703125,7.0806884765625,49.54833984375,-76.2396240234375
1758878064.303404,-0.8818359375,0.107421875,0.43359375,-9.21630859375,8.85009765625,0.3662109375,7.0587158203125,49.6856689453125,-76.2176513671875
1758878064.3132467,-0.8818359375,0.107421875,0.43359375,-9.21630859375,8.85009765625,0.3662109375,6.998291015625,49.8394775390625,-76.190185546875
1758878064.3230693,-0.8427734375,0.06982421875,0.49755859375,-13.24462890625,9.6435546875,0.244140625,6.910400390625,49.9932861328125,-76.1572265625
1758878064.3332167,-0.8427734375,0.06982421875,0.49755859375,-13.24462890625,9.6435546875,0.244140625,6.8060302734375,50.152587890625,-76.1297607421875
1758878064.343625,-0.7939453125,0.0625,0.59228515625,-6.9580078125,9.033203125,-0.79345703125,6.7291259765625,50.306396484375,-76.1077880859375
1758878064.3531213,-0.7939453125,0.0625,0.59228515625,-6.9580078125,9.033203125,-0.79345703125,6.6741943359375,50.44921875,-76.102294921875
1758878064.3630931,-0.7587890625,0.064453125,0.5859375,3.47900390625,7.2021484375,-2.197265625,6.65771484375,50.5810546875,-76.102294921875
1758878064.3733814,-0.7587890625,0.064453125,0.5859375,3.47900390625,7.2021484375,-2.197265625,6.6851806640625,50.701904296875,-76.1187744140625
1758878064.383614,-0.765625,0.07373046875,0.619140625,12.8173828125,5.126953125,-3.41796875,6.74560546875,50.8062744140625,-76.1517333984375
1758878064.3932526,-0.765625,0.07373046875,0.619140625,12.8173828125,5.126953125,-3.41796875,6.8499755859375,50.899658203125,-76.190185546875
1758878064.4032683,-0.77197265625,0.0810546875,0.64892578125,16.78466796875,3.662109375,-3.90625,6.9598388671875,50.9820556640625,-76.234130859375
1758878064.4137516,-0.77197265625,0.0810546875,0.64892578125,16.78466796875,3.662109375,-3.90625,7.0916748046875,51.0479736328125,-76.2835693359375
1758878064.4232302,-0.751953125,0.0908203125,0.67138671875,9.033203125,2.99072265625,-3.35693359375,7.18505859375,51.1083984375,-76.3330078125
1758878064.4332564,-0.751953125,0.0908203125,0.67138671875,9.033203125,2.99072265625,-3.35693359375,7.239990234375,51.163330078125,-76.376953125
1758878064.4435105,-0.740234375,0.0859375,0.6904296875,2.01416015625,2.62451171875,-2.25830078125,7.2674560546875,51.207275390625,-76.409912109375
1758878064.4536307,-0.740234375,0.0859375,0.6904296875,2.01416015625,2.62451171875,-2.25830078125,7.261962890625,51.251220703125,-76.431884765625
1758878064.463836,-0.74072265625,0.0712890625,0.70556640625,0.1220703125,2.25830078125,-1.46484375,7.2564697265625,51.2841796875,-76.453857421875
1758878064.4733882,-0.74072265625,0.0712890625,0.70556640625,0.1220703125,2.25830078125,-1.46484375,7.2454833984375,51.3116455078125,-76.46484375
1758878064.4837787,-0.74267578125,0.0634765625,0.68310546875,0.1220703125,2.197265625,-0.6103515625,7.2344970703125,51.3336181640625,-76.475830078125
1758878064.4933655,-0.74267578125,0.0634765625,0.68310546875,0.1220703125,2.197265625,-0.6103515625,7.22900390625,51.35009765625,-76.4813232421875
1758878064.5033236,-0.77001953125,0.0673828125,0.64013671875,-0.3662109375,2.74658203125,0.3662109375,7.22900390625,51.3720703125,-76.475830078125
1758878064.513618,-0.77001953125,0.0673828125,0.64013671875,-0.3662109375,2.74658203125,0.3662109375,7.22900390625,51.39404296875,-76.46484375
1758878064.5233867,-0.794921875,0.0712890625,0.60546875,-3.41796875,3.23486328125,1.708984375,7.22900390625,51.416015625,-76.44287109375
1758878064.5333445,-0.794921875,0.0712890625,0.60546875,-3.41796875,3.23486328125,1.708984375,7.218017578125,51.4434814453125,-76.4044189453125
1758878064.5436623,-0.79345703125,0.07421875,0.58642578125,-6.7138671875,3.41796875,2.8076171875,7.18505859375,51.470947265625,-76.35498046875
1758878064.5533788,-0.79345703125,0.07421875,0.58642578125,-6.7138671875,3.41796875,2.8076171875,7.1575927734375,51.4984130859375,-76.3055419921875
1758878064.563342,-0.78125,0.07470703125,0.60888671875,-8.1787109375,3.173828125,3.60107421875,7.1246337890625,51.52587890625,-76.2396240234375
1758878064.5740292,-0.78125,0.07470703125,0.60888671875,-8.1787109375,3.173828125,3.60107421875,7.086181640625,51.5478515625,-76.1737060546875
1758878064.583432,-0.77783203125,0.07421875,0.63134765625,-9.09423828125,2.62451171875,4.0283203125,7.05322265625,51.56982421875,-76.1077880859375
1758878064.593788,-0.77783203125,0.07421875,0.63134765625,-9.09423828125,2.62451171875,4.0283203125,7.0147705078125,51.5863037109375,-76.036376953125
1758878064.6037273,-0.77392578125,0.076171875,0.61962890625,-8.544921875,1.8310546875,3.96728515625,6.976318359375,51.602783203125,-75.970458984375
1758878064.613491,-0.77392578125,0.076171875,0.61962890625,-8.544921875,1.8310546875,3.96728515625,6.943359375,51.61376953125,-75.8990478515625
1758878064.6238341,-0.779296875,0.0791015625,0.60693359375,-7.62939453125,1.220703125,3.84521484375,6.9158935546875,51.6192626953125,-75.8331298828125
1758878064.633587,-0.779296875,0.0791015625,0.60693359375,-7.62939453125,1.220703125,3.84521484375,6.8939208984375,51.624755859375,-75.7672119140625
1758878064.6436317,-0.7802734375,0.08056640625,0.60888671875,-8.30078125,0.732421875,3.72314453125,6.85546875,51.624755859375,-75.706787109375
1758878064.654172,-0.7802734375,0.08056640625,0.60888671875,-8.30078125,0.732421875,3.72314453125,6.822509765625,51.624755859375,-75.640869140625
1758878064.6635861,-0.783203125,0.07958984375,0.62353515625,-8.9111328125,0.6103515625,3.5400390625,6.7840576171875,51.624755859375,-75.5804443359375
1758878064.6740851,-0.783203125,0.07958984375,0.62353515625,-8.9111328125,0.6103515625,3.5400390625,6.7401123046875,51.624755859375,-75.52001953125
1758878064.683744,-0.78125,0.072265625,0.6240234375,-8.1787109375,0.6103515625,3.47900390625,6.70166015625,51.624755859375,-75.4595947265625
1758878064.6936648,-0.78125,0.072265625,0.6240234375,-8.1787109375,0.6103515625,3.47900390625,6.668701171875,51.624755859375,-75.3936767578125
1758878064.7040682,-0.77783203125,0.064453125,0.61328125,-6.4697265625,0.42724609375,3.41796875,6.6522216796875,51.624755859375,-75.3387451171875
1758878064.7136393,-0.77783203125,0.064453125,0.61328125,-6.4697265625,0.42724609375,3.41796875,6.6302490234375,51.624755859375,-75.2783203125
1758878064.7240722,-0.77392578125,0.0625,0.61328125,-3.7841796875,0.244140625,3.23486328125,6.6357421875,51.624755859375,-75.223388671875
1758878064.7339215,-0.77392578125,0.0625,0.61328125,-3.7841796875,0.244140625,3.23486328125,6.6357421875,51.6192626953125,-75.1739501953125
1758878064.7439861,-0.77490234375,0.07861328125,0.62890625,-4.0283203125,0.18310546875,3.173828125,6.6357421875,51.61376953125,-75.1190185546875
1758878064.754319,-0.77490234375,0.07861328125,0.62890625,-4.0283203125,0.18310546875,3.173828125,6.6357421875,51.61376953125,-75.0640869140625
1758878064.763721,-0.77099609375,0.09033203125,0.6474609375,-9.46044921875,0.18310546875,3.41796875,6.5863037109375,51.6082763671875,-75.0091552734375
1758878064.7738216,-0.77099609375,0.09033203125,0.6474609375,-9.46044921875,0.18310546875,3.41796875,6.536865234375,51.602783203125,-74.94873046875
1758878064.7836716,-0.7783203125,0.0771484375,0.64453125,-12.0849609375,0.06103515625,3.7841796875,6.4654541015625,51.591796875,-74.8828125
1758878064.7941222,-0.7783203125,0.0771484375,0.64453125,-12.0849609375,0.06103515625,3.7841796875,6.3995361328125,51.5863037109375,-74.81689453125
1758878064.8041356,-0.76953125,0.06591796875,0.611328125,-13.5498046875,-0.42724609375,3.7841796875,6.3116455078125,51.5753173828125,-74.7509765625
1758878064.8137786,-0.76953125,0.06591796875,0.611328125,-13.5498046875,-0.42724609375,3.7841796875,6.2237548828125,51.558837890625,-74.6905517578125
1758878064.8237808,-0.7763671875,0.07177734375,0.6201171875,-14.83154296875,-0.67138671875,4.08935546875,6.13037109375,51.5478515625,-74.619140625
1758878064.8337514,-0.7763671875,0.07177734375,0.6201171875,-14.83154296875,-0.67138671875,4.08935546875,6.0369873046875,51.5313720703125,-74.55322265625
1758878064.8443766,-0.77392578125,0.06494140625,0.642578125,-16.9677734375,-0.79345703125,4.638671875,5.9326171875,51.514892578125,-74.4708251953125
1758878064.8538582,-0.77392578125,0.06494140625,0.642578125,-16.9677734375,-0.79345703125,4.638671875,5.82275390625,51.4984130859375,-74.3939208984375
1758878064.8638756,-0.7783203125,0.0478515625,0.63720703125,-17.578125,-1.0986328125,5.0048828125,5.712890625,51.48193359375,-74.3115234375
1758878064.8740468,-0.7783203125,0.0478515625,0.63720703125,-17.578125,-1.0986328125,5.0048828125,5.5975341796875,51.4599609375,-74.234619140625
1758878064.8838763,-0.76953125,0.05078125,0.611328125,-14.95361328125,-1.52587890625,4.82177734375,5.5096435546875,51.43798828125,-74.15771484375
1758878064.8941646,-0.76953125,0.05078125,0.611328125,-14.95361328125,-1.52587890625,4.82177734375,5.4217529296875,51.4105224609375,-74.080810546875
1758878064.9042823,-0.77685546875,0.06201171875,0.6259765625,-13.671875,-1.64794921875,4.57763671875,5.3448486328125,51.3885498046875,-74.00390625
1758878064.913936,-0.77685546875,0.06201171875,0.6259765625,-13.671875,-1.64794921875,4.57763671875,5.2679443359375,51.3665771484375,-73.9324951171875
1758878064.923883,-0.7744140625,0.06103515625,0.6328125,-11.71875,-1.953125,4.150390625,5.2020263671875,51.339111328125,-73.8665771484375
1758878064.9340446,-0.7744140625,0.06103515625,0.6328125,-11.71875,-1.953125,4.150390625,5.1416015625,51.3116455078125,-73.8006591796875
1758878064.9444263,-0.78076171875,0.05419921875,0.6328125,-6.4697265625,-2.01416015625,3.2958984375,5.11962890625,51.2896728515625,-73.7457275390625
1758878064.9540205,-0.78076171875,0.05419921875,0.6328125,-6.4697265625,-2.01416015625,3.2958984375,5.0921630859375,51.26220703125,-73.6962890625
1758878064.963981,-0.77001953125,0.0546875,0.6162109375,-2.86865234375,-2.0751953125,2.62451171875,5.09765625,51.240234375,-73.65234375
1758878064.9742117,-0.77001953125,0.0546875,0.6162109375,-2.86865234375,-2.0751953125,2.62451171875,5.1031494140625,51.2127685546875,-73.6138916015625
1758878064.984039,-0.77001953125,0.056640625,0.6279296875,-1.89208984375,-2.25830078125,2.3193359375,5.1141357421875,51.185302734375,-73.5809326171875
1758878064.994073,-0.77001953125,0.056640625,0.6279296875,-1.89208984375,-2.25830078125,2.3193359375,5.11962890625,51.163330078125,-73.54248046875
1758878065.0046778,-0.7646484375,0.05224609375,0.646484375,-1.220703125,-2.44140625,2.3193359375,5.1361083984375,51.13037109375,-73.509521484375
1758878065.0140839,-0.7646484375,0.05224609375,0.646484375,-1.220703125,-2.44140625,2.3193359375,5.152587890625,51.1029052734375,-73.4765625
1758878065.0240302,-0.755859375,0.05126953125,0.6552734375,-0.1220703125,-2.8076171875,2.13623046875,5.174560546875,51.0699462890625,-73.443603515625
1758878065.0341434,-0.755859375,0.05126953125,0.6552734375,-0.1220703125,-2.8076171875,2.13623046875,5.196533203125,51.0369873046875,-73.41064453125
1758878065.0445898,-0.74755859375,0.06298828125,0.67578125,-0.42724609375,-2.9296875,2.197265625,5.2130126953125,50.99853515625,-73.3831787109375
1758878065.0541625,-0.74755859375,0.06298828125,0.67578125,-0.42724609375,-2.9296875,2.197265625,5.2349853515625,50.965576171875,-73.3502197265625
1758878065.06489,-0.740234375,0.06640625,0.701171875,-5.0048828125,-3.11279296875,2.86865234375,5.2130126953125,50.921630859375,-73.3062744140625
1758878065.074428,-0.740234375,0.06640625,0.701171875,-5.0048828125,-3.11279296875,2.86865234375,5.196533203125,50.877685546875,-73.267822265625
1758878065.084164,-0.74072265625,0.05859375,0.71484375,-12.6953125,-3.11279296875,3.47900390625,5.108642578125,50.833740234375,-73.212890625
1758878065.0942369,-0.74072265625,0.05859375,0.71484375,-12.6953125,-3.11279296875,3.47900390625,5.020751953125,50.7843017578125,-73.157958984375
1758878065.1047978,-0.72314453125,0.05126953125,0.720703125,-16.29638671875,-3.35693359375,4.150390625,4.9053955078125,50.73486328125,-73.0975341796875
1758878065.1142516,-0.72314453125,0.05126953125,0.720703125,-16.29638671875,-3.35693359375,4.150390625,4.7900390625,50.679931640625,-73.0316162109375
1758878065.124177,-0.70263671875,0.04541015625,0.734375,-19.6533203125,-3.96728515625,4.82177734375,4.6527099609375,50.6195068359375,-72.960205078125
1758878065.1342478,-0.70263671875,0.04541015625,0.734375,-19.6533203125,-3.96728515625,4.82177734375,4.5098876953125,50.5535888671875,-72.8887939453125
