timestamp,acc_x,acc_y,acc_z,gyro_x,gyro_y,gyro_z,angle_x,angle_y,angle_z
1758527227.8066714,0.78076171875,0.0693359375,0.62451171875,-0.42724609375,0.18310546875,-0.18310546875,5.9600830078125,-51.1248779296875,-38.6663818359375
1758527227.818013,0.77978515625,0.0615234375,0.62255859375,-0.244140625,0.18310546875,-0.18310546875,5.95458984375,-51.119384765625,-38.671875
1758527227.8275087,0.77978515625,0.0615234375,0.62255859375,-0.244140625,0.18310546875,-0.18310546875,5.9600830078125,-51.119384765625,-38.671875
1758527227.8354278,0.77783203125,0.06396484375,0.62451171875,0.30517578125,0.18310546875,0.0,5.9600830078125,-51.119384765625,-38.6773681640625
1758527227.8453784,0.77783203125,0.06396484375,0.62451171875,0.30517578125,0.18310546875,0.0,5.9600830078125,-51.1138916015625,-38.6773681640625
1758527227.8556142,0.7802734375,0.06201171875,0.62548828125,0.0,0.06103515625,0.18310546875,5.965576171875,-51.1138916015625,-38.6773681640625
1758527227.8653042,0.7802734375,0.06201171875,0.62548828125,0.0,0.06103515625,0.18310546875,5.9600830078125,-51.1138916015625,-38.671875
1758527227.8750687,0.77978515625,0.0625,0.62548828125,0.1220703125,0.06103515625,0.244140625,5.9600830078125,-51.1138916015625,-38.671875
1758527227.8858566,0.77978515625,0.0625,0.62548828125,0.1220703125,0.06103515625,0.244140625,5.95458984375,-51.1138916015625,-38.6663818359375
1758527227.895176,0.77978515625,0.06884765625,0.62353515625,0.0,0.18310546875,0.30517578125,5.95458984375,-51.1138916015625,-38.660888671875
1758527227.9049091,0.77978515625,0.06884765625,0.62353515625,0.0,0.18310546875,0.30517578125,5.9490966796875,-51.1138916015625,-38.660888671875
1758527227.9148512,0.7841796875,0.068359375,0.62646484375,0.0,0.06103515625,0.30517578125,5.943603515625,-51.1138916015625,-38.6553955078125
1758527227.924827,0.7841796875,0.068359375,0.62646484375,0.0,0.06103515625,0.30517578125,5.943603515625,-51.1138916015625,-38.64990234375
1758527227.935235,0.77734375,0.06396484375,0.623046875,-0.06103515625,0.0,0.244140625,5.9381103515625,-51.1138916015625,-38.64990234375
1758527227.9444146,0.77734375,0.06396484375,0.623046875,-0.06103515625,0.0,0.244140625,5.9381103515625,-51.1138916015625,-38.6444091796875
1758527227.9544115,0.77734375,0.06396484375,0.623046875,0.06103515625,0.0,0.18310546875,5.9326171875,-51.1138916015625,-38.6444091796875
1758527227.964564,0.77685546875,0.06494140625,0.62158203125,0.06103515625,0.0,0.18310546875,5.9326171875,-51.1138916015625,-38.6444091796875
1758527227.9744904,0.78173828125,0.06640625,0.62451171875,0.18310546875,0.1220703125,0.06103515625,5.9326171875,-51.1138916015625,-38.6444091796875
1758527227.9844408,0.78173828125,0.06640625,0.62451171875,0.18310546875,0.1220703125,0.06103515625,5.9326171875,-51.1138916015625,-38.6444091796875
1758527227.994649,0.7822265625,0.0673828125,0.62744140625,0.0,0.06103515625,0.0,5.9326171875,-51.1138916015625,-38.6444091796875
1758527228.0044487,0.7822265625,0.0673828125,0.62744140625,0.0,0.06103515625,0.0,5.9326171875,-51.1138916015625,-38.6444091796875
1758527228.0145266,0.78271484375,0.06494140625,0.62451171875,-0.244140625,0.06103515625,0.0,5.9326171875,-51.1138916015625,-38.6444091796875
1758527228.0277019,0.78271484375,0.06494140625,0.62451171875,-0.244140625,0.06103515625,0.0,5.9326171875,-51.1138916015625,-38.6444091796875
1758527228.0345447,0.77783203125,0.064453125,0.62353515625,-0.06103515625,0.06103515625,0.06103515625,5.9326171875,-51.1138916015625,-38.6444091796875
1758527228.0445457,0.77783203125,0.064453125,0.62353515625,-0.06103515625,0.06103515625,0.06103515625,5.9271240234375,-51.1138916015625,-38.6444091796875
1758527228.0545382,0.779296875,0.06396484375,0.62255859375,0.06103515625,0.0,0.1220703125,5.9271240234375,-51.1138916015625,-38.6444091796875
1758527228.0645607,0.779296875,0.06396484375,0.62255859375,0.06103515625,0.0,0.1220703125,5.9271240234375,-51.1138916015625,-38.6444091796875
1758527228.0745862,0.7802734375,0.0654296875,0.62451171875,0.06103515625,0.0,0.1220703125,5.9271240234375,-51.1138916015625,-38.6444091796875
1758527228.084601,0.7802734375,0.0654296875,0.62451171875,0.06103515625,0.0,0.1220703125,5.9271240234375,-51.1138916015625,-38.6444091796875
1758527228.0946014,0.77978515625,0.06396484375,0.62353515625,0.18310546875,-0.1220703125,0.06103515625,5.9271240234375,-51.1138916015625,-38.6444091796875
1758527228.1050355,0.77978515625,0.06396484375,0.62353515625,0.18310546875,-0.1220703125,0.06103515625,5.9271240234375,-51.119384765625,-38.6444091796875
1758527228.114605,0.78125,0.06494140625,0.6181640625,0.06103515625,-0.3662109375,0.0,5.9271240234375,-51.119384765625,-38.6444091796875
1758527228.1246414,0.78125,0.06494140625,0.6181640625,0.06103515625,-0.3662109375,0.0,5.9326171875,-51.1248779296875,-38.64990234375
1758527228.1346624,0.79443359375,0.072265625,0.63037109375,-0.1220703125,-0.54931640625,-0.1220703125,5.9326171875,-51.13037109375,-38.64990234375
1758527228.1446648,0.79443359375,0.072265625,0.63037109375,-0.1220703125,-0.54931640625,-0.1220703125,5.9326171875,-51.1358642578125,-38.6553955078125
1758527228.1546698,0.82080078125,0.07373046875,0.64111328125,-0.42724609375,-1.220703125,-0.54931640625,5.9381103515625,-51.1468505859375,-38.660888671875
1758527228.1646888,0.82080078125,0.07373046875,0.64111328125,-0.42724609375,-1.220703125,-0.54931640625,5.943603515625,-51.1578369140625,-38.671875
1758527228.1747024,0.84326171875,0.0595703125,0.65625,-0.30517578125,-2.86865234375,-0.732421875,5.9490966796875,-51.1798095703125,-38.6883544921875
1758527228.1847372,0.84326171875,0.0595703125,0.65625,-0.30517578125,-2.86865234375,-0.732421875,5.9600830078125,-51.207275390625,-38.704833984375
1758527228.194737,0.8818359375,0.056640625,0.6708984375,1.220703125,-4.7607421875,-0.48828125,5.9765625,-51.2457275390625,-38.7213134765625
1758527228.2047532,0.8818359375,0.056640625,0.6708984375,1.220703125,-4.7607421875,-0.48828125,5.99853515625,-51.295166015625,-38.73779296875
1758527228.2147658,0.9072265625,0.0595703125,0.69970703125,3.173828125,-6.9580078125,0.18310546875,6.031494140625,-51.3555908203125,-38.7432861328125
1758527228.224788,0.9072265625,0.0595703125,0.69970703125,3.173828125,-6.9580078125,0.18310546875,6.064453125,-51.427001953125,-38.7542724609375
1758527228.234789,0.89404296875,0.0634765625,0.69091796875,1.8310546875,-9.70458984375,0.79345703125,6.0919189453125,-51.514892578125,-38.7542724609375
1758527228.2447948,0.89404296875,0.0634765625,0.69091796875,1.8310546875,-9.70458984375,0.79345703125,6.1138916015625,-51.61376953125,-38.7542724609375
1758527228.2547991,0.83740234375,0.052734375,0.6572265625,-0.42724609375,-11.5966796875,1.3427734375,6.1138916015625,-51.7236328125,-38.7542724609375
1758527228.2648368,0.83740234375,0.052734375,0.6572265625,-0.42724609375,-11.5966796875,1.3427734375,6.1029052734375,-51.8389892578125,-38.748779296875
1758527228.2748296,0.88330078125,0.04248046875,0.6494140625,1.220703125,-13.0615234375,1.0986328125,6.1083984375,-51.9598388671875,-38.748779296875
1758527228.2868762,0.88330078125,0.04248046875,0.6494140625,1.220703125,-13.0615234375,1.0986328125,6.1138916015625,-52.0916748046875,-38.7542724609375
1758527228.2948833,0.841796875,0.0546875,0.6787109375,6.591796875,-14.70947265625,1.3427734375,6.15234375,-52.2344970703125,-38.7542724609375
1758527228.3049257,0.841796875,0.0546875,0.6787109375,6.591796875,-14.70947265625,1.3427734375,6.2127685546875,-52.3773193359375,-38.7542724609375
1758527228.3149028,0.85107421875,0.0966796875,0.59326171875,1.953125,-15.93017578125,1.5869140625,6.251220703125,-52.5311279296875,-38.759765625
1758527228.3252938,0.85107421875,0.0966796875,0.59326171875,1.953125,-15.93017578125,1.5869140625,6.2677001953125,-52.6904296875,-38.759765625
1758527228.3350284,0.84228515625,0.09814453125,0.66552734375,-4.2724609375,-16.11328125,1.64794921875,6.2567138671875,-52.8497314453125,-38.759765625
1758527228.3453262,0.84228515625,0.09814453125,0.66552734375,-4.2724609375,-16.11328125,1.64794921875,6.2127685546875,-53.0035400390625,-38.7652587890625
1758527228.3549912,0.83984375,0.09033203125,0.568359375,-8.056640625,-16.78466796875,1.220703125,6.1578369140625,-53.1683349609375,-38.770751953125
1758527228.3652697,0.83984375,0.09033203125,0.568359375,-8.056640625,-16.78466796875,1.220703125,6.08642578125,-53.3331298828125,-38.78173828125
1758527228.3749735,0.8115234375,0.0615234375,0.59375,-8.97216796875,-17.08984375,1.52587890625,6.0040283203125,-53.4979248046875,-38.7872314453125
1758527228.3857234,0.8115234375,0.0615234375,0.59375,-8.97216796875,-17.08984375,1.52587890625,5.921630859375,-53.668212890625,-38.792724609375
1758527228.395242,0.80517578125,0.04833984375,0.6162109375,-7.568359375,-16.66259765625,1.953125,5.8447265625,-53.8275146484375,-38.792724609375
1758527228.4054909,0.80517578125,0.04833984375,0.6162109375,-7.568359375,-16.66259765625,1.953125,5.767822265625,-53.98681640625,-38.792724609375
1758527228.415116,0.79150390625,0.0546875,0.55419921875,-8.23974609375,-15.93017578125,2.0751953125,5.679931640625,-54.140625,-38.7872314453125
1758527228.4258044,0.79150390625,0.0546875,0.55419921875,-8.23974609375,-15.93017578125,2.0751953125,5.592041015625,-54.29443359375,-38.78173828125
1758527228.4357276,0.76220703125,0.06591796875,0.564453125,-7.62939453125,-15.07568359375,2.5634765625,5.504150390625,-54.4427490234375,-38.7652587890625
1758527228.4455228,0.76220703125,0.06591796875,0.564453125,-7.62939453125,-15.07568359375,2.5634765625,5.416259765625,-54.5855712890625,-38.7542724609375
1758527228.4551978,0.8046875,0.02734375,0.5810546875,-5.7373046875,-13.73291015625,2.9296875,5.33935546875,-54.7174072265625,-38.7322998046875
1758527228.4659815,0.8046875,0.02734375,0.5810546875,-5.7373046875,-13.73291015625,2.9296875,5.262451171875,-54.8492431640625,-38.704833984375
1758527228.4752717,0.83056640625,0.0302734375,0.58154296875,-1.3427734375,-11.90185546875,2.38037109375,5.2294921875,-54.9591064453125,-38.6883544921875
1758527228.485465,0.83056640625,0.0302734375,0.58154296875,-1.3427734375,-11.90185546875,2.38037109375,5.2020263671875,-55.074462890625,-38.671875
1758527228.495782,0.81494140625,0.0732421875,0.56201171875,-2.8076171875,-10.80322265625,2.01416015625,5.1580810546875,-55.17333984375,-38.6553955078125
1758527228.5055683,0.81494140625,0.0732421875,0.56201171875,-2.8076171875,-10.80322265625,2.01416015625,5.1141357421875,-55.2777099609375,-38.6444091796875
1758527228.5152805,0.80908203125,0.05224609375,0.55615234375,-4.21142578125,-10.07080078125,2.3193359375,5.0537109375,-55.37109375,-38.6224365234375
1758527228.526021,0.80908203125,0.05224609375,0.55615234375,-4.21142578125,-10.07080078125,2.3193359375,4.9932861328125,-55.4644775390625,-38.6004638671875
1758527228.5352395,0.82080078125,0.013671875,0.55078125,2.0751953125,-9.1552734375,2.44140625,4.9932861328125,-55.5523681640625,-38.572998046875
1758527228.5456512,0.82080078125,0.013671875,0.55078125,2.0751953125,-9.1552734375,2.44140625,4.98779296875,-55.6402587890625,-38.5455322265625
1758527228.555864,0.81689453125,0.052734375,0.556640625,4.21142578125,-8.48388671875,1.89208984375,5.0152587890625,-55.7171630859375,-38.529052734375
1758527228.565572,0.81689453125,0.052734375,0.556640625,4.21142578125,-8.48388671875,1.89208984375,5.0372314453125,-55.799560546875,-38.5125732421875
1758527228.575525,0.8017578125,0.05859375,0.54052734375,3.84521484375,-8.056640625,1.28173828125,5.0701904296875,-55.8709716796875,-38.5015869140625
1758527228.5857062,0.8017578125,0.05859375,0.54052734375,3.84521484375,-8.056640625,1.28173828125,5.09765625,-55.9478759765625,-38.49609375
1758527228.595874,0.8173828125,0.0537109375,0.53857421875,1.77001953125,-7.62939453125,1.46484375,5.1031494140625,-56.019287109375,-38.4796142578125
1758527228.6056437,0.8173828125,0.0537109375,0.53857421875,1.77001953125,-7.62939453125,1.46484375,5.108642578125,-56.0906982421875,-38.4686279296875
1758527228.6153264,0.8095703125,0.04638671875,0.54736328125,3.72314453125,-7.4462890625,2.25830078125,5.1251220703125,-56.162109375,-38.4356689453125
1758527228.625802,0.8095703125,0.04638671875,0.54736328125,3.72314453125,-7.4462890625,2.25830078125,5.1361083984375,-56.2335205078125,-38.408203125
1758527228.6353455,0.80517578125,0.0537109375,0.5234375,2.62451171875,-7.32421875,2.86865234375,5.130615234375,-56.304931640625,-38.3697509765625
1758527228.6456985,0.80517578125,0.0537109375,0.5234375,2.62451171875,-7.32421875,2.86865234375,5.1251220703125,-56.3763427734375,-38.331298828125
1758527228.6560988,0.82275390625,0.03466796875,0.54931640625,0.1220703125,-6.4697265625,3.90625,5.07568359375,-56.436767578125,-38.2708740234375
1758527228.6657329,0.82275390625,0.03466796875,0.54931640625,0.1220703125,-6.4697265625,3.90625,5.0262451171875,-56.502685546875,-38.21044921875
1758527228.6755338,0.826171875,0.04443359375,0.541015625,-1.03759765625,-5.79833984375,5.06591796875,4.9493408203125,-56.5576171875,-38.1280517578125
1758527228.6859176,0.826171875,0.04443359375,0.541015625,-1.03759765625,-5.79833984375,5.06591796875,4.8724365234375,-56.6180419921875,-38.045654296875
1758527228.6955578,0.818359375,0.02294921875,0.54345703125,1.46484375,-5.2490234375,5.615234375,4.8065185546875,-56.6729736328125,-37.9522705078125
1758527228.7057855,0.818359375,0.02294921875,0.54345703125,1.46484375,-5.2490234375,5.615234375,4.7406005859375,-56.722412109375,-37.85888671875
1758527228.7154257,0.8115234375,0.03076171875,0.53662109375,3.662109375,-4.39453125,6.40869140625,4.6856689453125,-56.766357421875,-37.7545166015625
1758527228.7260075,0.8115234375,0.03076171875,0.53662109375,3.662109375,-4.39453125,6.40869140625,4.625244140625,-56.810302734375,-37.63916015625
1758527228.73554,0.84326171875,0.0361328125,0.53369140625,3.96728515625,-3.47900390625,6.89697265625,4.559326171875,-56.8487548828125,-37.518310546875
1758527228.7461412,0.84326171875,0.0361328125,0.53369140625,3.96728515625,-3.47900390625,6.89697265625,4.4989013671875,-56.88720703125,-37.3974609375
1758527228.7562387,0.84814453125,0.0498046875,0.56494140625,4.8828125,-2.685546875,5.615234375,4.46044921875,-56.9146728515625,-37.298583984375
1758527228.7658918,0.84814453125,0.0498046875,0.56494140625,4.8828125,-2.685546875,5.615234375,4.427490234375,-56.942138671875,-37.19970703125
1758527228.7756512,0.8291015625,0.0615234375,0.5380859375,5.18798828125,-2.0751953125,3.90625,4.4219970703125,-56.964111328125,-37.1337890625
1758527228.786096,0.8291015625,0.0615234375,0.5380859375,5.18798828125,-2.0751953125,3.90625,4.4219970703125,-56.9805908203125,-37.06787109375
1758527228.7956648,0.83544921875,0.064453125,0.5400390625,1.5869140625,-1.708984375,3.41796875,4.3890380859375,-56.9970703125,-37.0074462890625
1758527228.8060846,0.83544921875,0.064453125,0.5400390625,1.5869140625,-1.708984375,3.41796875,4.3560791015625,-57.0135498046875,-36.9525146484375
1758527228.815579,0.8583984375,0.06396484375,0.53466796875,0.0,-0.79345703125,2.0751953125,4.3341064453125,-57.0245361328125,-36.9140625
1758527228.8261116,0.8583984375,0.06396484375,0.53466796875,0.0,-0.79345703125,2.0751953125,4.306640625,-57.030029296875,-36.8756103515625
1758527228.8356326,0.841796875,0.041015625,0.564453125,1.89208984375,0.244140625,0.6103515625,4.3231201171875,-57.0245361328125,-36.8646240234375
1758527228.8459916,0.841796875,0.041015625,0.564453125,1.89208984375,0.244140625,0.6103515625,4.339599609375,-57.0245361328125,-36.8536376953125
1758527228.8563468,0.8232421875,0.04638671875,0.5341796875,3.662109375,0.8544921875,0.3662109375,4.37255859375,-57.0135498046875,-36.84814453125
1758527228.8660183,0.8232421875,0.04638671875,0.5341796875,3.662109375,0.8544921875,0.3662109375,4.405517578125,-57.0025634765625,-36.837158203125
1758527228.8757207,0.80908203125,0.07177734375,0.50244140625,0.54931640625,1.3427734375,0.67138671875,4.405517578125,-56.986083984375,-36.826171875
1758527228.886278,0.80908203125,0.07177734375,0.50244140625,0.54931640625,1.3427734375,0.67138671875,4.405517578125,-56.97509765625,-36.8096923828125
1758527228.8962579,0.81103515625,0.04833984375,0.5185546875,-2.44140625,1.77001953125,0.67138671875,4.3780517578125,-56.9586181640625,-36.7987060546875
1758527228.906052,0.81103515625,0.04833984375,0.5185546875,-2.44140625,1.77001953125,0.67138671875,4.3505859375,-56.942138671875,-36.7822265625
1758527228.9157612,0.82177734375,0.02880859375,0.51171875,-4.2724609375,1.52587890625,0.42724609375,4.306640625,-56.9256591796875,-36.771240234375
1758527228.926376,0.82177734375,0.02880859375,0.51171875,-4.2724609375,1.52587890625,0.42724609375,4.2572021484375,-56.9146728515625,-36.7547607421875
1758527228.9356976,0.83984375,0.0517578125,0.541015625,-4.0283203125,1.40380859375,0.18310546875,4.21875,-56.9036865234375,-36.749267578125
1758527228.946336,0.83984375,0.0517578125,0.541015625,-4.0283203125,1.40380859375,0.18310546875,4.1802978515625,-56.88720703125,-36.73828125
1758527228.9567904,0.84912109375,0.04345703125,0.5400390625,-3.662109375,0.91552734375,0.3662109375,4.141845703125,-56.8817138671875,-36.727294921875
1758527228.9661093,0.84912109375,0.04345703125,0.5400390625,-3.662109375,0.91552734375,0.3662109375,4.10888671875,-56.876220703125,-36.71630859375
1758527228.9758852,0.85888671875,0.0166015625,0.5380859375,0.0,-0.244140625,0.6103515625,4.1033935546875,-56.8817138671875,-36.6998291015625
1758527228.9863334,0.85888671875,0.0166015625,0.5380859375,0.0,-0.244140625,0.6103515625,4.097900390625,-56.88720703125,-36.683349609375
1758527228.9958487,0.84423828125,0.0322265625,0.53466796875,0.67138671875,-1.708984375,0.67138671875,4.097900390625,-56.9091796875,-36.67236328125
1758527229.006198,0.84423828125,0.0322265625,0.53466796875,0.67138671875,-1.708984375,0.67138671875,4.097900390625,-56.9256591796875,-36.6558837890625
1758527229.0158503,0.83251953125,0.05322265625,0.52099609375,-1.15966796875,-2.197265625,0.79345703125,4.075927734375,-56.953125,-36.6339111328125
1758527229.0263948,0.83251953125,0.05322265625,0.52099609375,-1.15966796875,-2.197265625,0.79345703125,4.0594482421875,-56.97509765625,-36.617431640625
1758527229.0358229,0.85888671875,0.02099609375,0.5390625,-0.67138671875,-2.62451171875,1.220703125,4.0374755859375,-57.008056640625,-36.5899658203125
1758527229.0462565,0.85888671875,0.02099609375,0.5390625,-0.67138671875,-2.62451171875,1.220703125,4.0155029296875,-57.0355224609375,-36.5625
1758527229.056881,0.875,0.0322265625,0.5703125,-0.54931640625,-3.0517578125,1.5869140625,3.988037109375,-57.073974609375,-36.5350341796875
1758527229.0662708,0.875,0.0322265625,0.5703125,-0.54931640625,-3.0517578125,1.5869140625,3.966064453125,-57.10693359375,-36.5020751953125
1758527229.07599,0.87060546875,0.04345703125,0.5400390625,0.06103515625,-3.662109375,1.64794921875,3.944091796875,-57.1453857421875,-36.4691162109375
1758527229.0866578,0.87060546875,0.04345703125,0.5400390625,0.06103515625,-3.662109375,1.64794921875,3.922119140625,-57.183837890625,-36.4361572265625
1758527229.0970016,0.8623046875,0.01708984375,0.5400390625,3.5400390625,-4.45556640625,1.28173828125,3.944091796875,-57.2332763671875,-36.4141845703125
1758527229.1062508,0.8623046875,0.01708984375,0.5400390625,3.5400390625,-4.45556640625,1.28173828125,3.9605712890625,-57.28271484375,-36.3922119140625
1758527229.1163728,0.87158203125,0.0439453125,0.5224609375,1.77001953125,-5.31005859375,1.0986328125,3.966064453125,-57.337646484375,-36.3702392578125
1758527229.1266208,0.87158203125,0.0439453125,0.5224609375,1.77001953125,-5.31005859375,1.0986328125,3.9715576171875,-57.392578125,-36.3482666015625
1758527229.1360404,0.865234375,0.056640625,0.564453125,-0.3662109375,-5.31005859375,1.15966796875,3.955078125,-57.447509765625,-36.3262939453125
1758527229.1463432,0.865234375,0.056640625,0.564453125,-0.3662109375,-5.31005859375,1.15966796875,3.944091796875,-57.50244140625,-36.3043212890625
1758527229.1570249,0.85986328125,0.033203125,0.5322265625,-0.06103515625,-5.0048828125,1.46484375,3.9276123046875,-57.557373046875,-36.27685546875
1758527229.1662612,0.85986328125,0.033203125,0.5322265625,-0.06103515625,-5.0048828125,1.46484375,3.9111328125,-57.6068115234375,-36.2548828125
1758527229.1761246,0.876953125,0.015625,0.5517578125,0.67138671875,-5.18798828125,1.0986328125,3.9056396484375,-57.6617431640625,-36.23291015625
1758527229.1867979,0.876953125,0.015625,0.5517578125,0.67138671875,-5.18798828125,1.0986328125,3.900146484375,-57.7166748046875,-36.2164306640625
1758527229.1963003,0.86279296875,0.03759765625,0.52099609375,2.50244140625,-5.615234375,1.220703125,3.9056396484375,-57.7716064453125,-36.1944580078125
1758527229.2063024,0.86279296875,0.03759765625,0.52099609375,2.50244140625,-5.615234375,1.220703125,3.9166259765625,-57.8265380859375,-36.1724853515625
1758527229.2161129,0.85498046875,0.04736328125,0.5341796875,0.06103515625,-6.04248046875,0.91552734375,3.9111328125,-57.8924560546875,-36.156005859375
1758527229.2267454,0.85498046875,0.04736328125,0.5341796875,0.06103515625,-6.04248046875,0.91552734375,3.9056396484375,-57.952880859375,-36.1395263671875
1758527229.23615,0.8515625,0.04638671875,0.52734375,-0.91552734375,-5.67626953125,0.6103515625,3.8946533203125,-58.0078125,-36.134033203125
1758527229.246654,0.8515625,0.04638671875,0.52734375,-0.91552734375,-5.67626953125,0.6103515625,3.878173828125,-58.062744140625,-36.123046875
1758527229.257119,0.833984375,0.03125,0.51806640625,-3.0517578125,-5.615234375,0.9765625,3.8397216796875,-58.1231689453125,-36.1065673828125
1758527229.26629,0.833984375,0.03125,0.51806640625,-3.0517578125,-5.615234375,0.9765625,3.80126953125,-58.1781005859375,-36.090087890625
1758527229.2763398,0.83447265625,0.00732421875,0.5068359375,-1.64794921875,-5.31005859375,1.3427734375,3.7738037109375,-58.2275390625,-36.068115234375
1758527229.2876925,0.83447265625,0.00732421875,0.5068359375,-1.64794921875,-5.31005859375,1.3427734375,3.7353515625,-58.282470703125,-36.0406494140625
1758527229.2972078,0.79736328125,0.03662109375,0.4921875,2.197265625,-4.69970703125,0.79345703125,3.7518310546875,-58.3319091796875,-36.0296630859375
1758527229.3090384,0.79736328125,0.03662109375,0.4921875,2.197265625,-4.69970703125,0.79345703125,3.7628173828125,-58.3758544921875,-36.01318359375
1758527229.3173108,0.857421875,0.025390625,0.51171875,-0.244140625,-4.57763671875,0.79345703125,3.7518310546875,-58.4197998046875,-36.002197265625
1758527229.3282995,0.857421875,0.025390625,0.51171875,-0.244140625,-4.57763671875,0.79345703125,3.7408447265625,-58.4637451171875,-35.9857177734375
1758527229.3363605,0.86083984375,0.0556640625,0.51953125,-1.64794921875,-4.39453125,1.0986328125,3.7078857421875,-58.5076904296875,-35.96923828125
1758527229.3465693,0.86083984375,0.0556640625,0.51953125,-1.64794921875,-4.39453125,1.0986328125,3.680419921875,-58.5516357421875,-35.947265625
1758527229.3576703,0.87353515625,0.0234375,0.52978515625,-1.77001953125,-3.96728515625,1.28173828125,3.6474609375,-58.5955810546875,-35.92529296875
1758527229.3691082,0.88232421875,0.01806640625,0.521484375,-0.06103515625,-3.72314453125,0.9765625,3.62548828125,-58.634033203125,-35.9088134765625
1758527229.3770885,0.88232421875,0.01806640625,0.521484375,-0.06103515625,-3.72314453125,0.9765625,3.6090087890625,-58.6669921875,-35.8868408203125
1758527229.3869195,0.86474609375,0.0380859375,0.533203125,-0.42724609375,-3.90625,0.8544921875,3.5980224609375,-58.7054443359375,-35.870361328125
1758527229.3967977,0.86474609375,0.0380859375,0.533203125,-0.42724609375,-3.90625,0.8544921875,3.58154296875,-58.743896484375,-35.8538818359375
1758527229.4063892,0.8505859375,0.03369140625,0.50732421875,-1.89208984375,-4.150390625,1.220703125,3.5595703125,-58.787841796875,-35.83740234375
1758527229.4167943,0.8505859375,0.03369140625,0.50732421875,-1.89208984375,-4.150390625,1.220703125,3.5211181640625,-58.8262939453125,-35.8099365234375
1758527229.4269292,0.86767578125,0.0166015625,0.52001953125,-1.15966796875,-4.638671875,1.40380859375,3.4881591796875,-58.8702392578125,-35.7879638671875
1758527229.4365392,0.86767578125,0.0166015625,0.52001953125,-1.15966796875,-4.638671875,1.40380859375,3.460693359375,-58.9141845703125,-35.760498046875
1758527229.4465954,0.8837890625,0.033203125,0.517578125,-1.953125,-4.94384765625,1.3427734375,3.427734375,-58.963623046875,-35.7330322265625
1758527229.4570806,0.8837890625,0.033203125,0.517578125,-1.953125,-4.94384765625,1.3427734375,3.3892822265625,-59.0130615234375,-35.7110595703125
1758527229.4665015,0.88134765625,0.04541015625,0.49755859375,-5.2490234375,-5.126953125,1.89208984375,3.328857421875,-59.0625,-35.6781005859375
1758527229.4767277,0.88134765625,0.04541015625,0.49755859375,-5.2490234375,-5.126953125,1.89208984375,3.251953125,-59.117431640625,-35.6396484375
1758527229.486988,0.8779296875,0.03173828125,0.5185546875,-6.04248046875,-5.4931640625,2.0751953125,3.1695556640625,-59.17236328125,-35.6011962890625
1758527229.4972787,0.8779296875,0.03173828125,0.5185546875,-6.04248046875,-5.4931640625,2.0751953125,3.0816650390625,-59.227294921875,-35.562744140625
1758527229.5065944,0.88330078125,-0.005859375,0.51708984375,-0.1220703125,-6.04248046875,1.77001953125,3.0267333984375,-59.2822265625,-35.5242919921875
1758527229.5168607,0.88330078125,-0.005859375,0.51708984375,-0.1220703125,-6.04248046875,1.77001953125,3.0047607421875,-59.34814453125,-35.4913330078125
1758527229.5270364,0.87548828125,0.02880859375,0.490234375,1.46484375,-6.34765625,1.46484375,2.98828125,-59.4085693359375,-35.4583740234375
1758527229.5366786,0.87548828125,0.02880859375,0.490234375,1.46484375,-6.34765625,1.46484375,2.9827880859375,-59.4744873046875,-35.430908203125
1758527229.5468097,0.89599609375,0.056640625,0.52197265625,-0.9765625,-6.40869140625,1.40380859375,2.96630859375,-59.534912109375,-35.4034423828125
1758527229.5570352,0.89599609375,0.056640625,0.52197265625,-0.9765625,-6.40869140625,1.40380859375,2.9443359375,-59.600830078125,-35.3759765625
1758527229.566646,0.88525390625,0.04296875,0.50537109375,-6.89697265625,-6.28662109375,1.5869140625,2.8839111328125,-59.666748046875,-35.343017578125
1758527229.5772738,0.88525390625,0.04296875,0.50537109375,-6.89697265625,-6.28662109375,1.5869140625,2.801513671875,-59.7271728515625,-35.3155517578125
1758527229.5872312,0.89453125,0.00732421875,0.4970703125,-6.77490234375,-6.40869140625,1.8310546875,2.713623046875,-59.7930908203125,-35.2825927734375
1758527229.5968177,0.89453125,0.00732421875,0.4970703125,-6.77490234375,-6.40869140625,1.8310546875,2.625732421875,-59.8590087890625,-35.244140625
1758527229.6066682,0.9072265625,-0.01416015625,0.494140625,-2.38037109375,-6.7138671875,1.5869140625,2.559814453125,-59.9249267578125,-35.211181640625
1758527229.6166887,0.9072265625,-0.01416015625,0.494140625,-2.38037109375,-6.7138671875,1.5869140625,2.515869140625,-59.996337890625,-35.17822265625
1758527229.6270232,0.90576171875,0.01953125,0.5458984375,1.708984375,-6.591796875,1.220703125,2.4884033203125,-60.062255859375,-35.1507568359375
1758527229.636727,0.90576171875,0.01953125,0.5458984375,1.708984375,-6.591796875,1.220703125,2.4884033203125,-60.128173828125,-35.123291015625
1758527229.647003,0.88134765625,0.03955078125,0.47705078125,-1.03759765625,-6.591796875,1.5869140625,2.471923828125,-60.194091796875,-35.0958251953125
1758527229.6601515,0.88134765625,0.03955078125,0.47705078125,-1.03759765625,-6.591796875,1.5869140625,2.43896484375,-60.260009765625,-35.0628662109375
1758527229.66676,0.89013671875,0.02197265625,0.501953125,-5.67626953125,-6.591796875,2.38037109375,2.3785400390625,-60.325927734375,-35.0244140625
1758527229.676832,0.89013671875,0.02197265625,0.501953125,-5.67626953125,-6.591796875,2.38037109375,2.2906494140625,-60.391845703125,-34.9749755859375
1758527229.692861,0.876953125,0.00634765625,0.46337890625,-3.11279296875,-6.89697265625,3.11279296875,2.2027587890625,-60.457763671875,-34.9200439453125
1758527229.7002094,0.876953125,0.00634765625,0.46337890625,-3.11279296875,-6.89697265625,3.11279296875,2.1258544921875,-60.5291748046875,-34.8541259765625
1758527229.706796,0.86328125,0.009765625,0.49169921875,-1.77001953125,-6.89697265625,3.662109375,2.04345703125,-60.6005859375,-34.7882080078125
1758527229.7211444,0.86328125,0.009765625,0.49169921875,-1.77001953125,-6.89697265625,3.662109375,1.966552734375,-60.6719970703125,-34.7113037109375
1758527229.727886,0.8359375,-0.0087890625,0.4775390625,0.79345703125,-6.77490234375,3.60107421875,1.9061279296875,-60.7379150390625,-34.639892578125
1758527229.7369683,0.8359375,-0.0087890625,0.4775390625,0.79345703125,-6.77490234375,3.60107421875,1.8511962890625,-60.809326171875,-34.56298828125
1758527229.7472532,0.8525390625,0.03857421875,0.46337890625,0.91552734375,-6.28662109375,3.7841796875,1.7962646484375,-60.8697509765625,-34.486083984375
1758527229.7576504,0.8525390625,0.03857421875,0.46337890625,0.91552734375,-6.28662109375,3.7841796875,1.7413330078125,-60.9356689453125,-34.4091796875
1758527229.7669034,0.84521484375,0.068359375,0.49072265625,-12.87841796875,-5.126953125,4.150390625,1.614990234375,-60.9906005859375,-34.3267822265625
1758527229.777396,0.84521484375,0.068359375,0.49072265625,-12.87841796875,-5.126953125,4.150390625,1.4227294921875,-61.0400390625,-34.244384765625
1758527229.787813,0.85009765625,0.03515625,0.44091796875,-19.10400390625,-4.2724609375,5.31005859375,1.1920166015625,-61.083984375,-34.1510009765625
1758527229.7991915,0.85009765625,0.03515625,0.44091796875,-19.10400390625,-4.2724609375,5.31005859375,0.9228515625,-61.1279296875,-34.0411376953125
1758527229.8080616,0.85009765625,-0.05908203125,0.484375,-13.3056640625,-3.96728515625,4.638671875,0.6866455078125,-61.1663818359375,-33.9422607421875
1758527229.817142,0.85009765625,-0.05908203125,0.484375,-13.3056640625,-3.96728515625,4.638671875,0.4779052734375,-61.204833984375,-33.8433837890625
1758527229.8273673,0.8671875,-0.02783203125,0.45654296875,-3.47900390625,-4.08935546875,3.23486328125,0.32958984375,-61.2432861328125,-33.760986328125
1758527229.8369806,0.8671875,-0.02783203125,0.45654296875,-3.47900390625,-4.08935546875,3.23486328125,0.24169921875,-61.28173828125,-33.6895751953125
1758527229.847282,0.865234375,0.05029296875,0.4619140625,-4.33349609375,-3.662109375,2.25830078125,0.15380859375,-61.3201904296875,-33.629150390625
1758527229.85728,0.865234375,0.05029296875,0.4619140625,-4.33349609375,-3.662109375,2.25830078125,0.076904296875,-61.3531494140625,-33.5797119140625
1758527229.8670397,0.8671875,0.00244140625,0.482421875,-5.859375,-2.9296875,2.13623046875,0.0,-61.3861083984375,-33.5302734375
1758527229.8771257,0.8671875,0.00244140625,0.482421875,-5.859375,-2.9296875,2.13623046875,-0.087890625,-61.41357421875,-33.486328125
1758527229.887838,0.84033203125,-0.0390625,0.43212890625,-2.685546875,-2.25830078125,1.708984375,-0.1593017578125,-61.4410400390625,-33.4423828125
1758527229.8971472,0.84033203125,-0.0390625,0.43212890625,-2.685546875,-2.25830078125,1.708984375,-0.2142333984375,-61.4630126953125,-33.4039306640625
1758527229.907107,0.84033203125,-0.0390625,0.43212890625,0.3662109375,-2.0751953125,0.8544921875,-0.24169921875,-61.4849853515625,-33.3709716796875
1758527229.9234965,0.88037109375,-0.0126953125,0.45849609375,0.3662109375,-2.0751953125,0.8544921875,-0.252685546875,-61.50146484375,-33.3489990234375
1758527229.9300525,0.88232421875,0.0048828125,0.46826171875,1.0986328125,-2.5634765625,0.3662109375,-0.2581787109375,-61.5289306640625,-33.3270263671875
1758527229.9370959,0.88232421875,0.0048828125,0.46826171875,1.0986328125,-2.5634765625,0.3662109375,-0.252685546875,-61.556396484375,-33.310546875
1758527229.9470952,0.9111328125,-0.00341796875,0.46484375,3.60107421875,-2.74658203125,0.18310546875,-0.230712890625,-61.5838623046875,-33.2940673828125
1758527229.9641538,0.9111328125,-0.00341796875,0.46484375,3.60107421875,-2.74658203125,0.18310546875,-0.19775390625,-61.611328125,-33.2830810546875
1758527229.971111,0.92236328125,-0.04833984375,0.46826171875,8.6669921875,-2.5634765625,-0.06103515625,-0.1373291015625,-61.6387939453125,-33.2720947265625
1758527229.9772255,0.92236328125,-0.04833984375,0.46826171875,8.6669921875,-2.5634765625,-0.06103515625,-0.054931640625,-61.666259765625,-33.2611083984375
1758527229.990034,0.92431640625,0.0068359375,0.5087890625,7.38525390625,-2.685546875,-0.18310546875,0.0164794921875,-61.69921875,-33.2501220703125
1758527229.9975204,0.92431640625,0.0068359375,0.5087890625,7.38525390625,-2.685546875,-0.18310546875,0.087890625,-61.7266845703125,-33.2391357421875
1758527230.0072231,0.91650390625,0.0576171875,0.4833984375,-0.54931640625,-3.35693359375,0.18310546875,0.1153564453125,-61.7596435546875,-33.2281494140625
1758527230.0174773,0.91650390625,0.0576171875,0.4833984375,-0.54931640625,-3.35693359375,0.18310546875,0.10986328125,-61.7926025390625,-33.2171630859375
1758527230.0274677,0.93212890625,-0.00927734375,0.51123046875,3.72314453125,-4.33349609375,-0.8544921875,0.1373291015625,-61.8310546875,-33.2171630859375
1758527230.0372686,0.93212890625,-0.00927734375,0.51123046875,3.72314453125,-4.33349609375,-0.8544921875,0.1922607421875,-61.875,-33.2281494140625
1758527230.0472963,0.89990234375,-0.07958984375,0.42041015625,16.29638671875,-5.0048828125,-3.5400390625,0.32958984375,-61.9244384765625,-33.2666015625
1758527230.0575473,0.89990234375,-0.07958984375,0.42041015625,16.29638671875,-5.0048828125,-3.5400390625,0.5548095703125,-61.973876953125,-33.3270263671875
1758527230.0672855,0.96728515625,0.021484375,0.55126953125,16.7236328125,-5.79833984375,-5.126953125,0.7855224609375,-62.02880859375,-33.4039306640625
1758527230.077306,0.96728515625,0.021484375,0.55126953125,16.7236328125,-5.79833984375,-5.126953125,1.043701171875,-62.0892333984375,-33.5028076171875
1758527230.0876522,0.9091796875,0.0703125,0.443359375,8.6669921875,-6.16455078125,-4.57763671875,1.25244140625,-62.1441650390625,-33.59619140625
1758527230.0973158,0.9091796875,0.0703125,0.443359375,8.6669921875,-6.16455078125,-4.57763671875,1.4227294921875,-62.20458984375,-33.6895751953125
1758527230.107358,0.888671875,0.044921875,0.48193359375,3.47900390625,-6.8359375,-3.96728515625,1.5655517578125,-62.2705078125,-33.77197265625
1758527230.11739,0.888671875,0.044921875,0.48193359375,3.47900390625,-6.8359375,-3.96728515625,1.6754150390625,-62.33642578125,-33.8543701171875
1758527230.127441,0.8701171875,0.01025390625,0.4443359375,3.0517578125,-7.32421875,-3.47900390625,1.7852783203125,-62.4078369140625,-33.936767578125
1758527230.1373763,0.8701171875,0.01025390625,0.4443359375,3.0517578125,-7.32421875,-3.47900390625,1.8841552734375,-62.479248046875,-34.0081787109375
1758527230.1473544,0.8798828125,0.009765625,0.43017578125,2.8076171875,-7.62939453125,-2.99072265625,1.9830322265625,-62.5506591796875,-34.0740966796875
1758527230.157637,0.8798828125,0.009765625,0.43017578125,2.8076171875,-7.62939453125,-2.99072265625,2.0709228515625,-62.6275634765625,-34.1400146484375
1758527230.1674433,0.85791015625,0.00830078125,0.43310546875,-1.64794921875,-7.2021484375,-2.13623046875,2.1258544921875,-62.698974609375,-34.189453125
1758527230.1775048,0.85791015625,0.00830078125,0.43310546875,-1.64794921875,-7.2021484375,-2.13623046875,2.1533203125,-62.7703857421875,-34.2333984375
1758527230.1875436,0.85791015625,0.00830078125,0.43310546875,-2.50244140625,-6.8359375,-0.9765625,2.164306640625,-62.8363037109375,-34.2608642578125
1758527230.1976044,0.84521484375,-0.00048828125,0.40966796875,-2.50244140625,-6.8359375,-0.9765625,2.1588134765625,-62.90771484375,-34.27734375
1758527230.2074585,0.87060546875,0.00146484375,0.43310546875,-1.0986328125,-6.4697265625,0.0,2.1478271484375,-62.9736328125,-34.2828369140625
1758527230.2176852,0.87060546875,0.00146484375,0.43310546875,-1.0986328125,-6.4697265625,0.0,2.1368408203125,-63.03955078125,-34.2718505859375
1758527230.227613,0.92333984375,-0.02734375,0.4833984375,4.0283203125,-5.9814453125,0.48828125,2.142333984375,-63.0999755859375,-34.2608642578125
1758527230.237484,0.92333984375,-0.02734375,0.4833984375,4.0283203125,-5.9814453125,0.48828125,2.1697998046875,-63.160400390625,-34.244384765625
1758527230.2474976,0.93017578125,-0.02783203125,0.47705078125,8.6669921875,-5.9814453125,0.732421875,2.2137451171875,-63.21533203125,-34.222412109375
1758527230.2577498,0.93017578125,-0.02783203125,0.47705078125,8.6669921875,-5.9814453125,0.732421875,2.274169921875,-63.2757568359375,-34.1949462890625
1758527230.2674687,0.94921875,0.0419921875,0.43017578125,-0.18310546875,-5.9814453125,1.52587890625,2.28515625,-63.336181640625,-34.1619873046875
1758527230.277501,0.94921875,0.0419921875,0.43017578125,-0.18310546875,-5.9814453125,1.52587890625,2.2412109375,-63.3966064453125,-34.12353515625
1758527230.2879248,0.95068359375,0.05322265625,0.49169921875,-1.89208984375,-5.79833984375,2.685546875,2.186279296875,-63.4515380859375,-34.068603515625
1758527230.297538,0.95068359375,0.05322265625,0.49169921875,-1.89208984375,-5.79833984375,2.685546875,2.1148681640625,-63.511962890625,-34.002685546875
1758527230.3075416,0.939453125,0.015625,0.4560546875,-5.2490234375,-5.67626953125,3.2958984375,2.021484375,-63.56689453125,-33.936767578125
1758527230.3175619,0.939453125,0.015625,0.4560546875,-5.2490234375,-5.67626953125,3.2958984375,1.9061279296875,-63.6273193359375,-33.85986328125
1758527230.3277452,0.92626953125,0.001953125,0.4130859375,-6.103515625,-5.859375,3.2958984375,1.7852783203125,-63.6822509765625,-33.782958984375
1758527230.3375726,0.92626953125,0.001953125,0.4130859375,-6.103515625,-5.859375,3.2958984375,1.658935546875,-63.74267578125,-33.7005615234375
1758527230.347605,0.93359375,0.0400390625,0.44287109375,-8.30078125,-5.7373046875,3.47900390625,1.5216064453125,-63.8031005859375,-33.6181640625
1758527230.3578043,0.93359375,0.0400390625,0.44287109375,-8.30078125,-5.7373046875,3.47900390625,1.373291015625,-63.863525390625,-33.5357666015625
1758527230.3676105,0.923828125,-0.01708984375,0.4541015625,-5.0048828125,-5.9814453125,3.60107421875,1.241455078125,-63.91845703125,-33.4478759765625
1758527230.3778841,0.923828125,-0.01708984375,0.4541015625,-5.0048828125,-5.9814453125,3.60107421875,1.1260986328125,-63.984375,-33.365478515625
1758527230.387923,0.93212890625,-0.064453125,0.42822265625,6.16455078125,-6.16455078125,2.62451171875,1.131591796875,-64.0447998046875,-33.2940673828125
1758527230.404585,0.93212890625,-0.064453125,0.42822265625,6.16455078125,-6.16455078125,2.62451171875,1.1370849609375,-64.105224609375,-33.22265625
1758527230.4139047,0.90380859375,-0.02880859375,0.45703125,10.55908203125,-6.591796875,1.5869140625,1.2030029296875,-64.171142578125,-33.1787109375
1758527230.4205747,0.90380859375,-0.02880859375,0.45703125,10.55908203125,-6.591796875,1.5869140625,1.263427734375,-64.237060546875,-33.1292724609375
1758527230.4278982,0.8759765625,0.04638671875,0.408203125,10.498046875,-7.26318359375,2.0751953125,1.318359375,-64.31396484375,-33.0743408203125
1758527230.437665,0.8759765625,0.04638671875,0.408203125,10.498046875,-7.26318359375,2.0751953125,1.3787841796875,-64.3853759765625,-33.0194091796875
1758527230.4476492,0.88623046875,0.02978515625,0.37939453125,5.7373046875,-6.9580078125,2.74658203125,1.3787841796875,-64.4512939453125,-32.947998046875
1758527230.4579444,0.88623046875,0.02978515625,0.37939453125,5.7373046875,-6.9580078125,2.74658203125,1.3787841796875,-64.522705078125,-32.882080078125
1758527230.4677744,0.88330078125,0.00244140625,0.45361328125,6.16455078125,-6.40869140625,2.86865234375,1.3787841796875,-64.588623046875,-32.8106689453125
1758527230.477799,0.88330078125,0.00244140625,0.45361328125,6.16455078125,-6.40869140625,2.86865234375,1.38427734375,-64.654541015625,-32.7392578125
1758527230.487898,0.86328125,-0.04541015625,0.41162109375,13.5498046875,-6.34765625,2.38037109375,1.4666748046875,-64.7149658203125,-32.6788330078125
1758527230.497876,0.86328125,-0.04541015625,0.41162109375,13.5498046875,-6.34765625,2.38037109375,1.5435791015625,-64.775390625,-32.618408203125
1758527230.5077932,0.8525390625,0.06494140625,0.35986328125,4.5166015625,-5.67626953125,2.38037109375,1.5325927734375,-64.830322265625,-32.5579833984375
1758527230.521382,0.8525390625,0.06494140625,0.35986328125,4.5166015625,-5.67626953125,2.38037109375,1.527099609375,-64.8907470703125,-32.49755859375
1758527230.5280507,0.8427734375,0.0751953125,0.41650390625,-1.15966796875,-5.06591796875,2.8076171875,1.461181640625,-64.940185546875,-32.431640625
1758527230.5378065,0.8427734375,0.0751953125,0.41650390625,-1.15966796875,-5.06591796875,2.8076171875,1.4007568359375,-64.9896240234375,-32.3712158203125
1758527230.548034,0.84912109375,-0.0068359375,0.37353515625,-0.06103515625,-4.638671875,2.50244140625,1.3568115234375,-65.0335693359375,-32.3162841796875
1758527230.5579426,0.84912109375,-0.0068359375,0.37353515625,-0.06103515625,-4.638671875,2.50244140625,1.3128662109375,-65.0775146484375,-32.255859375
1758527230.5678058,0.84326171875,-0.0478515625,0.416015625,7.4462890625,-4.33349609375,1.52587890625,1.3568115234375,-65.1214599609375,-32.2174072265625
1758527230.577872,0.84326171875,-0.0478515625,0.416015625,7.4462890625,-4.33349609375,1.52587890625,1.4007568359375,-65.1654052734375,-32.178955078125
1758527230.5880215,0.873046875,0.0478515625,0.3671875,1.8310546875,-3.60107421875,1.52587890625,1.38427734375,-65.1983642578125,-32.1405029296875
1758527230.5979424,0.873046875,0.0478515625,0.3671875,1.8310546875,-3.60107421875,1.52587890625,1.373291015625,-65.2313232421875,-32.0965576171875
1758527230.607925,0.8955078125,0.072265625,0.4111328125,-2.3193359375,-2.44140625,1.64794921875,1.3238525390625,-65.2587890625,-32.05810546875
1758527230.6180065,0.8955078125,0.072265625,0.4111328125,-2.3193359375,-2.44140625,1.64794921875,1.2744140625,-65.28076171875,-32.0196533203125
1758527230.6280916,0.89404296875,-0.00634765625,0.41455078125,-2.0751953125,-1.8310546875,1.52587890625,1.23046875,-65.2972412109375,-31.981201171875
1758527230.6379433,0.89404296875,-0.00634765625,0.41455078125,-2.0751953125,-1.8310546875,1.52587890625,1.1865234375,-65.3192138671875,-31.9482421875
1758527230.6480715,0.88232421875,-0.03955078125,0.40283203125,3.23486328125,-1.708984375,0.54931640625,1.2139892578125,-65.335693359375,-31.9317626953125
1758527230.6582062,0.88232421875,-0.03955078125,0.40283203125,3.23486328125,-1.708984375,0.54931640625,1.2359619140625,-65.3521728515625,-31.9097900390625
1758527230.667937,0.8798828125,0.029296875,0.37353515625,-1.28173828125,-1.40380859375,0.1220703125,1.219482421875,-65.3631591796875,-31.8988037109375
1758527230.6780124,0.8798828125,0.029296875,0.37353515625,-1.28173828125,-1.40380859375,0.1220703125,1.20849609375,-65.379638671875,-31.893310546875
1758527230.688059,0.90283203125,0.04052734375,0.3974609375,-1.708984375,-0.91552734375,0.244140625,1.1920166015625,-65.390625,-31.8768310546875
1758527230.7003663,0.90283203125,0.04052734375,0.3974609375,-1.708984375,-0.91552734375,0.244140625,1.175537109375,-65.401611328125,-31.8658447265625
1758527230.7094254,0.9248046875,-0.029296875,0.4375,2.50244140625,-0.67138671875,0.0,1.2030029296875,-65.4071044921875,-31.8603515625
1758527230.7184734,0.9248046875,-0.029296875,0.4375,2.50244140625,-0.67138671875,0.0,1.23046875,-65.41259765625,-31.8548583984375
1758527230.7281895,0.93359375,-0.0380859375,0.42822265625,8.4228515625,-0.79345703125,-1.03759765625,1.3348388671875,-65.423583984375,-31.871337890625
1758527230.7380838,0.93359375,-0.0380859375,0.42822265625,8.4228515625,-0.79345703125,-1.03759765625,1.4337158203125,-65.4290771484375,-31.88232421875
1758527230.748306,0.923828125,0.04345703125,0.39501953125,3.0517578125,-0.732421875,-1.5869140625,1.494140625,-65.4400634765625,-31.9097900390625
1758527230.758382,0.923828125,0.04345703125,0.39501953125,3.0517578125,-0.732421875,-1.5869140625,1.5545654296875,-65.445556640625,-31.937255859375
1758527230.768054,0.90380859375,0.0927734375,0.37939453125,-4.39453125,-0.48828125,-1.220703125,1.5435791015625,-65.45654296875,-31.959228515625
1758527230.7781265,0.90380859375,0.0927734375,0.37939453125,-4.39453125,-0.48828125,-1.220703125,1.5325927734375,-65.4620361328125,-31.981201171875
1758527230.7882543,0.8955078125,-0.01220703125,0.4150390625,-3.11279296875,-0.30517578125,-0.732421875,1.527099609375,-65.467529296875,-31.9976806640625
1758527230.798119,0.8955078125,-0.01220703125,0.4150390625,-3.11279296875,-0.30517578125,-0.732421875,1.51611328125,-65.4730224609375,-32.0086669921875
1758527230.8080914,0.91064453125,-0.05908203125,0.412109375,4.150390625,-0.244140625,-1.3427734375,1.5875244140625,-65.478515625,-32.0306396484375
1758527230.8184588,0.91064453125,-0.05908203125,0.412109375,4.150390625,-0.244140625,-1.3427734375,1.6534423828125,-65.478515625,-32.0526123046875
1758527230.82829,0.90234375,0.01220703125,0.41064453125,0.91552734375,0.0,-1.708984375,1.6973876953125,-65.4840087890625,-32.080078125
1758527230.8382142,0.90234375,0.01220703125,0.41064453125,0.91552734375,0.0,-1.708984375,1.73583984375,-65.4840087890625,-32.1075439453125
1758527230.8486087,0.9052734375,0.056640625,0.38427734375,-1.40380859375,0.3662109375,-1.15966796875,1.7413330078125,-65.478515625,-32.1240234375
1758527230.8583992,0.9052734375,0.056640625,0.38427734375,-1.40380859375,0.3662109375,-1.15966796875,1.7523193359375,-65.478515625,-32.14599609375
1758527230.868231,0.90869140625,-0.01123046875,0.42333984375,1.46484375,0.42724609375,-1.15966796875,1.7962646484375,-65.478515625,-32.1624755859375
1758527230.8782823,0.90869140625,-0.01123046875,0.42333984375,1.46484375,0.42724609375,-1.15966796875,1.8292236328125,-65.4730224609375,-32.178955078125
1758527230.888288,0.92529296875,-0.009765625,0.4072265625,4.638671875,0.06103515625,-2.0751953125,1.9171142578125,-65.478515625,-32.2174072265625
1758527230.898256,0.92529296875,-0.009765625,0.4072265625,4.638671875,0.06103515625,-2.0751953125,2.0050048828125,-65.478515625,-32.255859375
1758527230.908231,0.92529296875,-0.009765625,0.4072265625,2.0751953125,0.06103515625,-2.13623046875,2.0654296875,-65.478515625,-32.2943115234375
1758527230.9189725,0.9326171875,0.04345703125,0.41943359375,2.0751953125,0.06103515625,-2.13623046875,2.13134765625,-65.478515625,-32.332763671875
1758527230.9286666,0.91748046875,0.0498046875,0.40625,-4.0283203125,0.244140625,-1.46484375,2.1258544921875,-65.478515625,-32.3602294921875
1758527230.938308,0.91748046875,0.0498046875,0.40625,-4.0283203125,0.244140625,-1.46484375,2.120361328125,-65.478515625,-32.3822021484375
1758527230.9482906,0.91748046875,-0.01123046875,0.4013671875,-3.96728515625,0.48828125,-1.0986328125,2.1038818359375,-65.4730224609375,-32.398681640625
1758527230.9584541,0.91748046875,-0.01123046875,0.4013671875,-3.96728515625,0.48828125,-1.0986328125,2.08740234375,-65.4730224609375,-32.4151611328125
1758527230.968329,0.9404296875,-0.0068359375,0.4443359375,2.9296875,0.67138671875,-0.67138671875,2.13134765625,-65.467529296875,-32.420654296875
1758527230.9783118,0.9404296875,-0.0068359375,0.4443359375,2.9296875,0.67138671875,-0.67138671875,2.1697998046875,-65.4620361328125,-32.420654296875
1758527230.988411,0.923828125,0.0068359375,0.41015625,0.79345703125,0.244140625,-1.03759765625,2.197265625,-65.4620361328125,-32.431640625
1758527230.9983675,0.923828125,0.0068359375,0.41015625,0.79345703125,0.244140625,-1.03759765625,2.21923828125,-65.4620361328125,-32.4481201171875
1758527231.0083778,0.916015625,0.02294921875,0.39453125,-1.5869140625,-0.18310546875,-0.67138671875,2.2137451171875,-65.467529296875,-32.45361328125
1758527231.0187502,0.916015625,0.02294921875,0.39453125,-1.5869140625,-0.18310546875,-0.67138671875,2.208251953125,-65.467529296875,-32.4591064453125
1758527231.0284483,0.91552734375,0.0,0.4140625,3.35693359375,-0.67138671875,-0.3662109375,2.2467041015625,-65.478515625,-32.45361328125
1758527231.0383158,0.91552734375,0.0,0.4140625,3.35693359375,-0.67138671875,-0.3662109375,2.28515625,-65.489501953125,-32.45361328125
1758527231.0483937,0.9208984375,-0.0029296875,0.4189453125,6.04248046875,-1.15966796875,-0.42724609375,2.35107421875,-65.50048828125,-32.4481201171875
1758527231.0585794,0.9208984375,-0.0029296875,0.4189453125,6.04248046875,-1.15966796875,-0.42724609375,2.4114990234375,-65.5169677734375,-32.4481201171875
1758527231.0683897,0.91357421875,0.0029296875,0.40087890625,6.8359375,-1.52587890625,-0.48828125,2.48291015625,-65.533447265625,-32.4481201171875
1758527231.078392,0.91357421875,0.0029296875,0.40087890625,6.8359375,-1.52587890625,-0.48828125,2.5543212890625,-65.5499267578125,-32.4481201171875
1758527231.0884807,0.89892578125,0.03515625,0.3935546875,1.77001953125,-1.708984375,-0.18310546875,2.57080078125,-65.5718994140625,-32.442626953125
1758527231.0985255,0.89892578125,0.03515625,0.3935546875,1.77001953125,-1.708984375,-0.18310546875,2.5872802734375,-65.58837890625,-32.4371337890625
1758527231.108494,0.8916015625,0.037109375,0.37744140625,2.01416015625,-2.01416015625,0.244140625,2.603759765625,-65.6103515625,-32.4261474609375
1758527231.1187394,0.8916015625,0.037109375,0.37744140625,2.01416015625,-2.01416015625,0.244140625,2.61474609375,-65.6378173828125,-32.40966796875
1758527231.128644,0.8818359375,0.0107421875,0.408203125,0.79345703125,-2.197265625,0.6103515625,2.6092529296875,-65.6597900390625,-32.3876953125
1758527231.1385548,0.8818359375,0.0107421875,0.408203125,0.79345703125,-2.197265625,0.6103515625,2.603759765625,-65.687255859375,-32.36572265625
1758527231.1487708,0.880859375,0.013671875,0.37451171875,-3.7841796875,-2.3193359375,0.9765625,2.548828125,-65.709228515625,-32.3382568359375
1758527231.1586454,0.880859375,0.013671875,0.37451171875,-3.7841796875,-2.3193359375,0.9765625,2.4884033203125,-65.7366943359375,-32.3052978515625
1758527231.1686363,0.87353515625,-0.00537109375,0.4013671875,0.06103515625,-1.77001953125,1.28173828125,2.4609375,-65.7586669921875,-32.266845703125
1758527231.1784945,0.87353515625,-0.00537109375,0.4013671875,0.06103515625,-1.77001953125,1.28173828125,2.427978515625,-65.775146484375,-32.2283935546875
1758527231.188589,0.87353515625,-0.00537109375,0.4013671875,3.35693359375,-1.220703125,1.46484375,2.4224853515625,-65.7916259765625,-32.178955078125
1758527231.198578,0.89599609375,-0.00634765625,0.39697265625,3.35693359375,-1.220703125,1.46484375,2.4169921875,-65.80810546875,-32.135009765625
1758527231.2086256,0.91455078125,0.021484375,0.396484375,3.72314453125,-0.42724609375,1.64794921875,2.4114990234375,-65.8135986328125,-32.080078125
1758527231.2188838,0.91455078125,0.021484375,0.396484375,3.72314453125,-0.42724609375,1.64794921875,2.4114990234375,-65.819091796875,-32.0306396484375
1758527231.228804,0.92822265625,0.04248046875,0.42431640625,-2.25830078125,0.30517578125,2.25830078125,2.3345947265625,-65.819091796875,-31.9647216796875
1758527231.238593,0.92822265625,0.04248046875,0.42431640625,-2.25830078125,0.30517578125,2.25830078125,2.2576904296875,-65.819091796875,-31.8988037109375
1758527231.24863,0.91455078125,0.0478515625,0.38427734375,-6.53076171875,0.67138671875,3.23486328125,2.1258544921875,-65.8135986328125,-31.81640625
1758527231.2586856,0.91455078125,0.0478515625,0.38427734375,-6.53076171875,0.67138671875,3.23486328125,1.9940185546875,-65.80810546875,-31.728515625
1758527231.2686305,0.90185546875,0.01806640625,0.38818359375,-8.1787109375,0.91552734375,3.47900390625,1.8402099609375,-65.8026123046875,-31.640625
1758527231.2786357,0.90185546875,0.01806640625,0.38818359375,-8.1787109375,0.91552734375,3.47900390625,1.69189453125,-65.797119140625,-31.552734375
1758527231.2886596,0.89013671875,-0.01611328125,0.41943359375,-6.34765625,0.42724609375,3.0517578125,1.5655517578125,-65.797119140625,-31.4703369140625
1758527231.3008475,0.89013671875,-0.01611328125,0.41943359375,-6.34765625,0.42724609375,3.0517578125,1.439208984375,-65.797119140625,-31.3934326171875
1758527231.3096838,0.90771484375,0.0,0.37646484375,-3.2958984375,-0.244140625,2.0751953125,1.3623046875,-65.8026123046875,-31.3385009765625
1758527231.318969,0.90771484375,0.0,0.37646484375,-3.2958984375,-0.244140625,2.0751953125,1.285400390625,-65.80810546875,-31.2835693359375
1758527231.328799,0.8955078125,0.009765625,0.40625,-2.01416015625,-0.8544921875,1.3427734375,1.241455078125,-65.819091796875,-31.2451171875
1758527231.3386416,0.8955078125,0.009765625,0.40625,-2.01416015625,-0.8544921875,1.3427734375,1.1920166015625,-65.830078125,-31.2066650390625
1758527231.3486476,0.8876953125,0.01220703125,0.3896484375,0.42724609375,-1.46484375,0.79345703125,1.1810302734375,-65.8465576171875,-31.17919921875
1758527231.3586907,0.8876953125,0.01220703125,0.3896484375,0.42724609375,-1.46484375,0.79345703125,1.1700439453125,-65.863037109375,-31.1572265625
1758527231.3686867,0.9013671875,-0.00341796875,0.38916015625,2.44140625,-1.708984375,0.244140625,1.1920166015625,-65.8795166015625,-31.146240234375
1758527231.378783,0.9013671875,-0.00341796875,0.38916015625,2.44140625,-1.708984375,0.244140625,1.2139892578125,-65.9014892578125,-31.1297607421875
1758527231.3888345,0.912109375,0.02294921875,0.39111328125,0.67138671875,-1.5869140625,-0.06103515625,1.2249755859375,-65.91796875,-31.1297607421875
1758527231.3987198,0.912109375,0.02294921875,0.39111328125,0.67138671875,-1.5869140625,-0.06103515625,1.2359619140625,-65.93994140625,-31.124267578125
1758527231.4087906,0.9248046875,0.0048828125,0.3994140625,1.64794921875,-1.8310546875,-0.30517578125,1.263427734375,-65.9564208984375,-31.124267578125
1758527231.4190638,0.9248046875,0.0048828125,0.3994140625,1.64794921875,-1.8310546875,-0.30517578125,1.285400390625,-65.9783935546875,-31.124267578125
1758527231.4289405,0.93212890625,0.01904296875,0.40576171875,1.3427734375,-2.197265625,-0.79345703125,1.3238525390625,-66.005859375,-31.13525390625
1758527231.438775,0.92236328125,0.00146484375,0.41748046875,4.08935546875,-2.62451171875,-1.40380859375,1.3787841796875,-66.02783203125,-31.1572265625
1758527231.4488075,0.92236328125,0.00146484375,0.41748046875,4.08935546875,-2.62451171875,-1.40380859375,1.4501953125,-66.0552978515625,-31.1846923828125
1758527231.458908,0.92431640625,-0.01171875,0.39404296875,9.09423828125,-3.0517578125,-1.89208984375,1.5545654296875,-66.0882568359375,-31.2176513671875
1758527231.4688082,0.92431640625,-0.01171875,0.39404296875,9.09423828125,-3.0517578125,-1.89208984375,1.6864013671875,-66.11572265625,-31.256103515625
1758527231.4788265,0.91845703125,0.0068359375,0.39501953125,6.103515625,-3.173828125,-1.953125,1.8017578125,-66.148681640625,-31.2945556640625
1758527231.4888866,0.91845703125,0.0068359375,0.39501953125,6.103515625,-3.173828125,-1.953125,1.900634765625,-66.181640625,-31.3330078125
1758527231.4988976,0.8974609375,0.0458984375,0.3828125,5.0048828125,-3.173828125,-1.52587890625,1.9940185546875,-66.214599609375,-31.365966796875
1758527231.508901,0.8974609375,0.0458984375,0.3828125,5.0048828125,-3.173828125,-1.52587890625,2.076416015625,-66.24755859375,-31.39892578125
1758527231.5190055,0.89794921875,0.0029296875,0.38671875,6.103515625,-3.23486328125,-1.3427734375,2.1697998046875,-66.280517578125,-31.4263916015625
1758527231.5292356,0.89794921875,0.0029296875,0.38671875,6.103515625,-3.23486328125,-1.3427734375,2.2576904296875,-66.3134765625,-31.453857421875
1758527231.5388882,0.89404296875,-0.01318359375,0.396484375,8.544921875,-3.173828125,-1.40380859375,2.362060546875,-66.346435546875,-31.4813232421875
1758527231.5490074,0.89404296875,-0.01318359375,0.396484375,8.544921875,-3.173828125,-1.40380859375,2.4774169921875,-66.37939453125,-31.5087890625
1758527231.5590067,0.89599609375,0.00830078125,0.3828125,9.8876953125,-2.8076171875,-1.52587890625,2.5927734375,-66.4068603515625,-31.541748046875
1758527231.5689375,0.89599609375,0.00830078125,0.3828125,9.8876953125,-2.8076171875,-1.52587890625,2.724609375,-66.434326171875,-31.5692138671875
1758527231.5789537,0.89892578125,0.0234375,0.3935546875,11.1083984375,-2.25830078125,-1.52587890625,2.8564453125,-66.4617919921875,-31.6021728515625
1758527231.5890584,0.89892578125,0.0234375,0.3935546875,11.1083984375,-2.25830078125,-1.52587890625,2.9937744140625,-66.4837646484375,-31.629638671875
1758527231.6011932,0.896484375,0.02587890625,0.3828125,11.53564453125,-1.8310546875,-1.5869140625,3.1365966796875,-66.5057373046875,-31.66259765625
1758527231.6090207,0.896484375,0.02587890625,0.3828125,11.53564453125,-1.8310546875,-1.5869140625,3.2794189453125,-66.522216796875,-31.695556640625
1758527231.6193283,0.9033203125,0.0390625,0.36962890625,7.14111328125,-1.40380859375,-1.3427734375,3.4002685546875,-66.5386962890625,-31.7230224609375
1758527231.629056,0.9033203125,0.0390625,0.36962890625,7.14111328125,-1.40380859375,-1.3427734375,3.4991455078125,-66.5496826171875,-31.75048828125
1758527231.6390429,0.9111328125,0.05517578125,0.3837890625,2.5634765625,-0.732421875,-0.8544921875,3.570556640625,-66.5606689453125,-31.7724609375
1758527231.6490533,0.9111328125,0.05517578125,0.3837890625,2.5634765625,-0.732421875,-0.8544921875,3.614501953125,-66.5716552734375,-31.7889404296875
1758527231.6590781,0.93310546875,0.02490234375,0.4091796875,3.47900390625,0.1220703125,-0.42724609375,3.658447265625,-66.5771484375,-31.7999267578125
1758527231.6690784,0.93310546875,0.02490234375,0.4091796875,3.47900390625,0.1220703125,-0.42724609375,3.702392578125,-66.5716552734375,-31.805419921875
1758527231.6791017,0.92041015625,-0.0146484375,0.4091796875,5.92041015625,0.79345703125,-0.48828125,3.75732421875,-66.5716552734375,-31.8109130859375
1758527231.6897295,0.92041015625,-0.0146484375,0.4091796875,5.92041015625,0.79345703125,-0.48828125,3.8232421875,-66.5606689453125,-31.81640625
1758527231.6990874,0.92041015625,-0.0146484375,0.4091796875,4.69970703125,1.03759765625,-0.48828125,3.878173828125,-66.55517578125,-31.8218994140625
1758527231.709133,0.89599609375,0.01611328125,0.3798828125,4.69970703125,1.03759765625,-0.48828125,3.9276123046875,-66.544189453125,-31.8218994140625
1758527231.719248,0.9140625,0.06982421875,0.35986328125,0.9765625,1.77001953125,-0.30517578125,3.955078125,-66.5277099609375,-31.8218994140625
1758527231.7294493,0.9140625,0.06982421875,0.35986328125,0.9765625,1.77001953125,-0.30517578125,3.966064453125,-66.5167236328125,-31.8218994140625
1758527231.7390769,0.93017578125,0.05712890625,0.4111328125,-4.2724609375,2.74658203125,0.244140625,3.9495849609375,-66.4947509765625,-31.8109130859375
1758527231.7491345,0.93017578125,0.05712890625,0.4111328125,-4.2724609375,2.74658203125,0.244140625,3.900146484375,-66.46728515625,-31.79443359375
1758527231.759236,0.9384765625,0.02099609375,0.3916015625,-6.103515625,3.35693359375,0.54931640625,3.8397216796875,-66.4398193359375,-31.7779541015625
1758527231.769202,0.9384765625,0.02099609375,0.3916015625,-6.103515625,3.35693359375,0.54931640625,3.7628173828125,-66.412353515625,-31.7559814453125
1758527231.779198,0.95556640625,-0.005859375,0.4296875,-4.57763671875,3.662109375,0.79345703125,3.69140625,-66.37939453125,-31.728515625
1758527231.7892737,0.95556640625,-0.005859375,0.4296875,-4.57763671875,3.662109375,0.79345703125,3.62548828125,-66.346435546875,-31.695556640625
1758527231.799223,1.0078125,0.0380859375,0.4287109375,-8.36181640625,3.90625,1.40380859375,3.5321044921875,-66.3134765625,-31.6571044921875
1758527231.8093128,1.0078125,0.0380859375,0.4287109375,-8.36181640625,3.90625,1.40380859375,3.4112548828125,-66.2750244140625,-31.6131591796875
1758527231.8193321,1.02294921875,0.07568359375,0.39990234375,-17.76123046875,3.90625,2.5634765625,3.22998046875,-66.2420654296875,-31.552734375
1758527231.829732,1.02294921875,0.07568359375,0.39990234375,-17.76123046875,3.90625,2.5634765625,2.999267578125,-66.2091064453125,-31.4813232421875
1758527231.8392022,0.9580078125,0.0849609375,0.3974609375,-32.71484375,3.662109375,3.96728515625,2.6861572265625,-66.1761474609375,-31.3934326171875
1758527231.8492305,0.9580078125,0.0849609375,0.3974609375,-32.71484375,3.662109375,3.96728515625,2.28515625,-66.148681640625,-31.2945556640625
1758527231.859661,0.9140625,0.03125,0.39453125,-35.888671875,2.9296875,5.126953125,1.8621826171875,-66.1212158203125,-31.1846923828125
1758527231.8692622,0.9140625,0.03125,0.39453125,-35.888671875,2.9296875,5.126953125,1.4117431640625,-66.0992431640625,-31.058349609375
1758527231.8793387,0.9404296875,-0.05078125,0.43212890625,-33.8134765625,1.77001953125,5.67626953125,0.966796875,-66.082763671875,-30.9320068359375
1758527231.889384,0.9404296875,-0.05078125,0.43212890625,-33.8134765625,1.77001953125,5.67626953125,0.5218505859375,-66.07177734375,-30.7891845703125
1758527231.899332,0.93408203125,-0.0537109375,0.42578125,-26.611328125,0.30517578125,5.31005859375,0.1153564453125,-66.0662841796875,-30.6573486328125
1758527231.909409,0.93408203125,-0.0537109375,0.42578125,-26.611328125,0.30517578125,5.31005859375,-0.252685546875,-66.0662841796875,-30.5255126953125
1758527231.9194608,0.92724609375,-0.044921875,0.39599609375,-15.93017578125,-0.3662109375,4.638671875,-0.5657958984375,-66.0662841796875,-30.399169921875
1758527231.9296153,0.92724609375,-0.044921875,0.39599609375,-15.93017578125,-0.3662109375,4.638671875,-0.8184814453125,-66.07177734375,-30.2783203125
1758527231.9393284,0.93310546875,-0.06201171875,0.42431640625,-1.77001953125,-0.732421875,4.0283203125,-1.0052490234375,-66.082763671875,-30.1629638671875
1758527231.9493659,0.93310546875,-0.06201171875,0.42431640625,-1.77001953125,-0.732421875,4.0283203125,-1.109619140625,-66.0882568359375,-30.05859375
1758527231.9598844,0.94873046875,-0.0478515625,0.42626953125,6.28662109375,-1.46484375,3.23486328125,-1.175537109375,-66.0992431640625,-29.959716796875
1758527231.9693863,0.94873046875,-0.0478515625,0.42626953125,6.28662109375,-1.46484375,3.23486328125,-1.1920166015625,-66.11572265625,-29.871826171875
1758527231.9794784,0.9267578125,-0.01220703125,0.4228515625,11.77978515625,-2.74658203125,2.44140625,-1.175537109375,-66.1376953125,-29.7894287109375
1758527231.9895787,0.9267578125,-0.01220703125,0.4228515625,11.77978515625,-2.74658203125,2.44140625,-1.12060546875,-66.1651611328125,-29.7235107421875
1758527231.9994667,0.8984375,0.0341796875,0.36376953125,4.82177734375,-3.7841796875,2.13623046875,-1.0986328125,-66.1981201171875,-29.6575927734375
1758527232.0094903,0.8984375,0.0341796875,0.36376953125,4.82177734375,-3.7841796875,2.13623046875,-1.0986328125,-66.236572265625,-29.59716796875
1758527232.0194144,0.91455078125,0.05029296875,0.3173828125,-6.77490234375,-3.35693359375,2.25830078125,-1.1590576171875,-66.26953125,-29.5367431640625
1758527232.0298014,0.91455078125,0.05029296875,0.3173828125,-6.77490234375,-3.35693359375,2.25830078125,-1.2744140625,-66.3079833984375,-29.476318359375
1758527232.0394833,0.927734375,0.060546875,0.4052734375,-17.7001953125,-2.5634765625,2.01416015625,-1.4337158203125,-66.3409423828125,-29.4158935546875
1758527232.0495682,0.927734375,0.060546875,0.4052734375,-17.7001953125,-2.5634765625,2.01416015625,-1.6424560546875,-66.3739013671875,-29.366455078125
1758527232.0599856,0.9306640625,0.015625,0.38671875,-24.5361328125,-3.173828125,1.5869140625,-1.8731689453125,-66.4068603515625,-29.322509765625
1758527232.0695426,0.9306640625,0.015625,0.38671875,-24.5361328125,-3.173828125,1.5869140625,-2.13134765625,-66.4398193359375,-29.2840576171875
1758527232.0796287,0.9296875,-0.04052734375,0.40673828125,-20.56884765625,-4.21142578125,1.40380859375,-2.373046875,-66.4837646484375,-29.24560546875
1758527232.0896819,0.9296875,-0.04052734375,0.40673828125,-20.56884765625,-4.21142578125,1.40380859375,-2.5927734375,-66.5277099609375,-29.2071533203125
1758527232.0996022,0.89208984375,-0.08349609375,0.361328125,-10.986328125,-4.82177734375,0.91552734375,-2.7630615234375,-66.5716552734375,-29.1741943359375
1758527232.1097038,0.89208984375,-0.08349609375,0.361328125,-10.986328125,-4.82177734375,0.91552734375,-2.889404296875,-66.6265869140625,-29.1412353515625
1758527232.1195729,0.875,-0.04638671875,0.40283203125,-5.859375,-4.638671875,-0.3662109375,-2.977294921875,-66.676025390625,-29.1192626953125
1758527232.1300175,0.875,-0.04638671875,0.40283203125,-5.859375,-4.638671875,-0.3662109375,-3.0322265625,-66.719970703125,-29.11376953125
1758527232.139713,0.91552734375,-0.0048828125,0.36572265625,-5.37109375,-5.7373046875,-0.91552734375,-3.076171875,-66.77490234375,-29.1192626953125
1758527232.1498013,0.91552734375,-0.0048828125,0.36572265625,-5.37109375,-5.7373046875,-0.91552734375,-3.1146240234375,-66.8353271484375,-29.124755859375
1758527232.1602488,0.90087890625,-0.041015625,0.35546875,1.708984375,-6.591796875,-0.54931640625,-3.1146240234375,-66.895751953125,-29.1302490234375
1758527232.1698122,0.90087890625,-0.041015625,0.35546875,1.708984375,-6.591796875,-0.54931640625,-3.0926513671875,-66.961669921875,-29.124755859375
1758527232.17977,0.88525390625,-0.04345703125,0.39697265625,2.38037109375,-6.04248046875,-0.6103515625,-3.0706787109375,-67.027587890625,-29.124755859375
1758527232.18985,0.88525390625,-0.04345703125,0.39697265625,2.38037109375,-6.04248046875,-0.6103515625,-3.043212890625,-67.0880126953125,-29.124755859375
1758527232.201316,0.8837890625,-0.001953125,0.3681640625,-0.3662109375,-5.2490234375,-0.79345703125,-3.0267333984375,-67.1484375,-29.124755859375
1758527232.2097988,0.8837890625,-0.001953125,0.3681640625,-0.3662109375,-5.2490234375,-0.79345703125,-3.0157470703125,-67.1978759765625,-29.1357421875
1758527232.2202063,0.92529296875,-0.01953125,0.365234375,-0.30517578125,-5.126953125,-0.67138671875,-3.01025390625,-67.247314453125,-29.1412353515625
1758527232.2300942,0.92529296875,-0.01953125,0.365234375,-0.30517578125,-5.126953125,-0.67138671875,-3.0047607421875,-67.30224609375,-29.146728515625
1758527232.2398207,0.91552734375,-0.06591796875,0.39599609375,8.7890625,-5.9814453125,-1.03759765625,-2.9498291015625,-67.357177734375,-29.1522216796875
1758527232.249985,0.91552734375,-0.06591796875,0.39599609375,8.7890625,-5.9814453125,-1.03759765625,-2.8509521484375,-67.4176025390625,-29.168701171875
1758527232.2602472,0.90087890625,-0.0322265625,0.361328125,9.82666015625,-6.34765625,-2.44140625,-2.735595703125,-67.47802734375,-29.1961669921875
1758527232.2697926,0.90087890625,-0.0322265625,0.361328125,9.82666015625,-6.34765625,-2.44140625,-2.5927734375,-67.5384521484375,-29.2401123046875
1758527232.2798235,0.88134765625,0.03955078125,0.345703125,4.08935546875,-6.40869140625,-2.8076171875,-2.4774169921875,-67.6043701171875,-29.2950439453125
1758527232.2899928,0.88134765625,0.03955078125,0.345703125,4.08935546875,-6.40869140625,-2.8076171875,-2.3785400390625,-67.6702880859375,-29.3499755859375
1758527232.2998872,0.90234375,0.01171875,0.34765625,1.52587890625,-6.9580078125,-1.708984375,-2.30712890625,-67.7362060546875,-29.3994140625
1758527232.3099875,0.90234375,0.01171875,0.34765625,1.52587890625,-6.9580078125,-1.708984375,-2.252197265625,-67.8076171875,-29.432373046875
1758527232.3198397,0.9091796875,-0.0537109375,0.38330078125,1.03759765625,-6.77490234375,-1.64794921875,-2.2027587890625,-67.87353515625,-29.46533203125
1758527232.3301973,0.9091796875,-0.0537109375,0.38330078125,1.03759765625,-6.77490234375,-1.64794921875,-2.164306640625,-67.939453125,-29.4927978515625
1758527232.339963,0.9345703125,-0.0322265625,0.3857421875,3.23486328125,-5.79833984375,-2.5634765625,-2.098388671875,-68.00537109375,-29.5367431640625
1758527232.3502033,0.9345703125,-0.0322265625,0.3857421875,3.23486328125,-5.79833984375,-2.5634765625,-2.0159912109375,-68.060302734375,-29.5916748046875
1758527232.3604538,0.93896484375,0.02294921875,0.37109375,1.220703125,-5.2490234375,-2.50244140625,-1.944580078125,-68.115234375,-29.652099609375
1758527232.369986,0.93896484375,0.02294921875,0.37109375,1.220703125,-5.2490234375,-2.50244140625,-1.878662109375,-68.1646728515625,-29.70703125
1758527232.380025,0.92236328125,-0.04150390625,0.34814453125,5.92041015625,-4.69970703125,-1.708984375,-1.7962646484375,-68.214111328125,-29.7564697265625
1758527232.3903344,0.92236328125,-0.04150390625,0.34814453125,5.92041015625,-4.69970703125,-1.708984375,-1.702880859375,-68.258056640625,-29.7894287109375
1758527232.4000788,0.9150390625,-0.03076171875,0.4013671875,6.4697265625,-2.99072265625,-2.13623046875,-1.60400390625,-68.2965087890625,-29.827880859375
1758527232.4102504,0.9150390625,-0.03076171875,0.4013671875,6.4697265625,-2.99072265625,-2.13623046875,-1.494140625,-68.323974609375,-29.8773193359375
1758527232.4200282,0.916015625,0.025390625,0.36572265625,1.89208984375,-0.9765625,-2.9296875,-1.4007568359375,-68.3404541015625,-29.937744140625
1758527232.4303977,0.916015625,0.025390625,0.36572265625,1.89208984375,-0.9765625,-2.9296875,-1.3128662109375,-68.345947265625,-30.0091552734375
1758527232.4400601,0.9072265625,0.0390625,0.361328125,-2.99072265625,0.30517578125,-3.0517578125,-1.2469482421875,-68.3514404296875,-30.0860595703125
1758527232.4503505,0.9072265625,0.0390625,0.361328125,-2.99072265625,0.30517578125,-3.0517578125,-1.197509765625,-68.345947265625,-30.16845703125
1758527232.460636,0.9140625,-0.0595703125,0.3544921875,1.40380859375,1.3427734375,-2.62451171875,-1.12060546875,-68.3294677734375,-30.234375
1758527232.4701147,0.9140625,-0.0595703125,0.3544921875,1.40380859375,1.3427734375,-2.62451171875,-1.043701171875,-68.31298828125,-30.2947998046875
1758527232.4801528,0.92431640625,-0.02392578125,0.38720703125,1.708984375,2.685546875,-2.9296875,-0.9613037109375,-68.2855224609375,-30.3662109375
1758527232.4905934,0.92431640625,-0.02392578125,0.38720703125,1.708984375,2.685546875,-2.9296875,-0.87890625,-68.258056640625,-30.4376220703125
1758527232.5013287,0.92138671875,0.02978515625,0.3623046875,-2.62451171875,3.7841796875,-2.38037109375,-0.8514404296875,-68.2196044921875,-30.4925537109375
1758527232.5102265,0.92138671875,0.02978515625,0.3623046875,-2.62451171875,3.7841796875,-2.38037109375,-0.823974609375,-68.18115234375,-30.552978515625
1758527232.520275,0.9033203125,0.00390625,0.35888671875,-4.2724609375,4.2724609375,-1.64794921875,-0.823974609375,-68.13720703125,-30.596923828125
1758527232.5304759,0.9033203125,0.00390625,0.35888671875,-4.2724609375,4.2724609375,-1.64794921875,-0.823974609375,-68.09326171875,-30.6353759765625
1758527232.5403514,0.88818359375,-0.0693359375,0.36669921875,1.3427734375,5.18798828125,-1.52587890625,-0.780029296875,-68.0438232421875,-30.6683349609375
1758527232.5505393,0.88818359375,-0.0693359375,0.36669921875,1.3427734375,5.18798828125,-1.52587890625,-0.736083984375,-67.994384765625,-30.7012939453125
1758527232.5608056,0.8671875,-0.01611328125,0.3779296875,2.9296875,6.2255859375,-2.5634765625,-0.6536865234375,-67.928466796875,-30.76171875
1758527232.5703228,0.8671875,-0.01611328125,0.3779296875,2.9296875,6.2255859375,-2.5634765625,-0.5712890625,-67.8680419921875,-30.8221435546875
1758527232.5802832,0.91064453125,0.056640625,0.2958984375,-0.91552734375,4.2724609375,-2.8076171875,-0.5218505859375,-67.8240966796875,-30.8880615234375
1758527232.5906985,0.91064453125,0.056640625,0.2958984375,-0.91552734375,4.2724609375,-2.8076171875,-0.46142578125,-67.78564453125,-30.948486328125
1758527232.6004217,0.93896484375,-0.0029296875,0.3359375,-1.03759765625,0.0,-0.1220703125,-0.4669189453125,-67.7911376953125,-30.9429931640625
1758527232.6106143,0.93896484375,-0.0029296875,0.3359375,-1.03759765625,0.0,-0.1220703125,-0.4779052734375,-67.796630859375,-30.9320068359375
1758527232.620522,0.97265625,-0.09326171875,0.3671875,5.37109375,-4.33349609375,1.220703125,-0.46142578125,-67.8460693359375,-30.882568359375
1758527232.6306343,0.97265625,-0.09326171875,0.3671875,5.37109375,-4.33349609375,1.220703125,-0.450439453125,-67.8955078125,-30.8221435546875
1758527232.6405709,1.02001953125,-0.0634765625,0.39404296875,12.14599609375,-5.31005859375,-1.28173828125,-0.318603515625,-67.9559326171875,-30.8331298828125
1758527232.6503916,1.02001953125,-0.0634765625,0.39404296875,12.14599609375,-5.31005859375,-1.28173828125,-0.186767578125,-68.016357421875,-30.838623046875
1758527232.6611028,0.97607421875,0.13427734375,0.45263671875,10.498046875,-3.96728515625,-2.62451171875,-0.032958984375,-68.060302734375,-30.8880615234375
1758527232.6703959,0.97607421875,0.13427734375,0.45263671875,10.498046875,-3.96728515625,-2.62451171875,0.1318359375,-68.0987548828125,-30.948486328125
1758527232.6805196,0.943359375,0.05908203125,0.28515625,-7.62939453125,-1.64794921875,-1.5869140625,0.098876953125,-68.115234375,-30.9814453125
1758527232.690856,0.943359375,0.05908203125,0.28515625,-7.62939453125,-1.64794921875,-1.5869140625,0.0714111328125,-68.13720703125,-31.0198974609375
1758527232.7004905,0.943359375,0.05908203125,0.28515625,-5.126953125,0.9765625,-0.91552734375,0.0494384765625,-68.1317138671875,-31.0418701171875
1758527232.7105865,0.84130859375,-0.0400390625,0.515625,-5.126953125,0.9765625,-0.91552734375,0.0274658203125,-68.115234375,-31.0638427734375
1758527232.7204435,0.8662109375,-0.07568359375,0.162109375,4.5166015625,-1.3427734375,1.220703125,0.0384521484375,-68.126220703125,-31.025390625
1758527232.7309804,0.8662109375,-0.07568359375,0.162109375,4.5166015625,-1.3427734375,1.220703125,0.0439453125,-68.148193359375,-30.9759521484375
1758527232.7405775,0.88330078125,-0.08154296875,0.3818359375,8.85009765625,-3.0517578125,1.953125,0.06591796875,-68.18115234375,-30.8990478515625
1758527232.7505834,0.88330078125,-0.08154296875,0.3818359375,8.85009765625,-3.0517578125,1.953125,0.0823974609375,-68.214111328125,-30.8221435546875
1758527232.7617528,0.904296875,0.015625,0.42431640625,17.76123046875,-2.685546875,0.3662109375,0.230712890625,-68.2470703125,-30.794677734375
1758527232.7708833,0.904296875,0.015625,0.42431640625,17.76123046875,-2.685546875,0.3662109375,0.3790283203125,-68.26904296875,-30.772705078125
1758527232.7805824,0.9482421875,0.04443359375,0.28173828125,18.4326171875,-3.47900390625,0.91552734375,0.52734375,-68.3074951171875,-30.7342529296875
1758527232.7914202,0.9482421875,0.04443359375,0.28173828125,18.4326171875,-3.47900390625,0.91552734375,0.68115234375,-68.345947265625,-30.69580078125
1758527232.80068,0.93115234375,0.05615234375,0.39013671875,4.8828125,-2.38037109375,0.79345703125,0.703125,-68.3734130859375,-30.662841796875
1758527232.8105907,0.93115234375,0.05615234375,0.39013671875,4.8828125,-2.38037109375,0.79345703125,0.7305908203125,-68.3953857421875,-30.6353759765625
1758527232.8209608,0.9658203125,0.04150390625,0.36328125,-3.60107421875,-1.46484375,0.18310546875,0.6976318359375,-68.411865234375,-30.6298828125
1758527232.8311493,0.9658203125,0.04150390625,0.36328125,-3.60107421875,-1.46484375,0.18310546875,0.6646728515625,-68.4283447265625,-30.6243896484375
1758527232.8406677,0.9541015625,0.0283203125,0.3779296875,-9.033203125,-0.06103515625,-0.6103515625,0.5987548828125,-68.433837890625,-30.640869140625
1758527232.8509095,0.9541015625,0.0283203125,0.3779296875,-9.033203125,-0.06103515625,-0.6103515625,0.5328369140625,-68.433837890625,-30.6573486328125
1758527232.8611119,0.94482421875,0.0126953125,0.3916015625,-10.1318359375,1.220703125,-1.0986328125,0.472412109375,-68.4228515625,-30.684814453125
1758527232.8706646,0.94482421875,0.0126953125,0.3916015625,-10.1318359375,1.220703125,-1.0986328125,0.406494140625,-68.411865234375,-30.7177734375
1758527232.8808653,0.95263671875,-0.0078125,0.3837890625,-8.9111328125,2.0751953125,-1.220703125,0.3570556640625,-68.389892578125,-30.750732421875
1758527232.8909352,0.95263671875,-0.0078125,0.3837890625,-8.9111328125,2.0751953125,-1.220703125,0.3076171875,-68.3734130859375,-30.78369140625
1758527232.900761,0.96533203125,-0.009765625,0.37744140625,-7.9345703125,2.685546875,-1.40380859375,0.2691650390625,-68.345947265625,-30.816650390625
1758527232.9109612,0.96533203125,-0.009765625,0.37744140625,-7.9345703125,2.685546875,-1.40380859375,0.230712890625,-68.3184814453125,-30.8551025390625
1758527232.920746,0.9775390625,-0.00732421875,0.4169921875,-5.126953125,3.41796875,-1.46484375,0.2197265625,-68.2855224609375,-30.8880615234375
1758527232.9310498,0.9775390625,-0.00732421875,0.4169921875,-5.126953125,3.41796875,-1.46484375,0.208740234375,-68.2525634765625,-30.926513671875
1758527232.9408631,0.98291015625,0.001953125,0.3779296875,-4.08935546875,3.96728515625,-1.3427734375,0.2032470703125,-68.2086181640625,-30.95947265625
1758527232.9510136,0.98291015625,0.001953125,0.3779296875,-4.08935546875,3.96728515625,-1.3427734375,0.19775390625,-68.170166015625,-30.992431640625
1758527232.9612699,0.98876953125,0.01025390625,0.38671875,-5.4931640625,4.08935546875,-1.0986328125,0.17578125,-68.1317138671875,-31.0198974609375
1758527232.9708726,0.98876953125,0.01025390625,0.38671875,-5.4931640625,4.08935546875,-1.0986328125,0.1483154296875,-68.09326171875,-31.0418701171875
1758527232.9810944,1.01708984375,0.01318359375,0.41845703125,-7.62939453125,4.2724609375,-0.48828125,0.087890625,-68.04931640625,-31.0528564453125
1758527232.991079,1.01708984375,0.01318359375,0.41845703125,-7.62939453125,4.2724609375,-0.48828125,0.032958984375,-68.0108642578125,-31.0638427734375
1758527233.0008793,1.04736328125,-0.04736328125,0.375,-3.7841796875,3.662109375,-0.1220703125,0.0,-67.9779052734375,-31.0638427734375
1758527233.0108843,1.04736328125,-0.04736328125,0.375,-3.7841796875,3.662109375,-0.1220703125,-0.032958984375,-67.9449462890625,-31.0528564453125
1758527233.0208678,1.064453125,-0.02978515625,0.44873046875,-1.40380859375,3.0517578125,0.48828125,-0.06591796875,-67.91748046875,-31.0308837890625
1758527233.0315592,1.064453125,-0.02978515625,0.44873046875,-1.40380859375,3.0517578125,0.48828125,-0.0933837890625,-67.8900146484375,-31.0089111328125
1758527233.0409267,1.05615234375,0.02783203125,0.408203125,-5.4931640625,2.44140625,1.28173828125,-0.186767578125,-67.8680419921875,-30.9649658203125
1758527233.051167,1.05615234375,0.02783203125,0.408203125,-5.4931640625,2.44140625,1.28173828125,-0.274658203125,-67.8460693359375,-30.9210205078125
1758527233.0613577,1.02880859375,0.01708984375,0.40185546875,-10.6201171875,1.28173828125,1.8310546875,-0.4229736328125,-67.8350830078125,-30.8660888671875
1758527233.0710428,1.02880859375,0.01708984375,0.40185546875,-10.6201171875,1.28173828125,1.8310546875,-0.5657958984375,-67.82958984375,-30.8111572265625
1758527233.0814078,1.00439453125,-0.04638671875,0.41015625,-2.9296875,0.18310546875,2.25830078125,-0.648193359375,-67.82958984375,-30.7452392578125
1758527233.0912166,1.00439453125,-0.04638671875,0.41015625,-2.9296875,0.18310546875,2.25830078125,-0.736083984375,-67.82958984375,-30.673828125
1758527233.1016495,1.01318359375,-0.0615234375,0.373046875,7.50732421875,-0.6103515625,2.38037109375,-0.72509765625,-67.840576171875,-30.596923828125
1758527233.111264,1.01318359375,-0.0615234375,0.373046875,7.50732421875,-0.6103515625,2.38037109375,-0.714111328125,-67.8515625,-30.52001953125
1758527233.121115,0.97607421875,0.04296875,0.42626953125,-3.72314453125,-0.732421875,3.173828125,-0.8349609375,-67.862548828125,-30.421142578125
1758527233.131515,0.97607421875,0.04296875,0.42626953125,-3.72314453125,-0.732421875,3.173828125,-0.955810546875,-67.8680419921875,-30.333251953125
1758527233.1411126,0.931640625,0.03515625,0.38330078125,-8.1787109375,-1.15966796875,4.08935546875,-1.131591796875,-67.884521484375,-30.2178955078125
1758527233.1511328,0.931640625,0.03515625,0.38330078125,-8.1787109375,-1.15966796875,4.08935546875,-1.307373046875,-67.8955078125,-30.1080322265625
1758527233.1614797,0.9150390625,-0.09326171875,0.3515625,5.0048828125,-1.3427734375,3.7841796875,-1.3458251953125,-67.906494140625,-30.003662109375
1758527233.1711128,0.9150390625,-0.09326171875,0.3515625,5.0048828125,-1.3427734375,3.7841796875,-1.395263671875,-67.9229736328125,-29.8992919921875
1758527233.1813622,0.9140625,-0.0361328125,0.3447265625,4.33349609375,-1.708984375,3.60107421875,-1.4501953125,-67.939453125,-29.7894287109375
1758527233.191201,0.9140625,-0.0361328125,0.3447265625,4.33349609375,-1.708984375,3.60107421875,-1.505126953125,-67.96142578125,-29.6795654296875
1758527233.2011902,0.91015625,0.10498046875,0.37060546875,-9.94873046875,-1.77001953125,4.0283203125,-1.702880859375,-67.9779052734375,-29.564208984375
1758527233.211399,0.91015625,0.10498046875,0.37060546875,-9.94873046875,-1.77001953125,4.0283203125,-1.8951416015625,-67.9998779296875,-29.4598388671875
1758527233.221177,0.904296875,-0.02294921875,0.35400390625,-9.21630859375,-1.8310546875,3.662109375,-2.0654296875,-68.016357421875,-29.3609619140625
1758527233.2315176,0.904296875,-0.02294921875,0.35400390625,-9.21630859375,-1.8310546875,3.662109375,-2.2357177734375,-68.038330078125,-29.2620849609375
1758527233.2412744,0.90185546875,-0.13623046875,0.34130859375,4.45556640625,-2.01416015625,3.11279296875,-2.2686767578125,-68.0548095703125,-29.1741943359375
1758527233.2514112,0.90185546875,-0.13623046875,0.34130859375,4.45556640625,-2.01416015625,3.11279296875,-2.3126220703125,-68.0767822265625,-29.0753173828125
1758527233.2617195,0.8935546875,-0.0029296875,0.375,11.04736328125,-2.0751953125,2.44140625,-2.274169921875,-68.0987548828125,-28.9984130859375
1758527233.2712023,0.8935546875,-0.0029296875,0.375,11.04736328125,-2.0751953125,2.44140625,-2.230224609375,-68.1207275390625,-28.9215087890625
1758527233.2816806,0.8779296875,0.0283203125,0.34765625,10.498046875,-1.953125,2.3193359375,-2.1917724609375,-68.1427001953125,-28.85009765625
1758527233.29187,0.8779296875,0.0283203125,0.34765625,10.498046875,-1.953125,2.3193359375,-2.142333984375,-68.1591796875,-28.7841796875
1758527233.3013382,0.87255859375,-0.04150390625,0.34326171875,15.80810546875,-1.77001953125,2.01416015625,-2.0379638671875,-68.1756591796875,-28.71826171875
1758527233.3114111,0.87255859375,-0.04150390625,0.34326171875,15.80810546875,-1.77001953125,2.01416015625,-1.9390869140625,-68.1976318359375,-28.6578369140625
1758527233.3213696,0.89501953125,-0.0419921875,0.349609375,14.2822265625,-1.46484375,1.708984375,-1.845703125,-68.2086181640625,-28.6029052734375
1758527233.33161,0.89501953125,-0.0419921875,0.349609375,14.2822265625,-1.46484375,1.708984375,-1.7578125,-68.22509765625,-28.54248046875
1758527233.3413317,0.90478515625,0.02783203125,0.3818359375,6.7138671875,-0.79345703125,2.0751953125,-1.7523193359375,-68.236083984375,-28.4820556640625
1758527233.351326,0.90478515625,0.02783203125,0.3818359375,6.7138671875,-0.79345703125,2.0751953125,-1.7413330078125,-68.2415771484375,-28.421630859375
1758527233.3617606,0.89794921875,0.0400390625,0.3427734375,2.13623046875,-0.42724609375,2.5634765625,-1.77978515625,-68.2415771484375,-28.3502197265625
1758527233.3713481,0.89794921875,0.0400390625,0.3427734375,2.13623046875,-0.42724609375,2.5634765625,-1.8182373046875,-68.2470703125,-28.2843017578125
1758527233.381669,0.89990234375,-0.0703125,0.3759765625,12.75634765625,-0.3662109375,1.8310546875,-1.73583984375,-68.2525634765625,-28.23486328125
1758527233.3914907,0.89990234375,-0.0703125,0.3759765625,12.75634765625,-0.3662109375,1.8310546875,-1.6534423828125,-68.2525634765625,-28.179931640625
1758527233.4018893,0.89892578125,-0.05126953125,0.35400390625,13.00048828125,-0.1220703125,1.3427734375,-1.5655517578125,-68.2525634765625,-28.135986328125
1758527233.4114678,0.89892578125,-0.05126953125,0.35400390625,13.00048828125,-0.1220703125,1.3427734375,-1.483154296875,-68.2525634765625,-28.092041015625
1758527233.421517,0.8935546875,0.05810546875,0.337890625,6.16455078125,0.0,1.28173828125,-1.461181640625,-68.2525634765625,-28.0535888671875
1758527233.4318063,0.9013671875,0.04833984375,0.3671875,-0.42724609375,0.48828125,1.64794921875,-1.4666748046875,-68.2525634765625,-28.0096435546875
1758527233.4415076,0.9013671875,0.04833984375,0.3671875,-0.42724609375,0.48828125,1.64794921875,-1.5106201171875,-68.2470703125,-27.97119140625
1758527233.4514549,0.8994140625,-0.04052734375,0.369140625,5.2490234375,0.79345703125,1.3427734375,-1.5106201171875,-68.2415771484375,-27.9327392578125
1758527233.4620237,0.8994140625,-0.04052734375,0.369140625,5.2490234375,0.79345703125,1.3427734375,-1.4886474609375,-68.2305908203125,-27.8997802734375
1758527233.4714892,0.91162109375,-0.08447265625,0.35546875,11.962890625,0.732421875,0.79345703125,-1.42822265625,-68.22509765625,-27.872314453125
1758527233.4818795,0.91162109375,-0.08447265625,0.35546875,11.962890625,0.732421875,0.79345703125,-1.3348388671875,-68.214111328125,-27.8448486328125
1758527233.4919562,0.92724609375,0.0263671875,0.373046875,2.38037109375,1.28173828125,0.8544921875,-1.29638671875,-68.203125,-27.8173828125
1758527233.5016446,0.92724609375,0.0263671875,0.373046875,2.38037109375,1.28173828125,0.8544921875,-1.3018798828125,-68.192138671875,-27.7899169921875
1758527233.5115938,0.9326171875,0.08349609375,0.353515625,-5.37109375,1.77001953125,1.46484375,-1.3458251953125,-68.1756591796875,-27.7569580078125
1758527233.5216718,0.9326171875,0.08349609375,0.353515625,-5.37109375,1.77001953125,1.46484375,-1.42822265625,-68.1591796875,-27.7239990234375
1758527233.531953,0.92724609375,0.01025390625,0.375,-4.150390625,2.13623046875,1.5869140625,-1.4996337890625,-68.1427001953125,-27.685546875
1758527233.5417278,0.92724609375,0.01025390625,0.375,-4.150390625,2.13623046875,1.5869140625,-1.5655517578125,-68.1207275390625,-27.652587890625
1758527233.551705,0.92529296875,-0.0693359375,0.37646484375,0.0,2.38037109375,1.46484375,-1.6094970703125,-68.0987548828125,-27.6141357421875
1758527233.5621884,0.92529296875,-0.0693359375,0.37646484375,0.0,2.38037109375,1.46484375,-1.636962890625,-68.0767822265625,-27.5811767578125
1758527233.5716572,0.9423828125,-0.01220703125,0.36376953125,-9.521484375,2.8076171875,1.64794921875,-1.7193603515625,-68.0548095703125,-27.5372314453125
1758527233.582222,0.9423828125,-0.01220703125,0.36376953125,-9.521484375,2.8076171875,1.64794921875,-1.845703125,-68.02734375,-27.4932861328125
1758527233.5920148,0.93115234375,0.04248046875,0.3828125,-12.26806640625,3.2958984375,1.77001953125,-1.9940185546875,-67.994384765625,-27.4493408203125
1758527233.6019194,0.93115234375,0.04248046875,0.3828125,-12.26806640625,3.2958984375,1.77001953125,-2.142333984375,-67.9669189453125,-27.4053955078125
1758527233.6116524,0.931640625,-0.0078125,0.353515625,-9.21630859375,3.60107421875,1.953125,-2.2796630859375,-67.9339599609375,-27.366943359375
1758527233.6218557,0.931640625,-0.0078125,0.353515625,-9.21630859375,3.60107421875,1.953125,-2.406005859375,-67.8955078125,-27.322998046875
1758527233.6321492,0.93359375,-0.06201171875,0.39794921875,-6.65283203125,3.47900390625,1.77001953125,-2.5103759765625,-67.862548828125,-27.279052734375
1758527233.641742,0.93359375,-0.06201171875,0.39794921875,-6.65283203125,3.47900390625,1.77001953125,-2.6092529296875,-67.82958984375,-27.235107421875
1758527233.6519706,0.93408203125,-0.046875,0.38427734375,-1.0986328125,3.72314453125,1.220703125,-2.6806640625,-67.796630859375,-27.2021484375
1758527233.662184,0.93408203125,-0.046875,0.38427734375,-1.0986328125,3.72314453125,1.220703125,-2.713623046875,-67.7581787109375,-27.1746826171875
1758527233.6717107,0.93701171875,-0.03173828125,0.35693359375,2.13623046875,3.5400390625,0.9765625,-2.7301025390625,-67.7252197265625,-27.147216796875
1758527233.6818428,0.93701171875,-0.03173828125,0.35693359375,2.13623046875,3.5400390625,0.9765625,-2.7301025390625,-67.6922607421875,-27.1197509765625
1758527233.692125,0.94384765625,0.00390625,0.384765625,-0.732421875,3.41796875,0.91552734375,-2.74658203125,-67.6593017578125,-27.0977783203125
1758527233.7018774,0.94384765625,0.00390625,0.384765625,-0.732421875,3.41796875,0.91552734375,-2.7740478515625,-67.6263427734375,-27.0703125
1758527233.7118187,0.95703125,0.00048828125,0.38037109375,-2.685546875,3.23486328125,1.03759765625,-2.8070068359375,-67.598876953125,-27.04833984375
1758527233.7219388,0.95703125,0.00048828125,0.38037109375,-2.685546875,3.23486328125,1.03759765625,-2.8509521484375,-67.5714111328125,-27.0208740234375
1758527233.7320752,0.931640625,-0.02734375,0.4033203125,-1.03759765625,2.74658203125,0.67138671875,-2.8839111328125,-67.5439453125,-27.00439453125
1758527233.7419531,0.931640625,-0.02734375,0.4033203125,-1.03759765625,2.74658203125,0.67138671875,-2.900390625,-67.5164794921875,-26.9879150390625
1758527233.752064,0.9013671875,-0.06982421875,0.34423828125,7.87353515625,1.64794921875,-0.06103515625,-2.8729248046875,-67.5,-26.982421875
1758527233.7622309,0.9013671875,-0.06982421875,0.34423828125,7.87353515625,1.64794921875,-0.06103515625,-2.79052734375,-67.4835205078125,-26.9769287109375
1758527233.7719512,0.9052734375,-0.0224609375,0.353515625,6.65283203125,0.91552734375,-0.1220703125,-2.724609375,-67.4725341796875,-26.971435546875
1758527233.7819045,0.9052734375,-0.0224609375,0.353515625,6.65283203125,0.91552734375,-0.1220703125,-2.65869140625,-67.4725341796875,-26.9659423828125
1758527233.7922602,0.912109375,0.03857421875,0.380859375,-0.9765625,0.67138671875,0.244140625,-2.63671875,-67.467041015625,-26.96044921875
1758527233.8020961,0.912109375,0.03857421875,0.380859375,-0.9765625,0.67138671875,0.244140625,-2.6531982421875,-67.4615478515625,-26.949462890625
1758527233.8119369,0.9150390625,-0.03076171875,0.37158203125,1.5869140625,0.244140625,0.1220703125,-2.647705078125,-67.4615478515625,-26.9384765625
1758527233.822039,0.9150390625,-0.03076171875,0.37158203125,1.5869140625,0.244140625,0.1220703125,-2.63671875,-67.4615478515625,-26.9329833984375
1758527233.8321915,0.92041015625,-0.08837890625,0.3759765625,11.65771484375,-0.42724609375,-0.3662109375,-2.5653076171875,-67.467041015625,-26.9329833984375
1758527233.8419614,0.92041015625,-0.08837890625,0.3759765625,11.65771484375,-0.42724609375,-0.3662109375,-2.449951171875,-67.4725341796875,-26.9329833984375
1758527233.852106,0.92236328125,-0.01416015625,0.3935546875,9.033203125,-0.67138671875,-0.67138671875,-2.35107421875,-67.4835205078125,-26.9329833984375
1758527233.862297,0.92236328125,-0.01416015625,0.3935546875,9.033203125,-0.67138671875,-0.67138671875,-2.252197265625,-67.489013671875,-26.9439697265625
1758527233.8719816,0.9296875,0.0439453125,0.359375,3.5400390625,-0.48828125,-0.18310546875,-2.1917724609375,-67.5,-26.949462890625
1758527233.882261,0.9296875,0.0439453125,0.359375,3.5400390625,-0.48828125,-0.18310546875,-2.1588134765625,-67.5054931640625,-26.949462890625
1758527233.8923075,0.92578125,0.033203125,0.37744140625,-4.94384765625,-0.1220703125,0.30517578125,-2.164306640625,-67.510986328125,-26.9439697265625
1758527233.9021246,0.92578125,0.033203125,0.37744140625,-4.94384765625,-0.1220703125,0.30517578125,-2.2137451171875,-67.5164794921875,-26.9384765625
1758527233.91208,0.91357421875,-0.052734375,0.3935546875,-2.8076171875,0.18310546875,0.732421875,-2.2576904296875,-67.5164794921875,-26.927490234375
1758527233.9221694,0.91357421875,-0.052734375,0.3935546875,-2.8076171875,0.18310546875,0.732421875,-2.3016357421875,-67.5164794921875,-26.905517578125
1758527233.9325578,0.9248046875,-0.05419921875,0.36083984375,-4.2724609375,0.54931640625,1.0986328125,-2.3565673828125,-67.5164794921875,-26.883544921875
1758527233.9421623,0.9248046875,-0.05419921875,0.36083984375,-4.2724609375,0.54931640625,1.0986328125,-2.427978515625,-67.510986328125,-26.8505859375
1758527233.9524357,0.92333984375,0.05126953125,0.3837890625,-14.09912109375,1.28173828125,1.3427734375,-2.5543212890625,-67.5,-26.817626953125
1758527233.9628305,0.92333984375,0.05126953125,0.3837890625,-14.09912109375,1.28173828125,1.3427734375,-2.7191162109375,-67.489013671875,-26.7791748046875
1758527233.9721973,0.94775390625,0.00634765625,0.41357421875,-17.39501953125,1.77001953125,2.01416015625,-2.9058837890625,-67.47802734375,-26.74072265625
1758527233.9823575,0.94775390625,0.00634765625,0.41357421875,-17.39501953125,1.77001953125,2.01416015625,-3.1146240234375,-67.4560546875,-26.69677734375
1758527233.9925158,0.96142578125,-0.0712890625,0.39013671875,-11.65771484375,2.25830078125,1.40380859375,-3.284912109375,-67.4395751953125,-26.663818359375
1758527234.0035028,0.96142578125,-0.0712890625,0.39013671875,-11.65771484375,2.25830078125,1.40380859375,-3.4222412109375,-67.4176025390625,-26.630859375
1758527234.0122402,0.9404296875,-0.05859375,0.40869140625,-3.72314453125,2.62451171875,0.42724609375,-3.5101318359375,-67.39013671875,-26.60888671875
1758527234.0223446,0.9404296875,-0.05859375,0.40869140625,-3.72314453125,2.62451171875,0.42724609375,-3.5540771484375,-67.3681640625,-26.6033935546875
1758527234.032582,0.91748046875,-0.0224609375,0.359375,3.23486328125,2.5634765625,-0.1220703125,-3.5595703125,-67.3406982421875,-26.6033935546875
1758527234.042265,0.91748046875,-0.0224609375,0.359375,3.23486328125,2.5634765625,-0.1220703125,-3.5211181640625,-67.313232421875,-26.60888671875
1758527234.0525305,0.9111328125,-0.02587890625,0.37646484375,4.0283203125,2.44140625,-0.244140625,-3.4771728515625,-67.291259765625,-26.6143798828125
1758527234.0625732,0.9111328125,-0.02587890625,0.37646484375,4.0283203125,2.44140625,-0.244140625,-3.427734375,-67.269287109375,-26.6253662109375
1758527234.072413,0.91552734375,-0.00390625,0.3955078125,-3.35693359375,2.74658203125,0.244140625,-3.4222412109375,-67.247314453125,-26.6253662109375
1758527234.0825994,0.91552734375,-0.00390625,0.3955078125,-3.35693359375,2.74658203125,0.244140625,-3.4552001953125,-67.2198486328125,-26.6253662109375
1758527234.0926328,0.90966796875,-0.01025390625,0.38037109375,-3.60107421875,2.86865234375,0.48828125,-3.49365234375,-67.1923828125,-26.619873046875
1758527234.1024806,0.90966796875,-0.01025390625,0.38037109375,-3.60107421875,2.86865234375,0.48828125,-3.5321044921875,-67.1649169921875,-26.60888671875
1758527234.1124818,0.89453125,-0.0927734375,0.3828125,8.6669921875,2.8076171875,0.18310546875,-3.5101318359375,-67.137451171875,-26.60888671875
1758527234.1225212,0.89453125,-0.0927734375,0.3828125,8.6669921875,2.8076171875,0.18310546875,-3.427734375,-67.1099853515625,-26.6033935546875
1758527234.132503,0.89599609375,-0.0556640625,0.3740234375,8.7890625,2.50244140625,0.3662109375,-3.350830078125,-67.08251953125,-26.597900390625
1758527234.1424062,0.89599609375,-0.0556640625,0.3740234375,8.7890625,2.50244140625,0.3662109375,-3.2794189453125,-67.060546875,-26.5869140625
1758527234.1525714,0.892578125,0.04150390625,0.365234375,1.953125,2.50244140625,0.67138671875,-3.2464599609375,-67.03857421875,-26.5704345703125
1758527234.162786,0.892578125,0.04150390625,0.365234375,1.953125,2.50244140625,0.67138671875,-3.2464599609375,-67.0111083984375,-26.553955078125
1758527234.1724315,0.896484375,0.0078125,0.3583984375,-3.84521484375,2.685546875,1.40380859375,-3.2794189453125,-66.9891357421875,-26.5264892578125
1758527234.1824453,0.896484375,0.0078125,0.3583984375,-3.84521484375,2.685546875,1.40380859375,-3.3453369140625,-66.961669921875,-26.4935302734375
1758527234.192578,0.8955078125,-0.06005859375,0.39404296875,-1.8310546875,2.685546875,1.77001953125,-3.4002685546875,-66.939697265625,-26.4605712890625
1758527234.2026,0.8955078125,-0.06005859375,0.39404296875,-1.8310546875,2.685546875,1.77001953125,-3.4552001953125,-66.9122314453125,-26.4166259765625
1758527234.2125154,0.90478515625,-0.0546875,0.375,2.01416015625,2.44140625,1.8310546875,-3.49365234375,-66.8902587890625,-26.3726806640625
1758527234.2225914,0.90478515625,-0.0546875,0.375,2.01416015625,2.44140625,1.8310546875,-3.5211181640625,-66.8682861328125,-26.3287353515625
1758527234.2326257,0.9072265625,-0.00439453125,0.37109375,2.74658203125,1.953125,1.5869140625,-3.53759765625,-66.8463134765625,-26.279296875
1758527234.2426147,0.9072265625,-0.00439453125,0.37109375,2.74658203125,1.953125,1.5869140625,-3.548583984375,-66.829833984375,-26.2408447265625
1758527234.252603,0.9150390625,0.00244140625,0.39306640625,-1.220703125,1.77001953125,1.708984375,-3.5760498046875,-66.8133544921875,-26.1968994140625
1758527234.2629225,0.9150390625,0.00244140625,0.39306640625,-1.220703125,1.77001953125,1.708984375,-3.62548828125,-66.796875,-26.158447265625
1758527234.2725425,0.90283203125,-0.04052734375,0.3857421875,-1.28173828125,1.46484375,1.89208984375,-3.6749267578125,-66.7803955078125,-26.114501953125
1758527234.2827213,0.90283203125,-0.04052734375,0.3857421875,-1.28173828125,1.46484375,1.89208984375,-3.7298583984375,-66.7694091796875,-26.070556640625
1758527234.2926733,0.912109375,-0.048828125,0.36572265625,1.03759765625,0.91552734375,1.953125,-3.7738037109375,-66.7584228515625,-26.0211181640625
1758527234.3027284,0.912109375,-0.048828125,0.36572265625,1.03759765625,0.91552734375,1.953125,-3.8067626953125,-66.7529296875,-25.9716796875
1758527234.3126807,0.92333984375,-0.01806640625,0.41259765625,0.79345703125,0.67138671875,2.01416015625,-3.84521484375,-66.7474365234375,-25.9222412109375
1758527234.3230333,0.92333984375,-0.01806640625,0.41259765625,0.79345703125,0.67138671875,2.01416015625,-3.8836669921875,-66.741943359375,-25.8673095703125
1758527234.3332813,0.9404296875,-0.0029296875,0.3857421875,-1.953125,0.54931640625,2.197265625,-3.9385986328125,-66.7364501953125,-25.81787109375
1758527234.3427267,0.9404296875,-0.0029296875,0.3857421875,-1.953125,0.54931640625,2.197265625,-4.0045166015625,-66.73095703125,-25.762939453125
1758527234.3536673,0.92919921875,-0.03369140625,0.4052734375,-2.197265625,0.244140625,2.197265625,-4.0704345703125,-66.7254638671875,-25.7080078125
1758527234.363096,0.92919921875,-0.03369140625,0.4052734375,-2.197265625,0.244140625,2.197265625,-4.141845703125,-66.7254638671875,-25.6585693359375
1758527234.3726778,0.92431640625,-0.03662109375,0.38330078125,-2.25830078125,-0.06103515625,2.3193359375,-4.2132568359375,-66.7254638671875,-25.6036376953125
1758527234.3828242,0.92431640625,-0.03662109375,0.38330078125,-2.25830078125,-0.06103515625,2.3193359375,-4.28466796875,-66.7254638671875,-25.5487060546875
1758527234.3933208,0.92822265625,-0.0244140625,0.384765625,-2.685546875,-0.48828125,2.3193359375,-4.361572265625,-66.73095703125,-25.48828125
1758527234.4030104,0.92822265625,-0.0244140625,0.384765625,-2.685546875,-0.48828125,2.3193359375,-4.4384765625,-66.7364501953125,-25.4278564453125
1758527234.4127917,0.93505859375,-0.021484375,0.39697265625,-5.2490234375,-0.67138671875,2.44140625,-4.5318603515625,-66.741943359375,-25.3729248046875
1758527234.423057,0.93505859375,-0.021484375,0.39697265625,-5.2490234375,-0.67138671875,2.44140625,-4.63623046875,-66.7474365234375,-25.3125
1758527234.432919,0.93115234375,-0.044921875,0.39404296875,-2.44140625,-0.91552734375,2.44140625,-4.713134765625,-66.7584228515625,-25.24658203125
1758527234.442819,0.93115234375,-0.044921875,0.39404296875,-2.44140625,-0.91552734375,2.44140625,-4.7955322265625,-66.763916015625,-25.1861572265625
1758527234.452964,0.92333984375,-0.0693359375,0.396484375,2.44140625,-1.3427734375,2.0751953125,-4.822998046875,-66.7803955078125,-25.1312255859375
1758527234.4631808,0.92333984375,-0.0693359375,0.396484375,2.44140625,-1.3427734375,2.0751953125,-4.8504638671875,-66.7913818359375,-25.0762939453125
1758527234.4728389,0.9267578125,-0.04541015625,0.38134765625,5.126953125,-1.708984375,1.8310546875,-4.8504638671875,-66.807861328125,-25.02685546875
1758527234.4829028,0.9267578125,-0.04541015625,0.38134765625,5.126953125,-1.708984375,1.8310546875,-4.844970703125,-66.8243408203125,-24.971923828125
1758527234.492983,0.92626953125,0.00048828125,0.384765625,1.46484375,-1.8310546875,2.01416015625,-4.8834228515625,-66.8463134765625,-24.9169921875
1758527234.5030432,0.92626953125,0.00048828125,0.384765625,1.46484375,-1.8310546875,2.01416015625,-4.921875,-66.86279296875,-24.8675537109375
1758527234.5129843,0.9208984375,-0.01953125,0.38330078125,-2.62451171875,-2.01416015625,2.38037109375,-5.0042724609375,-66.884765625,-24.80712890625
1758527234.5236158,0.9208984375,-0.01953125,0.38330078125,-2.62451171875,-2.01416015625,2.38037109375,-5.086669921875,-66.9012451171875,-24.7412109375
1758527234.53303,0.9052734375,-0.03759765625,0.38623046875,-3.7841796875,-1.89208984375,2.86865234375,-5.185546875,-66.917724609375,-24.6697998046875
1758527234.5433002,0.9052734375,-0.03759765625,0.38623046875,-3.7841796875,-1.89208984375,2.86865234375,-5.2899169921875,-66.939697265625,-24.598388671875
1758527234.5530465,0.91162109375,-0.05322265625,0.37451171875,-2.685546875,-1.89208984375,2.86865234375,-5.3887939453125,-66.9561767578125,-24.5269775390625
1758527234.5635042,0.91162109375,-0.05322265625,0.37451171875,-2.685546875,-1.89208984375,2.86865234375,-5.482177734375,-66.97265625,-24.4500732421875
1758527234.5730524,0.93017578125,-0.05615234375,0.40869140625,0.06103515625,-1.8310546875,2.8076171875,-5.5535888671875,-66.9891357421875,-24.378662109375
1758527234.583114,0.93017578125,-0.05615234375,0.40869140625,0.06103515625,-1.8310546875,2.8076171875,-5.6195068359375,-67.005615234375,-24.3017578125
1758527234.5931072,0.9375,-0.0341796875,0.38671875,-1.40380859375,-1.77001953125,2.9296875,-5.7073974609375,-67.0166015625,-24.2303466796875
1758527234.6031787,0.9375,-0.0341796875,0.38671875,-1.40380859375,-1.77001953125,2.9296875,-5.7952880859375,-67.0330810546875,-24.1534423828125
1758527234.6131208,0.939453125,-0.025390625,0.38525390625,-1.15966796875,-1.953125,2.74658203125,-5.8721923828125,-67.049560546875,-24.08203125
1758527234.6233754,0.939453125,-0.025390625,0.38525390625,-1.15966796875,-1.953125,2.74658203125,-5.9490966796875,-67.0660400390625,-24.0106201171875
1758527234.6331553,0.93505859375,-0.037109375,0.39892578125,-2.8076171875,-2.0751953125,2.74658203125,-6.04248046875,-67.0880126953125,-23.939208984375
1758527234.643091,0.93505859375,-0.037109375,0.39892578125,-2.8076171875,-2.0751953125,2.74658203125,-6.1358642578125,-67.1044921875,-23.8677978515625
1758527234.6531029,0.93408203125,-0.04833984375,0.380859375,-1.89208984375,-2.197265625,2.9296875,-6.2237548828125,-67.1209716796875,-23.7908935546875
1758527234.6635156,0.93408203125,-0.04833984375,0.380859375,-1.89208984375,-2.197265625,2.9296875,-6.3116455078125,-67.1429443359375,-23.7139892578125
1758527234.6731167,0.9384765625,-0.05126953125,0.3857421875,-2.0751953125,-2.38037109375,2.9296875,-6.405029296875,-67.1649169921875,-23.6370849609375
1758527234.6831732,0.9384765625,-0.05126953125,0.3857421875,-2.0751953125,-2.38037109375,2.9296875,-6.4984130859375,-67.1868896484375,-23.5546875
1758527234.693883,0.9296875,-0.02783203125,0.39013671875,-5.55419921875,-2.50244140625,3.11279296875,-6.6302490234375,-67.2088623046875,-23.4722900390625
1758527234.7033308,0.9296875,-0.02783203125,0.39013671875,-5.55419921875,-2.50244140625,3.11279296875,-6.756591796875,-67.225341796875,-23.389892578125
1758527234.713385,0.9140625,-0.01171875,0.36474609375,-10.3759765625,-2.44140625,3.23486328125,-6.9378662109375,-67.247314453125,-23.3074951171875
1758527234.723329,0.9140625,-0.01171875,0.36474609375,-10.3759765625,-2.44140625,3.23486328125,-7.1136474609375,-67.269287109375,-23.22509765625
1758527234.7336254,0.91845703125,-0.05078125,0.3876953125,-10.19287109375,-2.38037109375,3.2958984375,-7.283935546875,-67.291259765625,-23.13720703125
1758527234.743222,0.91845703125,-0.05078125,0.3876953125,-10.19287109375,-2.38037109375,3.2958984375,-7.459716796875,-67.3077392578125,-23.0548095703125
1758527234.753223,0.92626953125,-0.1025390625,0.3935546875,-4.0283203125,-2.25830078125,3.0517578125,-7.5750732421875,-67.3297119140625,-22.972412109375
1758527234.7636402,0.92626953125,-0.1025390625,0.3935546875,-4.0283203125,-2.25830078125,3.0517578125,-7.6904296875,-67.34619140625,-22.8900146484375
1758527234.7732813,0.91943359375,-0.04248046875,0.37548828125,-7.6904296875,-2.13623046875,2.86865234375,-7.8387451171875,-67.3626708984375,-22.8131103515625
1758527234.783309,0.91943359375,-0.04248046875,0.37548828125,-7.6904296875,-2.13623046875,2.86865234375,-7.9815673828125,-67.379150390625,-22.7362060546875
1758527234.7935646,0.9248046875,-0.02587890625,0.37451171875,-7.01904296875,-2.25830078125,2.197265625,-8.10791015625,-67.3956298828125,-22.67578125
1758527234.803427,0.9248046875,-0.02587890625,0.37451171875,-7.01904296875,-2.25830078125,2.197265625,-8.228759765625,-67.4176025390625,-22.6153564453125
1758527234.8133953,0.92138671875,-0.0615234375,0.37255859375,-6.65283203125,-2.38037109375,2.01416015625,-8.338623046875,-67.4395751953125,-22.5604248046875
1758527234.8244083,0.92138671875,-0.0615234375,0.37255859375,-6.65283203125,-2.38037109375,2.01416015625,-8.4539794921875,-67.4560546875,-22.5054931640625
1758527234.8334873,0.923828125,-0.08203125,0.3798828125,-3.173828125,-2.44140625,1.8310546875,-8.5308837890625,-67.47802734375,-22.4505615234375
1758527234.8433528,0.923828125,-0.08203125,0.3798828125,-3.173828125,-2.44140625,1.8310546875,-8.61328125,-67.5,-22.3956298828125
1758527234.8537173,0.92333984375,-0.08056640625,0.37939453125,-0.8544921875,-2.50244140625,1.708984375,-8.668212890625,-67.52197265625,-22.34619140625
1758527234.863736,0.92333984375,-0.08056640625,0.37939453125,-0.8544921875,-2.50244140625,1.708984375,-8.72314453125,-67.5439453125,-22.291259765625
1758527234.8734293,0.92724609375,-0.05517578125,0.36962890625,-0.30517578125,-2.62451171875,1.28173828125,-8.76708984375,-67.56591796875,-22.247314453125
1758527234.8833725,0.92724609375,-0.05517578125,0.36962890625,-0.30517578125,-2.62451171875,1.28173828125,-8.81103515625,-67.587890625,-22.203369140625
1758527234.8935292,0.93408203125,-0.0595703125,0.38427734375,1.77001953125,-2.74658203125,0.9765625,-8.8275146484375,-67.6153564453125,-22.17041015625
1758527234.9049032,0.93408203125,-0.0595703125,0.38427734375,1.77001953125,-2.74658203125,0.9765625,-8.843994140625,-67.6373291015625,-22.1319580078125
1758527234.913941,0.9326171875,-0.06640625,0.3798828125,2.9296875,-2.685546875,0.732421875,-8.8385009765625,-67.664794921875,-22.1044921875
1758527234.9273458,0.9326171875,-0.06640625,0.3798828125,2.9296875,-2.685546875,0.732421875,-8.8385009765625,-67.686767578125,-22.0770263671875
1758527234.934007,0.92333984375,-0.05908203125,0.36669921875,2.38037109375,-2.62451171875,0.54931640625,-8.8385009765625,-67.7142333984375,-22.049560546875
1758527234.9434886,0.92333984375,-0.05908203125,0.36669921875,2.38037109375,-2.62451171875,0.54931640625,-8.8385009765625,-67.7362060546875,-22.027587890625
1758527234.953594,0.921875,-0.07177734375,0.35693359375,5.43212890625,-2.685546875,0.42724609375,-8.8055419921875,-67.763671875,-22.005615234375
1758527234.9639118,0.921875,-0.07177734375,0.35693359375,5.43212890625,-2.685546875,0.42724609375,-8.778076171875,-67.78564453125,-21.9781494140625
1758527234.9735785,0.947265625,-0.068359375,0.3916015625,6.65283203125,-2.5634765625,0.18310546875,-8.7286376953125,-67.8131103515625,-21.961669921875
1758527234.9838402,0.947265625,-0.068359375,0.3916015625,6.65283203125,-2.5634765625,0.18310546875,-8.67919921875,-67.8350830078125,-21.95068359375
1758527234.993734,0.9599609375,-0.05029296875,0.37841796875,4.82177734375,-2.13623046875,0.54931640625,-8.6572265625,-67.8570556640625,-21.9232177734375
1758527235.0036936,0.9599609375,-0.05029296875,0.37841796875,4.82177734375,-2.13623046875,0.54931640625,-8.63525390625,-67.87353515625,-21.9012451171875
1758527235.013698,0.9482421875,-0.0546875,0.37109375,3.41796875,-1.953125,0.79345703125,-8.6297607421875,-67.8955078125,-21.873779296875
1758527235.0239716,0.9482421875,-0.0546875,0.37109375,3.41796875,-1.953125,0.79345703125,-8.624267578125,-67.9119873046875,-21.8463134765625
1758527235.033686,0.93994140625,-0.06982421875,0.3671875,3.662109375,-1.953125,0.67138671875,-8.61328125,-67.928466796875,-21.81884765625
1758527235.0436664,0.93994140625,-0.06982421875,0.3671875,3.662109375,-1.953125,0.67138671875,-8.602294921875,-67.950439453125,-21.7913818359375
1758527235.053923,0.94287109375,-0.08203125,0.37744140625,6.7138671875,-2.13623046875,0.6103515625,-8.5638427734375,-67.9669189453125,-21.763916015625
1758527235.0637088,0.94287109375,-0.08203125,0.37744140625,6.7138671875,-2.13623046875,0.6103515625,-8.5308837890625,-67.9888916015625,-21.7364501953125
1758527235.073708,0.9404296875,-0.03466796875,0.36083984375,2.44140625,-1.8310546875,0.54931640625,-8.5308837890625,-68.00537109375,-21.708984375
1758527235.083759,0.9404296875,-0.03466796875,0.36083984375,2.44140625,-1.8310546875,0.54931640625,-8.5308837890625,-68.0218505859375,-21.68701171875
1758527235.0937755,0.93212890625,-0.0341796875,0.37060546875,4.45556640625,-1.708984375,0.48828125,-8.5089111328125,-68.038330078125,-21.6650390625
1758527235.1038778,0.93212890625,-0.0341796875,0.37060546875,4.45556640625,-1.708984375,0.48828125,-8.4814453125,-68.0548095703125,-21.6485595703125
1758527235.114172,0.92041015625,-0.08447265625,0.388671875,8.9111328125,-1.64794921875,0.42724609375,-8.4100341796875,-68.0712890625,-21.632080078125
1758527235.1241689,0.92041015625,-0.08447265625,0.388671875,8.9111328125,-1.64794921875,0.42724609375,-8.338623046875,-68.0877685546875,-21.6156005859375
1758527235.1338828,0.9228515625,-0.076171875,0.3583984375,8.85009765625,-1.52587890625,0.30517578125,-8.272705078125,-68.0987548828125,-21.59912109375
1758527235.1437964,0.9228515625,-0.076171875,0.3583984375,8.85009765625,-1.52587890625,0.30517578125,-8.206787109375,-68.115234375,-21.5826416015625
1758527235.1541235,0.90283203125,-0.01904296875,0.3134765625,-3.96728515625,-0.9765625,0.67138671875,-8.272705078125,-68.126220703125,-21.5606689453125
1758527235.1638663,0.90283203125,-0.01904296875,0.3134765625,-3.96728515625,-0.9765625,0.67138671875,-8.3331298828125,-68.1317138671875,-21.533203125
1758527235.173911,0.94091796875,-0.021484375,0.392578125,-0.06103515625,-1.03759765625,1.15966796875,-8.3660888671875,-68.1427001953125,-21.500244140625
1758527235.1839032,0.94091796875,-0.021484375,0.392578125,-0.06103515625,-1.03759765625,1.15966796875,-8.3935546875,-68.1536865234375,-21.46728515625
1758527235.1949291,0.93310546875,-0.1064453125,0.41943359375,8.72802734375,-0.9765625,0.48828125,-8.3221435546875,-68.1646728515625,-21.456298828125
1758527235.206239,0.93310546875,-0.1064453125,0.41943359375,8.72802734375,-0.9765625,0.48828125,-8.250732421875,-68.170166015625,-21.4398193359375
1758527235.2142968,0.94140625,-0.09912109375,0.33056640625,7.568359375,-1.03759765625,0.48828125,-8.2012939453125,-68.1756591796875,-21.42333984375
1758527235.2243378,0.94140625,-0.09912109375,0.33056640625,7.568359375,-1.03759765625,0.48828125,-8.15185546875,-68.1866455078125,-21.4013671875
1758527235.23398,0.93212890625,-0.0107421875,0.3701171875,1.15966796875,-0.6103515625,0.54931640625,-8.1683349609375,-68.192138671875,-21.3848876953125
1758527235.2439232,0.93212890625,-0.0107421875,0.3701171875,1.15966796875,-0.6103515625,0.54931640625,-8.173828125,-68.1976318359375,-21.368408203125
1758527235.254031,0.92333984375,-0.00439453125,0.37841796875,2.86865234375,-0.6103515625,0.79345703125,-8.1683349609375,-68.203125,-21.346435546875
1758527235.2640936,0.92333984375,-0.00439453125,0.37841796875,2.86865234375,-0.6103515625,0.79345703125,-8.1573486328125,-68.203125,-21.3299560546875
1758527235.2740653,0.9208984375,-0.0458984375,0.34375,0.30517578125,-0.54931640625,0.67138671875,-8.1683349609375,-68.2086181640625,-21.3134765625
1758527235.2840722,0.9208984375,-0.0458984375,0.34375,0.30517578125,-0.54931640625,0.67138671875,-8.173828125,-68.214111328125,-21.2969970703125
1758527235.2942483,0.91259765625,-0.05029296875,0.36328125,-3.84521484375,-0.48828125,0.6103515625,-8.2232666015625,-68.2196044921875,-21.2860107421875
1758527235.3041372,0.91259765625,-0.05029296875,0.36328125,-3.84521484375,-0.48828125,0.6103515625,-8.2781982421875,-68.22509765625,-21.26953125
1758527235.3142056,0.92236328125,-0.060546875,0.3828125,-2.13623046875,-0.06103515625,0.79345703125,-8.3111572265625,-68.22509765625,-21.2530517578125
1758527235.324516,0.92236328125,-0.060546875,0.3828125,-2.13623046875,-0.06103515625,0.79345703125,-8.349609375,-68.22509765625,-21.236572265625
1758527235.3342085,0.92431640625,-0.0927734375,0.375,3.60107421875,0.0,0.48828125,-8.3221435546875,-68.2196044921875,-21.2255859375
1758527235.3441963,0.92431640625,-0.0927734375,0.375,3.60107421875,0.0,0.48828125,-8.3056640625,-68.2196044921875,-21.214599609375
1758527235.3541636,0.92138671875,-0.05517578125,0.3603515625,-0.3662109375,0.3662109375,0.30517578125,-8.316650390625,-68.214111328125,-21.2091064453125
1758527235.3642,0.92138671875,-0.05517578125,0.3603515625,-0.3662109375,0.3662109375,0.30517578125,-8.32763671875,-68.2086181640625,-21.20361328125
1758527235.3742049,0.91455078125,-0.03564453125,0.3515625,-0.244140625,0.6103515625,0.3662109375,-8.338623046875,-68.203125,-21.1981201171875
1758527235.3842826,0.91455078125,-0.03564453125,0.3515625,-0.244140625,0.6103515625,0.3662109375,-8.349609375,-68.1976318359375,-21.192626953125
1758527235.3943079,0.9189453125,-0.05615234375,0.359375,0.48828125,0.8544921875,0.48828125,-8.3551025390625,-68.1866455078125,-21.181640625
1758527235.4044147,0.927734375,-0.05859375,0.361328125,-2.5634765625,1.15966796875,0.48828125,-8.37158203125,-68.1756591796875,-21.1761474609375
1758527235.4147372,0.927734375,-0.05859375,0.361328125,-2.5634765625,1.15966796875,0.48828125,-8.404541015625,-68.1646728515625,-21.170654296875
1758527235.424551,0.931640625,-0.0390625,0.35595703125,-8.056640625,1.5869140625,0.79345703125,-8.470458984375,-68.1536865234375,-21.15966796875
1758527235.4342554,0.931640625,-0.0390625,0.35595703125,-8.056640625,1.5869140625,0.79345703125,-8.5638427734375,-68.13720703125,-21.1431884765625
1758527235.4443128,0.931640625,-0.0390625,0.35595703125,-7.080078125,1.953125,0.732421875,-8.646240234375,-68.1207275390625,-21.1322021484375
1758527235.4542978,0.92626953125,-0.04296875,0.37060546875,-7.080078125,1.953125,0.732421875,-8.72314453125,-68.0987548828125,-21.1212158203125
1758527235.464371,0.92041015625,-0.0869140625,0.38916015625,-0.6103515625,2.01416015625,0.48828125,-8.76708984375,-68.082275390625,-21.11572265625
1758527235.4743943,0.92041015625,-0.0869140625,0.38916015625,-0.6103515625,2.01416015625,0.48828125,-8.7725830078125,-68.060302734375,-21.11572265625
1758527235.4845793,0.92236328125,-0.09228515625,0.36376953125,3.96728515625,1.89208984375,-0.06103515625,-8.756103515625,-68.038330078125,-21.1212158203125
1758527235.4949424,0.92236328125,-0.09228515625,0.36376953125,3.96728515625,1.89208984375,-0.06103515625,-8.712158203125,-68.0218505859375,-21.126708984375
1758527235.5044725,0.927734375,-0.060546875,0.3623046875,2.86865234375,1.89208984375,-0.54931640625,-8.668212890625,-68.00537109375,-21.1376953125
1758527235.5147862,0.927734375,-0.060546875,0.3623046875,2.86865234375,1.89208984375,-0.54931640625,-8.6297607421875,-67.9888916015625,-21.15966796875
1758527235.5246022,0.9248046875,-0.03076171875,0.3720703125,2.74658203125,1.708984375,-0.6103515625,-8.5858154296875,-67.972412109375,-21.1761474609375
1758527235.5344126,0.9248046875,-0.03076171875,0.3720703125,2.74658203125,1.708984375,-0.6103515625,-8.5418701171875,-67.9559326171875,-21.20361328125
1758527235.5444643,0.9287109375,-0.0380859375,0.3408203125,-2.01416015625,1.953125,-0.3662109375,-8.5198974609375,-67.939453125,-21.2200927734375
1758527235.5544434,0.9287109375,-0.0380859375,0.3408203125,-2.01416015625,1.953125,-0.3662109375,-8.525390625,-67.9229736328125,-21.2420654296875
1758527235.5654263,0.923828125,-0.04736328125,0.37646484375,-4.21142578125,2.25830078125,-0.06103515625,-8.5418701171875,-67.906494140625,-21.2530517578125
1758527235.574479,0.923828125,-0.04736328125,0.37646484375,-4.21142578125,2.25830078125,-0.06103515625,-8.5693359375,-67.884521484375,-21.2640380859375
1758527235.5846417,0.919921875,-0.0712890625,0.384765625,-4.150390625,2.3193359375,0.1220703125,-8.602294921875,-67.862548828125,-21.2750244140625
1758527235.595299,0.919921875,-0.0712890625,0.384765625,-4.150390625,2.3193359375,0.1220703125,-8.63525390625,-67.840576171875,-21.280517578125
1758527235.6045942,0.91943359375,-0.0654296875,0.3359375,-7.14111328125,2.197265625,0.3662109375,-8.690185546875,-67.818603515625,-21.280517578125
1758527235.6148841,0.91943359375,-0.0654296875,0.3359375,-7.14111328125,2.197265625,0.3662109375,-8.76708984375,-67.8021240234375,-21.280517578125
1758527235.6246367,0.92041015625,-0.0546875,0.38232421875,-5.37109375,2.197265625,0.244140625,-8.8275146484375,-67.7801513671875,-21.280517578125
1758527235.6345646,0.92041015625,-0.0546875,0.38232421875,-5.37109375,2.197265625,0.244140625,-8.876953125,-67.763671875,-21.280517578125
1758527235.6445758,0.93701171875,-0.06884765625,0.3876953125,-3.0517578125,2.197265625,0.18310546875,-8.9154052734375,-67.74169921875,-21.2860107421875
1758527235.6545718,0.93701171875,-0.06884765625,0.3876953125,-3.0517578125,2.197265625,0.18310546875,-8.94287109375,-67.7197265625,-21.2860107421875
1758527235.6650603,0.94921875,-0.06591796875,0.37841796875,-3.23486328125,2.13623046875,0.0,-8.9703369140625,-67.7032470703125,-21.2969970703125
1758527235.6746325,0.94921875,-0.06591796875,0.37841796875,-3.23486328125,2.13623046875,0.0,-8.997802734375,-67.6812744140625,-21.302490234375
1758527235.6846795,0.95166015625,-0.0537109375,0.37744140625,-4.8828125,1.8310546875,0.06103515625,-9.03076171875,-67.664794921875,-21.3079833984375
1758527235.700283,0.95166015625,-0.0537109375,0.37744140625,-4.8828125,1.8310546875,0.06103515625,-9.07470703125,-67.6483154296875,-21.3134765625
1758527235.7064264,0.9453125,-0.04638671875,0.3779296875,-5.126953125,1.46484375,-0.06103515625,-9.11865234375,-67.6318359375,-21.324462890625
1758527235.7150822,0.9453125,-0.04638671875,0.3779296875,-5.126953125,1.46484375,-0.06103515625,-9.16259765625,-67.620849609375,-21.3299560546875
1758527235.7247403,0.94677734375,-0.0830078125,0.384765625,1.28173828125,0.8544921875,-0.67138671875,-9.16259765625,-67.6153564453125,-21.346435546875
1758527235.734711,0.94677734375,-0.0830078125,0.384765625,1.28173828125,0.8544921875,-0.67138671875,-9.129638671875,-67.60986328125,-21.368408203125
1758527235.7447329,0.95068359375,-0.09423828125,0.3916015625,6.53076171875,0.18310546875,-1.15966796875,-9.0692138671875,-67.6043701171875,-21.390380859375
1758527235.7547433,0.95068359375,-0.09423828125,0.3916015625,6.53076171875,0.18310546875,-1.15966796875,-8.9813232421875,-67.6043701171875,-21.4178466796875
1758527235.7652586,0.95166015625,-0.056640625,0.36474609375,2.13623046875,0.0,-0.8544921875,-8.9208984375,-67.60986328125,-21.4398193359375
1758527235.774774,0.95166015625,-0.056640625,0.36474609375,2.13623046875,0.0,-0.8544921875,-8.8824462890625,-67.60986328125,-21.456298828125
1758527235.7851133,0.9306640625,-0.02294921875,0.35498046875,-0.54931640625,-0.1220703125,-0.67138671875,-8.865966796875,-67.6153564453125,-21.4727783203125
1758527235.795914,0.9306640625,-0.02294921875,0.35498046875,-0.54931640625,-0.1220703125,-0.67138671875,-8.85498046875,-67.620849609375,-21.4837646484375
1758527235.8051047,0.92236328125,-0.05517578125,0.380859375,-2.3193359375,-0.244140625,-0.3662109375,-8.8604736328125,-67.6263427734375,-21.4947509765625
1758527235.8148022,0.92236328125,-0.05517578125,0.380859375,-2.3193359375,-0.244140625,-0.3662109375,-8.8714599609375,-67.6318359375,-21.500244140625
1758527235.825261,0.91845703125,-0.0859375,0.37939453125,4.69970703125,-0.732421875,-0.6103515625,-8.8494873046875,-67.6373291015625,-21.51123046875
1758527235.8349905,0.91845703125,-0.0859375,0.37939453125,4.69970703125,-0.732421875,-0.6103515625,-8.7945556640625,-67.6483154296875,-21.522216796875
1758527235.8448317,0.92236328125,-0.1201171875,0.38232421875,9.70458984375,-1.03759765625,-0.8544921875,-8.712158203125,-67.6593017578125,-21.533203125
1758527235.8549542,0.92236328125,-0.1201171875,0.38232421875,9.70458984375,-1.03759765625,-0.8544921875,-8.61328125,-67.6702880859375,-21.544189453125
