timestamp,acc_x,acc_y,acc_z,gyro_x,gyro_y,gyro_z,angle_x,angle_y,angle_z
1758527841.2043345,0.5859375,0.029296875,0.8193359375,0.244140625,-0.1220703125,0.18310546875,1.8402099609375,-35.7000732421875,-46.724853515625
1758527841.2134113,0.5859375,0.0322265625,0.81103515625,0.0,-0.18310546875,0.1220703125,1.8402099609375,-35.70556640625,-46.724853515625
1758527841.224046,0.5859375,0.0322265625,0.81103515625,0.0,-0.18310546875,0.1220703125,1.8402099609375,-35.70556640625,-46.7193603515625
1758527841.2376869,0.5869140625,0.0244140625,0.8134765625,0.0,-0.18310546875,0.0,1.8402099609375,-35.70556640625,-46.7193603515625
1758527841.2509677,0.5869140625,0.0244140625,0.8134765625,0.0,-0.18310546875,0.0,1.8402099609375,-35.7110595703125,-46.7193603515625
1758527841.2615607,0.5869140625,0.02685546875,0.81640625,-0.18310546875,-0.06103515625,0.0,1.8402099609375,-35.7110595703125,-46.7193603515625
1758527841.2708013,0.5869140625,0.02685546875,0.81640625,-0.18310546875,-0.06103515625,0.0,1.834716796875,-35.7110595703125,-46.7193603515625
1758527841.279037,0.587890625,0.02978515625,0.81494140625,-0.42724609375,-0.06103515625,0.0,1.834716796875,-35.7110595703125,-46.7193603515625
1758527841.2865763,0.587890625,0.02978515625,0.81494140625,-0.42724609375,-0.06103515625,0.0,1.8292236328125,-35.7110595703125,-46.7193603515625
1758527841.2931867,0.5869140625,0.02392578125,0.8154296875,-0.42724609375,0.0,0.1220703125,1.82373046875,-35.7110595703125,-46.7193603515625
1758527841.3004415,0.5869140625,0.02392578125,0.8154296875,-0.42724609375,0.0,0.1220703125,1.8182373046875,-35.7110595703125,-46.7193603515625
1758527841.310474,0.59619140625,0.0244140625,0.8173828125,-0.30517578125,-0.06103515625,0.1220703125,1.8182373046875,-35.716552734375,-46.7193603515625
1758527841.3203995,0.59619140625,0.0244140625,0.8173828125,-0.30517578125,-0.06103515625,0.1220703125,1.812744140625,-35.716552734375,-46.7138671875
1758527841.3303463,0.59765625,0.03076171875,0.83544921875,-0.48828125,-0.18310546875,0.0,1.8072509765625,-35.716552734375,-46.7193603515625
1758527841.3405662,0.59765625,0.03076171875,0.83544921875,-0.48828125,-0.18310546875,0.0,1.8072509765625,-35.7220458984375,-46.7193603515625
1758527841.3504162,0.60009765625,0.03173828125,0.8330078125,-0.79345703125,-0.42724609375,0.0,1.7962646484375,-35.7220458984375,-46.7193603515625
1758527841.360437,0.60009765625,0.03173828125,0.8330078125,-0.79345703125,-0.42724609375,0.0,1.790771484375,-35.7275390625,-46.7193603515625
1758527841.3705544,0.6064453125,0.0283203125,0.83154296875,-1.03759765625,-0.9765625,-0.1220703125,1.7852783203125,-35.738525390625,-46.7193603515625
1758527841.3805835,0.6064453125,0.0283203125,0.83154296875,-1.03759765625,-0.9765625,0.0,1.7742919921875,-35.74951171875,-46.7193603515625
1758527841.390449,0.61962890625,0.0322265625,0.84326171875,-3.41796875,-1.708984375,0.0,1.7413330078125,-35.7659912109375,-46.7193603515625
1758527841.400541,0.61962890625,0.0322265625,0.84326171875,-3.41796875,-1.708984375,0.0,1.7083740234375,-35.782470703125,-46.7193603515625
1758527841.410506,0.60986328125,0.0224609375,0.85693359375,-4.94384765625,-2.197265625,0.0,1.6644287109375,-35.804443359375,-46.7193603515625
1758527841.4204955,0.60986328125,0.0224609375,0.85693359375,-4.94384765625,-2.197265625,0.0,1.614990234375,-35.826416015625,-46.7193603515625
1758527841.4304833,0.59814453125,0.01708984375,0.8369140625,-2.86865234375,-2.38037109375,-0.3662109375,1.593017578125,-35.8538818359375,-46.724853515625
1758527841.4404957,0.59814453125,0.01708984375,0.8369140625,-2.86865234375,-2.38037109375,-0.3662109375,1.5655517578125,-35.8758544921875,-46.7303466796875
1758527841.4505236,0.59033203125,0.02685546875,0.81689453125,-1.03759765625,-2.25830078125,-0.6103515625,1.5655517578125,-35.8978271484375,-46.7413330078125
1758527841.4605312,0.59033203125,0.02685546875,0.81689453125,-1.03759765625,-2.25830078125,-0.6103515625,1.56005859375,-35.9197998046875,-46.746826171875
1758527841.4705384,0.587890625,0.02783203125,0.80517578125,-0.18310546875,-2.44140625,-0.732421875,1.5655517578125,-35.9417724609375,-46.7578125
1758527841.4805834,0.587890625,0.02783203125,0.80517578125,-0.18310546875,-2.44140625,-0.732421875,1.571044921875,-35.9637451171875,-46.768798828125
1758527841.490544,0.58251953125,0.01806640625,0.7939453125,0.0,-2.62451171875,-0.732421875,1.5765380859375,-35.9912109375,-46.7742919921875
1758527841.5005922,0.58251953125,0.01806640625,0.7939453125,0.0,-2.62451171875,-0.732421875,1.58203125,-36.01318359375,-46.7852783203125
1758527841.5105948,0.5791015625,0.02685546875,0.80224609375,-0.48828125,-2.62451171875,-0.48828125,1.58203125,-36.0406494140625,-46.790771484375
1758527841.520588,0.5791015625,0.02685546875,0.80224609375,-0.48828125,-2.62451171875,-0.48828125,1.58203125,-36.068115234375,-46.8017578125
1758527841.5306163,0.58984375,0.02001953125,0.802734375,-0.732421875,-2.9296875,-0.3662109375,1.58203125,-36.0955810546875,-46.8072509765625
1758527841.5406199,0.58984375,0.02001953125,0.802734375,-0.732421875,-2.9296875,-0.3662109375,1.5765380859375,-36.123046875,-46.812744140625
1758527841.5506365,0.59228515625,0.02587890625,0.810546875,-0.54931640625,-3.23486328125,-0.3662109375,1.5765380859375,-36.156005859375,-46.8182373046875
1758527841.560652,0.59228515625,0.02587890625,0.810546875,-0.54931640625,-3.23486328125,-0.3662109375,1.5765380859375,-36.1834716796875,-46.82373046875
1758527841.5706542,0.5986328125,0.02197265625,0.80859375,-1.64794921875,-3.662109375,-0.3662109375,1.5655517578125,-36.221923828125,-46.8292236328125
1758527841.5806682,0.5986328125,0.02197265625,0.80859375,-1.64794921875,-3.662109375,-0.3662109375,1.549072265625,-36.2548828125,-46.834716796875
1758527841.5906744,0.60595703125,0.017578125,0.81689453125,-1.28173828125,-3.90625,-0.48828125,1.5435791015625,-36.2933349609375,-46.8402099609375
1758527841.6006954,0.60595703125,0.017578125,0.81689453125,-1.28173828125,-3.90625,-0.48828125,1.5325927734375,-36.331787109375,-46.845703125
1758527841.6107202,0.60546875,0.0234375,0.8291015625,-0.18310546875,-3.60107421875,-0.732421875,1.5380859375,-36.36474609375,-46.856689453125
1758527841.6207175,0.60546875,0.0234375,0.8291015625,-0.18310546875,-3.60107421875,-0.732421875,1.5435791015625,-36.4031982421875,-46.86767578125
1758527841.6307209,0.60498046875,0.02783203125,0.8134765625,1.708984375,-3.662109375,-0.91552734375,1.571044921875,-36.4361572265625,-46.878662109375
1758527841.640748,0.60498046875,0.02783203125,0.8134765625,1.708984375,-3.662109375,-0.91552734375,1.593017578125,-36.4691162109375,-46.8951416015625
1758527841.6507533,0.595703125,0.025390625,0.80712890625,-0.732421875,-3.5400390625,-0.42724609375,1.593017578125,-36.507568359375,-46.900634765625
1758527841.6607625,0.595703125,0.025390625,0.80712890625,-0.732421875,-3.5400390625,-0.42724609375,1.5875244140625,-36.54052734375,-46.9061279296875
1758527841.67076,0.58984375,0.01806640625,0.787109375,-0.8544921875,-3.173828125,-0.1220703125,1.58203125,-36.5679931640625,-46.91162109375
1758527841.6807756,0.58984375,0.01806640625,0.787109375,-0.8544921875,-3.173828125,-0.1220703125,1.5765380859375,-36.6009521484375,-46.91162109375
1758527841.6908014,0.59326171875,0.02587890625,0.79736328125,-2.44140625,-3.0517578125,0.06103515625,1.5545654296875,-36.62841796875,-46.91162109375
1758527841.700835,0.59326171875,0.02587890625,0.79736328125,-2.44140625,-3.0517578125,0.06103515625,1.527099609375,-36.6558837890625,-46.91162109375
1758527841.710826,0.6015625,0.025390625,0.806640625,-2.86865234375,-2.9296875,0.18310546875,1.4996337890625,-36.683349609375,-46.91162109375
1758527841.7208707,0.6015625,0.025390625,0.806640625,-2.86865234375,-2.9296875,0.18310546875,1.47216796875,-36.71630859375,-46.9061279296875
1758527841.73084,0.60791015625,0.0205078125,0.81591796875,-1.8310546875,-2.86865234375,0.1220703125,1.4556884765625,-36.7437744140625,-46.9061279296875
1758527841.74094,0.60791015625,0.0205078125,0.81591796875,-1.8310546875,-2.86865234375,0.1220703125,1.439208984375,-36.7657470703125,-46.9061279296875
1758527841.7508705,0.60888671875,0.01953125,0.8134765625,-2.01416015625,-3.0517578125,0.244140625,1.417236328125,-36.7987060546875,-46.900634765625
1758527841.760899,0.60888671875,0.01953125,0.8134765625,-2.01416015625,-3.0517578125,0.244140625,1.395263671875,-36.826171875,-46.900634765625
1758527841.7709174,0.60205078125,0.021484375,0.798828125,-3.5400390625,-3.11279296875,0.54931640625,1.3568115234375,-36.8536376953125,-46.8951416015625
1758527841.7809632,0.60546875,0.013671875,0.80029296875,-3.662109375,-3.23486328125,0.732421875,1.318359375,-36.8865966796875,-46.8896484375
1758527841.7910242,0.60546875,0.013671875,0.80029296875,-3.662109375,-3.23486328125,0.732421875,1.2799072265625,-36.9195556640625,-46.878662109375
1758527841.801017,0.615234375,0.009765625,0.81396484375,-2.0751953125,-3.41796875,0.732421875,1.2469482421875,-36.9525146484375,-46.86767578125
1758527841.810979,0.615234375,0.009765625,0.81396484375,-2.0751953125,-3.41796875,0.732421875,1.2249755859375,-36.9854736328125,-46.8621826171875
1758527841.8210812,0.62158203125,0.01611328125,0.81982421875,-0.54931640625,-3.84521484375,0.732421875,1.2030029296875,-37.0184326171875,-46.8511962890625
1758527841.8309872,0.62158203125,0.01611328125,0.81982421875,-0.54931640625,-3.84521484375,0.732421875,1.197509765625,-37.056884765625,-46.8402099609375
1758527841.8410683,0.626953125,0.02587890625,0.82568359375,-0.732421875,-4.2724609375,0.732421875,1.1865234375,-37.0953369140625,-46.834716796875
1758527841.8509903,0.626953125,0.02587890625,0.82568359375,-0.732421875,-4.2724609375,0.732421875,1.175537109375,-37.1337890625,-46.82373046875
1758527841.861058,0.63818359375,0.02099609375,0.82958984375,-2.86865234375,-5.0048828125,0.6103515625,1.153564453125,-37.1832275390625,-46.812744140625
1758527841.871335,0.63818359375,0.02099609375,0.82958984375,-2.86865234375,-5.0048828125,0.6103515625,1.12060546875,-37.232666015625,-46.8072509765625
1758527841.8811414,0.640625,0.01123046875,0.822265625,-4.33349609375,-5.7373046875,0.8544921875,1.0821533203125,-37.2821044921875,-46.8017578125
1758527841.8910563,0.640625,0.01123046875,0.822265625,-4.33349609375,-5.7373046875,0.8544921875,1.03271484375,-37.3370361328125,-46.790771484375
1758527841.901347,0.640625,0.00439453125,0.83203125,-0.67138671875,-6.53076171875,1.03759765625,1.0052490234375,-37.3974609375,-46.77978515625
1758527841.9114442,0.640625,0.00439453125,0.83203125,-0.67138671875,-6.53076171875,1.03759765625,0.9942626953125,-37.46337890625,-46.7633056640625
1758527841.9214635,0.65185546875,-0.00146484375,0.845703125,-0.42724609375,-7.32421875,1.15966796875,0.977783203125,-37.5347900390625,-46.7523193359375
1758527841.9310925,0.65185546875,-0.00146484375,0.845703125,-0.42724609375,-7.32421875,1.15966796875,0.966796875,-37.606201171875,-46.7413330078125
1758527841.9411523,0.66162109375,0.01708984375,0.8408203125,0.06103515625,-8.30078125,1.15966796875,0.955810546875,-37.68310546875,-46.724853515625
1758527841.9514532,0.66162109375,0.01708984375,0.8408203125,0.06103515625,-8.30078125,1.15966796875,0.9503173828125,-37.760009765625,-46.7138671875
1758527841.9611151,0.65673828125,0.00927734375,0.82666015625,-0.48828125,-9.27734375,1.0986328125,0.9393310546875,-37.847900390625,-46.6973876953125
1758527841.9711163,0.65673828125,0.00927734375,0.82666015625,-0.48828125,-9.27734375,1.0986328125,0.9283447265625,-37.9412841796875,-46.6864013671875
1758527841.9816298,0.6455078125,0.0263671875,0.79541015625,-2.197265625,-10.009765625,1.220703125,0.9063720703125,-38.03466796875,-46.6754150390625
1758527841.991166,0.6455078125,0.0263671875,0.79541015625,-2.197265625,-10.009765625,1.220703125,0.87890625,-38.133544921875,-46.658935546875
1758527842.0012255,0.63671875,0.0087890625,0.82177734375,-2.13623046875,-10.8642578125,1.28173828125,0.845947265625,-38.2379150390625,-46.64794921875
1758527842.011566,0.63671875,0.0087890625,0.82177734375,-2.13623046875,-10.8642578125,1.28173828125,0.8184814453125,-38.34228515625,-46.6314697265625
1758527842.021199,0.63232421875,0.00341796875,0.794921875,-1.28173828125,-10.80322265625,1.40380859375,0.791015625,-38.4466552734375,-46.614990234375
1758527842.0312488,0.63232421875,0.00341796875,0.794921875,-1.28173828125,-10.80322265625,1.40380859375,0.76904296875,-38.551025390625,-46.60400390625
1758527842.0413346,0.6357421875,0.0224609375,0.78857421875,0.18310546875,-11.04736328125,0.8544921875,0.758056640625,-38.660888671875,-46.5875244140625
1758527842.0511775,0.6357421875,0.0224609375,0.78857421875,0.18310546875,-11.04736328125,0.8544921875,0.7525634765625,-38.7652587890625,-46.58203125
1758527842.0612574,0.62060546875,0.03173828125,0.7666015625,-6.53076171875,-11.23046875,0.67138671875,0.7196044921875,-38.8751220703125,-46.571044921875
1758527842.0714166,0.62060546875,0.03173828125,0.7666015625,-6.53076171875,-11.23046875,0.67138671875,0.6536865234375,-38.9794921875,-46.5655517578125
1758527842.081248,0.61328125,0.03564453125,0.75,-11.90185546875,-10.986328125,0.42724609375,0.560302734375,-39.08935546875,-46.56005859375
1758527842.0912328,0.61328125,0.03564453125,0.75,-11.90185546875,-10.986328125,0.42724609375,0.4449462890625,-39.1937255859375,-46.56005859375
1758527842.1015992,0.60498046875,0.0009765625,0.73779296875,-11.29150390625,-10.498046875,0.6103515625,0.3350830078125,-39.298095703125,-46.5545654296875
1758527842.1112645,0.60498046875,0.0009765625,0.73779296875,-11.29150390625,-10.498046875,0.6103515625,0.2197265625,-39.39697265625,-46.5435791015625
1758527842.1212974,0.60400390625,0.0029296875,0.744140625,-8.72802734375,-9.70458984375,0.42724609375,0.1263427734375,-39.4903564453125,-46.5380859375
1758527842.1314194,0.60400390625,0.0029296875,0.744140625,-8.72802734375,-9.70458984375,0.42724609375,0.0384521484375,-39.583740234375,-46.5325927734375
1758527842.141355,0.60595703125,-0.005859375,0.72802734375,-7.8125,-9.1552734375,0.48828125,-0.032958984375,-39.671630859375,-46.527099609375
1758527842.151325,0.60595703125,-0.005859375,0.72802734375,-7.8125,-9.1552734375,0.48828125,-0.10986328125,-39.759521484375,-46.5216064453125
1758527842.1616333,0.59375,-0.009765625,0.712890625,-6.34765625,-8.056640625,0.48828125,-0.1812744140625,-39.8419189453125,-46.51611328125
1758527842.171391,0.59375,-0.009765625,0.712890625,-6.34765625,-8.056640625,0.48828125,-0.24169921875,-39.913330078125,-46.5106201171875
1758527842.1814995,0.6162109375,-0.01904296875,0.7373046875,-2.99072265625,-7.2021484375,0.48828125,-0.2911376953125,-39.9847412109375,-46.505126953125
1758527842.1913872,0.6162109375,-0.01904296875,0.7373046875,-2.99072265625,-7.2021484375,0.48828125,-0.318603515625,-40.0506591796875,-46.4996337890625
1758527842.2017877,0.626953125,-0.01953125,0.73779296875,-1.953125,-6.34765625,0.732421875,-0.3460693359375,-40.1165771484375,-46.494140625
1758527842.2114966,0.626953125,-0.01953125,0.73779296875,-1.953125,-6.34765625,0.732421875,-0.37353515625,-40.1715087890625,-46.483154296875
1758527842.2215445,0.638671875,-0.00390625,0.7353515625,-3.0517578125,-5.92041015625,1.15966796875,-0.406494140625,-40.23193359375,-46.47216796875
1758527842.2314765,0.638671875,-0.00390625,0.7353515625,-3.0517578125,-5.92041015625,1.15966796875,-0.4449462890625,-40.286865234375,-46.4556884765625
1758527842.2414768,0.65087890625,-0.025390625,0.767578125,-0.42724609375,-5.7373046875,1.220703125,-0.4669189453125,-40.341796875,-46.4447021484375
1758527842.2517283,0.65087890625,-0.025390625,0.767578125,-0.42724609375,-5.7373046875,1.220703125,-0.4833984375,-40.3912353515625,-46.42822265625
1758527842.2619061,0.6640625,-0.017578125,0.77587890625,1.28173828125,-5.55419921875,1.15966796875,-0.4888916015625,-40.4461669921875,-46.4117431640625
1758527842.271477,0.6640625,-0.017578125,0.77587890625,1.28173828125,-5.55419921875,1.15966796875,-0.4888916015625,-40.5010986328125,-46.395263671875
1758527842.2815008,0.6708984375,-0.0185546875,0.78076171875,4.0283203125,-5.55419921875,1.0986328125,-0.472412109375,-40.550537109375,-46.3787841796875
1758527842.2916605,0.6708984375,-0.0185546875,0.78076171875,4.0283203125,-5.55419921875,1.0986328125,-0.4449462890625,-40.60546875,-46.3677978515625
1758527842.3019688,0.67724609375,-0.01025390625,0.7685546875,5.9814453125,-5.859375,1.0986328125,-0.406494140625,-40.6549072265625,-46.351318359375
1758527842.3115635,0.67724609375,-0.01025390625,0.7685546875,5.9814453125,-5.859375,1.0986328125,-0.3570556640625,-40.7098388671875,-46.3348388671875
1758527842.3215904,0.69287109375,-0.0126953125,0.78564453125,7.62939453125,-6.34765625,1.220703125,-0.3021240234375,-40.770263671875,-46.318359375
1758527842.331531,0.69287109375,-0.0126953125,0.78564453125,7.62939453125,-6.34765625,1.220703125,-0.24169921875,-40.8306884765625,-46.3018798828125
1758527842.3415742,0.6875,-0.01318359375,0.80419921875,10.009765625,-6.7138671875,0.8544921875,-0.164794921875,-40.8966064453125,-46.285400390625
1758527842.3515596,0.6875,-0.01318359375,0.80419921875,10.009765625,-6.7138671875,0.8544921875,-0.076904296875,-40.9625244140625,-46.2689208984375
1758527842.361998,0.68017578125,-0.00927734375,0.76611328125,11.04736328125,-7.2021484375,0.732421875,0.010986328125,-41.0284423828125,-46.2579345703125
1758527842.3716154,0.68017578125,-0.00927734375,0.76611328125,11.04736328125,-7.2021484375,0.732421875,0.10986328125,-41.0943603515625,-46.2469482421875
1758527842.3816824,0.6865234375,0.0146484375,0.7744140625,7.99560546875,-7.87353515625,0.8544921875,0.1922607421875,-41.1712646484375,-46.2359619140625
1758527842.3917146,0.6865234375,0.0146484375,0.7744140625,7.99560546875,-7.87353515625,0.8544921875,0.2581787109375,-41.2481689453125,-46.2249755859375
1758527842.4016845,0.6865234375,0.01416015625,0.77978515625,4.08935546875,-8.4228515625,0.8544921875,0.3076171875,-41.3250732421875,-46.2139892578125
1758527842.411666,0.6865234375,0.01416015625,0.77978515625,4.08935546875,-8.4228515625,0.8544921875,0.340576171875,-41.407470703125,-46.2030029296875
1758527842.4217398,0.662109375,0.005859375,0.7490234375,3.173828125,-8.6669921875,0.8544921875,0.362548828125,-41.4898681640625,-46.1920166015625
1758527842.43167,0.662109375,0.005859375,0.7490234375,3.173828125,-8.6669921875,0.8544921875,0.384521484375,-41.572265625,-46.1810302734375
1758527842.4417086,0.6630859375,0.0107421875,0.736328125,2.25830078125,-8.7890625,0.67138671875,0.406494140625,-41.66015625,-46.1700439453125
1758527842.4516387,0.6630859375,0.0107421875,0.736328125,2.25830078125,-8.7890625,0.67138671875,0.41748046875,-41.7425537109375,-46.16455078125
1758527842.4619617,0.6630859375,0.0107421875,0.736328125,1.8310546875,-8.85009765625,0.48828125,0.4339599609375,-41.824951171875,-46.153564453125
1758527842.4716768,0.63916015625,0.021484375,0.71484375,1.8310546875,-8.85009765625,0.48828125,0.4449462890625,-41.912841796875,-46.1480712890625
1758527842.481774,0.6298828125,0.017578125,0.7041015625,1.64794921875,-8.30078125,0.54931640625,0.46142578125,-41.9952392578125,-46.142578125
1758527842.4918027,0.6298828125,0.017578125,0.7041015625,1.64794921875,-8.30078125,0.54931640625,0.472412109375,-42.0721435546875,-46.1370849609375
1758527842.50179,0.60791015625,0.0126953125,0.66455078125,-1.15966796875,-7.01904296875,0.54931640625,0.472412109375,-42.1435546875,-46.131591796875
1758527842.5117607,0.60791015625,0.0126953125,0.66455078125,-1.15966796875,-7.01904296875,0.54931640625,0.4559326171875,-42.20947265625,-46.1260986328125
1758527842.5218732,0.63525390625,0.015625,0.69580078125,0.42724609375,-6.34765625,0.244140625,0.450439453125,-42.275390625,-46.12060546875
1758527842.531764,0.63525390625,0.015625,0.69580078125,0.42724609375,-6.34765625,0.244140625,0.4559326171875,-42.3358154296875,-46.12060546875
1758527842.5418153,0.65283203125,-0.00048828125,0.7197265625,1.03759765625,-5.4931640625,0.244140625,0.46142578125,-42.3907470703125,-46.1151123046875
1758527842.5517516,0.65283203125,-0.00048828125,0.7197265625,1.03759765625,-5.4931640625,0.244140625,0.472412109375,-42.440185546875,-46.1151123046875
1758527842.5621529,0.6708984375,0.017578125,0.71044921875,-1.40380859375,-5.126953125,0.1220703125,0.4669189453125,-42.4896240234375,-46.1151123046875
1758527842.5718143,0.6708984375,0.017578125,0.71044921875,-1.40380859375,-5.126953125,0.1220703125,0.4559326171875,-42.5390625,-46.1151123046875
1758527842.5818696,0.6806640625,0.01220703125,0.7392578125,-3.0517578125,-4.69970703125,0.06103515625,0.4339599609375,-42.5830078125,-46.1151123046875
1758527842.5960848,0.6806640625,0.01220703125,0.7392578125,-3.0517578125,-4.69970703125,0.06103515625,0.406494140625,-42.626953125,-46.1151123046875
1758527842.6025107,0.6923828125,-0.001953125,0.75048828125,-3.11279296875,-4.33349609375,0.0,0.3790283203125,-42.6708984375,-46.1151123046875
1758527842.611867,0.6923828125,-0.001953125,0.75048828125,-3.11279296875,-4.33349609375,0.0,0.3515625,-42.71484375,-46.1151123046875
1758527842.6283092,0.7021484375,0.0,0.74365234375,-2.74658203125,-4.5166015625,0.0,0.3240966796875,-42.7532958984375,-46.1151123046875
1758527842.6345174,0.7021484375,0.0,0.74365234375,-2.74658203125,-4.5166015625,0.0,0.296630859375,-42.7972412109375,-46.1151123046875
1758527842.6419904,0.70751953125,0.00634765625,0.75634765625,-3.7841796875,-4.8828125,0.48828125,0.263671875,-42.8411865234375,-46.109619140625
1758527842.6518679,0.70751953125,0.00634765625,0.75634765625,-3.7841796875,-4.8828125,0.48828125,0.2197265625,-42.890625,-46.1041259765625
1758527842.6648717,0.70751953125,-0.0048828125,0.75537109375,-3.84521484375,-5.06591796875,0.91552734375,0.1812744140625,-42.9400634765625,-46.0931396484375
1758527842.6719465,0.70751953125,-0.0048828125,0.75537109375,-3.84521484375,-5.06591796875,0.91552734375,0.1318359375,-42.9840087890625,-46.07666015625
1758527842.681965,0.705078125,-0.00390625,0.7470703125,-2.74658203125,-5.126953125,1.52587890625,0.0933837890625,-43.033447265625,-46.0601806640625
1758527842.69795,0.705078125,-0.00390625,0.7470703125,-2.74658203125,-5.126953125,1.52587890625,0.0494384765625,-43.0828857421875,-46.0382080078125
1758527842.7048013,0.70849609375,-0.00830078125,0.74072265625,-3.84521484375,-5.4931640625,2.13623046875,0.0,-43.1378173828125,-46.0107421875
1758527842.7119787,0.70849609375,-0.00830078125,0.74072265625,-3.84521484375,-5.4931640625,2.13623046875,-0.0494384765625,-43.1927490234375,-45.9832763671875
1758527842.722164,0.69091796875,0.0048828125,0.72412109375,-5.92041015625,-5.615234375,2.685546875,-0.120849609375,-43.2421875,-45.94482421875
1758527842.7352066,0.69091796875,0.0048828125,0.72412109375,-5.92041015625,-5.615234375,2.685546875,-0.2032470703125,-43.297119140625,-45.9063720703125
1758527842.742104,0.69091796875,0.0048828125,0.72412109375,-5.2490234375,-5.859375,2.9296875,-0.28564453125,-43.3575439453125,-45.867919921875
1758527842.7519953,0.6875,-0.00732421875,0.728515625,-5.2490234375,-5.859375,2.9296875,-0.362548828125,-43.4124755859375,-45.823974609375
1758527842.768258,0.68896484375,-0.0185546875,0.72265625,-3.84521484375,-6.04248046875,3.41796875,-0.439453125,-43.4674072265625,-45.780029296875
1758527842.775068,0.68896484375,-0.0185546875,0.72265625,-3.84521484375,-6.04248046875,3.41796875,-0.50537109375,-43.52783203125,-45.7305908203125
1758527842.7821426,0.69287109375,-0.013671875,0.71044921875,-3.0517578125,-6.34765625,3.72314453125,-0.5712890625,-43.5882568359375,-45.68115234375
1758527842.7920806,0.69287109375,-0.013671875,0.71044921875,-3.0517578125,-6.34765625,3.72314453125,-0.63720703125,-43.648681640625,-45.626220703125
1758527842.8081336,0.69091796875,-0.0107421875,0.70068359375,-4.33349609375,-6.34765625,3.5400390625,-0.7086181640625,-43.7091064453125,-45.5712890625
1758527842.8152528,0.69091796875,-0.0107421875,0.70068359375,-4.33349609375,-6.34765625,3.5400390625,-0.7855224609375,-43.7750244140625,-45.516357421875
1758527842.8223896,0.7001953125,-0.0068359375,0.72314453125,-3.2958984375,-6.4697265625,3.41796875,-0.8514404296875,-43.83544921875,-45.4669189453125
1758527842.832466,0.7001953125,-0.0068359375,0.72314453125,-3.2958984375,-6.4697265625,3.41796875,-0.9173583984375,-43.9013671875,-45.41748046875
1758527842.8426814,0.70654296875,-0.01025390625,0.72802734375,-2.25830078125,-6.40869140625,3.35693359375,-0.966796875,-43.9617919921875,-45.3680419921875
1758527842.852147,0.70654296875,-0.01025390625,0.72802734375,-2.25830078125,-6.40869140625,3.35693359375,-1.021728515625,-44.022216796875,-45.318603515625
1758527842.8628352,0.70849609375,-0.00927734375,0.716796875,-3.662109375,-6.65283203125,3.0517578125,-1.087646484375,-44.088134765625,-45.274658203125
1758527842.8727283,0.70849609375,-0.00927734375,0.716796875,-3.662109375,-6.65283203125,3.0517578125,-1.1480712890625,-44.154052734375,-45.230712890625
1758527842.882501,0.71484375,-0.01806640625,0.712890625,-2.5634765625,-6.77490234375,2.74658203125,-1.2030029296875,-44.219970703125,-45.186767578125
1758527842.8932273,0.71484375,-0.01806640625,0.712890625,-2.5634765625,-6.77490234375,2.74658203125,-1.25244140625,-44.285888671875,-45.142822265625
1758527842.9027708,0.7119140625,-0.03271484375,0.7353515625,0.0,-6.40869140625,2.197265625,-1.2689208984375,-44.3463134765625,-45.10986328125
1758527842.9123175,0.7119140625,-0.03271484375,0.7353515625,0.0,-6.40869140625,2.197265625,-1.2908935546875,-44.40673828125,-45.076904296875
1758527842.9225469,0.7236328125,-0.00927734375,0.7177734375,2.3193359375,-6.4697265625,1.77001953125,-1.285400390625,-44.47265625,-45.0494384765625
1758527842.9329526,0.7236328125,-0.00927734375,0.7177734375,2.3193359375,-6.4697265625,1.77001953125,-1.2799072265625,-44.5330810546875,-45.02197265625
1758527842.9425516,0.724609375,-0.00830078125,0.7138671875,0.6103515625,-6.89697265625,1.77001953125,-1.2908935546875,-44.6044921875,-44.989013671875
1758527842.9524229,0.724609375,-0.00830078125,0.7138671875,0.6103515625,-6.89697265625,1.77001953125,-1.3018798828125,-44.67041015625,-44.9615478515625
1758527842.9628253,0.71533203125,-0.033203125,0.7099609375,0.9765625,-7.01904296875,1.46484375,-1.307373046875,-44.7418212890625,-44.9395751953125
1758527842.9723449,0.71533203125,-0.033203125,0.7099609375,0.9765625,-7.01904296875,1.46484375,-1.3128662109375,-44.8077392578125,-44.9176025390625
1758527842.9827046,0.7138671875,-0.029296875,0.712890625,4.638671875,-7.01904296875,1.15966796875,-1.2799072265625,-44.879150390625,-44.8956298828125
1758527842.9929874,0.7138671875,-0.029296875,0.712890625,4.638671875,-7.01904296875,1.15966796875,-1.2469482421875,-44.945068359375,-44.8736572265625
1758527843.0026567,0.71875,-0.00927734375,0.7158203125,6.34765625,-7.01904296875,1.28173828125,-1.2030029296875,-45.0164794921875,-44.8516845703125
1758527843.0123737,0.71875,-0.00927734375,0.7158203125,6.34765625,-7.01904296875,1.28173828125,-1.153564453125,-45.0823974609375,-44.8297119140625
1758527843.0228767,0.71923828125,0.00634765625,0.6982421875,2.0751953125,-7.26318359375,1.220703125,-1.1480712890625,-45.15380859375,-44.813232421875
1758527843.0325885,0.71923828125,0.00634765625,0.6982421875,2.0751953125,-7.26318359375,1.220703125,-1.1370849609375,-45.2252197265625,-44.791259765625
1758527843.0426924,0.701171875,-0.01318359375,0.69140625,-0.8544921875,-7.6904296875,1.0986328125,-1.1590576171875,-45.296630859375,-44.769287109375
1758527843.0527873,0.701171875,-0.01318359375,0.69140625,-0.8544921875,-7.6904296875,1.0986328125,-1.1810302734375,-45.37353515625,-44.7528076171875
1758527843.0630133,0.7041015625,-0.02978515625,0.6845703125,2.0751953125,-7.50732421875,0.91552734375,-1.1700439453125,-45.4449462890625,-44.736328125
1758527843.072439,0.7041015625,-0.02978515625,0.6845703125,2.0751953125,-7.50732421875,0.91552734375,-1.1590576171875,-45.5218505859375,-44.7198486328125
1758527843.0827422,0.71435546875,-0.03076171875,0.69384765625,6.28662109375,-7.2021484375,0.67138671875,-1.1041259765625,-45.5877685546875,-44.703369140625
1758527843.0931954,0.71435546875,-0.03076171875,0.69384765625,6.28662109375,-7.2021484375,0.67138671875,-1.0546875,-45.6591796875,-44.6923828125
1758527843.1044343,0.71435546875,-0.00537109375,0.69482421875,6.53076171875,-7.14111328125,0.3662109375,-0.9942626953125,-45.7305908203125,-44.6868896484375
1758527843.1128142,0.71435546875,-0.00537109375,0.69482421875,6.53076171875,-7.14111328125,0.3662109375,-0.9393310546875,-45.7965087890625,-44.6759033203125
1758527843.1230946,0.7119140625,0.0,0.68212890625,5.18798828125,-7.080078125,0.3662109375,-0.8953857421875,-45.867919921875,-44.67041015625
1758527843.1326878,0.7119140625,0.0,0.68212890625,5.18798828125,-7.080078125,0.3662109375,-0.845947265625,-45.933837890625,-44.659423828125
1758527843.1429064,0.71826171875,-0.01318359375,0.685546875,4.39453125,-7.080078125,0.30517578125,-0.8074951171875,-46.0052490234375,-44.6539306640625
1758527843.152832,0.71826171875,-0.01318359375,0.685546875,4.39453125,-7.080078125,0.30517578125,-0.7745361328125,-46.0711669921875,-44.6484375
1758527843.1632118,0.72607421875,-0.01416015625,0.6826171875,4.45556640625,-7.01904296875,0.244140625,-0.7305908203125,-46.1370849609375,-44.6429443359375
1758527843.1725485,0.72607421875,-0.01416015625,0.6826171875,4.45556640625,-7.01904296875,0.244140625,-0.692138671875,-46.20849609375,-44.637451171875
1758527843.1828804,0.74462890625,-0.00537109375,0.70947265625,4.8828125,-7.14111328125,-0.06103515625,-0.648193359375,-46.2799072265625,-44.637451171875
1758527843.193819,0.74462890625,-0.00537109375,0.70947265625,4.8828125,-7.14111328125,-0.06103515625,-0.604248046875,-46.3458251953125,-44.637451171875
1758527843.2029066,0.73291015625,0.01171875,0.6923828125,1.64794921875,-7.50732421875,-0.06103515625,-0.5877685546875,-46.417236328125,-44.637451171875
1758527843.212627,0.73291015625,0.01171875,0.6923828125,1.64794921875,-7.50732421875,-0.06103515625,-0.5712890625,-46.494140625,-44.6319580078125
1758527843.2234569,0.75146484375,0.0087890625,0.68115234375,-0.732421875,-7.99560546875,-0.06103515625,-0.5767822265625,-46.571044921875,-44.6319580078125
1758527843.2327857,0.75146484375,0.0087890625,0.68115234375,-0.732421875,-7.99560546875,-0.06103515625,-0.582275390625,-46.64794921875,-44.6319580078125
1758527843.2429583,0.76123046875,0.01123046875,0.71044921875,-4.94384765625,-8.1787109375,-0.18310546875,-0.6317138671875,-46.7303466796875,-44.6319580078125
1758527843.252808,0.76123046875,0.01123046875,0.71044921875,-4.94384765625,-8.1787109375,-0.18310546875,-0.6756591796875,-46.8072509765625,-44.6319580078125
1758527843.2635226,0.7734375,0.00732421875,0.72314453125,-7.38525390625,-8.544921875,-0.18310546875,-0.7470703125,-46.8951416015625,-44.637451171875
1758527843.27259,0.7734375,0.00732421875,0.72314453125,-7.38525390625,-8.544921875,-0.18310546875,-0.81298828125,-46.9775390625,-44.637451171875
1758527843.282953,0.755859375,-0.0205078125,0.6865234375,-8.23974609375,-9.033203125,-0.48828125,-0.889892578125,-47.0654296875,-44.6429443359375
1758527843.293793,0.755859375,-0.0205078125,0.6865234375,-8.23974609375,-9.033203125,-0.48828125,-0.9613037109375,-47.1533203125,-44.6484375
1758527843.3029492,0.7490234375,-0.0224609375,0.6787109375,-6.28662109375,-9.21630859375,-0.67138671875,-1.0162353515625,-47.2412109375,-44.6539306640625
1758527843.3127146,0.7490234375,-0.0224609375,0.6787109375,-6.28662109375,-9.21630859375,-0.67138671875,-1.0711669921875,-47.3345947265625,-44.659423828125
1758527843.323179,0.75,-0.021484375,0.66943359375,-3.47900390625,-9.46044921875,-0.91552734375,-1.0931396484375,-47.427978515625,-44.67041015625
1758527843.3328173,0.75,-0.021484375,0.66943359375,-3.47900390625,-9.46044921875,-0.91552734375,-1.12060546875,-47.5213623046875,-44.681396484375
1758527843.3429635,0.7392578125,-0.009765625,0.669921875,-2.197265625,-9.27734375,-1.03759765625,-1.131591796875,-47.6092529296875,-44.6923828125
1758527843.3527217,0.7392578125,-0.009765625,0.669921875,-2.197265625,-9.27734375,-1.03759765625,-1.142578125,-47.70263671875,-44.703369140625
1758527843.3634467,0.7470703125,-0.02783203125,0.66845703125,0.67138671875,-9.21630859375,-1.15966796875,-1.12060546875,-47.79052734375,-44.7198486328125
1758527843.3727667,0.7470703125,-0.02783203125,0.66845703125,0.67138671875,-9.21630859375,-1.15966796875,-1.1041259765625,-47.8839111328125,-44.7308349609375
1758527843.3830526,0.7353515625,-0.0419921875,0.64892578125,3.47900390625,-8.97216796875,-1.0986328125,-1.0601806640625,-47.96630859375,-44.7418212890625
1758527843.393493,0.7353515625,-0.0419921875,0.64892578125,3.47900390625,-8.97216796875,-1.0986328125,-1.0162353515625,-48.05419921875,-44.7528076171875
1758527843.403376,0.7275390625,-0.0146484375,0.638671875,5.79833984375,-8.9111328125,-0.91552734375,-0.955810546875,-48.14208984375,-44.7637939453125
1758527843.412801,0.7275390625,-0.0146484375,0.638671875,5.79833984375,-8.9111328125,-0.91552734375,-0.8953857421875,-48.22998046875,-44.769287109375
1758527843.4232104,0.72216796875,0.0,0.6435546875,2.5634765625,-8.60595703125,-0.67138671875,-0.8624267578125,-48.3123779296875,-44.7747802734375
1758527843.4329045,0.72216796875,0.0,0.6435546875,2.5634765625,-8.60595703125,-0.67138671875,-0.8349609375,-48.4002685546875,-44.7802734375
1758527843.4431195,0.74072265625,0.0107421875,0.6328125,0.3662109375,-8.1787109375,-0.42724609375,-0.8294677734375,-48.4771728515625,-44.7802734375
1758527843.4529233,0.74072265625,0.0107421875,0.6328125,0.3662109375,-8.1787109375,-0.42724609375,-0.823974609375,-48.5595703125,-44.7857666015625
1758527843.4636002,0.74072265625,0.0107421875,0.6328125,0.30517578125,-7.99560546875,-0.42724609375,-0.8184814453125,-48.636474609375,-44.7857666015625
1758527843.4728568,0.7451171875,-0.0224609375,0.65185546875,0.30517578125,-7.99560546875,-0.42724609375,-0.81298828125,-48.71337890625,-44.7857666015625
1758527843.483236,0.7529296875,-0.02294921875,0.65234375,2.62451171875,-7.8125,-0.42724609375,-0.7855224609375,-48.790283203125,-44.7857666015625
1758527843.4944835,0.7529296875,-0.02294921875,0.65234375,2.62451171875,-7.8125,-0.42724609375,-0.758056640625,-48.8616943359375,-44.7857666015625
1758527843.5032089,0.75830078125,0.00341796875,0.64990234375,1.03759765625,-7.6904296875,-0.42724609375,-0.7470703125,-48.9385986328125,-44.7857666015625
1758527843.5129538,0.75830078125,0.00341796875,0.64990234375,1.03759765625,-7.6904296875,-0.42724609375,-0.7305908203125,-49.0155029296875,-44.791259765625
1758527843.5234215,0.76220703125,0.01318359375,0.65087890625,-2.3193359375,-7.6904296875,-0.06103515625,-0.758056640625,-49.0869140625,-44.7857666015625
1758527843.5330663,0.76220703125,0.01318359375,0.65087890625,-2.3193359375,-7.6904296875,-0.06103515625,-0.780029296875,-49.163818359375,-44.7802734375
1758527843.5432315,0.77197265625,-0.02294921875,0.65283203125,-2.8076171875,-7.8125,0.0,-0.8074951171875,-49.24072265625,-44.7747802734375
1758527843.5529137,0.77197265625,-0.02294921875,0.65283203125,-2.8076171875,-7.8125,0.0,-0.8349609375,-49.317626953125,-44.769287109375
1758527843.563707,0.77685546875,-0.0224609375,0.65966796875,-4.08935546875,-7.87353515625,0.1220703125,-0.87890625,-49.39453125,-44.7637939453125
1758527843.5729403,0.77685546875,-0.0224609375,0.65966796875,-4.08935546875,-7.87353515625,0.1220703125,-0.9228515625,-49.471435546875,-44.75830078125
1758527843.5832968,0.80224609375,-0.0029296875,0.6708984375,-3.47900390625,-7.9345703125,0.06103515625,-0.9613037109375,-49.54833984375,-44.7528076171875
1758527843.5937462,0.80224609375,-0.0029296875,0.6708984375,-3.47900390625,-7.9345703125,0.06103515625,-0.999755859375,-49.625244140625,-44.7418212890625
1758527843.6032674,0.82666015625,-0.00341796875,0.697265625,-3.0517578125,-8.48388671875,0.0,-1.03271484375,-49.7076416015625,-44.7418212890625
1758527843.6129308,0.82666015625,-0.00341796875,0.697265625,-3.0517578125,-8.48388671875,0.0,-1.0601806640625,-49.7900390625,-44.7308349609375
1758527843.6232297,0.82470703125,-0.01904296875,0.67578125,-1.8310546875,-8.544921875,0.0,-1.0821533203125,-49.8724365234375,-44.725341796875
1758527843.6332974,0.82470703125,-0.01904296875,0.67578125,-1.8310546875,-8.544921875,0.0,-1.0986328125,-49.954833984375,-44.7198486328125
1758527843.6433713,0.79931640625,-0.03125,0.66357421875,1.0986328125,-8.9111328125,-0.30517578125,-1.087646484375,-50.042724609375,-44.7198486328125
1758527843.6530857,0.79931640625,-0.03125,0.66357421875,1.0986328125,-8.9111328125,-0.30517578125,-1.07666015625,-50.130615234375,-44.7198486328125
1758527843.6637595,0.787109375,-0.02294921875,0.65771484375,1.8310546875,-9.46044921875,-0.54931640625,-1.0546875,-50.2239990234375,-44.7198486328125
1758527843.6730394,0.787109375,-0.02294921875,0.65771484375,1.8310546875,-9.46044921875,-0.54931640625,-1.03271484375,-50.3118896484375,-44.7198486328125
1758527843.6833594,0.7958984375,0.00830078125,0.6416015625,0.30517578125,-10.009765625,-0.3662109375,-1.0272216796875,-50.4107666015625,-44.7198486328125
1758527843.6944935,0.7958984375,0.00830078125,0.6416015625,0.30517578125,-10.009765625,-0.3662109375,-1.021728515625,-50.5096435546875,-44.7198486328125
1758527843.7046285,0.79052734375,0.0224609375,0.63916015625,-3.60107421875,-10.1318359375,0.0,-1.0601806640625,-50.6085205078125,-44.71435546875
1758527843.7131228,0.79052734375,0.0224609375,0.63916015625,-3.60107421875,-10.1318359375,0.0,-1.0931396484375,-50.7073974609375,-44.7088623046875
1758527843.723746,0.80126953125,-0.01806640625,0.62744140625,-7.26318359375,-9.8876953125,0.3662109375,-1.1700439453125,-50.80078125,-44.6978759765625
1758527843.7335424,0.80126953125,-0.01806640625,0.62744140625,-7.26318359375,-9.8876953125,0.3662109375,-1.2469482421875,-50.899658203125,-44.6868896484375
1758527843.7432473,0.80126953125,-0.01806640625,0.62744140625,-1.3427734375,-10.25390625,0.244140625,-1.263427734375,-50.99853515625,-44.6759033203125
1758527843.7531683,0.7861328125,-0.05029296875,0.6259765625,-1.3427734375,-10.25390625,0.244140625,-1.285400390625,-51.097412109375,-44.6649169921875
1758527843.7637308,0.79736328125,0.009765625,0.63330078125,-3.0517578125,-10.6201171875,0.54931640625,-1.3238525390625,-51.2017822265625,-44.6484375
1758527843.773165,0.79736328125,0.009765625,0.63330078125,-3.0517578125,-10.6201171875,0.54931640625,-1.3623046875,-51.30615234375,-44.6319580078125
1758527843.7833886,0.81591796875,0.0302734375,0.61865234375,-8.97216796875,-10.92529296875,0.67138671875,-1.461181640625,-51.416015625,-44.6099853515625
1758527843.794555,0.81591796875,0.0302734375,0.61865234375,-8.97216796875,-10.92529296875,0.67138671875,-1.5545654296875,-51.5203857421875,-44.593505859375
1758527843.803236,0.814453125,-0.01611328125,0.6328125,-13.18359375,-11.16943359375,1.03759765625,-1.6973876953125,-51.6302490234375,-44.5660400390625
1758527843.8133526,0.814453125,-0.01611328125,0.6328125,-13.18359375,-11.16943359375,1.03759765625,-1.834716796875,-51.7401123046875,-44.53857421875
1758527843.8233898,0.8076171875,-0.0673828125,0.62255859375,-6.591796875,-11.04736328125,0.8544921875,-1.91162109375,-51.8499755859375,-44.5166015625
1758527843.8333614,0.8076171875,-0.0673828125,0.62255859375,-6.591796875,-11.04736328125,0.8544921875,-1.988525390625,-51.954345703125,-44.4891357421875
1758527843.8432581,0.82080078125,-0.03662109375,0.62451171875,-0.48828125,-10.986328125,0.3662109375,-2.0050048828125,-52.064208984375,-44.47265625
1758527843.8533025,0.82080078125,-0.03662109375,0.62451171875,-0.48828125,-10.986328125,0.3662109375,-2.0159912109375,-52.1685791015625,-44.4561767578125
1758527843.8638222,0.80908203125,-0.00830078125,0.57763671875,-3.41796875,-11.04736328125,0.06103515625,-2.054443359375,-52.2784423828125,-44.439697265625
1758527843.8732483,0.79052734375,-0.0234375,0.6376953125,-2.13623046875,-11.474609375,0.1220703125,-2.08740234375,-52.3883056640625,-44.4232177734375
1758527843.8833313,0.79052734375,-0.0234375,0.6376953125,-2.13623046875,-11.474609375,0.1220703125,-2.1148681640625,-52.503662109375,-44.4122314453125
1758527843.8947153,0.78125,-0.0146484375,0.59765625,0.0,-11.04736328125,0.18310546875,-2.13134765625,-52.613525390625,-44.395751953125
1758527843.9032757,0.78125,-0.0146484375,0.59765625,0.0,-11.04736328125,0.18310546875,-2.1368408203125,-52.7178955078125,-44.384765625
1758527843.913399,0.77392578125,0.0029296875,0.56884765625,-5.31005859375,-10.8642578125,0.30517578125,-2.1697998046875,-52.822265625,-44.3682861328125
1758527843.9234116,0.77392578125,0.0029296875,0.56884765625,-5.31005859375,-10.8642578125,0.30517578125,-2.2247314453125,-52.9266357421875,-44.351806640625
1758527843.9334428,0.76123046875,0.0078125,0.54296875,-13.5498046875,-11.16943359375,0.42724609375,-2.3236083984375,-53.031005859375,-44.3353271484375
1758527843.9433165,0.76123046875,0.0078125,0.54296875,-13.5498046875,-11.16943359375,0.42724609375,-2.4664306640625,-53.140869140625,-44.31884765625
1758527843.9535728,0.75830078125,-0.02294921875,0.55712890625,-14.58740234375,-10.986328125,0.42724609375,-2.6092529296875,-53.250732421875,-44.296875
1758527843.9638567,0.75830078125,-0.02294921875,0.55712890625,-14.58740234375,-10.986328125,0.42724609375,-2.757568359375,-53.3551025390625,-44.2803955078125
1758527843.973343,0.7607421875,-0.0380859375,0.57470703125,-9.6435546875,-10.92529296875,0.91552734375,-2.8839111328125,-53.45947265625,-44.2584228515625
1758527843.9838247,0.7607421875,-0.0380859375,0.57470703125,-9.6435546875,-10.92529296875,0.91552734375,-2.9937744140625,-53.5693359375,-44.23095703125
1758527843.9944608,0.76904296875,-0.0595703125,0.52734375,-10.009765625,-10.92529296875,1.15966796875,-3.1036376953125,-53.6737060546875,-44.197998046875
1758527844.0049515,0.76904296875,-0.0595703125,0.52734375,-10.009765625,-10.92529296875,1.15966796875,-3.2244873046875,-53.778076171875,-44.1650390625
1758527844.0136077,0.78076171875,-0.07568359375,0.55322265625,-4.150390625,-9.82666015625,1.40380859375,-3.31787109375,-53.876953125,-44.1265869140625
1758527844.0235338,0.78076171875,-0.07568359375,0.55322265625,-4.150390625,-9.82666015625,1.40380859375,-3.3837890625,-53.9703369140625,-44.088134765625
1758527844.033772,0.7939453125,-0.0771484375,0.58203125,7.14111328125,-9.27734375,0.1220703125,-3.3892822265625,-54.063720703125,-44.0606689453125
1758527844.0434537,0.7939453125,-0.0771484375,0.58203125,7.14111328125,-9.27734375,0.1220703125,-3.328857421875,-54.151611328125,-44.0386962890625
1758527844.053452,0.7939453125,-0.052734375,0.54638671875,10.43701171875,-8.36181640625,-0.1220703125,-3.2574462890625,-54.239501953125,-44.022216796875
1758527844.0639489,0.7939453125,-0.052734375,0.54638671875,10.43701171875,-8.36181640625,-0.1220703125,-3.1640625,-54.31640625,-44.01123046875
1758527844.073573,0.83984375,0.00537109375,0.57177734375,6.103515625,-7.9345703125,-0.48828125,-3.087158203125,-54.3988037109375,-44.000244140625
1758527844.0836973,0.83984375,0.00537109375,0.57177734375,6.103515625,-7.9345703125,-0.48828125,-3.0322265625,-54.4757080078125,-43.9947509765625
1758527844.095318,0.85546875,-0.0068359375,0.59814453125,6.77490234375,-7.75146484375,-0.06103515625,-2.9718017578125,-54.5526123046875,-43.9837646484375
1758527844.1035442,0.85546875,-0.0068359375,0.59814453125,6.77490234375,-7.75146484375,-0.06103515625,-2.911376953125,-54.6295166015625,-43.96728515625
1758527844.113596,0.83984375,-0.0849609375,0.6171875,12.02392578125,-7.2021484375,-0.18310546875,-2.823486328125,-54.700927734375,-43.956298828125
1758527844.1236413,0.83984375,-0.0849609375,0.6171875,12.02392578125,-7.2021484375,-0.18310546875,-2.7081298828125,-54.766845703125,-43.9453125
1758527844.1336937,0.84814453125,-0.05419921875,0.560546875,17.15087890625,-7.26318359375,-0.6103515625,-2.57080078125,-54.8382568359375,-43.9398193359375
1758527844.1434824,0.84814453125,-0.05419921875,0.560546875,17.15087890625,-7.26318359375,-0.6103515625,-2.406005859375,-54.90966796875,-43.934326171875
1758527844.1537833,0.84375,0.00390625,0.5751953125,14.70947265625,-7.62939453125,-0.48828125,-2.252197265625,-54.9810791015625,-43.9288330078125
1758527844.1641695,0.84375,0.00390625,0.5751953125,14.70947265625,-7.62939453125,-0.48828125,-2.1148681640625,-55.0579833984375,-43.92333984375
1758527844.1735787,0.818359375,0.00537109375,0.58984375,7.9345703125,-7.6904296875,0.244140625,-2.010498046875,-55.1348876953125,-43.912353515625
1758527844.18378,0.818359375,0.00537109375,0.58984375,7.9345703125,-7.6904296875,0.244140625,-1.944580078125,-55.206298828125,-43.8958740234375
1758527844.1949792,0.82177734375,-0.02880859375,0.546875,3.60107421875,-7.14111328125,0.54931640625,-1.900634765625,-55.2777099609375,-43.8739013671875
1758527844.2036169,0.82177734375,-0.02880859375,0.546875,3.60107421875,-7.14111328125,0.54931640625,-1.878662109375,-55.34912109375,-43.8519287109375
1758527844.2138975,0.8154296875,-0.0166015625,0.57763671875,6.103515625,-7.080078125,0.6103515625,-1.8511962890625,-55.4150390625,-43.8299560546875
1758527844.2239377,0.8154296875,-0.0166015625,0.57763671875,6.103515625,-7.080078125,0.6103515625,-1.8072509765625,-55.4864501953125,-43.8079833984375
1758527844.2337298,0.8203125,0.01416015625,0.54052734375,2.86865234375,-7.38525390625,1.03759765625,-1.77978515625,-55.5523681640625,-43.7860107421875
1758527844.2435987,0.8203125,0.01416015625,0.54052734375,2.86865234375,-7.38525390625,1.03759765625,-1.768798828125,-55.623779296875,-43.758544921875
1758527844.254514,0.8203125,0.01416015625,0.54052734375,-3.60107421875,-7.4462890625,0.9765625,-1.790771484375,-55.6951904296875,-43.7255859375
1758527844.2644897,0.8388671875,0.021484375,0.53173828125,-3.60107421875,-7.4462890625,0.9765625,-1.8402099609375,-55.7666015625,-43.6981201171875
1758527844.2737823,0.82373046875,-0.03515625,0.57470703125,-6.65283203125,-7.14111328125,1.03759765625,-1.9061279296875,-55.8380126953125,-43.670654296875
1758527844.2840853,0.82373046875,-0.03515625,0.57470703125,-6.65283203125,-7.14111328125,1.03759765625,-1.988525390625,-55.909423828125,-43.6431884765625
1758527844.2950165,0.8232421875,-0.0205078125,0.52392578125,-5.859375,-6.9580078125,0.48828125,-2.0654296875,-55.975341796875,-43.6212158203125
1758527844.303758,0.8232421875,-0.0205078125,0.52392578125,-5.859375,-6.9580078125,0.48828125,-2.13134765625,-56.0467529296875,-43.604736328125
1758527844.313655,0.814453125,-0.0029296875,0.5234375,-7.080078125,-7.14111328125,0.67138671875,-2.2027587890625,-56.1181640625,-43.582763671875
1758527844.3240013,0.814453125,-0.0029296875,0.5234375,-7.080078125,-7.14111328125,0.67138671875,-2.28515625,-56.18408203125,-43.5552978515625
1758527844.333897,0.80810546875,-0.01123046875,0.525390625,-10.1318359375,-7.50732421875,0.732421875,-2.3785400390625,-56.260986328125,-43.5333251953125
1758527844.3437085,0.80810546875,-0.01123046875,0.525390625,-10.1318359375,-7.50732421875,0.732421875,-2.493896484375,-56.3323974609375,-43.505859375
1758527844.3539674,0.80029296875,-0.03564453125,0.5263671875,-9.09423828125,-7.62939453125,0.48828125,-2.5927734375,-56.4093017578125,-43.48388671875
1758527844.3642666,0.80029296875,-0.03564453125,0.5263671875,-9.09423828125,-7.62939453125,0.48828125,-2.691650390625,-56.4862060546875,-43.4619140625
1758527844.3738134,0.78076171875,-0.0390625,0.49853515625,-8.48388671875,-7.62939453125,0.30517578125,-2.7850341796875,-56.5576171875,-43.4454345703125
1758527844.3840816,0.78076171875,-0.0390625,0.49853515625,-8.48388671875,-7.62939453125,0.30517578125,-2.87841796875,-56.634521484375,-43.4234619140625
1758527844.3950946,0.78515625,-0.03564453125,0.50048828125,-6.4697265625,-7.62939453125,0.06103515625,-2.955322265625,-56.71142578125,-43.406982421875
1758527844.4037771,0.78515625,-0.03564453125,0.50048828125,-6.4697265625,-7.62939453125,0.06103515625,-3.0267333984375,-56.7828369140625,-43.3905029296875
1758527844.4138212,0.78857421875,-0.025390625,0.501953125,-5.0048828125,-7.62939453125,-0.30517578125,-3.087158203125,-56.8597412109375,-43.3795166015625
1758527844.4239457,0.78857421875,-0.025390625,0.501953125,-5.0048828125,-7.62939453125,-0.30517578125,-3.131103515625,-56.9366455078125,-43.3685302734375
1758527844.4339452,0.8017578125,-0.0341796875,0.52783203125,-4.2724609375,-6.89697265625,-0.8544921875,-3.175048828125,-57.008056640625,-43.363037109375
1758527844.4438453,0.8017578125,-0.0341796875,0.52783203125,-4.2724609375,-6.89697265625,-0.8544921875,-3.2080078125,-57.073974609375,-43.363037109375
1758527844.4540582,0.82421875,-0.0146484375,0.49853515625,-4.39453125,-6.40869140625,-1.03759765625,-3.240966796875,-57.139892578125,-43.3685302734375
1758527844.464551,0.82421875,-0.0146484375,0.49853515625,-4.39453125,-6.40869140625,-1.03759765625,-3.2684326171875,-57.205810546875,-43.3740234375
1758527844.4738147,0.83203125,-0.04736328125,0.53369140625,-3.0517578125,-5.9814453125,-1.28173828125,-3.2904052734375,-57.2662353515625,-43.3795166015625
1758527844.4841893,0.83203125,-0.04736328125,0.53369140625,-3.0517578125,-5.9814453125,-1.28173828125,-3.306884765625,-57.32666015625,-43.385009765625
1758527844.4950795,0.83984375,-0.04443359375,0.517578125,0.244140625,-5.37109375,-1.8310546875,-3.3013916015625,-57.381591796875,-43.4014892578125
1758527844.5038702,0.83984375,-0.04443359375,0.517578125,0.244140625,-5.37109375,-1.8310546875,-3.27392578125,-57.4365234375,-43.41796875
1758527844.513939,0.83837890625,-0.0380859375,0.53955078125,0.79345703125,-3.96728515625,-2.0751953125,-3.240966796875,-57.4859619140625,-43.43994140625
1758527844.5242803,0.83837890625,-0.0380859375,0.53955078125,0.79345703125,-3.96728515625,-2.0751953125,-3.2080078125,-57.5244140625,-43.4619140625
1758527844.5340137,0.87158203125,-0.013671875,0.54052734375,1.40380859375,-2.99072265625,-2.13623046875,-3.1695556640625,-57.557373046875,-43.4893798828125
1758527844.5439734,0.87158203125,-0.013671875,0.54052734375,1.40380859375,-2.99072265625,-2.13623046875,-3.1256103515625,-57.59033203125,-43.516845703125
1758527844.5543587,0.888671875,-0.03955078125,0.54541015625,3.0517578125,-2.9296875,-2.13623046875,-3.0706787109375,-57.6177978515625,-43.5443115234375
1758527844.5644825,0.888671875,-0.03955078125,0.54541015625,3.0517578125,-2.9296875,-2.13623046875,-3.01025390625,-57.6507568359375,-43.5662841796875
1758527844.5739975,0.87451171875,-0.05712890625,0.5302734375,4.2724609375,-2.8076171875,-2.38037109375,-2.9443359375,-57.67822265625,-43.59375
1758527844.5843127,0.87451171875,-0.05712890625,0.5302734375,4.2724609375,-2.8076171875,-2.38037109375,-2.8729248046875,-57.711181640625,-43.626708984375
1758527844.5950553,0.87646484375,-0.03271484375,0.53564453125,4.8828125,-2.99072265625,-2.25830078125,-2.7960205078125,-57.744140625,-43.6541748046875
1758527844.6096182,0.87646484375,-0.03271484375,0.53564453125,4.8828125,-2.99072265625,-2.25830078125,-2.7191162109375,-57.7716064453125,-43.6761474609375
1758527844.6189206,0.87890625,-0.01318359375,0.537109375,5.7373046875,-2.86865234375,-1.8310546875,-2.6422119140625,-57.8045654296875,-43.6981201171875
1758527844.6255794,0.87890625,-0.01318359375,0.537109375,5.7373046875,-2.86865234375,-1.8310546875,-2.5653076171875,-57.8375244140625,-43.714599609375
1758527844.634405,0.869140625,-0.04345703125,0.55712890625,5.7373046875,-2.01416015625,-1.15966796875,-2.4884033203125,-57.864990234375,-43.7255859375
1758527844.6440184,0.869140625,-0.04345703125,0.55712890625,5.7373046875,-2.01416015625,-1.15966796875,-2.4224853515625,-57.8814697265625,-43.736572265625
1758527844.654433,0.88916015625,-0.03857421875,0.501953125,7.75146484375,-2.38037109375,-0.8544921875,-2.3455810546875,-57.908935546875,-43.736572265625
1758527844.6646535,0.88916015625,-0.03857421875,0.501953125,7.75146484375,-2.38037109375,-0.8544921875,-2.2686767578125,-57.930908203125,-43.736572265625
1758527844.674412,0.87158203125,-0.0283203125,0.54296875,8.97216796875,-3.23486328125,-0.9765625,-2.1807861328125,-57.9638671875,-43.736572265625
1758527844.6841924,0.87158203125,-0.0283203125,0.54296875,8.97216796875,-3.23486328125,-0.9765625,-2.0819091796875,-57.996826171875,-43.736572265625
1758527844.6951525,0.87060546875,-0.00439453125,0.529296875,6.9580078125,-3.41796875,-0.67138671875,-1.99951171875,-58.0352783203125,-43.736572265625
1758527844.704083,0.87060546875,-0.00439453125,0.529296875,6.9580078125,-3.41796875,-0.67138671875,-1.93359375,-58.07373046875,-43.7310791015625
1758527844.7146773,0.85791015625,-0.04931640625,0.5322265625,9.033203125,-3.0517578125,-0.06103515625,-1.8511962890625,-58.106689453125,-43.7255859375
1758527844.724641,0.85791015625,-0.04931640625,0.5322265625,9.033203125,-3.0517578125,-0.06103515625,-1.7742919921875,-58.1396484375,-43.7091064453125
1758527844.7345903,0.87158203125,-0.01416015625,0.51611328125,9.6435546875,-2.86865234375,-0.244140625,-1.6864013671875,-58.1671142578125,-43.692626953125
1758527844.744143,0.87158203125,-0.01416015625,0.51611328125,9.6435546875,-2.86865234375,-0.244140625,-1.5985107421875,-58.2000732421875,-43.681640625
1758527844.7544343,0.8701171875,0.01171875,0.52197265625,4.08935546875,-3.2958984375,-0.06103515625,-1.5380859375,-58.2330322265625,-43.670654296875
1758527844.7648563,0.8701171875,0.01171875,0.52197265625,4.08935546875,-3.2958984375,-0.06103515625,-1.505126953125,-58.2659912109375,-43.6541748046875
1758527844.7745662,0.87548828125,0.01171875,0.53466796875,0.06103515625,-3.84521484375,-0.48828125,-1.483154296875,-58.304443359375,-43.648681640625
1758527844.7842429,0.87548828125,0.01171875,0.53466796875,0.06103515625,-3.84521484375,-0.48828125,-1.4776611328125,-58.348388671875,-43.6431884765625
1758527844.7951877,0.8583984375,-0.01904296875,0.521484375,2.25830078125,-3.72314453125,-0.8544921875,-1.461181640625,-58.3868408203125,-43.6431884765625
1758527844.8042343,0.8583984375,-0.01904296875,0.521484375,2.25830078125,-3.72314453125,-0.8544921875,-1.42822265625,-58.42529296875,-43.6431884765625
1758527844.8146243,0.84912109375,-0.03271484375,0.5087890625,6.2255859375,-3.0517578125,-1.03759765625,-1.373291015625,-58.458251953125,-43.648681640625
1758527844.8246276,0.84912109375,-0.03271484375,0.5087890625,6.2255859375,-3.0517578125,-1.03759765625,-1.29638671875,-58.4912109375,-43.6541748046875
1758527844.834685,0.8427734375,-0.0185546875,0.517578125,6.53076171875,-2.44140625,-0.8544921875,-1.2249755859375,-58.5186767578125,-43.65966796875
1758527844.844306,0.8427734375,-0.0185546875,0.517578125,6.53076171875,-2.44140625,-0.8544921875,-1.1480712890625,-58.546142578125,-43.6651611328125
1758527844.8545291,0.8310546875,0.00439453125,0.50244140625,3.5400390625,-2.0751953125,-0.6103515625,-1.0931396484375,-58.568115234375,-43.6651611328125
1758527844.8648517,0.8310546875,0.00439453125,0.50244140625,3.5400390625,-2.0751953125,-0.6103515625,-1.0546875,-58.590087890625,-43.6651611328125
1758527844.8746707,0.85546875,0.00537109375,0.48486328125,3.60107421875,-2.5634765625,-1.03759765625,-1.0107421875,-58.6175537109375,-43.670654296875
1758527844.8847342,0.85546875,0.00537109375,0.48486328125,3.60107421875,-2.5634765625,-1.03759765625,-0.955810546875,-58.64501953125,-43.6761474609375
1758527844.8951485,0.82958984375,-0.0107421875,0.513671875,4.2724609375,-2.44140625,-0.1220703125,-0.911865234375,-58.6724853515625,-43.6761474609375
1758527844.9053211,0.82958984375,-0.0107421875,0.513671875,4.2724609375,-2.44140625,-0.1220703125,-0.867919921875,-58.6944580078125,-43.6651611328125
1758527844.9148865,0.82568359375,-0.0234375,0.5009765625,1.77001953125,-1.5869140625,-0.1220703125,-0.8514404296875,-58.7109375,-43.65966796875
1758527844.9247088,0.82568359375,-0.0234375,0.5009765625,1.77001953125,-1.5869140625,-0.1220703125,-0.8349609375,-58.73291015625,-43.648681640625
1758527844.9347296,0.82177734375,-0.00048828125,0.48291015625,2.38037109375,-1.0986328125,0.3662109375,-0.823974609375,-58.743896484375,-43.6322021484375
1758527844.9444737,0.82177734375,-0.00048828125,0.48291015625,2.38037109375,-1.0986328125,0.3662109375,-0.8074951171875,-58.7548828125,-43.61572265625
1758527844.9546509,0.8583984375,-0.0009765625,0.494140625,0.91552734375,-1.0986328125,-0.1220703125,-0.7965087890625,-58.765869140625,-43.604736328125
1758527844.9650104,0.8583984375,-0.0009765625,0.494140625,0.91552734375,-1.0986328125,-0.1220703125,-0.791015625,-58.7823486328125,-43.5992431640625
1758527844.9748738,0.8447265625,0.02392578125,0.51953125,2.13623046875,-1.15966796875,-0.91552734375,-0.7525634765625,-58.7933349609375,-43.604736328125
1758527844.9847867,0.8447265625,0.02392578125,0.51953125,2.13623046875,-1.15966796875,-0.91552734375,-0.714111328125,-58.809814453125,-43.61572265625
1758527844.995612,0.82421875,0.00390625,0.4951171875,-2.13623046875,-0.48828125,0.18310546875,-0.736083984375,-58.8153076171875,-43.604736328125
1758527845.0044851,0.82421875,0.00390625,0.4951171875,-2.13623046875,-0.48828125,0.18310546875,-0.758056640625,-58.82080078125,-43.5882568359375
1758527845.0148706,0.8388671875,-0.00732421875,0.4736328125,-7.14111328125,-0.48828125,1.52587890625,-0.8514404296875,-58.8262939453125,-43.5498046875
1758527845.0247993,0.8388671875,-0.00732421875,0.4736328125,-7.14111328125,-0.48828125,1.52587890625,-0.94482421875,-58.8372802734375,-43.5113525390625
1758527845.0349016,0.849609375,-0.01806640625,0.5009765625,-7.87353515625,-0.48828125,1.8310546875,-1.0491943359375,-58.8427734375,-43.4674072265625
1758527845.044606,0.849609375,-0.01806640625,0.5009765625,-7.87353515625,-0.48828125,1.8310546875,-1.153564453125,-58.8482666015625,-43.41796875
1758527845.0548615,0.8603515625,0.0,0.517578125,-7.568359375,-0.06103515625,1.52587890625,-1.25244140625,-58.853759765625,-43.3795166015625
1758527845.065035,0.8603515625,0.0,0.517578125,-7.568359375,-0.06103515625,1.52587890625,-1.351318359375,-58.853759765625,-43.341064453125
1758527845.0749428,0.876953125,0.0078125,0.52880859375,-8.056640625,0.48828125,2.25830078125,-1.461181640625,-58.853759765625,-43.2861328125
1758527845.0848362,0.876953125,0.0078125,0.52880859375,-8.056640625,0.48828125,2.25830078125,-1.571044921875,-58.8482666015625,-43.2366943359375
1758527845.0955493,0.86767578125,-0.04248046875,0.53466796875,-11.23046875,1.15966796875,3.60107421875,-1.73583984375,-58.8372802734375,-43.1597900390625
1758527845.1046286,0.86767578125,-0.04248046875,0.53466796875,-11.23046875,1.15966796875,3.60107421875,-1.900634765625,-58.8262939453125,-43.0828857421875
1758527845.114961,0.8798828125,-0.06884765625,0.50146484375,-6.28662109375,1.77001953125,3.47900390625,-2.0159912109375,-58.809814453125,-43.0059814453125
1758527845.1248481,0.8798828125,-0.06884765625,0.50146484375,-6.28662109375,1.77001953125,3.47900390625,-2.1368408203125,-58.7933349609375,-42.9290771484375
1758527845.1349916,0.8818359375,-0.01171875,0.53466796875,1.46484375,1.8310546875,1.77001953125,-2.1533203125,-58.77685546875,-42.8851318359375
1758527845.14469,0.8818359375,-0.01171875,0.53466796875,1.46484375,1.8310546875,1.77001953125,-2.164306640625,-58.7603759765625,-42.8411865234375
1758527845.1549745,0.88037109375,0.03369140625,0.52001953125,-3.7841796875,1.220703125,2.50244140625,-2.2412109375,-58.7493896484375,-42.7862548828125
1758527845.1650476,0.88037109375,0.03369140625,0.52001953125,-3.7841796875,1.220703125,2.50244140625,-2.3126220703125,-58.7384033203125,-42.7313232421875
1758527845.1750457,0.869140625,-0.01953125,0.50439453125,-10.07080078125,1.03759765625,3.2958984375,-2.4554443359375,-58.73291015625,-42.659912109375
1758527845.1849344,0.869140625,-0.01953125,0.50439453125,-10.07080078125,1.03759765625,3.2958984375,-2.603759765625,-58.721923828125,-42.5885009765625
1758527845.1956587,0.84912109375,-0.0703125,0.533203125,-5.7373046875,1.52587890625,3.2958984375,-2.7081298828125,-58.7109375,-42.51708984375
1758527845.2048552,0.84912109375,-0.0703125,0.533203125,-5.7373046875,1.52587890625,3.2958984375,-2.8125,-58.6944580078125,-42.451171875
1758527845.2153475,0.85693359375,-0.0361328125,0.48681640625,-0.91552734375,1.52587890625,3.173828125,-2.8729248046875,-58.6834716796875,-42.3797607421875
1758527845.2250273,0.85693359375,-0.0361328125,0.48681640625,-0.91552734375,1.52587890625,3.173828125,-2.933349609375,-58.6669921875,-42.308349609375
1758527845.2352114,0.86474609375,-0.0068359375,0.51025390625,-0.6103515625,1.64794921875,3.0517578125,-2.9827880859375,-58.656005859375,-42.242431640625
1758527845.2449121,0.86474609375,-0.0068359375,0.51025390625,-0.6103515625,1.64794921875,3.0517578125,-3.0377197265625,-58.6395263671875,-42.176513671875
1758527845.2552,0.86474609375,-0.0068359375,0.51025390625,-2.8076171875,2.44140625,3.35693359375,-3.1146240234375,-58.6175537109375,-42.110595703125
1758527845.2653315,0.857421875,-0.02685546875,0.5458984375,-2.8076171875,2.44140625,3.35693359375,-3.18603515625,-58.590087890625,-42.0391845703125
1758527845.2751815,0.8525390625,-0.04833984375,0.49951171875,-2.86865234375,2.5634765625,3.5400390625,-3.2684326171875,-58.568115234375,-41.9677734375
1758527845.2852201,0.8525390625,-0.04833984375,0.49951171875,-2.86865234375,2.5634765625,3.5400390625,-3.350830078125,-58.5406494140625,-41.890869140625
1758527845.2959208,0.853515625,-0.0546875,0.50830078125,3.173828125,2.99072265625,3.2958984375,-3.3673095703125,-58.51318359375,-41.824951171875
1758527845.3049831,0.853515625,-0.0546875,0.50830078125,3.173828125,2.99072265625,3.2958984375,-3.3892822265625,-58.4857177734375,-41.7535400390625
1758527845.3152375,0.8515625,-0.02880859375,0.5322265625,4.8828125,3.47900390625,3.5400390625,-3.394775390625,-58.4527587890625,-41.68212890625
1758527845.3252254,0.8515625,-0.02880859375,0.5322265625,4.8828125,3.47900390625,3.5400390625,-3.4002685546875,-58.4197998046875,-41.6107177734375
1758527845.3352532,0.83056640625,0.0068359375,0.50732421875,-2.38037109375,3.23486328125,3.47900390625,-3.4771728515625,-58.3868408203125,-41.539306640625
1758527845.3449903,0.83056640625,0.0068359375,0.50732421875,-2.38037109375,3.23486328125,3.47900390625,-3.548583984375,-58.3538818359375,-41.4678955078125
1758527845.3551779,0.85009765625,0.0146484375,0.46240234375,-9.6435546875,2.685546875,2.3193359375,-3.6749267578125,-58.3319091796875,-41.4239501953125
1758527845.3656712,0.85009765625,0.0146484375,0.46240234375,-9.6435546875,2.685546875,2.3193359375,-3.7957763671875,-58.3099365234375,-41.37451171875
1758527845.375241,0.859375,-0.048828125,0.57470703125,-4.57763671875,3.60107421875,1.3427734375,-3.8507080078125,-58.2769775390625,-41.3470458984375
1758527845.3851364,0.859375,-0.048828125,0.57470703125,-4.57763671875,3.60107421875,1.3427734375,-3.9056396484375,-58.2440185546875,-41.319580078125
1758527845.396046,0.86181640625,-0.06689453125,0.529296875,-1.52587890625,4.150390625,1.0986328125,-3.9276123046875,-58.20556640625,-41.297607421875
1758527845.405109,0.86181640625,-0.06689453125,0.529296875,-1.52587890625,4.150390625,1.0986328125,-3.9495849609375,-58.1671142578125,-41.275634765625
1758527845.4153264,0.85302734375,-0.025390625,0.48974609375,-2.8076171875,3.41796875,0.8544921875,-3.9825439453125,-58.1341552734375,-41.253662109375
1758527845.4252849,0.85302734375,-0.025390625,0.48974609375,-2.8076171875,3.41796875,0.8544921875,-4.02099609375,-58.1011962890625,-41.231689453125
1758527845.435411,0.88671875,-0.00048828125,0.51416015625,-4.8828125,2.99072265625,0.0,-4.0594482421875,-58.0792236328125,-41.2261962890625
1758527845.4450955,0.88671875,-0.00048828125,0.51416015625,-4.8828125,2.99072265625,0.0,-4.097900390625,-58.0572509765625,-41.220703125
1758527845.4553802,0.8759765625,-0.0322265625,0.611328125,-3.11279296875,3.47900390625,-0.67138671875,-4.1033935546875,-58.0242919921875,-41.231689453125
1758527845.4654727,0.8759765625,-0.0322265625,0.611328125,-3.11279296875,3.47900390625,-0.67138671875,-4.1143798828125,-57.9913330078125,-41.24267578125
1758527845.4753528,0.919921875,-0.04052734375,0.50732421875,-2.50244140625,3.0517578125,-1.46484375,-4.1033935546875,-57.9693603515625,-41.2701416015625
1758527845.4852047,0.919921875,-0.04052734375,0.50732421875,-2.50244140625,3.0517578125,-1.46484375,-4.097900390625,-57.94189453125,-41.2921142578125
1758527845.4969847,0.875,-0.06396484375,0.57666015625,0.3662109375,2.50244140625,-1.8310546875,-4.053955078125,-57.9254150390625,-41.319580078125
1758527845.5090609,0.875,-0.06396484375,0.57666015625,0.3662109375,2.50244140625,-1.8310546875,-4.02099609375,-57.9034423828125,-41.3470458984375
1758527845.5158398,0.8837890625,-0.02734375,0.50634765625,2.25830078125,1.77001953125,-2.25830078125,-3.955078125,-57.8924560546875,-41.385498046875
1758527845.5254307,0.8837890625,-0.02734375,0.50634765625,2.25830078125,1.77001953125,-2.25830078125,-3.8946533203125,-57.8814697265625,-41.41845703125
1758527845.5355036,0.88134765625,-0.02685546875,0.568359375,3.47900390625,1.708984375,-2.197265625,-3.8232421875,-57.8704833984375,-41.451416015625
1758527845.54519,0.88134765625,-0.02685546875,0.568359375,3.47900390625,1.708984375,-2.197265625,-3.746337890625,-57.85400390625,-41.4898681640625
1758527845.5554824,0.875,-0.04541015625,0.54541015625,5.126953125,1.5869140625,-1.953125,-3.6639404296875,-57.843017578125,-41.517333984375
1758527845.5656703,0.875,-0.04541015625,0.54541015625,5.126953125,1.5869140625,-1.953125,-3.58154296875,-57.83203125,-41.55029296875
1758527845.5754974,0.84326171875,-0.03515625,0.5244140625,2.9296875,0.79345703125,-1.5869140625,-3.526611328125,-57.8265380859375,-41.572265625
1758527845.5855634,0.84326171875,-0.03515625,0.5244140625,2.9296875,0.79345703125,-1.5869140625,-3.4716796875,-57.8265380859375,-41.59423828125
1758527845.5960817,0.80810546875,-0.01025390625,0.4873046875,-1.708984375,0.06103515625,-1.40380859375,-3.4661865234375,-57.8265380859375,-41.6107177734375
1758527845.6052766,0.80810546875,-0.01025390625,0.4873046875,-1.708984375,0.06103515625,-1.40380859375,-3.460693359375,-57.83203125,-41.627197265625
1758527845.6155562,0.826171875,-0.04296875,0.47607421875,-1.40380859375,-0.06103515625,-1.5869140625,-3.44970703125,-57.8375244140625,-41.6436767578125
1758527845.6254168,0.826171875,-0.04296875,0.47607421875,-1.40380859375,-0.06103515625,-1.5869140625,-3.438720703125,-57.843017578125,-41.6656494140625
1758527845.6355646,0.8232421875,-0.0615234375,0.50634765625,-0.9765625,-1.15966796875,-1.03759765625,-3.4332275390625,-57.8594970703125,-41.671142578125
1758527845.645323,0.8232421875,-0.0615234375,0.50634765625,-0.9765625,-1.15966796875,-1.03759765625,-3.4332275390625,-57.8759765625,-41.6766357421875
1758527845.655539,0.83935546875,-0.02490234375,0.51611328125,-0.67138671875,-1.3427734375,-0.3662109375,-3.438720703125,-57.8924560546875,-41.671142578125
1758527845.6658397,0.83935546875,-0.02490234375,0.51611328125,-0.67138671875,-1.3427734375,-0.3662109375,-3.4442138671875,-57.9144287109375,-41.6656494140625
1758527845.6754885,0.818359375,-0.05615234375,0.5341796875,0.18310546875,-1.3427734375,0.30517578125,-3.4552001953125,-57.930908203125,-41.6436767578125
1758527845.6856444,0.818359375,-0.05615234375,0.5341796875,0.18310546875,-1.3427734375,0.30517578125,-3.460693359375,-57.94189453125,-41.627197265625
1758527845.6962225,0.82080078125,-0.02685546875,0.478515625,1.89208984375,-2.01416015625,-0.244140625,-3.4442138671875,-57.9638671875,-41.6217041015625
1758527845.705405,0.82080078125,-0.02685546875,0.478515625,1.89208984375,-2.01416015625,-0.244140625,-3.427734375,-57.9913330078125,-41.6162109375
1758527845.7155426,0.83154296875,-0.025390625,0.49951171875,3.23486328125,-1.5869140625,-0.54931640625,-3.394775390625,-58.0078125,-41.6107177734375
1758527845.7255871,0.83154296875,-0.025390625,0.49951171875,3.23486328125,-1.5869140625,-0.54931640625,-3.3563232421875,-58.02978515625,-41.6107177734375
1758527845.7356253,0.84375,-0.04248046875,0.55126953125,0.91552734375,-0.91552734375,0.1220703125,-3.3563232421875,-58.040771484375,-41.5997314453125
1758527845.745445,0.84375,-0.04248046875,0.55126953125,0.91552734375,-0.91552734375,0.1220703125,-3.350830078125,-58.0517578125,-41.5887451171875
1758527845.7554963,0.87158203125,-0.0166015625,0.54150390625,-6.40869140625,-0.54931640625,1.220703125,-3.438720703125,-58.0572509765625,-41.561279296875
1758527845.765575,0.87158203125,-0.0166015625,0.54150390625,-6.40869140625,-0.54931640625,1.220703125,-3.5211181640625,-58.062744140625,-41.5283203125
1758527845.7755153,0.84423828125,-0.00830078125,0.505859375,-6.40869140625,-0.54931640625,0.42724609375,-3.592529296875,-58.0682373046875,-41.517333984375
1758527845.7854633,0.84423828125,-0.00830078125,0.505859375,-6.40869140625,-0.54931640625,0.42724609375,-3.6639404296875,-58.07373046875,-41.5008544921875
1758527845.7969935,0.8466796875,-0.06689453125,0.52685546875,-0.9765625,-0.30517578125,-0.3662109375,-3.6639404296875,-58.0792236328125,-41.5008544921875
1758527845.8060834,0.8466796875,-0.06689453125,0.52685546875,-0.9765625,-0.30517578125,-0.3662109375,-3.66943359375,-58.084716796875,-41.5008544921875
1758527845.8154852,0.80419921875,-0.07666015625,0.5009765625,5.31005859375,0.1220703125,-0.06103515625,-3.6199951171875,-58.084716796875,-41.495361328125
1758527845.82566,0.80419921875,-0.07666015625,0.5009765625,5.31005859375,0.1220703125,-0.06103515625,-3.570556640625,-58.084716796875,-41.4898681640625
1758527845.835607,0.80712890625,0.0205078125,0.44921875,-5.126953125,-0.42724609375,0.91552734375,-3.6419677734375,-58.0902099609375,-41.4678955078125
1758527845.8454661,0.80712890625,0.0205078125,0.44921875,-5.126953125,-0.42724609375,0.91552734375,-3.7078857421875,-58.095703125,-41.4404296875
1758527845.8557944,0.798828125,0.00146484375,0.52099609375,-5.2490234375,0.0,0.67138671875,-3.768310546875,-58.1011962890625,-41.41845703125
1758527845.865661,0.798828125,0.00146484375,0.52099609375,-5.2490234375,0.0,0.67138671875,-3.8287353515625,-58.1011962890625,-41.4019775390625
1758527845.8756166,0.78369140625,-0.078125,0.48681640625,-3.41796875,0.3662109375,0.54931640625,-3.8671875,-58.1011962890625,-41.385498046875
1758527845.886029,0.78369140625,-0.078125,0.48681640625,-3.41796875,0.3662109375,0.54931640625,-3.9056396484375,-58.095703125,-41.3690185546875
1758527845.8959644,0.76416015625,-0.0810546875,0.4736328125,4.57763671875,0.67138671875,0.54931640625,-3.8726806640625,-58.0902099609375,-41.3525390625
1758527845.9056761,0.76416015625,-0.0810546875,0.4736328125,4.57763671875,0.67138671875,0.54931640625,-3.8397216796875,-58.084716796875,-41.3360595703125
1758527845.9156172,0.78515625,-0.0078125,0.46044921875,2.8076171875,1.220703125,0.6103515625,-3.8287353515625,-58.07373046875,-41.319580078125
1758527845.9258008,0.83642578125,0.01611328125,0.53076171875,-1.8310546875,2.01416015625,0.0,-3.8287353515625,-58.0572509765625,-41.30859375
1758527845.9357285,0.83642578125,0.01611328125,0.53076171875,-1.8310546875,2.01416015625,0.0,-3.84521484375,-58.040771484375,-41.30859375
1758527845.9456253,0.88232421875,-0.04833984375,0.5537109375,0.244140625,2.01416015625,-2.13623046875,-3.8287353515625,-58.0242919921875,-41.3250732421875
1758527845.955697,0.88232421875,-0.04833984375,0.5537109375,0.244140625,2.01416015625,-2.13623046875,-3.790283203125,-58.0078125,-41.363525390625
1758527845.9658148,0.94482421875,-0.07421875,0.55859375,4.150390625,1.03759765625,-3.96728515625,-3.71337890625,-57.9913330078125,-41.41845703125
1758527845.9757948,0.94482421875,-0.07421875,0.55859375,4.150390625,1.03759765625,-3.96728515625,-3.614501953125,-57.98583984375,-41.484375
1758527845.9857275,0.947265625,-0.01220703125,0.57666015625,2.99072265625,-0.79345703125,-2.5634765625,-3.526611328125,-57.9913330078125,-41.539306640625
1758527845.9962444,0.947265625,-0.01220703125,0.57666015625,2.99072265625,-0.79345703125,-2.5634765625,-3.460693359375,-58.0023193359375,-41.5777587890625
1758527846.0058162,0.91650390625,0.02783203125,0.55615234375,-7.14111328125,-2.3193359375,-1.03759765625,-3.4552001953125,-58.0242919921875,-41.5997314453125
1758527846.0158055,0.91650390625,0.02783203125,0.55615234375,-7.14111328125,-2.3193359375,-1.03759765625,-3.5101318359375,-58.0517578125,-41.6107177734375
1758527846.0259132,0.91064453125,-0.03564453125,0.60009765625,-10.25390625,-2.50244140625,-0.30517578125,-3.58154296875,-58.0792236328125,-41.6162109375
1758527846.0359457,0.91064453125,-0.03564453125,0.60009765625,-10.25390625,-2.50244140625,-0.30517578125,-3.6749267578125,-58.1011962890625,-41.6162109375
1758527846.0457795,0.90478515625,-0.109375,0.53369140625,-6.65283203125,-3.0517578125,-0.06103515625,-3.75732421875,-58.128662109375,-41.6107177734375
1758527846.0560448,0.90478515625,-0.109375,0.53369140625,-6.65283203125,-3.0517578125,-0.06103515625,-3.8232421875,-58.16162109375,-41.5997314453125
1758527846.065934,0.873046875,-0.0673828125,0.52294921875,1.03759765625,-3.96728515625,0.0,-3.856201171875,-58.2000732421875,-41.5887451171875
1758527846.075749,0.873046875,-0.0673828125,0.52294921875,1.03759765625,-3.96728515625,0.0,-3.856201171875,-58.238525390625,-41.572265625
1758527846.086024,0.85791015625,0.01416015625,0.5078125,3.23486328125,-4.8828125,-0.67138671875,-3.8397216796875,-58.282470703125,-41.5667724609375
1758527846.096116,0.85791015625,0.01416015625,0.5078125,3.23486328125,-4.8828125,-0.67138671875,-3.80126953125,-58.33740234375,-41.5667724609375
1758527846.1058793,0.83544921875,0.0048828125,0.51904296875,-1.0986328125,-5.31005859375,-1.3427734375,-3.779296875,-58.3868408203125,-41.572265625
1758527846.1159148,0.83544921875,0.0048828125,0.51904296875,-1.0986328125,-5.31005859375,-1.3427734375,-3.7738037109375,-58.4417724609375,-41.583251953125
1758527846.1260724,0.8369140625,-0.0322265625,0.50537109375,-4.7607421875,-5.2490234375,-1.77001953125,-3.779296875,-58.4967041015625,-41.5997314453125
1758527846.1361246,0.8369140625,-0.0322265625,0.50537109375,-4.7607421875,-5.2490234375,-1.77001953125,-3.7957763671875,-58.5516357421875,-41.6217041015625
1758527846.1459973,0.8408203125,-0.05224609375,0.49462890625,-1.953125,-4.638671875,-2.13623046875,-3.80126953125,-58.60107421875,-41.649169921875
1758527846.156059,0.8408203125,-0.05224609375,0.49462890625,-1.953125,-4.638671875,-2.13623046875,-3.790283203125,-58.6505126953125,-41.6766357421875
1758527846.16606,0.84765625,-0.0380859375,0.515625,1.0986328125,-4.150390625,-2.5634765625,-3.75732421875,-58.6944580078125,-41.7095947265625
1758527846.1759856,0.84765625,-0.0380859375,0.515625,1.0986328125,-4.150390625,-2.5634765625,-3.7078857421875,-58.7384033203125,-41.748046875
1758527846.1861808,0.84765625,-0.02490234375,0.49560546875,6.9580078125,-4.45556640625,-2.8076171875,-3.6309814453125,-58.7823486328125,-41.7864990234375
1758527846.1963603,0.84765625,-0.02490234375,0.49560546875,6.9580078125,-4.45556640625,-2.8076171875,-3.515625,-58.831787109375,-41.824951171875
1758527846.2060714,0.82861328125,-0.1083984375,0.4775390625,7.99560546875,-4.21142578125,-2.0751953125,-3.4112548828125,-58.875732421875,-41.85791015625
1758527846.216162,0.82861328125,-0.1083984375,0.4775390625,7.99560546875,-4.21142578125,-2.0751953125,-3.306884765625,-58.919677734375,-41.8853759765625
1758527846.226249,0.85595703125,-0.01513671875,0.49755859375,6.04248046875,-3.41796875,-1.77001953125,-3.218994140625,-58.9581298828125,-41.9073486328125
1758527846.2364664,0.85595703125,-0.01513671875,0.49755859375,6.04248046875,-3.41796875,-1.77001953125,-3.14208984375,-58.99658203125,-41.923828125
1758527846.2460666,0.8779296875,0.0458984375,0.57421875,-3.60107421875,-1.64794921875,-1.220703125,-3.1146240234375,-59.0240478515625,-41.9403076171875
1758527846.2565866,0.8779296875,0.0458984375,0.57421875,-3.60107421875,-1.64794921875,-1.220703125,-3.131103515625,-59.04052734375,-41.956787109375
1758527846.2661622,0.8759765625,-0.02197265625,0.5322265625,-3.41796875,-0.54931640625,-1.708984375,-3.14208984375,-59.0460205078125,-41.978759765625
1758527846.2760458,0.8759765625,-0.02197265625,0.5322265625,-3.41796875,-0.54931640625,-1.708984375,-3.1475830078125,-59.051513671875,-42.0062255859375
1758527846.286172,0.8740234375,-0.08447265625,0.50244140625,4.638671875,-0.30517578125,-2.86865234375,-3.09814453125,-59.0570068359375,-42.0501708984375
1758527846.2961905,0.8740234375,-0.08447265625,0.50244140625,4.638671875,-0.30517578125,-2.86865234375,-3.01025390625,-59.0625,-42.0941162109375
1758527846.3061383,0.86865234375,-0.0146484375,0.484375,5.67626953125,-1.3427734375,-2.50244140625,-2.9168701171875,-59.0679931640625,-42.1380615234375
1758527846.3161638,0.86865234375,-0.0146484375,0.484375,5.67626953125,-1.3427734375,-2.50244140625,-2.823486328125,-59.08447265625,-42.176513671875
1758527846.3262386,0.8583984375,0.0224609375,0.54833984375,-5.67626953125,-1.220703125,-0.79345703125,-2.801513671875,-59.1009521484375,-42.198486328125
1758527846.3361897,0.8583984375,0.0224609375,0.54833984375,-5.67626953125,-1.220703125,-0.79345703125,-2.845458984375,-59.1119384765625,-42.2039794921875
1758527846.3462136,0.83642578125,-0.0107421875,0.51220703125,-9.521484375,-1.46484375,0.18310546875,-2.9168701171875,-59.1229248046875,-42.2039794921875
1758527846.3565798,0.83642578125,-0.0107421875,0.51220703125,-9.521484375,-1.46484375,0.18310546875,-3.01025390625,-59.139404296875,-42.198486328125
1758527846.3665304,0.85400390625,-0.10693359375,0.4765625,-1.28173828125,-1.46484375,-0.30517578125,-3.0596923828125,-59.150390625,-42.1929931640625
1758527846.3761714,0.85400390625,-0.10693359375,0.4765625,-1.28173828125,-1.46484375,-0.30517578125,-3.0706787109375,-59.1668701171875,-42.1929931640625
1758527846.3864717,0.86181640625,-0.00830078125,0.4853515625,2.01416015625,-2.25830078125,-0.732421875,-3.065185546875,-59.183349609375,-42.1929931640625
1758527846.399586,0.86181640625,-0.00830078125,0.4853515625,2.01416015625,-2.25830078125,-0.732421875,-3.0377197265625,-59.2108154296875,-42.1929931640625
1758527846.407137,0.859375,0.0146484375,0.5302734375,-7.568359375,-2.38037109375,0.42724609375,-3.065185546875,-59.2327880859375,-42.1875
1758527846.4162505,0.859375,0.0146484375,0.5302734375,-7.568359375,-2.38037109375,0.42724609375,-3.153076171875,-59.26025390625,-42.1710205078125
1758527846.4283767,0.84716796875,-0.046875,0.51611328125,-10.31494140625,-1.220703125,1.40380859375,-3.251953125,-59.2767333984375,-42.1435546875
1758527846.4364238,0.84716796875,-0.046875,0.51611328125,-10.31494140625,-1.220703125,1.40380859375,-3.3782958984375,-59.2877197265625,-42.110595703125
1758527846.4465206,0.84521484375,-0.04150390625,0.52197265625,-3.90625,0.30517578125,0.30517578125,-3.460693359375,-59.2877197265625,-42.088623046875
1758527846.4566891,0.84521484375,-0.04150390625,0.52197265625,-3.90625,0.30517578125,0.30517578125,-3.504638671875,-59.2822265625,-42.07763671875
1758527846.4667068,0.84521484375,-0.04150390625,0.52197265625,3.2958984375,-0.18310546875,0.48828125,-3.515625,-59.2822265625,-42.066650390625
1758527846.4762988,0.85986328125,-0.08203125,0.45166015625,3.2958984375,-0.18310546875,0.48828125,-3.49365234375,-59.2822265625,-42.0501708984375
1758527846.48687,0.86279296875,0.029296875,0.505859375,-4.21142578125,-0.79345703125,1.3427734375,-3.515625,-59.2877197265625,-42.022705078125
1758527846.4977045,0.86279296875,0.029296875,0.505859375,-4.21142578125,-0.79345703125,1.3427734375,-3.58154296875,-59.2987060546875,-41.98974609375
1758527846.5069864,0.857421875,-0.02294921875,0.556640625,-14.404296875,-0.30517578125,2.25830078125,-3.702392578125,-59.30419921875,-41.9512939453125
1758527846.5163774,0.857421875,-0.02294921875,0.556640625,-14.404296875,-0.30517578125,2.25830078125,-3.878173828125,-59.30419921875,-41.90185546875
1758527846.5271964,0.85498046875,-0.0576171875,0.490234375,-9.58251953125,0.06103515625,2.197265625,-4.031982421875,-59.30419921875,-41.85791015625
1758527846.5364165,0.85498046875,-0.0576171875,0.490234375,-9.58251953125,0.06103515625,2.197265625,-4.1583251953125,-59.2987060546875,-41.81396484375
1758527846.5464735,0.84521484375,-0.09375,0.45849609375,-0.18310546875,-0.67138671875,2.3193359375,-4.24072265625,-59.30419921875,-41.7645263671875
1758527846.5568323,0.84521484375,-0.09375,0.45849609375,-0.18310546875,-0.67138671875,2.3193359375,-4.28466796875,-59.3096923828125,-41.7095947265625
1758527846.5664845,0.84326171875,-0.0234375,0.4794921875,-0.79345703125,-1.77001953125,2.74658203125,-4.339599609375,-59.3206787109375,-41.649169921875
1758527846.5764437,0.84326171875,-0.0234375,0.4794921875,-0.79345703125,-1.77001953125,2.74658203125,-4.39453125,-59.337158203125,-41.583251953125
1758527846.5864482,0.82666015625,-0.03466796875,0.49658203125,-4.7607421875,-1.953125,1.8310546875,-4.4659423828125,-59.359130859375,-41.5228271484375
1758527846.596514,0.82666015625,-0.03466796875,0.49658203125,-4.7607421875,-1.953125,1.8310546875,-4.54833984375,-59.3756103515625,-41.4788818359375
1758527846.6064591,0.82861328125,0.02783203125,0.50390625,0.244140625,-1.52587890625,0.0,-4.5867919921875,-59.39208984375,-41.451416015625
1758527846.6167467,0.82861328125,0.02783203125,0.50390625,0.244140625,-1.52587890625,0.0,-4.5758056640625,-59.4085693359375,-41.4404296875
1758527846.6265597,0.822265625,-0.0908203125,0.44140625,-1.953125,-2.38037109375,0.48828125,-4.5867919921875,-59.4305419921875,-41.429443359375
1758527846.6365325,0.822265625,-0.0908203125,0.44140625,-1.953125,-2.38037109375,0.48828125,-4.6142578125,-59.4525146484375,-41.4129638671875
1758527846.6466157,0.82470703125,-0.0556640625,0.4716796875,2.86865234375,-0.8544921875,0.244140625,-4.6142578125,-59.4744873046875,-41.3909912109375
1758527846.6569858,0.82470703125,-0.0556640625,0.4716796875,2.86865234375,-0.8544921875,0.244140625,-4.59228515625,-59.4854736328125,-41.3800048828125
1758527846.6666026,0.82958984375,-0.00146484375,0.5849609375,0.42724609375,1.953125,2.5634765625,-4.5977783203125,-59.47998046875,-41.3470458984375
1758527846.67657,0.82958984375,-0.00146484375,0.5849609375,0.42724609375,1.953125,2.5634765625,-4.63623046875,-59.4580078125,-41.297607421875
1758527846.68661,0.89404296875,-0.07177734375,0.48486328125,-12.20703125,1.8310546875,5.43212890625,-4.7515869140625,-59.4305419921875,-41.220703125
1758527846.6981602,0.89404296875,-0.07177734375,0.48486328125,-12.20703125,1.8310546875,5.43212890625,-4.9603271484375,-59.4085693359375,-41.1163330078125
1758527846.7071548,0.92529296875,-0.08056640625,0.42724609375,-0.48828125,0.6103515625,2.9296875,-5.0921630859375,-59.39208984375,-41.0284423828125
1758527846.7167034,0.92529296875,-0.08056640625,0.42724609375,-0.48828125,0.6103515625,2.9296875,-5.1470947265625,-59.3865966796875,-40.9625244140625
1758527846.7268116,0.89111328125,-0.0322265625,0.6220703125,6.34765625,1.3427734375,1.220703125,-5.152587890625,-59.381103515625,-40.9130859375
1758527846.7366157,0.89111328125,-0.0322265625,0.6220703125,6.34765625,1.3427734375,1.220703125,-5.108642578125,-59.3701171875,-40.8856201171875
1758527846.7467139,0.8681640625,0.05224609375,0.53955078125,-3.41796875,2.99072265625,1.46484375,-5.1141357421875,-59.34814453125,-40.858154296875
1758527846.7566144,0.8681640625,0.05224609375,0.53955078125,-3.41796875,2.99072265625,1.46484375,-5.1580810546875,-59.315185546875,-40.836181640625
1758527846.766882,0.88134765625,-0.10107421875,0.494140625,-10.986328125,2.50244140625,2.86865234375,-5.25146484375,-59.2822265625,-40.7977294921875
1758527846.7766879,0.88134765625,-0.10107421875,0.494140625,-10.986328125,2.50244140625,2.86865234375,-5.394287109375,-59.2547607421875,-40.748291015625
1758527846.7868953,0.89599609375,-0.11474609375,0.45068359375,1.03759765625,0.79345703125,1.46484375,-5.4766845703125,-59.23828125,-40.704345703125
1758527846.7973604,0.89599609375,-0.11474609375,0.45068359375,1.03759765625,0.79345703125,1.46484375,-5.4876708984375,-59.2327880859375,-40.6658935546875
1758527846.8071427,0.86572265625,-0.03076171875,0.55029296875,11.41357421875,0.6103515625,0.3662109375,-5.4437255859375,-59.2327880859375,-40.638427734375
1758527846.8170965,0.86572265625,-0.03076171875,0.55029296875,11.41357421875,0.6103515625,0.3662109375,-5.33935546875,-59.227294921875,-40.62744140625
1758527846.8268275,0.8818359375,-0.01171875,0.55078125,2.9296875,0.91552734375,0.9765625,-5.2789306640625,-59.2218017578125,-40.60546875
1758527846.8371768,0.8818359375,-0.01171875,0.55078125,2.9296875,0.91552734375,0.9765625,-5.262451171875,-59.2108154296875,-40.58349609375
1758527846.8468053,0.908203125,-0.0439453125,0.5234375,-5.9814453125,0.54931640625,1.77001953125,-5.29541015625,-59.205322265625,-40.5560302734375
1758527846.8570797,0.908203125,-0.0439453125,0.5234375,-5.9814453125,0.54931640625,1.77001953125,-5.38330078125,-59.1998291015625,-40.517578125
1758527846.8672109,0.89111328125,-0.0517578125,0.5244140625,-8.72802734375,0.30517578125,1.708984375,-5.4766845703125,-59.1943359375,-40.484619140625
1758527846.8770368,0.89111328125,-0.0517578125,0.5244140625,-8.72802734375,0.30517578125,1.708984375,-5.592041015625,-59.1888427734375,-40.4461669921875
1758527846.8867836,0.857421875,-0.046875,0.50048828125,-3.0517578125,0.48828125,1.03759765625,-5.6689453125,-59.1888427734375,-40.418701171875
1758527846.8978744,0.857421875,-0.046875,0.50048828125,-3.0517578125,0.48828125,1.03759765625,-5.7073974609375,-59.183349609375,-40.396728515625
1758527846.9068718,0.84619140625,-0.03759765625,0.51416015625,-6.53076171875,0.54931640625,0.8544921875,-5.767822265625,-59.1778564453125,-40.374755859375
1758527846.9172752,0.84619140625,-0.03759765625,0.51416015625,-6.53076171875,0.54931640625,0.8544921875,-5.8392333984375,-59.17236328125,-40.352783203125
1758527846.9270592,0.87255859375,-0.0537109375,0.51416015625,-9.27734375,0.42724609375,0.8544921875,-5.943603515625,-59.1668701171875,-40.3363037109375
1758527846.9374876,0.87255859375,-0.0537109375,0.51416015625,-9.27734375,0.42724609375,0.8544921875,-6.04248046875,-59.1668701171875,-40.3143310546875
1758527846.9469552,0.87548828125,-0.05322265625,0.5068359375,-3.7841796875,1.03759765625,0.3662109375,-6.0809326171875,-59.1558837890625,-40.308837890625
1758527846.9573588,0.87548828125,-0.05322265625,0.5068359375,-3.7841796875,1.03759765625,0.3662109375,-6.1138916015625,-59.1448974609375,-40.2978515625
1758527846.9671485,0.8896484375,-0.07666015625,0.51953125,-2.685546875,0.8544921875,0.244140625,-6.141357421875,-59.139404296875,-40.286865234375
1758527846.9773827,0.8896484375,-0.07666015625,0.51953125,-2.685546875,0.8544921875,0.244140625,-6.1688232421875,-59.1339111328125,-40.27587890625
1758527846.9871826,0.8857421875,-0.04736328125,0.51318359375,0.54931640625,0.91552734375,0.1220703125,-6.163330078125,-59.1229248046875,-40.2703857421875
1758527846.9981194,0.8857421875,-0.04736328125,0.51318359375,0.54931640625,0.91552734375,0.1220703125,-6.15234375,-59.117431640625,-40.264892578125
1758527847.0069783,0.87744140625,-0.05322265625,0.54833984375,-1.15966796875,0.6103515625,-0.06103515625,-6.1578369140625,-59.1119384765625,-40.2593994140625
1758527847.017031,0.87744140625,-0.05322265625,0.54833984375,-1.15966796875,0.6103515625,-0.06103515625,-6.1688232421875,-59.1064453125,-40.2593994140625
1758527847.0271237,0.85595703125,-0.04833984375,0.482421875,-0.48828125,0.54931640625,-0.42724609375,-6.163330078125,-59.1064453125,-40.2593994140625
1758527847.0369887,0.85595703125,-0.04833984375,0.482421875,-0.48828125,0.54931640625,-0.42724609375,-6.15234375,-59.1009521484375,-40.264892578125
1758527847.0471609,0.86669921875,-0.0830078125,0.48779296875,7.080078125,0.244140625,-1.40380859375,-6.0589599609375,-59.1009521484375,-40.286865234375
1758527847.0569685,0.86669921875,-0.0830078125,0.48779296875,7.080078125,0.244140625,-1.40380859375,-5.965576171875,-59.1064453125,-40.3033447265625
1758527847.0673122,0.9072265625,-0.083984375,0.568359375,6.65283203125,0.30517578125,-1.03759765625,-5.888671875,-59.1064453125,-40.31982421875
1758527847.0770178,0.9072265625,-0.083984375,0.568359375,6.65283203125,0.30517578125,-1.03759765625,-5.8062744140625,-59.1009521484375,-40.330810546875
1758527847.0871754,0.88427734375,-0.0048828125,0.50830078125,2.3193359375,-0.244140625,-1.28173828125,-5.767822265625,-59.1064453125,-40.3472900390625
1758527847.0975547,0.88427734375,-0.0048828125,0.50830078125,2.3193359375,-0.244140625,-1.28173828125,-5.723876953125,-59.1119384765625,-40.36376953125
1758527847.1071317,0.89208984375,-0.04638671875,0.52783203125,1.52587890625,-0.91552734375,-1.953125,-5.6744384765625,-59.12841796875,-40.396728515625
1758527847.1171663,0.89208984375,-0.04638671875,0.52783203125,1.52587890625,-0.91552734375,-1.953125,-5.6304931640625,-59.139404296875,-40.4241943359375
1758527847.1274512,0.87353515625,-0.08935546875,0.49267578125,7.50732421875,-1.220703125,-1.953125,-5.526123046875,-59.1558837890625,-40.45166015625
1758527847.137152,0.87353515625,-0.08935546875,0.49267578125,7.50732421875,-1.220703125,-1.953125,-5.42724609375,-59.17236328125,-40.4791259765625
1758527847.1472192,0.875,-0.07177734375,0.4892578125,7.6904296875,-2.25830078125,-2.99072265625,-5.3118896484375,-59.1998291015625,-40.517578125
1758527847.1570914,0.875,-0.07177734375,0.4892578125,7.6904296875,-2.25830078125,-2.99072265625,-5.196533203125,-59.227294921875,-40.5615234375
1758527847.1675317,0.89697265625,-0.0390625,0.556640625,10.1318359375,-2.5634765625,-3.2958984375,-5.0537109375,-59.2547607421875,-40.6109619140625
1758527847.177184,0.89697265625,-0.0390625,0.556640625,10.1318359375,-2.5634765625,-3.2958984375,-4.9053955078125,-59.2877197265625,-40.6549072265625
1758527847.187322,0.89453125,-0.03955078125,0.52197265625,16.357421875,-2.62451171875,-3.35693359375,-4.6966552734375,-59.315185546875,-40.7098388671875
1758527847.1981344,0.89453125,-0.03955078125,0.52197265625,16.357421875,-2.62451171875,-3.35693359375,-4.4879150390625,-59.34814453125,-40.75927734375
1758527847.2072017,0.87451171875,-0.01416015625,0.52685546875,7.9345703125,-3.60107421875,-2.8076171875,-4.37255859375,-59.3865966796875,-40.7977294921875
1758527847.2173166,0.87451171875,-0.01416015625,0.52685546875,7.9345703125,-3.60107421875,-2.8076171875,-4.2572021484375,-59.425048828125,-40.8416748046875
1758527847.2278128,0.86181640625,0.0009765625,0.5126953125,-2.62451171875,-3.7841796875,-1.953125,-4.2572021484375,-59.4635009765625,-40.869140625
1758527847.2372775,0.86181640625,0.0009765625,0.5126953125,-2.62451171875,-3.7841796875,-1.953125,-4.2572021484375,-59.501953125,-40.8966064453125
1758527847.2477002,0.859375,-0.01953125,0.48828125,-9.21630859375,-4.08935546875,-1.46484375,-4.32861328125,-59.5404052734375,-40.9130859375
1758527847.257232,0.859375,-0.01953125,0.48828125,-9.21630859375,-4.08935546875,-1.46484375,-4.39453125,-59.5843505859375,-40.93505859375
1758527847.2681272,0.8486328125,-0.09765625,0.4912109375,1.77001953125,-3.60107421875,-1.40380859375,-4.3560791015625,-59.6173095703125,-40.946044921875
1758527847.2772925,0.8486328125,-0.09765625,0.4912109375,1.77001953125,-3.60107421875,-1.40380859375,-4.3231201171875,-59.65576171875,-40.9625244140625
1758527847.2878857,0.83740234375,-0.11865234375,0.4443359375,18.85986328125,-2.8076171875,-1.52587890625,-4.1253662109375,-59.6832275390625,-40.97900390625
1758527847.30096,0.83740234375,-0.11865234375,0.4443359375,18.85986328125,-2.8076171875,-1.52587890625,-3.9276123046875,-59.7161865234375,-40.9954833984375
1758527847.3080695,0.83447265625,0.00634765625,0.48388671875,3.35693359375,-3.72314453125,0.0,-3.9111328125,-59.754638671875,-40.97900390625
1758527847.317321,0.83447265625,0.00634765625,0.48388671875,3.35693359375,-3.72314453125,0.0,-3.8946533203125,-59.7930908203125,-40.9625244140625
1758527847.3284056,0.830078125,0.05810546875,0.55029296875,-6.7138671875,-2.74658203125,0.30517578125,-3.9715576171875,-59.820556640625,-40.946044921875
1758527847.3373299,0.830078125,0.05810546875,0.55029296875,-6.7138671875,-2.74658203125,0.30517578125,-4.04296875,-59.842529296875,-40.93505859375
1758527847.3480535,0.85498046875,-0.06591796875,0.45361328125,-6.89697265625,-2.25830078125,0.67138671875,-4.1253662109375,-59.864501953125,-40.9185791015625
1758527847.3573918,0.85498046875,-0.06591796875,0.45361328125,-6.89697265625,-2.25830078125,0.67138671875,-4.207763671875,-59.886474609375,-40.8966064453125
1758527847.3686714,0.8359375,-0.12841796875,0.4873046875,5.9814453125,-1.5869140625,0.732421875,-4.163818359375,-59.8974609375,-40.8746337890625
1758527847.3774474,0.8359375,-0.12841796875,0.4873046875,5.9814453125,-1.5869140625,0.732421875,-4.130859375,-59.9139404296875,-40.84716796875
1758527847.3874936,0.84228515625,-0.02001953125,0.47802734375,6.34765625,-1.220703125,1.03759765625,-4.097900390625,-59.9249267578125,-40.814208984375
1758527847.3984714,0.84228515625,-0.02001953125,0.47802734375,6.34765625,-1.220703125,1.03759765625,-4.0594482421875,-59.9359130859375,-40.7867431640625
1758527847.40747,0.8525390625,0.05908203125,0.513671875,-11.65771484375,-1.3427734375,1.3427734375,-4.2022705078125,-59.9468994140625,-40.748291015625
1758527847.4174793,0.8525390625,0.05908203125,0.513671875,-11.65771484375,-1.3427734375,1.3427734375,-4.339599609375,-59.9578857421875,-40.7208251953125
1758527847.427713,0.8583984375,-0.013671875,0.52685546875,-16.11328125,-0.732421875,2.01416015625,-4.5263671875,-59.96337890625,-40.6768798828125
1758527847.4374785,0.8583984375,-0.013671875,0.52685546875,-16.11328125,-0.732421875,2.01416015625,-4.713134765625,-59.96337890625,-40.6329345703125
1758527847.4476764,0.86669921875,-0.09619140625,0.47412109375,-10.19287109375,-0.06103515625,2.01416015625,-4.8394775390625,-59.96337890625,-40.594482421875
1758527847.4575427,0.86669921875,-0.09619140625,0.47412109375,-10.19287109375,-0.06103515625,2.01416015625,-4.9713134765625,-59.9578857421875,-40.550537109375
1758527847.4677944,0.86669921875,-0.09619140625,0.47412109375,1.77001953125,0.244140625,0.732421875,-4.9658203125,-59.9578857421875,-40.528564453125
1758527847.4775474,0.89697265625,-0.10888671875,0.47021484375,1.77001953125,0.244140625,0.732421875,-4.9658203125,-59.952392578125,-40.506591796875
1758527847.4875853,0.92578125,0.005859375,0.568359375,-6.4697265625,0.0,0.79345703125,-5.0482177734375,-59.952392578125,-40.484619140625
1758527847.4985204,0.92578125,0.005859375,0.568359375,-6.4697265625,0.0,0.79345703125,-5.11962890625,-59.952392578125,-40.462646484375
1758527847.5075665,0.96142578125,0.05712890625,0.58447265625,-15.2587890625,0.0,0.6103515625,-5.2734375,-59.952392578125,-40.4461669921875
1758527847.5178094,0.96142578125,0.05712890625,0.58447265625,-15.2587890625,0.0,0.6103515625,-5.4217529296875,-59.9468994140625,-40.4351806640625
1758527847.5277615,0.935546875,-0.0498046875,0.560546875,-17.7001953125,-0.3662109375,-0.06103515625,-5.5810546875,-59.952392578125,-40.4351806640625
1758527847.537604,0.935546875,-0.0498046875,0.560546875,-17.7001953125,-0.3662109375,-0.06103515625,-5.7403564453125,-59.952392578125,-40.440673828125
1758527847.547958,0.92578125,-0.1865234375,0.48291015625,5.859375,0.06103515625,-1.40380859375,-5.64697265625,-59.952392578125,-40.462646484375
1758527847.5576048,0.92578125,-0.1865234375,0.48291015625,5.859375,0.06103515625,-1.40380859375,-5.570068359375,-59.952392578125,-40.484619140625
1758527847.5679505,0.88232421875,-0.17431640625,0.38427734375,35.82763671875,0.244140625,-2.99072265625,-5.1690673828125,-59.952392578125,-40.528564453125
1758527847.5776813,0.88232421875,-0.17431640625,0.38427734375,35.82763671875,0.244140625,-2.99072265625,-4.7845458984375,-59.9578857421875,-40.5670166015625
1758527847.5879507,0.84326171875,0.03125,0.544921875,18.798828125,-1.64794921875,-2.5634765625,-4.5758056640625,-59.9853515625,-40.5999755859375
1758527847.5995662,0.84326171875,0.03125,0.544921875,18.798828125,-1.64794921875,-2.5634765625,-4.3560791015625,-60.0018310546875,-40.6329345703125
1758527847.6080966,0.8388671875,0.0859375,0.54638671875,6.77490234375,-1.28173828125,-2.01416015625,-4.2626953125,-60.018310546875,-40.660400390625
1758527847.617801,0.8388671875,0.0859375,0.54638671875,6.77490234375,-1.28173828125,-2.01416015625,-4.1583251953125,-60.029296875,-40.6988525390625
1758527847.6279511,0.84228515625,-0.05712890625,0.40283203125,4.21142578125,-2.25830078125,-1.28173828125,-4.097900390625,-60.0567626953125,-40.71533203125
1758527847.6377287,0.84228515625,-0.05712890625,0.40283203125,4.21142578125,-2.25830078125,-1.28173828125,-4.0374755859375,-60.0787353515625,-40.7318115234375
1758527847.6477184,0.830078125,-0.10302734375,0.470703125,12.26806640625,-2.62451171875,-0.6103515625,-3.9111328125,-60.1116943359375,-40.7318115234375
1758527847.6580412,0.830078125,-0.10302734375,0.470703125,12.26806640625,-2.62451171875,-0.6103515625,-3.790283203125,-60.13916015625,-40.726318359375
1758527847.668047,0.822265625,0.0009765625,0.49658203125,2.44140625,-2.9296875,0.244140625,-3.7847900390625,-60.1666259765625,-40.7098388671875
1758527847.6781166,0.822265625,0.0009765625,0.49658203125,2.44140625,-2.9296875,0.244140625,-3.7738037109375,-60.1995849609375,-40.6878662109375
1758527847.6878457,0.83642578125,-0.00244140625,0.4638671875,0.18310546875,-3.173828125,0.30517578125,-3.7847900390625,-60.2325439453125,-40.67138671875
1758527847.699545,0.83642578125,-0.00244140625,0.4638671875,0.18310546875,-3.173828125,0.30517578125,-3.790283203125,-60.260009765625,-40.6549072265625
1758527847.7077904,0.8408203125,-0.03173828125,0.484375,-3.96728515625,-3.35693359375,1.40380859375,-3.856201171875,-60.29296875,-40.6109619140625
1758527847.7182744,0.8408203125,-0.03173828125,0.484375,-3.96728515625,-3.35693359375,1.40380859375,-3.9276123046875,-60.325927734375,-40.572509765625
1758527847.7286155,0.85791015625,-0.0703125,0.48291015625,3.47900390625,-2.74658203125,1.220703125,-3.9166259765625,-60.3533935546875,-40.53955078125
1758527847.7383256,0.85791015625,-0.0703125,0.48291015625,3.47900390625,-2.74658203125,1.220703125,-3.9111328125,-60.380859375,-40.5010986328125
1758527847.747862,0.86083984375,-0.05810546875,0.478515625,5.67626953125,-2.62451171875,1.46484375,-3.88916015625,-60.40283203125,-40.462646484375
1758527847.758284,0.86083984375,-0.05810546875,0.478515625,5.67626953125,-2.62451171875,1.46484375,-3.8671875,-60.4302978515625,-40.418701171875
1758527847.7682805,0.86474609375,-0.02685546875,0.505859375,3.2958984375,-2.25830078125,1.15966796875,-3.8671875,-60.4522705078125,-40.3857421875
1758527847.778352,0.86474609375,-0.02685546875,0.505859375,3.2958984375,-2.25830078125,1.15966796875,-3.8616943359375,-60.4742431640625,-40.352783203125
1758527847.788094,0.88671875,0.00634765625,0.49365234375,-3.47900390625,-2.197265625,1.40380859375,-3.922119140625,-60.49072265625,-40.3143310546875
1758527847.7993755,0.88671875,0.00634765625,0.49365234375,-3.47900390625,-2.197265625,1.40380859375,-3.988037109375,-60.5126953125,-40.2813720703125
1758527847.8078768,0.91162109375,-0.0224609375,0.5185546875,-2.25830078125,-1.8310546875,0.79345703125,-4.02099609375,-60.5291748046875,-40.2593994140625
1758527847.8179433,0.91162109375,-0.0224609375,0.5185546875,-2.25830078125,-1.8310546875,0.79345703125,-4.0594482421875,-60.545654296875,-40.2374267578125
1758527847.827915,0.904296875,-0.09716796875,0.52099609375,14.16015625,-1.03759765625,0.0,-3.9166259765625,-60.556640625,-40.23193359375
1758527847.8379529,0.904296875,-0.09716796875,0.52099609375,14.16015625,-1.03759765625,0.0,-3.779296875,-60.5621337890625,-40.220947265625
1758527847.8479629,0.91357421875,-0.0712890625,0.4951171875,9.27734375,-1.3427734375,0.0,-3.6968994140625,-60.5731201171875,-40.2154541015625
1758527847.8579607,0.91357421875,-0.0712890625,0.4951171875,9.27734375,-1.3427734375,0.0,-3.6199951171875,-60.589599609375,-40.2044677734375
1758527847.8682628,0.89453125,0.0712890625,0.53369140625,-2.5634765625,-1.64794921875,0.06103515625,-3.6529541015625,-60.6005859375,-40.1934814453125
1758527847.8780293,0.89453125,0.0712890625,0.53369140625,-2.5634765625,-1.64794921875,0.06103515625,-3.6749267578125,-60.6170654296875,-40.18798828125
1758527847.887993,0.89208984375,0.017578125,0.48486328125,-2.13623046875,-1.64794921875,-0.06103515625,-3.69140625,-60.633544921875,-40.18798828125
1758527847.8984668,0.89208984375,0.017578125,0.48486328125,-2.13623046875,-1.64794921875,-0.06103515625,-3.702392578125,-60.6500244140625,-40.1824951171875
1758527847.9079938,0.89306640625,-0.072265625,0.47900390625,-1.52587890625,-2.01416015625,0.18310546875,-3.7188720703125,-60.66650390625,-40.177001953125
1758527847.918055,0.89306640625,-0.072265625,0.47900390625,-1.52587890625,-2.01416015625,0.18310546875,-3.7353515625,-60.6884765625,-40.166015625
1758527847.9280598,0.87451171875,-0.0703125,0.47998046875,4.57763671875,-2.01416015625,0.3662109375,-3.6968994140625,-60.71044921875,-40.1495361328125
1758527847.9380536,0.86962890625,0.0068359375,0.49462890625,-5.67626953125,-2.5634765625,0.91552734375,-3.7188720703125,-60.732421875,-40.1275634765625
1758527847.9480689,0.86962890625,0.0068359375,0.49462890625,-5.67626953125,-2.5634765625,0.91552734375,-3.790283203125,-60.75439453125,-40.1055908203125
1758527847.9581082,0.8544921875,0.02587890625,0.46142578125,-12.26806640625,-2.86865234375,1.46484375,-3.900146484375,-60.7818603515625,-40.0726318359375
1758527847.9684768,0.8544921875,0.02587890625,0.46142578125,-12.26806640625,-2.86865234375,1.46484375,-4.04296875,-60.809326171875,-40.0341796875
1758527847.9781365,0.8603515625,-0.06396484375,0.46826171875,-4.33349609375,-2.9296875,1.3427734375,-4.141845703125,-60.8367919921875,-40.001220703125
1758527847.9886386,0.8603515625,-0.06396484375,0.46826171875,-4.33349609375,-2.9296875,1.3427734375,-4.2022705078125,-60.8642578125,-39.96826171875
1758527847.9986663,0.8603515625,-0.06396484375,0.46826171875,10.92529296875,-2.74658203125,1.220703125,-4.1912841796875,-60.8917236328125,-39.9298095703125
1758527848.0082343,0.84375,-0.078125,0.4541015625,10.92529296875,-2.74658203125,1.220703125,-4.1033935546875,-60.919189453125,-39.8968505859375
1758527848.0181842,0.8564453125,-0.03369140625,0.4521484375,5.79833984375,-3.23486328125,1.46484375,-4.0484619140625,-60.9521484375,-39.8583984375
1758527848.0281692,0.8564453125,-0.03369140625,0.4521484375,5.79833984375,-3.23486328125,1.46484375,-4.02099609375,-60.985107421875,-39.814453125
1758527848.0382478,0.85400390625,0.001953125,0.51123046875,-7.38525390625,-3.2958984375,1.52587890625,-4.0594482421875,-61.01806640625,-39.7705078125
1758527848.0482159,0.85400390625,0.001953125,0.51123046875,-7.38525390625,-3.2958984375,1.52587890625,-4.163818359375,-61.0455322265625,-39.7265625
1758527848.05824,0.87109375,-0.029296875,0.45947265625,-8.97216796875,-3.23486328125,1.8310546875,-4.273681640625,-61.0784912109375,-39.6826171875
1758527848.068495,0.87109375,-0.029296875,0.45947265625,-8.97216796875,-3.23486328125,1.8310546875,-4.39453125,-61.10595703125,-39.638671875
1758527848.078242,0.876953125,-0.07080078125,0.45361328125,8.36181640625,-2.9296875,1.220703125,-4.427490234375,-61.138916015625,-39.6002197265625
1758527848.0887027,0.876953125,-0.07080078125,0.45361328125,8.36181640625,-2.9296875,1.220703125,-4.3670654296875,-61.1663818359375,-39.561767578125
1758527848.0987976,0.88818359375,-0.076171875,0.48193359375,13.97705078125,-2.8076171875,1.40380859375,-4.28466796875,-61.19384765625,-39.517822265625
1758527848.1084921,0.88818359375,-0.076171875,0.48193359375,13.97705078125,-2.8076171875,1.40380859375,-4.1802978515625,-61.2213134765625,-39.4793701171875
1758527848.1184316,0.87841796875,-0.0048828125,0.5107421875,-4.150390625,-2.9296875,1.5869140625,-4.163818359375,-61.248779296875,-39.429931640625
1758527848.1288605,0.87841796875,-0.0048828125,0.5107421875,-4.150390625,-2.9296875,1.5869140625,-4.24072265625,-61.2762451171875,-39.385986328125
1758527848.1383123,0.8896484375,0.01171875,0.4775390625,-12.39013671875,-3.0517578125,2.01416015625,-4.361572265625,-61.3037109375,-39.342041015625
1758527848.1487024,0.8896484375,0.01171875,0.4775390625,-12.39013671875,-3.0517578125,2.01416015625,-4.5208740234375,-61.3311767578125,-39.287109375
1758527848.158282,0.88525390625,-0.05419921875,0.4794921875,-8.1787109375,-2.99072265625,2.197265625,-4.658203125,-61.358642578125,-39.2376708984375
1758527848.1693187,0.88525390625,-0.05419921875,0.4794921875,-8.1787109375,-2.99072265625,2.197265625,-4.779052734375,-61.3861083984375,-39.1827392578125
1758527848.178321,0.87255859375,-0.10009765625,0.4658203125,4.2724609375,-2.50244140625,1.77001953125,-4.833984375,-61.41357421875,-39.13330078125
1758527848.188915,0.87255859375,-0.10009765625,0.4658203125,4.2724609375,-2.50244140625,1.77001953125,-4.8284912109375,-61.435546875,-39.0838623046875
1758527848.2015243,0.8935546875,-0.04052734375,0.44287109375,-3.11279296875,-2.99072265625,1.64794921875,-4.8614501953125,-61.4630126953125,-39.034423828125
1758527848.2101362,0.8935546875,-0.04052734375,0.44287109375,-3.11279296875,-2.99072265625,1.64794921875,-4.9273681640625,-61.490478515625,-38.9849853515625
1758527848.218973,0.87255859375,0.00927734375,0.52197265625,-5.55419921875,-2.62451171875,1.03759765625,-5.0042724609375,-61.5179443359375,-38.946533203125
1758527848.2331526,0.87255859375,0.00927734375,0.52197265625,-5.55419921875,-2.62451171875,1.03759765625,-5.0811767578125,-61.5399169921875,-38.91357421875
1758527848.239475,0.884765625,-0.03759765625,0.4521484375,0.1220703125,-2.685546875,0.06103515625,-5.1141357421875,-61.5673828125,-38.8970947265625
1758527848.2484598,0.884765625,-0.03759765625,0.4521484375,0.1220703125,-2.685546875,0.06103515625,-5.1141357421875,-61.5948486328125,-38.8861083984375
1758527848.2588866,0.86181640625,-0.087890625,0.447265625,6.591796875,-2.74658203125,0.0,-5.0811767578125,-61.6168212890625,-38.8751220703125
1758527848.268612,0.86181640625,-0.087890625,0.447265625,6.591796875,-2.74658203125,0.0,-5.0152587890625,-61.644287109375,-38.8641357421875
1758527848.2784433,0.85546875,-0.04736328125,0.46435546875,3.23486328125,-3.11279296875,0.0,-4.976806640625,-61.67724609375,-38.8531494140625
1758527848.288432,0.85546875,-0.04736328125,0.46435546875,3.23486328125,-3.11279296875,0.0,-4.954833984375,-61.7047119140625,-38.836669921875
1758527848.2988997,0.849609375,0.0126953125,0.45947265625,-5.7373046875,-3.23486328125,0.48828125,-4.976806640625,-61.7376708984375,-38.8201904296875
1758527848.3085258,0.849609375,0.0126953125,0.45947265625,-5.7373046875,-3.23486328125,0.48828125,-5.0482177734375,-61.7706298828125,-38.7982177734375
1758527848.3187294,0.849609375,-0.03759765625,0.44482421875,-0.3662109375,-3.23486328125,0.18310546875,-5.0811767578125,-61.798095703125,-38.78173828125
1758527848.3290079,0.849609375,-0.03759765625,0.44482421875,-0.3662109375,-3.23486328125,0.18310546875,-5.0921630859375,-61.8310546875,-38.7652587890625
1758527848.3385906,0.84765625,-0.09228515625,0.431640625,11.3525390625,-2.86865234375,0.06103515625,-5.0372314453125,-61.8585205078125,-38.7542724609375
1758527848.3485487,0.84765625,-0.09228515625,0.431640625,11.3525390625,-2.86865234375,0.06103515625,-4.932861328125,-61.8914794921875,-38.73779296875
1758527848.3585358,0.8583984375,-0.04541015625,0.4658203125,0.30517578125,-3.173828125,0.54931640625,-4.888916015625,-61.9189453125,-38.7213134765625
1758527848.368811,0.8583984375,-0.04541015625,0.4658203125,0.30517578125,-3.173828125,0.54931640625,-4.9053955078125,-61.951904296875,-38.69384765625
1758527848.3785715,0.86181640625,0.00048828125,0.4619140625,-2.25830078125,-2.685546875,0.91552734375,-4.9383544921875,-61.9793701171875,-38.6663818359375
1758527848.3885572,0.86181640625,0.00048828125,0.4619140625,-2.25830078125,-2.685546875,0.91552734375,-4.9822998046875,-62.0013427734375,-38.6334228515625
1758527848.3989956,0.88818359375,-0.0390625,0.4482421875,-0.54931640625,-2.5634765625,0.67138671875,-5.0152587890625,-62.02880859375,-38.60595703125
1758527848.4085863,0.88818359375,-0.0390625,0.4482421875,-0.54931640625,-2.5634765625,0.67138671875,-5.0372314453125,-62.05078125,-38.5784912109375
1758527848.418644,0.88720703125,-0.07958984375,0.498046875,4.21142578125,-2.13623046875,0.67138671875,-5.03173828125,-62.07275390625,-38.551025390625
1758527848.4291072,0.88720703125,-0.07958984375,0.498046875,4.21142578125,-2.13623046875,0.67138671875,-5.0042724609375,-62.0947265625,-38.529052734375
1758527848.4386966,0.90185546875,-0.056640625,0.44580078125,3.90625,-2.01416015625,1.03759765625,-4.98779296875,-62.1112060546875,-38.49609375
1758527848.4487133,0.90185546875,-0.056640625,0.44580078125,3.90625,-2.01416015625,1.03759765625,-4.976806640625,-62.127685546875,-38.463134765625
1758527848.4586608,0.9169921875,0.00048828125,0.49072265625,-3.96728515625,-2.38037109375,1.3427734375,-5.009765625,-62.149658203125,-38.4246826171875
1758527848.468915,0.9169921875,0.00048828125,0.49072265625,-3.96728515625,-2.38037109375,1.3427734375,-5.07568359375,-62.171630859375,-38.3807373046875
1758527848.4787607,0.92529296875,-0.01904296875,0.50341796875,-4.39453125,-2.13623046875,1.3427734375,-5.1470947265625,-62.193603515625,-38.34228515625
1758527848.488765,0.92529296875,-0.01904296875,0.50341796875,-4.39453125,-2.13623046875,1.3427734375,-5.2130126953125,-62.2100830078125,-38.3038330078125
1758527848.5024946,0.9169921875,-0.0703125,0.46142578125,1.708984375,-2.01416015625,1.0986328125,-5.2459716796875,-62.2320556640625,-38.2708740234375
1758527848.5110152,0.9169921875,-0.0703125,0.46142578125,1.708984375,-2.01416015625,1.0986328125,-5.25146484375,-62.24853515625,-38.2379150390625
1758527848.518792,0.9189453125,-0.08642578125,0.46044921875,4.150390625,-2.50244140625,0.54931640625,-5.240478515625,-62.2705078125,-38.21044921875
1758527848.5291307,0.9189453125,-0.08642578125,0.46044921875,4.150390625,-2.50244140625,0.54931640625,-5.218505859375,-62.29248046875,-38.1829833984375
1758527848.5388405,0.9150390625,-0.001953125,0.48583984375,0.42724609375,-2.9296875,0.54931640625,-5.2130126953125,-62.3199462890625,-38.155517578125
1758527848.5488167,0.9150390625,-0.001953125,0.48583984375,0.42724609375,-2.9296875,0.54931640625,-5.2294921875,-62.347412109375,-38.1280517578125
1758527848.5587902,0.9072265625,0.013671875,0.4697265625,-7.9345703125,-3.23486328125,0.6103515625,-5.2789306640625,-62.38037109375,-38.1060791015625
1758527848.5689118,0.9072265625,0.013671875,0.4697265625,-7.9345703125,-3.23486328125,0.6103515625,-5.3668212890625,-62.4078369140625,-38.0841064453125
1758527848.5788975,0.89599609375,-0.04443359375,0.4599609375,-8.36181640625,-3.41796875,0.3662109375,-5.4547119140625,-62.4407958984375,-38.0621337890625
1758527848.5888216,0.89599609375,-0.04443359375,0.4599609375,-8.36181640625,-3.41796875,0.3662109375,-5.5426025390625,-62.4737548828125,-38.0401611328125
1758527848.5994658,0.884765625,-0.09228515625,0.4482421875,0.732421875,-3.35693359375,-0.06103515625,-5.5810546875,-62.5067138671875,-38.023681640625
1758527848.6088476,0.884765625,-0.09228515625,0.4482421875,0.732421875,-3.35693359375,-0.06103515625,-5.5755615234375,-62.5396728515625,-38.0126953125
1758527848.6190395,0.88671875,-0.0625,0.431640625,5.37109375,-3.60107421875,-0.42724609375,-5.548095703125,-62.578125,-38.001708984375
1758527848.6292257,0.88671875,-0.0625,0.431640625,5.37109375,-3.60107421875,-0.42724609375,-5.4931640625,-62.611083984375,-37.99072265625
1758527848.6398287,0.89013671875,-0.01953125,0.44384765625,1.46484375,-4.08935546875,-0.67138671875,-5.4547119140625,-62.655029296875,-37.9852294921875
1758527848.6489308,0.89013671875,-0.01953125,0.44384765625,1.46484375,-4.08935546875,-0.67138671875,-5.438232421875,-62.6934814453125,-37.979736328125
1758527848.6590643,0.8857421875,-0.0166015625,0.47265625,-0.9765625,-3.96728515625,-0.67138671875,-5.42724609375,-62.7374267578125,-37.9742431640625
1758527848.669219,0.8857421875,-0.0166015625,0.47265625,-0.9765625,-3.96728515625,-0.67138671875,-5.42724609375,-62.77587890625,-37.9742431640625
1758527848.6790037,0.88037109375,-0.05517578125,0.43359375,0.91552734375,-3.84521484375,-0.6103515625,-5.4217529296875,-62.8143310546875,-37.9742431640625
1758527848.6890137,0.88037109375,-0.05517578125,0.43359375,0.91552734375,-3.84521484375,-0.6103515625,-5.4052734375,-62.852783203125,-37.96875
1758527848.6993413,0.87646484375,-0.07177734375,0.43798828125,2.685546875,-3.96728515625,-0.6103515625,-5.3778076171875,-62.896728515625,-37.9632568359375
1758527848.7090685,0.87646484375,-0.07177734375,0.43798828125,2.685546875,-3.96728515625,-0.6103515625,-5.350341796875,-62.9351806640625,-37.957763671875
1758527848.719211,0.892578125,-0.0224609375,0.451171875,-1.64794921875,-3.84521484375,-0.06103515625,-5.350341796875,-62.9736328125,-37.94677734375
1758527848.729282,0.892578125,-0.0224609375,0.451171875,-1.64794921875,-3.84521484375,-0.06103515625,-5.372314453125,-63.0120849609375,-37.9302978515625
1758527848.7390885,0.8857421875,-0.0224609375,0.44970703125,-3.90625,-3.662109375,0.0,-5.4052734375,-63.050537109375,-37.913818359375
1758527848.7490048,0.8857421875,-0.0224609375,0.44970703125,-3.90625,-3.662109375,0.0,-5.44921875,-63.08349609375,-37.8973388671875
1758527848.7591913,0.88916015625,-0.06982421875,0.44921875,0.0,-3.2958984375,-0.244140625,-5.47119140625,-63.116455078125,-37.8863525390625
1758527848.769146,0.88916015625,-0.06982421875,0.44921875,0.0,-3.2958984375,-0.244140625,-5.47119140625,-63.1494140625,-37.8753662109375
1758527848.7790956,0.91650390625,-0.064453125,0.43212890625,1.52587890625,-2.99072265625,-0.18310546875,-5.4656982421875,-63.182373046875,-37.8643798828125
1758527848.7891607,0.91650390625,-0.064453125,0.43212890625,1.52587890625,-2.99072265625,-0.18310546875,-5.4547119140625,-63.2098388671875,-37.847900390625
1758527848.79944,0.927734375,-0.01953125,0.48583984375,-5.126953125,-2.197265625,0.48828125,-5.482177734375,-63.2373046875,-37.825927734375
1758527848.8092427,0.927734375,-0.01953125,0.48583984375,-5.126953125,-2.197265625,0.48828125,-5.548095703125,-63.25927734375,-37.7984619140625
1758527848.8191595,0.91796875,0.0009765625,0.4208984375,-11.23046875,-2.13623046875,0.9765625,-5.64697265625,-63.2757568359375,-37.77099609375
1758527848.8293388,0.91796875,0.0009765625,0.4208984375,-11.23046875,-2.13623046875,0.9765625,-5.77880859375,-63.2977294921875,-37.738037109375
1758527848.8391843,0.9306640625,-0.07861328125,0.48193359375,-6.591796875,-1.77001953125,1.708984375,-5.888671875,-63.3197021484375,-37.694091796875
1758527848.8491642,0.9306640625,-0.07861328125,0.48193359375,-6.591796875,-1.77001953125,1.708984375,-5.987548828125,-63.336181640625,-37.6446533203125
1758527848.8594651,0.9384765625,-0.12353515625,0.46728515625,4.82177734375,-1.03759765625,2.197265625,-6.0369873046875,-63.34716796875,-37.5897216796875
1758527848.869281,0.9384765625,-0.12353515625,0.46728515625,4.82177734375,-1.03759765625,2.197265625,-6.0369873046875,-63.3526611328125,-37.529296875
1758527848.8792508,0.92236328125,-0.05712890625,0.451171875,4.7607421875,-1.15966796875,1.953125,-6.0369873046875,-63.3636474609375,-37.46337890625
1758527848.8892376,0.92236328125,-0.05712890625,0.451171875,4.7607421875,-1.15966796875,1.953125,-6.0369873046875,-63.369140625,-37.408447265625
1758527848.8994613,0.92431640625,0.015625,0.4453125,-0.244140625,-1.28173828125,1.40380859375,-6.0589599609375,-63.380126953125,-37.353515625
1758527848.9094844,0.92431640625,0.015625,0.4453125,-0.244140625,-1.28173828125,1.40380859375,-6.0919189453125,-63.39111328125,-37.3095703125
1758527848.919411,0.93505859375,-0.00390625,0.4736328125,-2.44140625,-1.52587890625,0.48828125,-6.1248779296875,-63.4075927734375,-37.276611328125
1758527848.9294543,0.93505859375,-0.00390625,0.4736328125,-2.44140625,-1.52587890625,0.48828125,-6.15234375,-63.424072265625,-37.254638671875
1758527848.9394178,0.927734375,-0.0576171875,0.4501953125,-0.9765625,-1.5869140625,0.30517578125,-6.1688232421875,-63.43505859375,-37.2381591796875
1758527848.9492838,0.927734375,-0.0576171875,0.4501953125,-0.9765625,-1.5869140625,0.30517578125,-6.185302734375,-63.4515380859375,-37.2216796875
1758527848.9593902,0.91650390625,-0.05517578125,0.43994140625,-7.75146484375,-2.0751953125,0.8544921875,-6.273193359375,-63.4735107421875,-37.1942138671875
1758527848.9694996,0.91650390625,-0.05517578125,0.43994140625,-7.75146484375,-2.0751953125,0.8544921875,-6.3665771484375,-63.4954833984375,-37.1612548828125
1758527848.9793787,0.900390625,-0.04150390625,0.46240234375,-11.29150390625,-2.5634765625,1.77001953125,-6.514892578125,-63.5174560546875,-37.1063232421875
1758527848.9894543,0.900390625,-0.04150390625,0.46240234375,-11.29150390625,-2.5634765625,1.77001953125,-6.6632080078125,-63.5394287109375,-37.0513916015625
1758527848.9994955,0.900390625,-0.04150390625,0.46240234375,-4.57763671875,-2.0751953125,1.708984375,-6.7401123046875,-63.5614013671875,-37.001953125
1758527849.0093727,0.89404296875,-0.06494140625,0.44775390625,-4.57763671875,-2.0751953125,1.708984375,-6.8170166015625,-63.577880859375,-36.9525146484375
1758527849.0194318,0.8818359375,-0.08740234375,0.41064453125,-0.67138671875,-1.708984375,1.46484375,-6.85546875,-63.5943603515625,-36.903076171875
1758527849.0296783,0.8818359375,-0.08740234375,0.41064453125,-0.67138671875,-1.708984375,1.46484375,-6.8939208984375,-63.61083984375,-36.859130859375
1758527849.0394464,0.8662109375,-0.06640625,0.41162109375,-1.15966796875,-1.28173828125,1.5869140625,-6.943359375,-63.621826171875,-36.8096923828125
1758527849.0495975,0.8662109375,-0.06640625,0.41162109375,-1.15966796875,-1.28173828125,1.5869140625,-6.9873046875,-63.6328125,-36.76025390625
1758527849.0594563,0.87158203125,-0.046875,0.42138671875,-0.91552734375,-0.91552734375,1.40380859375,-7.03125,-63.6383056640625,-36.7108154296875
1758527849.0697134,0.87158203125,-0.046875,0.42138671875,-0.91552734375,-0.91552734375,1.40380859375,-7.0697021484375,-63.6492919921875,-36.6668701171875
1758527849.0794554,0.865234375,-0.0703125,0.43017578125,1.77001953125,-0.6103515625,0.91552734375,-7.0751953125,-63.65478515625,-36.62841796875
1758527849.0896242,0.865234375,-0.0703125,0.43017578125,1.77001953125,-0.6103515625,0.91552734375,-7.0806884765625,-63.6602783203125,-36.595458984375
1758527849.1027765,0.86767578125,-0.06884765625,0.4189453125,7.8125,0.0,0.48828125,-7.0147705078125,-63.6602783203125,-36.5679931640625
1758527849.111516,0.86767578125,-0.06884765625,0.4189453125,7.8125,0.0,0.48828125,-6.9488525390625,-63.6602783203125,-36.5460205078125
1758527849.120182,0.86328125,-0.046875,0.4150390625,7.568359375,0.1220703125,0.1220703125,-6.8829345703125,-63.6602783203125,-36.529541015625
1758527849.1331878,0.86328125,-0.046875,0.4150390625,7.568359375,0.1220703125,0.1220703125,-6.8115234375,-63.6602783203125,-36.507568359375
1758527849.1406012,0.86669921875,-0.052734375,0.43603515625,6.77490234375,0.30517578125,0.0,-6.7510986328125,-63.65478515625,-36.49658203125
1758527849.1495383,0.86669921875,-0.052734375,0.43603515625,6.77490234375,0.30517578125,0.0,-6.6851806640625,-63.65478515625,-36.485595703125
1758527849.1601894,0.86474609375,-0.06787109375,0.42822265625,10.07080078125,0.6103515625,-0.244140625,-6.5863037109375,-63.6492919921875,-36.4801025390625
1758527849.1698577,0.86474609375,-0.06787109375,0.42822265625,10.07080078125,0.6103515625,-0.244140625,-6.4874267578125,-63.643798828125,-36.474609375
1758527849.1797113,0.86767578125,-0.05908203125,0.39794921875,13.916015625,0.6103515625,-1.03759765625,-6.3336181640625,-63.6383056640625,-36.485595703125
1758527849.1895633,0.86767578125,-0.05908203125,0.39794921875,13.916015625,0.6103515625,-1.03759765625,-6.1798095703125,-63.6328125,-36.49658203125
1758527849.2001376,0.880859375,-0.02294921875,0.45654296875,7.50732421875,0.48828125,-0.8544921875,-6.097412109375,-63.6328125,-36.5020751953125
1758527849.2096484,0.880859375,-0.02294921875,0.45654296875,7.50732421875,0.48828125,-0.8544921875,-6.009521484375,-63.6273193359375,-36.507568359375
