timestamp,acc_x,acc_y,acc_z,gyro_x,gyro_y,gyro_z,angle_x,angle_y,angle_z
1758788234.717274,-0.830078125,0.0263671875,0.5595703125,5.79833984375,-0.732421875,-3.11279296875,3.5980224609375,55.4974365234375,-151.2432861328125
1758788234.72661,-0.830078125,0.0263671875,0.5595703125,5.79833984375,-0.732421875,-3.11279296875,3.6090087890625,55.491943359375,-151.292724609375
1758788234.7363868,-0.8271484375,0.02783203125,0.5576171875,5.37109375,-0.67138671875,-3.0517578125,3.614501953125,55.4864501953125,-151.3421630859375
1758788234.7466698,-0.8271484375,0.02783203125,0.5576171875,5.37109375,-0.67138671875,-3.0517578125,3.6199951171875,55.48095703125,-151.3916015625
1758788234.7565598,-0.8212890625,0.03857421875,0.56201171875,6.591796875,-0.9765625,-3.23486328125,3.636474609375,55.4754638671875,-151.446533203125
1758788234.7666883,-0.8212890625,0.03857421875,0.56201171875,6.591796875,-0.9765625,-3.23486328125,3.6529541015625,55.469970703125,-151.4959716796875
1758788234.7765398,-0.82421875,0.0341796875,0.56494140625,7.38525390625,-1.40380859375,-3.47900390625,3.66943359375,55.458984375,-151.556396484375
1758788234.7869983,-0.82421875,0.0341796875,0.56494140625,7.38525390625,-1.40380859375,-3.47900390625,3.69140625,55.447998046875,-151.611328125
1758788234.796018,-0.82568359375,0.03515625,0.5634765625,6.7138671875,-1.5869140625,-3.41796875,3.702392578125,55.43701171875,-151.666259765625
1758788234.8056083,-0.82568359375,0.03515625,0.5634765625,6.7138671875,-1.5869140625,-3.41796875,3.7188720703125,55.4205322265625,-151.72119140625
1758788234.8155231,-0.814453125,0.033203125,0.56689453125,5.126953125,-1.953125,-3.173828125,3.7188720703125,55.404052734375,-151.7706298828125
1758788234.825607,-0.814453125,0.033203125,0.56689453125,5.126953125,-1.953125,-3.173828125,3.7188720703125,55.3875732421875,-151.8255615234375
1758788234.8355384,-0.82080078125,0.03369140625,0.580078125,3.35693359375,-2.38037109375,-3.11279296875,3.7078857421875,55.37109375,-151.875
1758788234.848814,-0.82080078125,0.03369140625,0.580078125,3.35693359375,-2.38037109375,-3.11279296875,3.69140625,55.34912109375,-151.9244384765625
1758788234.8556097,-0.8203125,0.03466796875,0.5712890625,4.21142578125,-2.44140625,-3.35693359375,3.680419921875,55.3271484375,-151.9793701171875
1758788234.8655944,-0.8203125,0.03466796875,0.5712890625,4.21142578125,-2.44140625,-3.35693359375,3.66943359375,55.30517578125,-152.039794921875
1758788234.8756793,-0.81103515625,0.02587890625,0.56201171875,6.9580078125,-2.62451171875,-4.0283203125,3.6749267578125,55.2777099609375,-152.105712890625
1758788234.8856614,-0.81103515625,0.02587890625,0.56201171875,6.9580078125,-2.62451171875,-4.0283203125,3.680419921875,55.2557373046875,-152.171630859375
1758788234.8956091,-0.802734375,0.03125,0.59521484375,11.5966796875,-2.99072265625,-5.06591796875,3.7188720703125,55.228271484375,-152.259521484375
1758788234.905614,-0.802734375,0.03125,0.59521484375,11.5966796875,-2.99072265625,-5.06591796875,3.75732421875,55.2008056640625,-152.347412109375
1758788234.9156277,-0.8134765625,0.0439453125,0.59619140625,14.404296875,-3.47900390625,-5.43212890625,3.8177490234375,55.1678466796875,-152.4407958984375
1758788234.925626,-0.8134765625,0.0439453125,0.59619140625,14.404296875,-3.47900390625,-5.43212890625,3.878173828125,55.1348876953125,-152.5341796875
1758788234.9356332,-0.80712890625,0.03515625,0.576171875,9.09423828125,-3.96728515625,-4.94384765625,3.88916015625,55.096435546875,-152.6220703125
1758788234.9456432,-0.80712890625,0.03515625,0.576171875,9.09423828125,-3.96728515625,-4.94384765625,3.9056396484375,55.0579833984375,-152.7099609375
1758788234.9557226,-0.81298828125,0.037109375,0.5791015625,4.7607421875,-4.2724609375,-4.82177734375,3.8726806640625,55.0140380859375,-152.7923583984375
1758788234.965727,-0.81298828125,0.037109375,0.5791015625,4.7607421875,-4.2724609375,-4.82177734375,3.84521484375,54.9755859375,-152.874755859375
1758788234.9757264,-0.80517578125,0.04541015625,0.5888671875,9.6435546875,-3.96728515625,-6.40869140625,3.84521484375,54.9371337890625,-152.984619140625
1758788234.9857342,-0.80517578125,0.04541015625,0.5888671875,9.6435546875,-3.96728515625,-6.40869140625,3.84521484375,54.898681640625,-153.0999755859375
1758788234.9957266,-0.79248046875,0.05517578125,0.60693359375,15.80810546875,-4.150390625,-8.056640625,3.8836669921875,54.8602294921875,-153.2373046875
1758788235.0057328,-0.79248046875,0.05517578125,0.60693359375,15.80810546875,-4.150390625,-8.056640625,3.9276123046875,54.82177734375,-153.3746337890625
1758788235.0157292,-0.8046875,0.0478515625,0.6083984375,11.71875,-4.150390625,-8.30078125,3.922119140625,54.77783203125,-153.5174560546875
1758788235.0257335,-0.8046875,0.0478515625,0.6083984375,11.71875,-4.150390625,-8.30078125,3.9166259765625,54.7393798828125,-153.665771484375
1758788235.035748,-0.794921875,0.05029296875,0.61328125,6.16455078125,-3.5400390625,-8.30078125,3.8616943359375,54.700927734375,-153.80859375
1758788235.0457764,-0.794921875,0.05029296875,0.61328125,6.16455078125,-3.5400390625,-8.30078125,3.8067626953125,54.66796875,-153.951416015625
1758788235.0557678,-0.77294921875,0.0341796875,0.623046875,5.859375,-3.60107421875,-8.60595703125,3.7408447265625,54.6295166015625,-154.0997314453125
1758788235.065787,-0.77294921875,0.0341796875,0.623046875,5.859375,-3.60107421875,-8.60595703125,3.6749267578125,54.591064453125,-154.2535400390625
1758788235.0757802,-0.77783203125,0.03955078125,0.63525390625,7.50732421875,-4.39453125,-8.9111328125,3.62548828125,54.5416259765625,-154.4073486328125
1758788235.0858054,-0.77783203125,0.03955078125,0.63525390625,7.50732421875,-4.39453125,-8.9111328125,3.5760498046875,54.4921875,-154.566650390625
1758788235.095814,-0.7607421875,0.02783203125,0.6318359375,6.53076171875,-5.4931640625,-7.99560546875,3.526611328125,54.4317626953125,-154.70947265625
1758788235.105852,-0.7607421875,0.02783203125,0.6318359375,6.53076171875,-5.4931640625,-7.99560546875,3.4716796875,54.3658447265625,-154.8577880859375
1758788235.1158397,-0.7705078125,0.009765625,0.654296875,3.0517578125,-5.859375,-6.77490234375,3.40576171875,54.2999267578125,-154.984130859375
1758788235.1258469,-0.7705078125,0.009765625,0.654296875,3.0517578125,-5.859375,-6.77490234375,3.3343505859375,54.228515625,-155.1104736328125
1758788235.135857,-0.76171875,0.00439453125,0.6259765625,5.31005859375,-6.77490234375,-5.67626953125,3.3013916015625,54.151611328125,-155.225830078125
1758788235.1458783,-0.76171875,0.00439453125,0.6259765625,5.31005859375,-6.77490234375,-5.67626953125,3.2684326171875,54.0692138671875,-155.3411865234375
1758788235.1558766,-0.75244140625,-0.013671875,0.642578125,8.7890625,-7.87353515625,-5.37109375,3.2684326171875,53.9813232421875,-155.4510498046875
1758788235.1658971,-0.75244140625,-0.013671875,0.642578125,8.7890625,-7.87353515625,-5.37109375,3.2684326171875,53.887939453125,-155.56640625
1758788235.1758952,-0.76318359375,-0.0068359375,0.6435546875,17.578125,-8.60595703125,-5.9814453125,3.3453369140625,53.7890625,-155.6927490234375
1758788235.185918,-0.76318359375,-0.0068359375,0.6435546875,17.578125,-8.60595703125,-5.9814453125,3.416748046875,53.690185546875,-155.819091796875
1758788235.1959236,-0.76416015625,0.03369140625,0.63037109375,31.79931640625,-8.544921875,-7.9345703125,3.6090087890625,53.59130859375,-155.9783935546875
1758788235.2059758,-0.76416015625,0.03369140625,0.63037109375,31.79931640625,-8.544921875,-7.9345703125,3.7957763671875,53.4979248046875,-156.1431884765625
1758788235.215985,-0.74951171875,0.0400390625,0.615234375,32.16552734375,-9.33837890625,-8.11767578125,3.988037109375,53.3935546875,-156.302490234375
1758788235.2259855,-0.74951171875,0.0400390625,0.615234375,32.16552734375,-9.33837890625,-8.11767578125,4.1802978515625,53.294677734375,-156.46728515625
1758788235.23605,-0.77490234375,0.03173828125,0.6552734375,24.35302734375,-10.31494140625,-7.87353515625,4.2901611328125,53.1793212890625,-156.6265869140625
1758788235.2460642,-0.77490234375,0.03173828125,0.6552734375,24.35302734375,-10.31494140625,-7.87353515625,4.405517578125,53.0694580078125,-156.785888671875
1758788235.2560592,-0.77001953125,0.0302734375,0.65576171875,32.8369140625,-9.21630859375,-8.23974609375,4.603271484375,52.9705810546875,-156.95068359375
1758788235.26604,-0.77001953125,0.0302734375,0.65576171875,32.8369140625,-9.21630859375,-8.23974609375,4.7955322265625,52.8717041015625,-157.115478515625
1758788235.2761045,-0.77685546875,-0.01416015625,0.65234375,44.677734375,-9.94873046875,-8.30078125,5.1031494140625,52.7618408203125,-157.291259765625
1758788235.286071,-0.77685546875,-0.01416015625,0.65234375,44.677734375,-9.94873046875,-8.30078125,5.4052734375,52.657470703125,-157.467041015625
1758788235.2961173,-0.7548828125,0.01708984375,0.63671875,44.73876953125,-11.77978515625,-8.60595703125,5.701904296875,52.53662109375,-157.6483154296875
1758788235.306242,-0.7548828125,0.01708984375,0.63671875,44.73876953125,-11.77978515625,-8.60595703125,5.9930419921875,52.415771484375,-157.8350830078125
1758788235.3163974,-0.8037109375,0.119140625,0.6669921875,31.18896484375,-12.5732421875,-8.60595703125,6.15234375,52.2894287109375,-158.0218505859375
1758788235.3261282,-0.8037109375,0.119140625,0.6669921875,31.18896484375,-12.5732421875,-8.60595703125,6.317138671875,52.1575927734375,-158.1976318359375
1758788235.336172,-0.765625,0.17626953125,0.5986328125,7.50732421875,-12.3291015625,-8.36181640625,6.2567138671875,52.0367431640625,-158.367919921875
1758788235.3461616,-0.765625,0.17626953125,0.5986328125,7.50732421875,-12.3291015625,-8.36181640625,6.2017822265625,51.910400390625,-158.5272216796875
1758788235.3568983,-0.783203125,0.140625,0.6240234375,-8.72802734375,-11.90185546875,-8.30078125,5.9930419921875,51.7950439453125,-158.6810302734375
1758788235.3661575,-0.783203125,0.140625,0.6240234375,-8.72802734375,-11.90185546875,-8.30078125,5.789794921875,51.6796875,-158.8238525390625
1758788235.3762302,-0.7548828125,0.0341796875,0.62255859375,-11.41357421875,-11.65771484375,-8.48388671875,5.5645751953125,51.5643310546875,-158.97216796875
1758788235.3862507,-0.7548828125,0.0341796875,0.62255859375,-11.41357421875,-11.65771484375,-8.48388671875,5.3338623046875,51.448974609375,-159.114990234375
1758788235.3971493,-0.767578125,-0.01708984375,0.6396484375,-6.8359375,-11.90185546875,-7.75146484375,5.1580810546875,51.3336181640625,-159.2523193359375
1758788235.4080868,-0.767578125,-0.01708984375,0.6396484375,-6.8359375,-11.90185546875,-7.75146484375,4.9822998046875,51.21826171875,-159.3896484375
1758788235.4169765,-0.763671875,-0.02001953125,0.693359375,8.97216796875,-11.474609375,-7.4462890625,4.9603271484375,51.1029052734375,-159.5269775390625
1758788235.426266,-0.763671875,-0.02001953125,0.693359375,8.97216796875,-11.474609375,-7.4462890625,4.9383544921875,50.9930419921875,-159.664306640625
1758788235.4368625,-0.74658203125,0.029296875,0.67236328125,21.66748046875,-10.55908203125,-8.544921875,5.03173828125,50.888671875,-159.8236083984375
1758788235.4462624,-0.74658203125,0.029296875,0.67236328125,21.66748046875,-10.55908203125,-8.544921875,5.11962890625,50.7843017578125,-159.98291015625
1758788235.4562798,-0.76318359375,0.05126953125,0.6484375,25.32958984375,-9.765625,-8.9111328125,5.240478515625,50.6854248046875,-160.1422119140625
1758788235.4662805,-0.76318359375,0.05126953125,0.6484375,25.32958984375,-9.765625,-8.9111328125,5.3668212890625,50.592041015625,-160.3070068359375
1758788235.4766788,-0.78857421875,0.06005859375,0.67529296875,20.81298828125,-10.986328125,-7.87353515625,5.4547119140625,50.482177734375,-160.4498291015625
1758788235.4863243,-0.78857421875,0.06005859375,0.67529296875,20.81298828125,-10.986328125,-7.87353515625,5.5426025390625,50.3778076171875,-160.5926513671875
1758788235.4963608,-0.75048828125,0.0166015625,0.53271484375,12.26806640625,-11.29150390625,-5.43212890625,5.5755615234375,50.2679443359375,-160.697021484375
1758788235.5063872,-0.75048828125,0.0166015625,0.53271484375,12.26806640625,-11.29150390625,-5.43212890625,5.6085205078125,50.16357421875,-160.8013916015625
1758788235.5168064,-0.7734375,0.0322265625,0.57080078125,13.7939453125,-10.19287109375,-5.92041015625,5.6524658203125,50.0701904296875,-160.90576171875
1758788235.526406,-0.7734375,0.0322265625,0.57080078125,13.7939453125,-10.19287109375,-5.92041015625,5.6964111328125,49.9822998046875,-161.0101318359375
1758788235.5372207,-0.818359375,0.052734375,0.70556640625,25.7568359375,-8.60595703125,-6.8359375,5.8447265625,49.9053955078125,-161.12548828125
1758788235.5464032,-0.818359375,0.052734375,0.70556640625,25.7568359375,-8.60595703125,-6.8359375,5.99853515625,49.833984375,-161.2408447265625
1758788235.5570004,-0.78076171875,0.080078125,0.6474609375,28.076171875,-7.080078125,-8.056640625,6.163330078125,49.7735595703125,-161.3726806640625
1758788235.5663695,-0.78076171875,0.080078125,0.6474609375,28.076171875,-7.080078125,-8.056640625,6.328125,49.7186279296875,-161.5045166015625
1758788235.5764363,-0.7724609375,0.10498046875,0.61083984375,18.49365234375,-7.50732421875,-7.8125,6.3995361328125,49.658203125,-161.630859375
1758788235.5866284,-0.7724609375,0.10498046875,0.61083984375,18.49365234375,-7.50732421875,-7.8125,6.4764404296875,49.5977783203125,-161.751708984375
1758788235.5971131,-0.79931640625,0.0986328125,0.63720703125,5.9814453125,-7.2021484375,-6.28662109375,6.448974609375,49.5428466796875,-161.8450927734375
1758788235.6064272,-0.79931640625,0.0986328125,0.63720703125,5.9814453125,-7.2021484375,-6.28662109375,6.4215087890625,49.482421875,-161.9384765625
1758788235.6165082,-0.751953125,0.068359375,0.64404296875,-3.60107421875,-6.7138671875,-4.638671875,6.3226318359375,49.427490234375,-162.00439453125
1758788235.627094,-0.751953125,0.068359375,0.64404296875,-3.60107421875,-6.7138671875,-4.638671875,6.21826171875,49.37255859375,-162.0703125
1758788235.6365426,-0.77490234375,0.04736328125,0.65869140625,-0.244140625,-6.77490234375,-4.5166015625,6.15234375,49.317626953125,-162.13623046875
1758788235.646484,-0.77490234375,0.04736328125,0.65869140625,-0.244140625,-6.77490234375,-4.5166015625,6.08642578125,49.2626953125,-162.1966552734375
1758788235.6565824,-0.798828125,0.0498046875,0.62646484375,7.75146484375,-5.92041015625,-4.57763671875,6.1029052734375,49.21875,-162.2625732421875
1758788235.6670449,-0.798828125,0.0498046875,0.62646484375,7.75146484375,-5.92041015625,-4.57763671875,6.1138916015625,49.1693115234375,-162.3284912109375
1758788235.6766846,-0.73095703125,0.09375,0.61767578125,3.90625,-7.4462890625,-4.150390625,6.0919189453125,49.10888671875,-162.3834228515625
1758788235.686544,-0.73095703125,0.09375,0.61767578125,3.90625,-7.4462890625,-4.150390625,6.075439453125,49.0484619140625,-162.4383544921875
1758788235.6967282,-0.7705078125,0.06689453125,0.634765625,-4.82177734375,-6.77490234375,-1.89208984375,5.99853515625,48.9935302734375,-162.4603271484375
1758788235.7099056,-0.7705078125,0.06689453125,0.634765625,-4.82177734375,-6.77490234375,-1.89208984375,5.921630859375,48.93310546875,-162.4822998046875
1758788235.7184126,-0.7109375,0.0205078125,0.6767578125,-4.638671875,-6.53076171875,-1.220703125,5.8502197265625,48.878173828125,-162.4932861328125
1758788235.7265542,-0.7109375,0.0205078125,0.6767578125,-4.638671875,-6.53076171875,-1.220703125,5.77880859375,48.8177490234375,-162.5042724609375
1758788235.7372625,-0.7421875,0.0078125,0.66796875,6.28662109375,-5.92041015625,-1.15966796875,5.8172607421875,48.768310546875,-162.520751953125
1758788235.7467175,-0.77001953125,0.029296875,0.66845703125,16.66259765625,-6.34765625,-1.15966796875,5.899658203125,48.71337890625,-162.5372314453125
1758788235.7565827,-0.77001953125,0.029296875,0.66845703125,16.66259765625,-6.34765625,-1.15966796875,6.0369873046875,48.6529541015625,-162.5592041015625
1758788235.7665389,-0.7490234375,0.11083984375,0.60986328125,1.40380859375,-6.591796875,0.0,6.1029052734375,48.592529296875,-162.5701904296875
1758788235.777251,-0.7490234375,0.11083984375,0.60986328125,1.40380859375,-6.591796875,0.0,6.097412109375,48.5321044921875,-162.5701904296875
1758788235.7869024,-0.79296875,0.13134765625,0.703125,-13.427734375,-7.01904296875,1.89208984375,6.0369873046875,48.4716796875,-162.5482177734375
1758788235.796765,-0.79296875,0.13134765625,0.703125,-13.427734375,-7.01904296875,1.89208984375,5.9161376953125,48.40576171875,-162.5152587890625
1758788235.8066878,-0.76806640625,0.07763671875,0.62158203125,-19.83642578125,-6.2255859375,2.0751953125,5.767822265625,48.3453369140625,-162.476806640625
1758788235.8170993,-0.76806640625,0.07763671875,0.62158203125,-19.83642578125,-6.2255859375,2.0751953125,5.592041015625,48.284912109375,-162.432861328125
1758788235.82666,-0.72412109375,0.0341796875,0.658203125,-12.939453125,-7.4462890625,2.685546875,5.44921875,48.2244873046875,-162.388916015625
1758788235.837552,-0.72412109375,0.0341796875,0.658203125,-12.939453125,-7.4462890625,2.685546875,5.3448486328125,48.153076171875,-162.3394775390625
1758788235.846716,-0.73486328125,-0.01904296875,0.7236328125,-0.18310546875,-8.60595703125,2.74658203125,5.306396484375,48.076171875,-162.2900390625
1758788235.8574324,-0.73486328125,-0.01904296875,0.7236328125,-0.18310546875,-8.60595703125,2.74658203125,5.3228759765625,47.9937744140625,-162.2515869140625
1758788235.8666768,-0.7060546875,0.06298828125,0.68701171875,2.13623046875,-9.033203125,3.47900390625,5.350341796875,47.9058837890625,-162.2076416015625
1758788235.8768342,-0.7060546875,0.06298828125,0.68701171875,2.13623046875,-9.033203125,3.47900390625,5.394287109375,47.8179931640625,-162.1636962890625
1758788235.8867056,-0.736328125,0.07958984375,0.65673828125,1.708984375,-8.60595703125,3.72314453125,5.438232421875,47.724609375,-162.1142578125
1758788235.897468,-0.736328125,0.07958984375,0.65673828125,1.708984375,-8.60595703125,3.72314453125,5.482177734375,47.6422119140625,-162.059326171875
1758788235.906715,-0.74951171875,0.09228515625,0.64453125,-2.01416015625,-8.72802734375,4.150390625,5.5096435546875,47.5543212890625,-161.9989013671875
1758788235.9169335,-0.74951171875,0.09228515625,0.64453125,-2.01416015625,-8.72802734375,4.150390625,5.526123046875,47.4664306640625,-161.9329833984375
1758788235.926805,-0.70458984375,0.08056640625,0.67578125,-4.82177734375,-9.94873046875,4.2724609375,5.526123046875,47.373046875,-161.8670654296875
1758788235.9373465,-0.70458984375,0.08056640625,0.67578125,-4.82177734375,-9.94873046875,4.2724609375,5.51513671875,47.274169921875,-161.8011474609375
1758788235.9468038,-0.7060546875,0.11328125,0.6630859375,-23.86474609375,-10.92529296875,4.94384765625,5.416259765625,47.1697998046875,-161.729736328125
1758788235.9568799,-0.7060546875,0.11328125,0.6630859375,-23.86474609375,-10.92529296875,4.94384765625,5.2239990234375,47.0599365234375,-161.65283203125
1758788235.9667752,-0.68994140625,0.0927734375,0.72314453125,-26.06201171875,-12.14599609375,5.615234375,5.0262451171875,46.944580078125,-161.56494140625
1758788235.9775486,-0.68994140625,0.0927734375,0.72314453125,-26.06201171875,-12.14599609375,5.615234375,4.8284912109375,46.8182373046875,-161.47705078125
1758788235.986944,-0.67724609375,0.01171875,0.80615234375,-19.53125,-11.65771484375,6.7138671875,4.6636962890625,46.69189453125,-161.3836669921875
1758788235.9969544,-0.67724609375,0.01171875,0.80615234375,-19.53125,-11.65771484375,6.7138671875,4.537353515625,46.571044921875,-161.2847900390625
1758788236.0068235,-0.67626953125,0.03076171875,0.7041015625,-8.48388671875,-12.51220703125,5.67626953125,4.4549560546875,46.439208984375,-161.202392578125
1758788236.0172906,-0.67626953125,0.03076171875,0.7041015625,-8.48388671875,-12.51220703125,5.67626953125,4.427490234375,46.3018798828125,-161.1199951171875
1758788236.0269246,-0.654296875,0.04443359375,0.74658203125,-11.1083984375,-14.5263671875,7.01904296875,4.383544921875,46.153564453125,-161.03759765625
1758788236.0369632,-0.654296875,0.04443359375,0.74658203125,-11.1083984375,-14.5263671875,7.01904296875,4.339599609375,45.999755859375,-160.9442138671875
1758788236.0469594,-0.697265625,0.09619140625,0.74169921875,-26.2451171875,-14.892578125,7.75146484375,4.21875,45.8349609375,-160.850830078125
1758788236.0577142,-0.697265625,0.09619140625,0.74169921875,-26.2451171875,-14.892578125,7.75146484375,4.031982421875,45.6756591796875,-160.7464599609375
1758788236.0669272,-0.697265625,0.09619140625,0.74169921875,-25.2685546875,-15.68603515625,7.6904296875,3.8507080078125,45.50537109375,-160.64208984375
1758788236.0770264,-0.6083984375,0.0859375,0.73291015625,-25.2685546875,-15.68603515625,7.6904296875,3.6749267578125,45.3350830078125,-160.5322265625
1758788236.086987,-0.6171875,0.02880859375,0.75341796875,-12.26806640625,-14.7705078125,6.89697265625,3.5595703125,45.164794921875,-160.433349609375
1758788236.0973942,-0.6171875,0.02880859375,0.75341796875,-12.26806640625,-14.7705078125,6.89697265625,3.504638671875,45.0054931640625,-160.3399658203125
1758788236.1069493,-0.65185546875,-0.0107421875,0.78564453125,1.3427734375,-14.892578125,6.40869140625,3.515625,44.835205078125,-160.2520751953125
1758788236.1170628,-0.65185546875,-0.0107421875,0.78564453125,1.3427734375,-14.892578125,6.40869140625,3.5870361328125,44.67041015625,-160.1751708984375
1758788236.1270463,-0.61083984375,-0.03857421875,0.77880859375,20.81298828125,-16.66259765625,5.9814453125,3.746337890625,44.49462890625,-160.103759765625
1758788236.1374946,-0.61083984375,-0.03857421875,0.77880859375,20.81298828125,-16.66259765625,5.9814453125,3.9990234375,44.307861328125,-160.037841796875
1758788236.1469576,-0.6298828125,0.00341796875,0.82861328125,28.6865234375,-17.9443359375,5.31005859375,4.273681640625,44.110107421875,-159.9884033203125
1758788236.1570969,-0.6298828125,0.00341796875,0.82861328125,28.6865234375,-17.9443359375,5.31005859375,4.5867919921875,43.912353515625,-159.949951171875
1758788236.1669612,-0.611328125,0.146484375,0.810546875,7.6904296875,-19.22607421875,5.67626953125,4.7900390625,43.70361328125,-159.9114990234375
1758788236.1774836,-0.611328125,0.146484375,0.810546875,7.6904296875,-19.22607421875,5.67626953125,4.8944091796875,43.48388671875,-159.8675537109375
1758788236.1869688,-0.548828125,0.18896484375,0.7265625,-9.765625,-18.798828125,5.0048828125,4.910888671875,43.2696533203125,-159.8236083984375
1758788236.1971169,-0.548828125,0.18896484375,0.7265625,-9.765625,-18.798828125,5.0048828125,4.844970703125,43.055419921875,-159.774169921875
1758788236.207006,-0.6376953125,0.09033203125,0.814453125,-12.451171875,-19.59228515625,5.4931640625,4.7735595703125,42.8411865234375,-159.7247314453125
1758788236.2175426,-0.6376953125,0.09033203125,0.814453125,-12.451171875,-19.59228515625,5.4931640625,4.691162109375,42.615966796875,-159.664306640625
1758788236.2270107,-0.638671875,-0.02587890625,0.82177734375,2.197265625,-19.04296875,4.57763671875,4.6746826171875,42.4017333984375,-159.6148681640625
1758788236.2371984,-0.638671875,-0.02587890625,0.82177734375,2.197265625,-19.04296875,4.57763671875,4.72412109375,42.1875,-159.576416015625
1758788236.247263,-0.61279296875,-0.01708984375,0.6962890625,19.10400390625,-18.1884765625,2.74658203125,4.844970703125,41.978759765625,-159.5489501953125
1758788236.2572596,-0.61279296875,-0.01708984375,0.6962890625,19.10400390625,-18.1884765625,2.74658203125,5.042724609375,41.781005859375,-159.532470703125
1758788236.2670424,-0.61962890625,0.0419921875,0.7509765625,33.69140625,-18.6767578125,1.15966796875,5.29541015625,41.5777587890625,-159.532470703125
1758788236.2771926,-0.61962890625,0.0419921875,0.7509765625,33.69140625,-18.6767578125,1.15966796875,5.614013671875,41.3800048828125,-159.5379638671875
1758788236.2876952,-0.6962890625,0.05126953125,0.93017578125,38.6962890625,-18.49365234375,0.732421875,5.9490966796875,41.1822509765625,-159.554443359375
1758788236.2972298,-0.6962890625,0.05126953125,0.93017578125,38.6962890625,-18.49365234375,0.732421875,6.3116455078125,40.9844970703125,-159.5709228515625
1758788236.309023,-0.6328125,0.11083984375,0.73974609375,26.06201171875,-16.90673828125,0.54931640625,6.602783203125,40.7977294921875,-159.5928955078125
1758788236.3177555,-0.6328125,0.11083984375,0.73974609375,26.06201171875,-16.90673828125,0.54931640625,6.83349609375,40.616455078125,-159.609375
1758788236.3277397,-0.6328125,0.11083984375,0.73974609375,4.08935546875,-14.83154296875,0.79345703125,6.9598388671875,40.45166015625,-159.620361328125
1758788236.3377936,-0.65673828125,0.18505859375,0.69580078125,4.08935546875,-14.83154296875,0.79345703125,6.9818115234375,40.2978515625,-159.620361328125
1758788236.347143,-0.7021484375,0.1767578125,0.744140625,-14.0380859375,-10.498046875,-0.67138671875,6.9158935546875,40.1715087890625,-159.620361328125
1758788236.3573284,-0.7021484375,0.1767578125,0.744140625,-14.0380859375,-10.498046875,-0.67138671875,6.756591796875,40.067138671875,-159.6148681640625
1758788236.3673472,-0.66357421875,0.1318359375,0.74365234375,-14.7705078125,-7.50732421875,-0.6103515625,6.602783203125,39.979248046875,-159.6038818359375
1758788236.3772595,-0.66357421875,0.1318359375,0.74365234375,-14.7705078125,-7.50732421875,-0.6103515625,6.448974609375,39.9078369140625,-159.58740234375
1758788236.3871393,-0.7236328125,0.04541015625,0.80908203125,-13.18359375,-6.16455078125,-0.91552734375,6.30615234375,39.847412109375,-159.5709228515625
1758788236.3973446,-0.7236328125,0.04541015625,0.80908203125,-13.18359375,-6.16455078125,-0.91552734375,6.1688232421875,39.79248046875,-159.554443359375
1758788236.4077568,-0.66455078125,0.03955078125,0.7705078125,-5.859375,-5.43212890625,-1.3427734375,6.064453125,39.7430419921875,-159.54345703125
1758788236.4173543,-0.66455078125,0.03955078125,0.7705078125,-5.859375,-5.43212890625,-1.3427734375,5.9930419921875,39.693603515625,-159.532470703125
1758788236.4272373,-0.64306640625,0.05517578125,0.69384765625,13.12255859375,-5.126953125,-1.89208984375,6.009521484375,39.649658203125,-159.5269775390625
1758788236.4376032,-0.64306640625,0.05517578125,0.69384765625,13.12255859375,-5.126953125,-1.89208984375,6.119384765625,39.6112060546875,-159.521484375
1758788236.4472558,-0.64892578125,0.11669921875,0.64892578125,-2.38037109375,-4.45556640625,-2.0751953125,6.15234375,39.57275390625,-159.5159912109375
1758788236.4574015,-0.64892578125,0.11669921875,0.64892578125,-2.38037109375,-4.45556640625,-2.0751953125,6.1083984375,39.5452880859375,-159.510498046875
1758788236.4672313,-0.67626953125,0.166015625,0.7587890625,-22.52197265625,-5.55419921875,-1.3427734375,5.965576171875,39.5068359375,-159.4940185546875
1758788236.4775825,-0.67626953125,0.166015625,0.7587890625,-22.52197265625,-5.55419921875,-1.3427734375,5.73486328125,39.4683837890625,-159.4720458984375
1758788236.487288,-0.66552734375,0.11376953125,0.77880859375,-20.69091796875,-5.4931640625,-0.6103515625,5.5206298828125,39.429931640625,-159.4390869140625
1758788236.497428,-0.66552734375,0.11376953125,0.77880859375,-20.69091796875,-5.4931640625,-0.6103515625,5.3173828125,39.385986328125,-159.4061279296875
1758788236.5072773,-0.6845703125,0.08544921875,0.76708984375,-25.69580078125,-6.28662109375,-0.1220703125,5.0921630859375,39.342041015625,-159.3621826171875
1758788236.5179372,-0.6845703125,0.08544921875,0.76708984375,-25.69580078125,-6.28662109375,-0.1220703125,4.844970703125,39.2926025390625,-159.32373046875
1758788236.5272954,-0.68994140625,0.1298828125,0.68212890625,-40.0390625,-4.45556640625,-0.42724609375,4.5263671875,39.254150390625,-159.2742919921875
1758788236.5374525,-0.68994140625,0.1298828125,0.68212890625,-40.0390625,-4.45556640625,-0.42724609375,4.1363525390625,39.2266845703125,-159.224853515625
1758788236.5473902,-0.60595703125,0.04296875,0.63037109375,-23.98681640625,-2.62451171875,-0.06103515625,3.834228515625,39.210205078125,-159.169921875
1758788236.5579267,-0.60595703125,0.04296875,0.63037109375,-23.98681640625,-2.62451171875,-0.06103515625,3.614501953125,39.2047119140625,-159.10400390625
1758788236.5673313,-0.69970703125,-0.08251953125,0.7861328125,5.7373046875,-3.0517578125,-1.0986328125,3.53759765625,39.1937255859375,-159.0545654296875
1758788236.5775137,-0.69970703125,-0.08251953125,0.7861328125,5.7373046875,-3.0517578125,-1.0986328125,3.592529296875,39.188232421875,-159.01611328125
1758788236.587427,-0.7392578125,-0.13818359375,0.8740234375,49.072265625,-4.39453125,-2.62451171875,3.856201171875,39.166259765625,-158.994140625
1758788236.5982978,-0.7392578125,-0.13818359375,0.8740234375,49.072265625,-4.39453125,-2.62451171875,4.3121337890625,39.144287109375,-158.9996337890625
1758788236.6092544,-0.62255859375,0.04150390625,0.67529296875,36.376953125,-3.84521484375,-3.173828125,4.6966552734375,39.122314453125,-159.0106201171875
1758788236.6179385,-0.62255859375,0.04150390625,0.67529296875,36.376953125,-3.84521484375,-3.173828125,5.009765625,39.100341796875,-159.027099609375
1758788236.6274319,-0.63330078125,0.25048828125,0.72265625,2.50244140625,-3.84521484375,-2.197265625,5.16357421875,39.0838623046875,-159.0325927734375
1758788236.6380079,-0.63330078125,0.25048828125,0.72265625,2.50244140625,-3.84521484375,-2.197265625,5.16357421875,39.0618896484375,-159.027099609375
1758788236.6474085,-0.5947265625,0.19384765625,0.689453125,-21.6064453125,-1.89208984375,-1.8310546875,5.0482177734375,39.0509033203125,-159.005126953125
1758788236.6575348,-0.5947265625,0.19384765625,0.689453125,-21.6064453125,-1.89208984375,-1.8310546875,4.8284912109375,39.0509033203125,-158.9776611328125
1758788236.6674404,-0.64208984375,0.0966796875,0.783203125,-26.91650390625,-3.0517578125,-1.40380859375,4.581298828125,39.04541015625,-158.9447021484375
1758788236.6780338,-0.64208984375,0.0966796875,0.783203125,-26.91650390625,-3.0517578125,-1.40380859375,4.3121337890625,39.0289306640625,-158.9117431640625
1758788236.6875076,-0.6875,-0.06591796875,0.8193359375,-6.591796875,-2.38037109375,-1.953125,4.1473388671875,39.0179443359375,-158.88427734375
1758788236.6976564,-0.6875,-0.06591796875,0.8193359375,-6.591796875,-2.38037109375,-1.953125,4.0704345703125,39.0069580078125,-158.8623046875
1758788236.7075822,-0.6455078125,-0.115234375,0.73291015625,27.89306640625,-2.8076171875,-4.21142578125,4.15283203125,38.9959716796875,-158.8677978515625
1758788236.7180908,-0.6455078125,-0.115234375,0.73291015625,27.89306640625,-2.8076171875,-4.21142578125,4.3890380859375,38.9794921875,-158.895263671875
1758788236.7275538,-0.67529296875,-0.02734375,0.798828125,53.22265625,-3.7841796875,-6.04248046875,4.735107421875,38.9630126953125,-158.939208984375
1758788236.7376518,-0.67529296875,-0.02734375,0.798828125,53.22265625,-3.7841796875,-6.04248046875,5.196533203125,38.9410400390625,-158.994140625
1758788236.7477589,-0.70166015625,0.0751953125,0.8623046875,46.20361328125,-2.9296875,-6.65283203125,5.614013671875,38.924560546875,-159.06005859375
1758788236.7581155,-0.70166015625,0.0751953125,0.8623046875,46.20361328125,-2.9296875,-6.65283203125,5.99853515625,38.91357421875,-159.1314697265625
1758788236.767555,-0.65771484375,0.18359375,0.74365234375,29.35791015625,-2.685546875,-6.34765625,6.3006591796875,38.902587890625,-159.1973876953125
1758788236.7776842,-0.65771484375,0.18359375,0.74365234375,29.35791015625,-2.685546875,-6.34765625,6.5203857421875,38.8916015625,-159.2578125
1758788236.7879226,-0.66796875,0.1357421875,0.73828125,10.986328125,-2.685546875,-6.77490234375,6.6522216796875,38.8861083984375,-159.312744140625
1758788236.7978861,-0.66796875,0.1357421875,0.73828125,10.986328125,-2.685546875,-6.77490234375,6.6961669921875,38.8751220703125,-159.3731689453125
1758788236.807594,-0.6337890625,0.18505859375,0.72705078125,-8.7890625,-2.25830078125,-7.14111328125,6.6412353515625,38.86962890625,-159.4281005859375
1758788236.8176877,-0.6337890625,0.18505859375,0.72705078125,-8.7890625,-2.25830078125,-7.14111328125,6.492919921875,38.86962890625,-159.4830322265625
1758788236.8278608,-0.61669921875,0.1103515625,0.75927734375,-7.75146484375,-1.64794921875,-8.36181640625,6.35009765625,38.86962890625,-159.54345703125
1758788236.8378618,-0.61669921875,0.1103515625,0.75927734375,-7.75146484375,-1.64794921875,-8.36181640625,6.2127685546875,38.8751220703125,-159.609375
1758788236.8476725,-0.650390625,0.03271484375,0.81005859375,-0.6103515625,-2.38037109375,-9.033203125,6.13037109375,38.86962890625,-159.686279296875
1758788236.8577774,-0.650390625,0.03271484375,0.81005859375,-0.6103515625,-2.38037109375,-9.033203125,6.053466796875,38.8641357421875,-159.7686767578125
1758788236.8681283,-0.68115234375,0.03857421875,0.74755859375,1.953125,-2.25830078125,-8.48388671875,6.0040283203125,38.858642578125,-159.8455810546875
1758788236.8778193,-0.68115234375,0.03857421875,0.74755859375,1.953125,-2.25830078125,-8.48388671875,5.9490966796875,38.8531494140625,-159.9224853515625
1758788236.8877044,-0.62255859375,0.0322265625,0.7822265625,-3.96728515625,-3.60107421875,-8.7890625,5.833740234375,38.836669921875,-160.0048828125
1758788236.8978052,-0.62255859375,0.0322265625,0.7822265625,-3.96728515625,-3.60107421875,-8.7890625,5.7183837890625,38.8201904296875,-160.0927734375
1758788236.908381,-0.61279296875,0.06787109375,0.798828125,8.85009765625,-2.5634765625,-9.46044921875,5.723876953125,38.8092041015625,-160.191650390625
1758788236.9178183,-0.61279296875,0.06787109375,0.798828125,8.85009765625,-2.5634765625,-9.46044921875,5.7293701171875,38.7982177734375,-160.29052734375
1758788236.9277349,-0.60986328125,0.0341796875,0.78662109375,20.08056640625,-3.47900390625,-9.8876953125,5.8392333984375,38.7762451171875,-160.3948974609375
1758788236.9378312,-0.60986328125,0.0341796875,0.78662109375,20.08056640625,-3.47900390625,-9.8876953125,5.95458984375,38.759765625,-160.5047607421875
1758788236.9483855,-0.60400390625,0.11767578125,0.74267578125,1.953125,-2.01416015625,-10.25390625,5.8831787109375,38.748779296875,-160.6146240234375
1758788236.957837,-0.60400390625,0.11767578125,0.74267578125,1.953125,-2.01416015625,-10.25390625,5.8172607421875,38.7432861328125,-160.7244873046875
1758788236.9677527,-0.5986328125,0.181640625,0.76806640625,-10.68115234375,-0.91552734375,-9.46044921875,5.6304931640625,38.748779296875,-160.81787109375
1758788236.9781036,-0.5986328125,0.181640625,0.76806640625,-10.68115234375,-0.91552734375,-9.46044921875,5.4547119140625,38.748779296875,-160.90576171875
1758788236.9885123,-0.59130859375,0.0888671875,0.86181640625,-18.00537109375,-0.67138671875,-9.521484375,5.20751953125,38.748779296875,-160.9991455078125
1758788236.998074,-0.59130859375,0.0888671875,0.86181640625,-18.00537109375,-0.67138671875,-9.521484375,4.9603271484375,38.748779296875,-161.092529296875
1758788237.007905,-0.61767578125,0.01513671875,0.8115234375,-10.7421875,1.28173828125,-9.8876953125,4.7845458984375,38.7652587890625,-161.19140625
1758788237.0179145,-0.61767578125,0.01513671875,0.8115234375,-10.7421875,1.28173828125,-9.8876953125,4.6087646484375,38.78173828125,-161.290283203125
1758788237.0284884,-0.63623046875,0.048828125,0.79296875,-3.47900390625,3.47900390625,-10.3759765625,4.4989013671875,38.8201904296875,-161.3946533203125
1758788237.0378816,-0.63623046875,0.048828125,0.79296875,-3.47900390625,3.47900390625,-10.3759765625,4.383544921875,38.858642578125,-161.4990234375
1758788237.0478575,-0.69873046875,0.07861328125,0.77587890625,-7.14111328125,8.056640625,-11.3525390625,4.2352294921875,38.9410400390625,-161.6143798828125
1758788237.0579107,-0.69873046875,0.07861328125,0.77587890625,-7.14111328125,8.056640625,-11.3525390625,4.0814208984375,39.0289306640625,-161.7242431640625
1758788237.0684469,-0.69873046875,0.07861328125,0.77587890625,-10.80322265625,13.18359375,-11.962890625,3.8946533203125,39.166259765625,-161.8341064453125
1758788237.0779114,-0.64990234375,0.0849609375,0.69140625,-10.80322265625,13.18359375,-11.962890625,3.7078857421875,39.30908203125,-161.9384765625
1758788237.0878668,-0.662109375,0.015625,0.712890625,6.7138671875,15.13671875,-14.09912109375,3.6749267578125,39.473876953125,-162.0703125
1758788237.0979228,-0.662109375,0.015625,0.712890625,6.7138671875,15.13671875,-14.09912109375,3.6419677734375,39.6331787109375,-162.2076416015625
1758788237.108439,-0.6591796875,-0.0791015625,0.78466796875,33.38623046875,14.95361328125,-16.6015625,3.84521484375,39.7979736328125,-162.3834228515625
1758788237.117966,-0.6591796875,-0.0791015625,0.78466796875,33.38623046875,14.95361328125,-16.6015625,4.0484619140625,39.957275390625,-162.5592041015625
1758788237.1278985,-0.626953125,-0.03515625,0.86669921875,49.86572265625,11.16943359375,-17.333984375,4.39453125,40.0836181640625,-162.7569580078125
1758788237.137924,-0.626953125,-0.03515625,0.86669921875,49.86572265625,11.16943359375,-17.333984375,4.7406005859375,40.2044677734375,-162.960205078125
1758788237.1484876,-0.599609375,0.14453125,0.8212890625,19.1650390625,7.87353515625,-15.07568359375,4.7955322265625,40.286865234375,-163.1414794921875
1758788237.1579418,-0.599609375,0.14453125,0.8212890625,19.1650390625,7.87353515625,-15.07568359375,4.85595703125,40.3692626953125,-163.3172607421875
1758788237.1679466,-0.49951171875,0.19921875,0.7431640625,-9.8876953125,4.82177734375,-11.65771484375,4.658203125,40.4132080078125,-163.4490966796875
1758788237.1779628,-0.49951171875,0.19921875,0.7431640625,-9.8876953125,4.82177734375,-11.65771484375,4.4659423828125,40.4571533203125,-163.5809326171875
1758788237.1885629,-0.60693359375,0.04052734375,0.86279296875,-23.4375,1.3427734375,-9.27734375,4.163818359375,40.4571533203125,-163.6907958984375
1758788237.1980884,-0.60693359375,0.04052734375,0.86279296875,-23.4375,1.3427734375,-9.27734375,3.856201171875,40.462646484375,-163.8006591796875
1758788237.2094533,-0.62353515625,-0.05029296875,0.826171875,-6.34765625,0.30517578125,-8.6669921875,3.724365234375,40.45166015625,-163.9105224609375
1758788237.218125,-0.62353515625,-0.05029296875,0.826171875,-6.34765625,0.30517578125,-8.6669921875,3.5870361328125,40.440673828125,-164.0203857421875
1758788237.228597,-0.623046875,-0.09912109375,0.7060546875,17.333984375,-1.0986328125,-10.68115234375,3.658447265625,40.418701171875,-164.1632080078125
1758788237.2380254,-0.623046875,-0.09912109375,0.7060546875,17.333984375,-1.0986328125,-10.68115234375,3.7298583984375,40.4022216796875,-164.3115234375
1758788237.2481089,-0.640625,0.00244140625,0.68408203125,36.31591796875,-0.54931640625,-12.451171875,3.9715576171875,40.3912353515625,-164.476318359375
1758788237.2580621,-0.640625,0.00244140625,0.68408203125,36.31591796875,-0.54931640625,-12.451171875,4.207763671875,40.3857421875,-164.6466064453125
1758788237.2685323,-0.6962890625,0.03466796875,0.83935546875,40.283203125,-0.244140625,-13.0615234375,4.482421875,40.3857421875,-164.8223876953125
1758788237.2781088,-0.6962890625,0.03466796875,0.83935546875,40.283203125,-0.244140625,-13.0615234375,4.757080078125,40.3857421875,-164.99267578125
1758788237.2881165,-0.66748046875,0.078125,0.73974609375,28.4423828125,-0.30517578125,-12.87841796875,4.910888671875,40.3857421875,-165.1629638671875
1758788237.298681,-0.66748046875,0.078125,0.73974609375,28.4423828125,-0.30517578125,-12.87841796875,5.0701904296875,40.3912353515625,-165.3277587890625
1758788237.3086548,-0.70263671875,0.07080078125,0.68994140625,28.25927734375,0.3662109375,-13.24462890625,5.2239990234375,40.4022216796875,-165.4925537109375
1758788237.3181095,-0.70263671875,0.07080078125,0.68994140625,28.25927734375,0.3662109375,-13.24462890625,5.3778076171875,40.418701171875,-165.6573486328125
1758788237.3281248,-0.70263671875,0.07080078125,0.68994140625,8.056640625,1.28173828125,-12.939453125,5.33935546875,40.4461669921875,-165.8111572265625
1758788237.3385885,-0.67236328125,0.10595703125,0.71630859375,8.056640625,1.28173828125,-12.939453125,5.3009033203125,40.4736328125,-165.95947265625
1758788237.3482537,-0.65771484375,0.11962890625,0.701171875,-4.57763671875,3.11279296875,-12.63427734375,5.1416015625,40.5230712890625,-166.102294921875
1758788237.35812,-0.65771484375,0.11962890625,0.701171875,-4.57763671875,3.11279296875,-12.63427734375,4.9932861328125,40.5670166015625,-166.2396240234375
1758788237.3681626,-0.6591796875,0.033203125,0.73095703125,5.2490234375,3.0517578125,-12.6953125,4.932861328125,40.616455078125,-166.376953125
1758788237.378668,-0.6591796875,0.033203125,0.73095703125,5.2490234375,3.0517578125,-12.6953125,4.8779296875,40.660400390625,-166.519775390625
1758788237.3881264,-0.7236328125,0.00341796875,0.7451171875,5.55419921875,2.74658203125,-12.3291015625,4.8284912109375,40.704345703125,-166.6571044921875
1758788237.398122,-0.7236328125,0.00341796875,0.7451171875,5.55419921875,2.74658203125,-12.3291015625,4.7735595703125,40.748291015625,-166.79443359375
1758788237.4081962,-0.6357421875,0.02197265625,0.771484375,0.0,1.0986328125,-11.71875,4.6636962890625,40.7757568359375,-166.92626953125
1758788237.4186182,-0.6357421875,0.02197265625,0.771484375,0.0,1.0986328125,-11.71875,4.559326171875,40.80322265625,-167.0635986328125
1758788237.4281647,-0.6318359375,0.029296875,0.7880859375,15.869140625,0.91552734375,-10.7421875,4.6142578125,40.8251953125,-167.1954345703125
1758788237.438162,-0.6318359375,0.029296875,0.7880859375,15.869140625,0.91552734375,-10.7421875,4.6746826171875,40.8416748046875,-167.32177734375
1758788237.4483929,-0.6328125,-0.0068359375,0.73291015625,12.26806640625,0.91552734375,-9.033203125,4.7076416015625,40.858154296875,-167.431640625
1758788237.4587169,-0.6328125,-0.0068359375,0.73291015625,12.26806640625,0.91552734375,-9.033203125,4.7406005859375,40.8746337890625,-167.5469970703125
1758788237.4681964,-0.60791015625,0.08203125,0.6689453125,0.54931640625,0.1220703125,-7.75146484375,4.6636962890625,40.8856201171875,-167.640380859375
1758788237.4781928,-0.60791015625,0.08203125,0.6689453125,0.54931640625,0.1220703125,-7.75146484375,4.5977783203125,40.8966064453125,-167.7337646484375
1758788237.488656,-0.650390625,0.08740234375,0.79638671875,-6.4697265625,-1.3427734375,-6.77490234375,4.4659423828125,40.8856201171875,-167.816162109375
1758788237.4985569,-0.650390625,0.08740234375,0.79638671875,-6.4697265625,-1.3427734375,-6.77490234375,4.339599609375,40.880126953125,-167.8985595703125
1758788237.51044,-0.6220703125,0.05712890625,0.8408203125,-9.033203125,-1.40380859375,-5.31005859375,4.19677734375,40.869140625,-167.9644775390625
1758788237.5191557,-0.6220703125,0.05712890625,0.8408203125,-9.033203125,-1.40380859375,-5.31005859375,4.0594482421875,40.8526611328125,-168.0303955078125
1758788237.5287712,-0.63134765625,0.0751953125,0.7744140625,-5.615234375,-2.74658203125,-4.94384765625,3.9605712890625,40.8197021484375,-168.0908203125
1758788237.5382595,-0.63134765625,0.0751953125,0.7744140625,-5.615234375,-2.74658203125,-4.94384765625,3.8616943359375,40.792236328125,-168.1512451171875
1758788237.5482829,-0.65625,0.08251953125,0.75732421875,-19.95849609375,-2.99072265625,-4.21142578125,3.62548828125,40.75927734375,-168.20068359375
1758788237.558284,-0.65625,0.08251953125,0.75732421875,-19.95849609375,-2.99072265625,-4.21142578125,3.394775390625,40.726318359375,-168.24462890625
1758788237.5685077,-0.57568359375,0.0703125,0.72119140625,-18.06640625,-3.5400390625,-2.01416015625,3.2025146484375,40.6878662109375,-168.2611083984375
1758788237.5783367,-0.57568359375,0.0703125,0.72119140625,-18.06640625,-3.5400390625,-2.01416015625,3.0157470703125,40.6494140625,-168.277587890625
1758788237.5883286,-0.66796875,-0.1025390625,0.80224609375,12.02392578125,-3.72314453125,-2.25830078125,3.1146240234375,40.60546875,-168.3050537109375
1758788237.5985153,-0.66796875,-0.1025390625,0.80224609375,12.02392578125,-3.72314453125,-2.25830078125,3.2135009765625,40.5670166015625,-168.33251953125
1758788237.608809,-0.7197265625,-0.125,0.8798828125,47.8515625,-4.638671875,-3.7841796875,3.6419677734375,40.517578125,-168.387451171875
1758788237.6184268,-0.7197265625,-0.125,0.8798828125,47.8515625,-4.638671875,-3.7841796875,4.06494140625,40.4681396484375,-168.4478759765625
1758788237.6283343,-0.64990234375,0.08544921875,0.767578125,31.67724609375,-5.2490234375,-3.90625,4.3231201171875,40.4132080078125,-168.5137939453125
1758788237.6383083,-0.64990234375,0.08544921875,0.767578125,31.67724609375,-5.2490234375,-3.90625,4.5867919921875,40.36376953125,-168.5797119140625
1758788237.649,-0.564453125,0.2158203125,0.6455078125,-3.2958984375,-5.79833984375,-2.74658203125,4.5098876953125,40.3033447265625,-168.6181640625
1758788237.658312,-0.564453125,0.2158203125,0.6455078125,-3.2958984375,-5.79833984375,-2.74658203125,4.449462890625,40.2484130859375,-168.6566162109375
1758788237.6684165,-0.65283203125,0.1259765625,0.78857421875,-19.10400390625,-7.568359375,-0.8544921875,4.2462158203125,40.1715087890625,-168.662109375
1758788237.6784227,-0.65283203125,0.1259765625,0.78857421875,-19.10400390625,-7.568359375,-0.8544921875,4.0484619140625,40.0946044921875,-168.6676025390625
1758788237.6885488,-0.68310546875,-0.02978515625,0.89453125,-5.126953125,-7.8125,-0.18310546875,3.9935302734375,40.01220703125,-168.6676025390625
1758788237.699238,-0.68310546875,-0.02978515625,0.89453125,-5.126953125,-7.8125,-0.18310546875,3.9385986328125,39.935302734375,-168.673095703125
1758788237.7084415,-0.572265625,-0.07177734375,0.6513671875,20.99609375,-7.99560546875,-1.708984375,4.119873046875,39.8529052734375,-168.7005615234375
1758788237.7184348,-0.572265625,-0.07177734375,0.6513671875,20.99609375,-7.99560546875,-1.708984375,4.3011474609375,39.7705078125,-168.72802734375
1758788237.7290807,-0.64013671875,-0.01953125,0.7158203125,43.39599609375,-9.27734375,-2.8076171875,4.6856689453125,39.6826171875,-168.7774658203125
1758788237.7384562,-0.64013671875,-0.01953125,0.7158203125,43.39599609375,-9.27734375,-2.8076171875,5.0701904296875,39.5947265625,-168.8214111328125
1758788237.7484713,-0.6962890625,0.0625,0.93017578125,33.75244140625,-9.765625,-2.0751953125,5.361328125,39.5013427734375,-168.8653564453125
1758788237.758453,-0.6962890625,0.0625,0.93017578125,33.75244140625,-9.765625,-2.0751953125,5.6524658203125,39.407958984375,-168.9093017578125
1758788237.769054,-0.6083984375,0.15771484375,0.71533203125,12.5732421875,-9.94873046875,-1.15966796875,5.7403564453125,39.30908203125,-168.936767578125
1758788237.7784405,-0.6083984375,0.15771484375,0.71533203125,12.5732421875,-9.94873046875,-1.15966796875,5.8392333984375,39.2156982421875,-168.958740234375
1758788237.788501,-0.599609375,0.1884765625,0.7197265625,-19.71435546875,-10.6201171875,0.3662109375,5.625,39.111328125,-168.958740234375
1758788237.7993486,-0.599609375,0.1884765625,0.7197265625,-19.71435546875,-10.6201171875,0.3662109375,5.4217529296875,39.0069580078125,-168.9532470703125
1758788237.8086195,-0.568359375,0.12548828125,0.724609375,-24.59716796875,-7.87353515625,1.03759765625,5.185546875,38.9300537109375,-168.9312744140625
1758788237.8185456,-0.568359375,0.12548828125,0.724609375,-24.59716796875,-7.87353515625,1.03759765625,4.9493408203125,38.8531494140625,-168.9093017578125
1758788237.8285868,-0.65869140625,0.060546875,0.8251953125,-18.24951171875,-8.30078125,1.28173828125,4.779052734375,38.770751953125,-168.8818359375
1758788237.83912,-0.65869140625,0.060546875,0.8251953125,-18.24951171875,-8.30078125,1.28173828125,4.6142578125,38.6883544921875,-168.8543701171875
1758788237.848598,-0.6826171875,0.001953125,0.86572265625,-8.11767578125,-7.2021484375,0.18310546875,4.5318603515625,38.616943359375,-168.8433837890625
1758788237.8585503,-0.6826171875,0.001953125,0.86572265625,-8.11767578125,-7.2021484375,0.18310546875,4.449462890625,38.551025390625,-168.8323974609375
1758788237.868862,-0.6171875,-0.0009765625,0.78857421875,0.67138671875,-6.77490234375,0.79345703125,4.46044921875,38.485107421875,-168.8214111328125
1758788237.8789268,-0.6171875,-0.0009765625,0.78857421875,0.67138671875,-6.77490234375,0.79345703125,4.4659423828125,38.419189453125,-168.804931640625
1758788237.888598,-0.62255859375,0.02783203125,0.67138671875,8.60595703125,-6.40869140625,1.5869140625,4.559326171875,38.3587646484375,-168.782958984375
1758788237.8988097,-0.62255859375,0.02783203125,0.67138671875,8.60595703125,-6.40869140625,1.5869140625,4.647216796875,38.29833984375,-168.7554931640625
1758788237.9093566,-0.68994140625,0.12646484375,0.68310546875,-2.86865234375,-6.53076171875,1.28173828125,4.6197509765625,38.243408203125,-168.72802734375
1758788237.9187171,-0.68994140625,0.12646484375,0.68310546875,-2.86865234375,-6.53076171875,1.28173828125,4.5977783203125,38.1884765625,-168.695068359375
1758788237.9286501,-0.6884765625,0.14013671875,0.74853515625,-20.1416015625,-5.37109375,2.685546875,4.41650390625,38.14453125,-168.6346435546875
1758788237.9385922,-0.6884765625,0.14013671875,0.74853515625,-20.1416015625,-5.37109375,2.685546875,4.24072265625,38.1060791015625,-168.5687255859375
1758788237.9493148,-0.6865234375,0.083984375,0.80615234375,-15.13671875,-1.3427734375,3.5400390625,4.1253662109375,38.1060791015625,-168.4918212890625
1758788237.958615,-0.66015625,0.08349609375,0.80908203125,-21.6064453125,2.13623046875,3.662109375,3.9825439453125,38.12255859375,-168.409423828125
1758788237.9686472,-0.66015625,0.08349609375,0.80908203125,-21.6064453125,2.13623046875,3.662109375,3.8067626953125,38.1610107421875,-168.3270263671875
1758788237.9786575,-0.5703125,0.10986328125,0.763671875,-32.16552734375,4.5166015625,4.0283203125,3.58154296875,38.2049560546875,-168.2391357421875
1758788237.9888663,-0.5703125,0.10986328125,0.763671875,-32.16552734375,4.5166015625,4.0283203125,3.306884765625,38.25439453125,-168.145751953125
1758788237.9988937,-0.5419921875,0.0302734375,0.767578125,-21.484375,5.43212890625,4.33349609375,3.0926513671875,38.3148193359375,-168.057861328125
1758788238.0086913,-0.5419921875,0.0302734375,0.767578125,-21.484375,5.43212890625,4.33349609375,2.933349609375,38.3697509765625,-167.9644775390625
1758788238.0186791,-0.5712890625,-0.07177734375,0.8779296875,6.65283203125,3.47900390625,4.45556640625,2.911376953125,38.4136962890625,-167.882080078125
1758788238.0293698,-0.5712890625,-0.07177734375,0.8779296875,6.65283203125,3.47900390625,4.45556640625,3.021240234375,38.4466552734375,-167.80517578125
1758788238.0386884,-0.6318359375,-0.05078125,0.91455078125,21.240234375,0.244140625,3.662109375,3.1915283203125,38.4576416015625,-167.7447509765625
1758788238.0487401,-0.6318359375,-0.05078125,0.91455078125,21.240234375,0.244140625,3.662109375,3.427734375,38.4521484375,-167.7008056640625
1758788238.0589747,-0.57958984375,0.14697265625,0.80908203125,2.197265625,-1.953125,5.126953125,3.5760498046875,38.4356689453125,-167.6458740234375
1758788238.0692046,-0.57958984375,0.14697265625,0.80908203125,2.197265625,-1.953125,5.126953125,3.6309814453125,38.4027099609375,-167.5799560546875
1758788238.0787218,-0.53271484375,0.1181640625,0.69580078125,-15.869140625,-1.953125,5.92041015625,3.6090087890625,38.3697509765625,-167.5030517578125
1758788238.0887735,-0.53271484375,0.1181640625,0.69580078125,-15.869140625,-1.953125,5.92041015625,3.4991455078125,38.3367919921875,-167.4261474609375
1758788238.0989363,-0.65966796875,0.05712890625,0.8984375,-16.4794921875,-4.638671875,6.34765625,3.3892822265625,38.2928466796875,-167.34375
1758788238.1116915,-0.65966796875,0.05712890625,0.8984375,-16.4794921875,-4.638671875,6.34765625,3.2794189453125,38.2379150390625,-167.2613525390625
1758788238.1213133,-0.640625,-0.02880859375,0.8056640625,1.64794921875,-4.2724609375,5.126953125,3.2574462890625,38.177490234375,-167.1844482421875
1758788238.1287634,-0.640625,-0.02880859375,0.8056640625,1.64794921875,-4.2724609375,5.126953125,3.3123779296875,38.1280517578125,-167.1185302734375
1758788238.138763,-0.62890625,-0.03466796875,0.6796875,21.42333984375,-4.45556640625,4.150390625,3.460693359375,38.07861328125,-167.05810546875
1758788238.1495275,-0.62890625,-0.03466796875,0.6796875,21.42333984375,-4.45556640625,4.150390625,3.6968994140625,38.0291748046875,-167.003173828125
1758788238.1587555,-0.67529296875,0.0361328125,0.865234375,21.91162109375,-3.35693359375,3.35693359375,3.93310546875,37.9852294921875,-166.959228515625
1758788238.1687589,-0.67529296875,0.0361328125,0.865234375,21.91162109375,-3.35693359375,3.35693359375,4.163818359375,37.9522705078125,-166.915283203125
1758788238.17885,-0.66259765625,0.10888671875,0.77880859375,14.09912109375,-0.91552734375,3.72314453125,4.361572265625,37.9302978515625,-166.8658447265625
1758788238.189586,-0.66259765625,0.10888671875,0.77880859375,14.09912109375,-0.91552734375,3.72314453125,4.5208740234375,37.9193115234375,-166.8109130859375
1758788238.1996794,-0.619140625,0.13330078125,0.6806640625,-2.0751953125,-0.42724609375,3.96728515625,4.603271484375,37.913818359375,-166.75048828125
1758788238.2089212,-0.619140625,0.13330078125,0.6806640625,-2.0751953125,-0.42724609375,3.96728515625,4.6087646484375,37.913818359375,-166.6790771484375
1758788238.2190692,-0.58837890625,0.10498046875,0.705078125,-13.7939453125,0.30517578125,3.5400390625,4.559326171875,37.913818359375,-166.6131591796875
1758788238.2295356,-0.58837890625,0.10498046875,0.705078125,-13.7939453125,0.30517578125,3.5400390625,4.4549560546875,37.9248046875,-166.5472412109375
1758788238.2388892,-0.65283203125,0.0830078125,0.7724609375,-20.1416015625,-0.3662109375,4.21142578125,4.317626953125,37.9248046875,-166.4703369140625
1758788238.2489173,-0.65283203125,0.0830078125,0.7724609375,-20.1416015625,-0.3662109375,4.21142578125,4.1583251953125,37.9302978515625,-166.3934326171875
1758788238.2597077,-0.71240234375,0.05859375,0.8046875,-14.16015625,-0.1220703125,4.08935546875,4.0264892578125,37.9302978515625,-166.31103515625
1758788238.2688994,-0.71240234375,0.05859375,0.8046875,-14.16015625,-0.1220703125,4.08935546875,3.922119140625,37.935791015625,-166.234130859375
1758788238.2789178,-0.64501953125,-0.013671875,0.78369140625,-8.23974609375,-1.953125,3.90625,3.84521484375,37.935791015625,-166.1572265625
1758788238.2890923,-0.64501953125,-0.013671875,0.78369140625,-8.23974609375,-1.953125,3.90625,3.7957763671875,37.9248046875,-166.0858154296875
1758788238.2998006,-0.640625,0.0009765625,0.7578125,2.25830078125,-1.28173828125,4.33349609375,3.7957763671875,37.9193115234375,-166.014404296875
1758788238.3090992,-0.640625,0.0009765625,0.7578125,2.25830078125,-1.28173828125,4.33349609375,3.8507080078125,37.913818359375,-165.9429931640625
1758788238.3189914,-0.6142578125,0.07958984375,0.67724609375,5.37109375,-0.54931640625,3.84521484375,3.9166259765625,37.913818359375,-165.87158203125
1758788238.3291814,-0.6142578125,0.07958984375,0.67724609375,5.37109375,-0.54931640625,3.84521484375,3.9990234375,37.9193115234375,-165.8001708984375
1758788238.339835,-0.6943359375,0.1298828125,0.72314453125,-13.12255859375,-0.8544921875,3.5400390625,3.988037109375,37.9193115234375,-165.728759765625
1758788238.3491642,-0.6943359375,0.1298828125,0.72314453125,-13.12255859375,-0.8544921875,3.5400390625,3.88916015625,37.9248046875,-165.65185546875
1758788238.3590946,-0.662109375,0.12158203125,0.78857421875,-21.17919921875,-1.15966796875,3.96728515625,3.7518310546875,37.9302978515625,-165.5694580078125
1758788238.3697011,-0.662109375,0.12158203125,0.78857421875,-21.17919921875,-1.15966796875,3.96728515625,3.5760498046875,37.935791015625,-165.487060546875
1758788238.3791792,-0.68310546875,0.02978515625,0.74853515625,-14.2822265625,-0.54931640625,3.84521484375,3.4442138671875,37.9412841796875,-165.399169921875
1758788238.389181,-0.68310546875,0.02978515625,0.74853515625,-14.2822265625,-0.54931640625,3.84521484375,3.33984375,37.9522705078125,-165.311279296875
1758788238.3992631,-0.65771484375,0.0810546875,0.73876953125,-20.93505859375,-0.8544921875,3.96728515625,3.2025146484375,37.9632568359375,-165.223388671875
1758788238.4107077,-0.65771484375,0.0810546875,0.73876953125,-20.93505859375,-0.8544921875,3.96728515625,3.0377197265625,37.96875,-165.135498046875
1758788238.4216208,-0.6513671875,0.10107421875,0.7841796875,-24.0478515625,-0.6103515625,3.2958984375,2.8509521484375,37.979736328125,-165.0531005859375
1758788238.4292939,-0.6513671875,0.10107421875,0.7841796875,-24.0478515625,-0.6103515625,3.2958984375,2.6531982421875,37.99072265625,-164.9652099609375
1758788238.4391496,-0.60400390625,0.03466796875,0.68994140625,-17.578125,1.220703125,2.9296875,2.4884033203125,38.0072021484375,-164.8828125
1758788238.4495842,-0.60400390625,0.03466796875,0.68994140625,-17.578125,1.220703125,2.9296875,2.35107421875,38.03466796875,-164.805908203125
1758788238.4595594,-0.6318359375,-0.02587890625,0.7314453125,0.79345703125,1.0986328125,2.0751953125,2.3016357421875,38.067626953125,-164.7344970703125
1758788238.469212,-0.6318359375,-0.02587890625,0.7314453125,0.79345703125,1.0986328125,2.0751953125,2.3345947265625,38.089599609375,-164.6685791015625
1758788238.4792638,-0.65185546875,-0.08740234375,0.8837890625,28.13720703125,-0.48828125,-0.30517578125,2.493896484375,38.111572265625,-164.630126953125
1758788238.4893703,-0.65185546875,-0.08740234375,0.8837890625,28.13720703125,-0.48828125,-0.30517578125,2.7740478515625,38.1170654296875,-164.608154296875
1758788238.5001502,-0.64990234375,0.04638671875,0.8291015625,20.93505859375,-1.220703125,-0.3662109375,3.01025390625,38.12255859375,-164.59716796875
1758788238.5093896,-0.64990234375,0.04638671875,0.8291015625,20.93505859375,-1.220703125,-0.3662109375,3.2080078125,38.1170654296875,-164.586181640625
1758788238.5192616,-0.5810546875,0.1884765625,0.77685546875,-1.220703125,-1.8310546875,1.220703125,3.3013916015625,38.111572265625,-164.564208984375
1758788238.5293972,-0.5810546875,0.1884765625,0.77685546875,-1.220703125,-1.8310546875,1.220703125,3.3013916015625,38.1005859375,-164.53125
1758788238.5398154,-0.54248046875,0.10205078125,0.72119140625,-21.484375,-0.67138671875,2.5634765625,3.2080078125,38.0950927734375,-164.4818115234375
1758788238.5494287,-0.54248046875,0.10205078125,0.72119140625,-21.484375,-0.67138671875,2.5634765625,3.021240234375,38.089599609375,-164.42138671875
1758788238.5592735,-0.6298828125,0.0517578125,0.86669921875,-20.6298828125,-3.173828125,3.11279296875,2.845458984375,38.0731201171875,-164.3609619140625
1758788238.5693634,-0.6298828125,0.0517578125,0.86669921875,-20.6298828125,-3.173828125,3.11279296875,2.6751708984375,38.0401611328125,-164.300537109375
1758788238.5796893,-0.61474609375,-0.072265625,0.84765625,-2.44140625,-2.9296875,2.685546875,2.5927734375,38.0072021484375,-164.24560546875
1758788238.5894117,-0.61474609375,-0.072265625,0.84765625,-2.44140625,-2.9296875,2.685546875,2.5927734375,37.979736328125,-164.1961669921875
1758788238.5994167,-0.55419921875,-0.05859375,0.69580078125,15.31982421875,-3.173828125,1.220703125,2.669677734375,37.94677734375,-164.1632080078125
1758788238.6094563,-0.55419921875,-0.05859375,0.69580078125,15.31982421875,-3.173828125,1.220703125,2.8289794921875,37.913818359375,-164.1412353515625
1758788238.6198747,-0.6328125,0.0185546875,0.82861328125,26.123046875,-2.685546875,0.42724609375,3.0322265625,37.880859375,-164.1302490234375
1758788238.6294158,-0.6328125,0.0185546875,0.82861328125,26.123046875,-2.685546875,0.42724609375,3.284912109375,37.8533935546875,-164.124755859375
1758788238.6393363,-0.634765625,0.0830078125,0.87255859375,16.66259765625,-1.15966796875,0.54931640625,3.4881591796875,37.8369140625,-164.11376953125
1758788238.6494915,-0.634765625,0.0830078125,0.87255859375,16.66259765625,-1.15966796875,0.54931640625,3.6474609375,37.8204345703125,-164.102783203125
1758788238.6599555,-0.6376953125,0.1201171875,0.7275390625,10.009765625,-1.0986328125,0.3662109375,3.779296875,37.8094482421875,-164.091796875
1758788238.6694448,-0.6376953125,0.1201171875,0.7275390625,10.009765625,-1.0986328125,0.3662109375,3.8726806640625,37.7984619140625,-164.080810546875
1758788238.6793485,-0.64111328125,0.0693359375,0.7333984375,3.5400390625,0.0,-0.48828125,3.9385986328125,37.79296875,-164.06982421875
1758788238.6894653,-0.64111328125,0.0693359375,0.7333984375,3.5400390625,0.0,-0.48828125,3.9715576171875,37.7984619140625,-164.058837890625
1758788238.7002623,-0.63623046875,0.10595703125,0.78857421875,-0.3662109375,1.708984375,-0.79345703125,3.9825439453125,37.81494140625,-164.0478515625
1758788238.7095468,-0.63623046875,0.10595703125,0.78857421875,-0.3662109375,1.708984375,-0.79345703125,3.9715576171875,37.8369140625,-164.036865234375
1758788238.7194543,-0.63916015625,0.044921875,0.76611328125,-4.69970703125,4.0283203125,-1.15966796875,3.944091796875,37.869873046875,-164.02587890625
1758788238.7299294,-0.63916015625,0.044921875,0.76611328125,-4.69970703125,4.0283203125,-1.15966796875,3.8946533203125,37.913818359375,-164.014892578125
1758788238.7395518,-0.64404296875,0.03076171875,0.7578125,-0.9765625,5.0048828125,-1.3427734375,3.8616943359375,37.96875,-164.00390625
1758788238.749627,-0.64404296875,0.03076171875,0.7578125,-0.9765625,5.0048828125,-1.3427734375,3.84521484375,38.023681640625,-163.9984130859375
1758788238.7594833,-0.68115234375,0.0341796875,0.75048828125,0.30517578125,6.40869140625,-1.89208984375,3.834228515625,38.089599609375,-163.992919921875
1758788238.7700322,-0.68115234375,0.0341796875,0.75048828125,0.30517578125,6.40869140625,-1.89208984375,3.8232421875,38.1610107421875,-163.992919921875
1758788238.7794938,-0.62841796875,0.0380859375,0.81494140625,-2.197265625,5.67626953125,-2.86865234375,3.7957763671875,38.232421875,-163.9984130859375
1758788238.789612,-0.62841796875,0.0380859375,0.81494140625,-2.197265625,5.67626953125,-2.86865234375,3.7518310546875,38.29833984375,-164.014892578125
1758788238.7996938,-0.61865234375,0.0478515625,0.798828125,8.11767578125,6.591796875,-2.38037109375,3.7628173828125,38.3642578125,-164.02587890625
1758788238.8101914,-0.61865234375,0.0478515625,0.798828125,8.11767578125,6.591796875,-2.38037109375,3.8287353515625,38.4356689453125,-164.036865234375
1758788238.8194957,-0.60791015625,0.01171875,0.78564453125,10.1318359375,5.9814453125,-1.40380859375,3.9056396484375,38.507080078125,-164.0478515625
1758788238.8296828,-0.60791015625,0.01171875,0.78564453125,10.1318359375,5.9814453125,-1.40380859375,3.9935302734375,38.5675048828125,-164.0478515625
1758788238.8400126,-0.60791015625,0.01171875,0.78564453125,-5.615234375,6.4697265625,0.48828125,4.010009765625,38.6279296875,-164.0423583984375
1758788238.849757,-0.62890625,0.08349609375,0.7470703125,-5.615234375,6.4697265625,0.48828125,3.9605712890625,38.69384765625,-164.02587890625
1758788238.8596075,-0.6328125,0.13623046875,0.7421875,-17.63916015625,6.16455078125,2.44140625,3.856201171875,38.759765625,-163.992919921875
1758788238.869699,-0.6328125,0.13623046875,0.7421875,-17.63916015625,6.16455078125,2.44140625,3.7078857421875,38.8201904296875,-163.93798828125
1758788238.880142,-0.607421875,0.0634765625,0.81494140625,-20.99609375,5.37109375,3.5400390625,3.548583984375,38.880615234375,-163.883056640625
1758788238.8897219,-0.607421875,0.0634765625,0.81494140625,-20.99609375,5.37109375,3.5400390625,3.3782958984375,38.9300537109375,-163.817138671875
1758788238.8997416,-0.62109375,-0.0107421875,0.7998046875,-15.80810546875,5.37109375,4.638671875,3.2354736328125,38.9794921875,-163.751220703125
1758788238.9097667,-0.62109375,-0.0107421875,0.7998046875,-15.80810546875,5.37109375,4.638671875,3.1256103515625,39.0289306640625,-163.6798095703125
1758788238.920175,-0.5947265625,0.02099609375,0.810546875,-10.43701171875,3.0517578125,5.7373046875,3.043212890625,39.0673828125,-163.6029052734375
1758788238.9297388,-0.5947265625,0.02099609375,0.810546875,-10.43701171875,3.0517578125,5.7373046875,2.98828125,39.08935546875,-163.5260009765625
1758788238.9396334,-0.6357421875,0.08203125,0.814453125,-15.07568359375,2.44140625,5.859375,2.911376953125,39.1058349609375,-163.443603515625
1758788238.9497275,-0.6357421875,0.08203125,0.814453125,-15.07568359375,2.44140625,5.859375,2.8125,39.122314453125,-163.36669921875
1758788238.9601486,-0.56103515625,0.0830078125,0.73046875,-25.5126953125,1.89208984375,7.8125,2.6751708984375,39.13330078125,-163.2733154296875
1758788238.9697623,-0.56103515625,0.0830078125,0.73046875,-25.5126953125,1.89208984375,7.8125,2.493896484375,39.144287109375,-163.1634521484375
1758788238.979717,-0.6142578125,0.00244140625,0.7490234375,-15.93017578125,1.28173828125,8.60595703125,2.362060546875,39.1497802734375,-163.048095703125
1758788238.9898338,-0.6142578125,0.00244140625,0.7490234375,-15.93017578125,1.28173828125,8.60595703125,2.28515625,39.1497802734375,-162.9327392578125
1758788239.0001974,-0.65283203125,-0.08203125,0.79443359375,11.29150390625,1.28173828125,7.568359375,2.3291015625,39.1552734375,-162.8228759765625
1758788239.0122867,-0.65283203125,-0.08203125,0.79443359375,11.29150390625,1.28173828125,7.568359375,2.5048828125,39.1607666015625,-162.7239990234375
1758788239.0207198,-0.68310546875,-0.015625,0.86279296875,18.00537109375,0.732421875,7.14111328125,2.7081298828125,39.1607666015625,-162.630615234375
1758788239.029871,-0.68310546875,-0.015625,0.86279296875,18.00537109375,0.732421875,7.14111328125,2.933349609375,39.1607666015625,-162.542724609375
1758788239.0399218,-0.63427734375,0.16650390625,0.751953125,-8.11767578125,1.220703125,7.9345703125,2.9168701171875,39.166259765625,-162.44384765625
1758788239.0502086,-0.63427734375,0.16650390625,0.751953125,-8.11767578125,1.220703125,7.9345703125,2.900390625,39.1717529296875,-162.333984375
1758788239.0597696,-0.5830078125,0.1923828125,0.673828125,-29.4189453125,2.74658203125,9.58251953125,2.691650390625,39.1937255859375,-162.1966552734375
1758788239.0698967,-0.5830078125,0.1923828125,0.673828125,-29.4189453125,2.74658203125,9.58251953125,2.493896484375,39.2156982421875,-162.0538330078125
1758788239.0797932,-0.65625,0.0546875,0.7744140625,-37.17041015625,3.90625,10.986328125,2.230224609375,39.2486572265625,-161.8890380859375
1758788239.0902648,-0.65625,0.0546875,0.7744140625,-37.17041015625,3.90625,10.986328125,1.9720458984375,39.287109375,-161.7242431640625
1758788239.0999062,-0.64306640625,-0.04443359375,0.86767578125,-16.90673828125,4.21142578125,11.5966796875,1.91162109375,39.320068359375,-161.553955078125
1758788239.1099913,-0.64306640625,-0.04443359375,0.86767578125,-16.90673828125,4.21142578125,11.5966796875,1.8511962890625,39.3585205078125,-161.3946533203125
1758788239.120268,-0.623046875,-0.0947265625,0.72412109375,0.18310546875,3.96728515625,11.1083984375,1.9500732421875,39.3914794921875,-161.246337890625
1758788239.1299999,-0.623046875,-0.0947265625,0.72412109375,0.18310546875,3.96728515625,11.1083984375,2.04345703125,39.4244384765625,-161.0980224609375
1758788239.1398487,-0.58447265625,-0.03564453125,0.703125,12.39013671875,3.72314453125,11.41357421875,2.2576904296875,39.451904296875,-160.94970703125
1758788239.1500404,-0.58447265625,-0.03564453125,0.703125,12.39013671875,3.72314453125,11.41357421875,2.4664306640625,39.48486328125,-160.806884765625
1758788239.1605108,-0.6044921875,0.05615234375,0.84228515625,12.20703125,2.99072265625,12.02392578125,2.6806640625,39.5068359375,-160.653076171875
1758788239.1699634,-0.6044921875,0.05615234375,0.84228515625,12.20703125,2.99072265625,12.02392578125,2.8948974609375,39.5233154296875,-160.5047607421875
1758788239.1799247,-0.640625,0.07763671875,0.8779296875,6.53076171875,3.11279296875,12.63427734375,3.05419921875,39.5452880859375,-160.345458984375
1758788239.1900399,-0.640625,0.07763671875,0.8779296875,6.53076171875,3.11279296875,12.63427734375,3.218994140625,39.5562744140625,-160.191650390625
1758788239.2008722,-0.61328125,0.0830078125,0.7509765625,3.90625,2.197265625,13.671875,3.3673095703125,39.561767578125,-160.015869140625
1758788239.2100613,-0.61328125,0.0830078125,0.7509765625,3.90625,2.197265625,13.671875,3.515625,39.5672607421875,-159.8455810546875
1758788239.219947,-0.6279296875,0.06982421875,0.72412109375,-9.46044921875,1.64794921875,14.46533203125,3.53759765625,39.5672607421875,-159.6588134765625
1758788239.230045,-0.6279296875,0.06982421875,0.72412109375,-9.46044921875,1.64794921875,14.46533203125,3.5650634765625,39.57275390625,-159.4720458984375
1758788239.2406242,-0.595703125,0.1279296875,0.77490234375,-24.35302734375,0.732421875,15.68603515625,3.44970703125,39.561767578125,-159.268798828125
1758788239.2500942,-0.595703125,0.1279296875,0.77490234375,-24.35302734375,0.732421875,15.68603515625,3.3453369140625,39.5562744140625,-159.0655517578125
1758788239.2600667,-0.59228515625,0.052734375,0.7724609375,-18.310546875,0.42724609375,15.869140625,3.3013916015625,39.5452880859375,-158.8568115234375
1758788239.2704105,-0.59228515625,0.052734375,0.7724609375,-18.310546875,0.42724609375,15.869140625,3.251953125,39.52880859375,-158.653564453125
1758788239.2801178,-0.62548828125,0.037109375,0.78564453125,-15.93017578125,-0.8544921875,16.29638671875,3.2354736328125,39.5068359375,-158.4393310546875
1758788239.2901018,-0.62548828125,0.037109375,0.78564453125,-15.93017578125,-0.8544921875,16.29638671875,3.2135009765625,39.4793701171875,-158.2305908203125
1758788239.3002357,-0.64892578125,0.048828125,0.8046875,-14.2822265625,-1.220703125,16.17431640625,3.2080078125,39.451904296875,-158.02734375
1758788239.3116279,-0.64892578125,0.048828125,0.8046875,-14.2822265625,-1.220703125,16.17431640625,3.2025146484375,39.4244384765625,-157.818603515625
1758788239.322246,-0.5859375,0.03662109375,0.83740234375,-17.76123046875,-2.50244140625,16.54052734375,3.1640625,39.3804931640625,-157.60986328125
1758788239.330203,-0.5859375,0.03662109375,0.83740234375,-17.76123046875,-2.50244140625,16.54052734375,3.1256103515625,39.342041015625,-157.401123046875
1758788239.3400624,-0.58447265625,0.041015625,0.77294921875,-0.3662109375,-3.0517578125,17.7001953125,3.262939453125,39.2926025390625,-157.181396484375
1758788239.3507655,-0.58447265625,0.041015625,0.77294921875,-0.3662109375,-3.0517578125,17.7001953125,3.40576171875,39.2376708984375,-156.961669921875
1758788239.3600566,-0.58984375,0.0634765625,0.7099609375,-3.41796875,-2.74658203125,17.27294921875,3.5101318359375,39.1937255859375,-156.7474365234375
1758788239.3701513,-0.58984375,0.0634765625,0.7099609375,-3.41796875,-2.74658203125,17.27294921875,3.6199951171875,39.1497802734375,-156.533203125
1758788239.3800786,-0.57763671875,0.1396484375,0.74267578125,-21.91162109375,-2.9296875,18.9208984375,3.5540771484375,39.100341796875,-156.29150390625
1758788239.3908412,-0.57763671875,0.1396484375,0.74267578125,-21.91162109375,-2.9296875,18.9208984375,3.4991455078125,39.0509033203125,-156.0498046875
1758788239.4002671,-0.55224609375,0.111328125,0.87353515625,-31.3720703125,-4.82177734375,20.6298828125,3.3563232421875,38.9794921875,-155.7861328125
1758788239.410262,-0.55224609375,0.111328125,0.87353515625,-31.3720703125,-4.82177734375,20.6298828125,3.2244873046875,38.9080810546875,-155.5224609375
1758788239.4206235,-0.60009765625,0.0537109375,0.81689453125,-31.25,-5.06591796875,22.5830078125,3.1036376953125,38.8311767578125,-155.23681640625
1758788239.4303434,-0.60009765625,0.0537109375,0.81689453125,-31.25,-5.06591796875,22.5830078125,2.9827880859375,38.759765625,-154.951171875
1758788239.4401867,-0.60205078125,0.06298828125,0.783203125,-35.15625,-5.67626953125,23.37646484375,2.8289794921875,38.6773681640625,-154.654541015625
1758788239.4502146,-0.60205078125,0.06298828125,0.783203125,-35.15625,-5.67626953125,23.37646484375,2.6806640625,38.6004638671875,-154.35791015625
1758788239.4604144,-0.5380859375,0.09228515625,0.74365234375,-34.97314453125,-4.7607421875,24.71923828125,2.537841796875,38.529052734375,-154.039306640625
1758788239.4705148,-0.5380859375,0.09228515625,0.74365234375,-34.97314453125,-4.7607421875,24.71923828125,2.4005126953125,38.463134765625,-153.7261962890625
1758788239.480203,-0.5751953125,0.02197265625,0.7138671875,-22.5830078125,-4.5166015625,26.123046875,2.4005126953125,38.397216796875,-153.39111328125
1758788239.4902704,-0.5751953125,0.02197265625,0.7138671875,-22.5830078125,-4.5166015625,26.123046875,2.39501953125,38.331298828125,-153.0560302734375
1758788239.500271,-0.67529296875,-0.083984375,0.94384765625,4.150390625,-6.7138671875,25.7568359375,2.6422119140625,38.243408203125,-152.73193359375
1758788239.5110464,-0.67529296875,-0.083984375,0.94384765625,4.150390625,-6.7138671875,25.7568359375,2.8839111328125,38.155517578125,-152.413330078125
1758788239.5202231,-0.6787109375,0.06396484375,0.88525390625,-8.4228515625,-7.38525390625,26.55029296875,3.0047607421875,38.0621337890625,-152.0892333984375
1758788239.5302672,-0.6787109375,0.06396484375,0.88525390625,-8.4228515625,-7.38525390625,26.55029296875,3.1256103515625,37.96875,-151.76513671875
1758788239.5402455,-0.58984375,0.181640625,0.65869140625,-25.45166015625,-6.591796875,26.79443359375,3.0816650390625,37.880859375,-151.4300537109375
1758788239.550875,-0.58984375,0.181640625,0.65869140625,-25.45166015625,-6.591796875,26.79443359375,3.0377197265625,37.7984619140625,-151.083984375
1758788239.5602777,-0.72119140625,0.12646484375,0.7880859375,-28.99169921875,-4.82177734375,27.587890625,2.977294921875,37.738037109375,-150.721435546875
1758788239.5702384,-0.72119140625,0.12646484375,0.7880859375,-28.99169921875,-4.82177734375,27.587890625,2.911376953125,37.68310546875,-150.3533935546875
1758788239.5802906,-0.7275390625,0.02734375,0.7763671875,-27.7099609375,-1.28173828125,27.83203125,2.8619384765625,37.6611328125,-149.9853515625
1758788239.5907636,-0.7275390625,0.02734375,0.7763671875,-27.7099609375,-1.28173828125,27.83203125,2.8125,37.6446533203125,-149.61181640625
1758788239.6005633,-0.6552734375,0.005859375,0.697265625,-7.2021484375,-0.244140625,26.06201171875,2.955322265625,37.6446533203125,-149.26025390625
1758788239.6103308,-0.6552734375,0.005859375,0.697265625,-7.2021484375,-0.244140625,26.06201171875,3.087158203125,37.63916015625,-148.90869140625
1758788239.6204555,-0.6162109375,0.0048828125,0.72412109375,9.8876953125,1.5869140625,25.5126953125,3.3892822265625,37.6556396484375,-148.568115234375
1758788239.6310527,-0.6162109375,0.0048828125,0.72412109375,9.8876953125,1.5869140625,25.5126953125,3.6859130859375,37.672119140625,-148.2330322265625
1758788239.640457,-0.6708984375,0.095703125,0.8720703125,1.15966796875,1.40380859375,25.20751953125,3.88916015625,37.68310546875,-147.89794921875
1758788239.6504602,-0.6708984375,0.095703125,0.8720703125,1.15966796875,1.40380859375,25.20751953125,4.097900390625,37.694091796875,-147.568359375
1758788239.6613073,-0.66259765625,0.150390625,0.75732421875,-9.1552734375,2.01416015625,25.81787109375,4.207763671875,37.705078125,-147.2222900390625
1758788239.6704283,-0.66259765625,0.150390625,0.75732421875,-9.1552734375,2.01416015625,25.81787109375,4.3231201171875,37.7215576171875,-146.876220703125
1758788239.6804497,-0.630859375,0.14306640625,0.6611328125,-24.71923828125,1.77001953125,26.85546875,4.2901611328125,37.7325439453125,-146.513671875
1758788239.6904745,-0.630859375,0.14306640625,0.6611328125,-24.71923828125,1.77001953125,26.85546875,4.2626953125,37.7435302734375,-146.1456298828125
1758788239.7013273,-0.654296875,0.12158203125,0.7373046875,-31.6162109375,2.9296875,26.9775390625,4.1748046875,37.77099609375,-145.7720947265625
1758788239.7104664,-0.654296875,0.12158203125,0.7373046875,-31.6162109375,2.9296875,26.9775390625,4.0814208984375,37.7984619140625,-145.3985595703125
1758788239.7204614,-0.66748046875,0.0537109375,0.80126953125,-26.42822265625,2.86865234375,26.91650390625,4.04296875,37.825927734375,-145.0250244140625
1758788239.7304983,-0.66748046875,0.0537109375,0.80126953125,-26.42822265625,2.86865234375,26.91650390625,4.0045166015625,37.847900390625,-144.6514892578125
1758788239.7410371,-0.65478515625,0.072265625,0.72900390625,-23.01025390625,2.74658203125,26.91650390625,3.9990234375,37.8753662109375,-144.283447265625
1758788239.7504683,-0.65478515625,0.072265625,0.72900390625,-23.01025390625,2.74658203125,26.91650390625,3.988037109375,37.8973388671875,-143.9154052734375
1758788239.7604928,-0.6474609375,0.06494140625,0.76123046875,-24.35302734375,1.46484375,26.4892578125,3.966064453125,37.913818359375,-143.5528564453125
1758788239.7710152,-0.6474609375,0.06494140625,0.76123046875,-24.35302734375,1.46484375,26.4892578125,3.9385986328125,37.9248046875,-143.19580078125
1758788239.780496,-0.60205078125,0.05126953125,0.87744140625,-24.0478515625,0.8544921875,27.28271484375,3.922119140625,37.9302978515625,-142.8277587890625
1758788239.7904704,-0.60205078125,0.05126953125,0.87744140625,-24.0478515625,0.8544921875,27.28271484375,3.9056396484375,37.9302978515625,-142.4652099609375
1758788239.8006308,-0.5771484375,0.0419921875,0.7626953125,-11.71875,0.42724609375,27.7099609375,4.010009765625,37.9193115234375,-142.1026611328125
1758788239.8111918,-0.5771484375,0.0419921875,0.7626953125,-11.71875,0.42724609375,27.7099609375,4.1143798828125,37.913818359375,-141.7401123046875
1758788239.8205054,-0.6328125,0.08447265625,0.73193359375,-11.53564453125,0.67138671875,27.587890625,4.21875,37.9083251953125,-141.383056640625
1758788239.8305037,-0.6328125,0.08447265625,0.73193359375,-11.53564453125,0.67138671875,27.587890625,4.3231201171875,37.90283203125,-141.0205078125
1758788239.8408062,-0.6591796875,0.1728515625,0.69189453125,-33.14208984375,1.220703125,28.86962890625,4.229736328125,37.90283203125,-140.6414794921875
1758788239.8510334,-0.6591796875,0.1728515625,0.69189453125,-33.14208984375,1.220703125,28.86962890625,4.1363525390625,37.9083251953125,-140.25146484375
1758788239.8606453,-0.611328125,0.1591796875,0.72119140625,-54.3212890625,1.28173828125,30.029296875,3.84521484375,37.9083251953125,-139.844970703125
1758788239.870639,-0.611328125,0.1591796875,0.72119140625,-54.3212890625,1.28173828125,30.029296875,3.5595703125,37.9193115234375,-139.4329833984375
1758788239.8815787,-0.65380859375,0.07763671875,0.84423828125,-47.2412109375,2.9296875,31.25,3.3563232421875,37.9412841796875,-139.010009765625
1758788239.8908272,-0.65380859375,0.07763671875,0.84423828125,-47.2412109375,2.9296875,31.25,3.153076171875,37.957763671875,-138.58154296875
1758788239.900724,-0.669921875,0.00927734375,0.7880859375,-26.2451171875,3.2958984375,30.33447265625,3.1475830078125,37.9852294921875,-138.175048828125
1758788239.9113605,-0.669921875,0.00927734375,0.7880859375,-26.2451171875,3.2958984375,30.33447265625,3.14208984375,38.0126953125,-137.7630615234375
1758788239.9207113,-0.64892578125,0.06396484375,0.74755859375,-28.74755859375,3.41796875,30.45654296875,3.1146240234375,38.0401611328125,-137.3565673828125
1758788239.9312286,-0.64892578125,0.06396484375,0.74755859375,-28.74755859375,3.41796875,30.45654296875,3.0816650390625,38.0731201171875,-136.9500732421875
1758788239.9407086,-0.6337890625,0.1171875,0.7333984375,-41.015625,3.5400390625,31.6162109375,2.9388427734375,38.1005859375,-136.5216064453125
1758788239.950676,-0.6337890625,0.1171875,0.7333984375,-41.015625,3.5400390625,31.6162109375,2.7960205078125,38.133544921875,-136.0931396484375
1758788239.9607098,-0.578125,0.119140625,0.740234375,-58.04443359375,2.99072265625,33.63037109375,2.5048828125,38.155517578125,-135.6427001953125
1758788239.9709046,-0.578125,0.119140625,0.740234375,-58.04443359375,2.99072265625,33.63037109375,2.2137451171875,38.1829833984375,-135.1812744140625
1758788239.980697,-0.640625,0.021484375,0.83154296875,-42.05322265625,2.99072265625,34.7900390625,2.0928955078125,38.21044921875,-134.71435546875
1758788239.9907286,-0.640625,0.021484375,0.83154296875,-42.05322265625,2.99072265625,34.7900390625,1.9720458984375,38.232421875,-134.2474365234375
1758788240.000836,-0.59716796875,-0.10205078125,0.751953125,-8.30078125,2.38037109375,33.26416015625,2.1697998046875,38.2489013671875,-133.8079833984375
1758788240.010946,-0.59716796875,-0.10205078125,0.751953125,-8.30078125,2.38037109375,33.26416015625,2.3565673828125,38.265380859375,-133.3795166015625
1758788240.020828,-0.65185546875,-0.0283203125,0.87060546875,3.173828125,1.3427734375,32.5927734375,2.647705078125,38.2708740234375,-132.967529296875
1758788240.030751,-0.65185546875,-0.0283203125,0.87060546875,3.173828125,1.3427734375,32.5927734375,2.933349609375,38.2708740234375,-132.56103515625
1758788240.0408092,-0.6455078125,0.138671875,0.82568359375,-10.6201171875,2.13623046875,33.02001953125,3.087158203125,38.2763671875,-132.1435546875
1758788240.050985,-0.6455078125,0.138671875,0.82568359375,-10.6201171875,2.13623046875,33.02001953125,3.2464599609375,38.2818603515625,-131.7205810546875
1758788240.060856,-0.5966796875,0.1982421875,0.7705078125,-39.4287109375,1.953125,34.85107421875,3.1365966796875,38.2818603515625,-131.275634765625
1758788240.070813,-0.5966796875,0.1982421875,0.7705078125,-39.4287109375,1.953125,34.85107421875,3.0322265625,38.2818603515625,-130.8197021484375
1758788240.0808723,-0.57421875,0.09326171875,0.767578125,-51.3916015625,2.8076171875,36.19384765625,2.8179931640625,38.2928466796875,-130.3472900390625
1758788240.0914226,-0.57421875,0.09326171875,0.767578125,-51.3916015625,2.8076171875,36.19384765625,2.61474609375,38.3038330078125,-129.869384765625
1758788240.1009915,-0.6259765625,0.0234375,0.84912109375,-33.3251953125,2.0751953125,36.0107421875,2.581787109375,38.3038330078125,-129.4024658203125
1758788240.1108022,-0.6259765625,0.0234375,0.84912109375,-33.3251953125,2.0751953125,36.0107421875,2.548828125,38.3038330078125,-128.935546875
1758788240.1208951,-0.57470703125,-0.03955078125,0.83447265625,-15.7470703125,1.5869140625,35.58349609375,2.6861572265625,38.29833984375,-128.485107421875
1758788240.1313965,-0.5810546875,0.001953125,0.74951171875,-9.70458984375,1.40380859375,35.15625,2.845458984375,38.2928466796875,-128.0401611328125
1758788240.1409023,-0.5810546875,0.001953125,0.74951171875,-9.70458984375,1.40380859375,35.15625,3.0267333984375,38.2818603515625,-127.6007080078125
1758788240.1508536,-0.5341796875,0.01904296875,0.7783203125,-1.708984375,2.5634765625,36.0107421875,3.251953125,38.2763671875,-127.1612548828125
1758788240.1615694,-0.5341796875,0.01904296875,0.7783203125,-1.708984375,2.5634765625,36.0107421875,3.515625,38.2763671875,-126.71630859375
1758788240.170993,-0.61572265625,0.08447265625,0.92138671875,-7.38525390625,2.44140625,36.07177734375,3.7518310546875,38.265380859375,-126.27685546875
1758788240.180942,-0.61572265625,0.08447265625,0.92138671875,-7.38525390625,2.44140625,36.07177734375,3.9605712890625,38.25439453125,-125.83740234375
1758788240.190967,-0.5751953125,0.15576171875,0.81005859375,-19.8974609375,3.47900390625,36.56005859375,4.1033935546875,38.2489013671875,-125.3924560546875
1758788240.2019498,-0.5751953125,0.15576171875,0.81005859375,-19.8974609375,3.47900390625,36.56005859375,4.19677734375,38.243408203125,-124.947509765625
1758788240.2146947,-0.6103515625,0.13330078125,0.78564453125,-21.05712890625,4.08935546875,37.04833984375,4.28466796875,38.2379150390625,-124.4915771484375
1758788240.221617,-0.6103515625,0.13330078125,0.78564453125,-21.05712890625,4.08935546875,37.04833984375,4.3780517578125,38.2379150390625,-124.024658203125
1758788240.2310357,-0.6513671875,0.10302734375,0.79345703125,-30.70068359375,5.9814453125,37.2314453125,4.4219970703125,38.2489013671875,-123.5577392578125
1758788240.2419126,-0.6513671875,0.10302734375,0.79345703125,-30.70068359375,5.9814453125,37.2314453125,4.41650390625,38.2708740234375,-123.0908203125
1758788240.251031,-0.58740234375,0.11669921875,0.7109375,-38.26904296875,6.89697265625,37.7197265625,4.383544921875,38.29833984375,-122.618408203125
1758788240.2610097,-0.58740234375,0.11669921875,0.7109375,-38.26904296875,6.89697265625,37.7197265625,4.3121337890625,38.331298828125,-122.135009765625
1758788240.2711377,-0.62841796875,0.0859375,0.78466796875,-36.56005859375,8.056640625,37.04833984375,4.251708984375,38.3697509765625,-121.6571044921875
1758788240.2817817,-0.62841796875,0.0859375,0.78466796875,-36.56005859375,8.056640625,37.04833984375,4.19677734375,38.419189453125,-121.1846923828125
1758788240.2910755,-0.666015625,0.076171875,0.78759765625,-36.19384765625,9.46044921875,36.865234375,4.1473388671875,38.47412109375,-120.706787109375
1758788240.3011823,-0.666015625,0.076171875,0.78759765625,-36.19384765625,9.46044921875,36.865234375,4.097900390625,38.5345458984375,-120.234375
1758788240.311905,-0.6708984375,0.12353515625,0.73974609375,-39.61181640625,10.43701171875,37.7197265625,4.031982421875,38.60595703125,-119.7564697265625
1758788240.3212335,-0.6708984375,0.12353515625,0.73974609375,-39.61181640625,10.43701171875,37.7197265625,3.9605712890625,38.682861328125,-119.2620849609375
1758788240.3311067,-0.69677734375,0.07080078125,0.720703125,-46.56982421875,11.04736328125,37.78076171875,3.856201171875,38.7652587890625,-118.7677001953125
1758788240.3411818,-0.69677734375,0.07080078125,0.720703125,-46.56982421875,11.04736328125,37.78076171875,3.71337890625,38.8531494140625,-118.2733154296875
1758788240.351627,-0.69140625,0.03271484375,0.78466796875,-42.6025390625,12.87841796875,37.17041015625,3.592529296875,38.9520263671875,-117.784423828125
1758788240.3611314,-0.69140625,0.03271484375,0.78466796875,-42.6025390625,12.87841796875,37.17041015625,3.49365234375,39.0618896484375,-117.301025390625
1758788240.3711314,-0.7138671875,0.02490234375,0.73974609375,-15.7470703125,16.17431640625,33.99658203125,3.5101318359375,39.1937255859375,-116.8341064453125
1758788240.3811193,-0.7138671875,0.02490234375,0.73974609375,-15.7470703125,16.17431640625,33.99658203125,3.6474609375,39.342041015625,-116.3946533203125
1758788240.3916872,-0.6865234375,0.046875,0.69482421875,7.87353515625,19.53125,29.84619140625,3.88916015625,39.5068359375,-115.9716796875
1758788240.4012141,-0.6865234375,0.046875,0.69482421875,7.87353515625,19.53125,29.84619140625,4.229736328125,39.6881103515625,-115.5816650390625
1758788240.411137,-0.6669921875,0.16455078125,0.7451171875,-5.37109375,20.6298828125,27.89306640625,4.4989013671875,39.8748779296875,-115.1971435546875
1758788240.4211764,-0.6669921875,0.16455078125,0.7451171875,-5.37109375,20.6298828125,27.89306640625,4.7021484375,40.067138671875,-114.818115234375
1758788240.4318254,-0.69091796875,0.21533203125,0.75927734375,-32.89794921875,19.4091796875,29.1748046875,4.7735595703125,40.2484130859375,-114.43359375
1758788240.4412482,-0.69091796875,0.21533203125,0.75927734375,-32.89794921875,19.4091796875,29.1748046875,4.72412109375,40.4241943359375,-114.027099609375
1758788240.4512298,-0.60498046875,0.15966796875,0.5986328125,-59.2041015625,16.6015625,32.16552734375,4.559326171875,40.5889892578125,-113.5986328125
1758788240.4614656,-0.60498046875,0.15966796875,0.5986328125,-59.2041015625,16.6015625,32.16552734375,4.2791748046875,40.7373046875,-113.1536865234375
1758788240.4716895,-0.646484375,0.033203125,0.8310546875,-70.86181640625,11.8408203125,35.58349609375,3.955078125,40.858154296875,-112.6812744140625
1758788240.4814193,-0.646484375,0.033203125,0.8310546875,-70.86181640625,11.8408203125,35.58349609375,3.592529296875,40.95703125,-112.1923828125
1758788240.4912686,-0.67041015625,-0.05078125,0.79150390625,-45.10498046875,10.68115234375,37.53662109375,3.36181640625,41.0504150390625,-111.7034912109375
1758788240.5017903,-0.67041015625,-0.05078125,0.79150390625,-45.10498046875,10.68115234375,37.53662109375,3.2574462890625,41.1328125,-111.2091064453125
1758788240.511583,-0.62890625,-0.033203125,0.7021484375,-33.5693359375,8.11767578125,38.4521484375,3.2135009765625,41.2042236328125,-110.709228515625
1758788240.5214016,-0.62890625,-0.033203125,0.7021484375,-33.5693359375,8.11767578125,38.4521484375,3.22998046875,41.2646484375,-110.21484375
1758788240.531306,-0.6787109375,0.08056640625,0.77880859375,-36.0107421875,8.30078125,39.61181640625,3.22998046875,41.3250732421875,-109.7149658203125
1758788240.5417824,-0.6787109375,0.08056640625,0.77880859375,-36.0107421875,8.30078125,39.61181640625,3.22998046875,41.3800048828125,-109.2095947265625
1758788240.5528667,-0.67041015625,0.12451171875,0.7490234375,-44.86083984375,7.9345703125,40.34423828125,3.1915283203125,41.4404296875,-108.6932373046875
1758788240.5660076,-0.67041015625,0.12451171875,0.7490234375,-44.86083984375,7.9345703125,40.34423828125,3.1146240234375,41.495361328125,-108.1658935546875
1758788240.5731707,-0.59033203125,0.1083984375,0.6943359375,-53.8330078125,7.87353515625,40.22216796875,2.9937744140625,41.55029296875,-107.6385498046875
1758788240.583759,-0.59033203125,0.1083984375,0.6943359375,-53.8330078125,7.87353515625,40.22216796875,2.83447265625,41.605224609375,-107.1112060546875
1758788240.5915933,-0.65234375,0.0546875,0.7685546875,-37.41455078125,6.8359375,38.26904296875,2.74658203125,41.6546630859375,-106.58935546875
1758788240.6014948,-0.65234375,0.0546875,0.7685546875,-37.41455078125,6.8359375,38.26904296875,2.735595703125,41.6986083984375,-106.0894775390625
1758788240.611377,-0.63818359375,0.00634765625,0.75634765625,-21.1181640625,7.080078125,35.94970703125,2.7960205078125,41.748046875,-105.6060791015625
1758788240.621943,-0.63818359375,0.00634765625,0.75634765625,-21.1181640625,7.080078125,35.94970703125,2.9168701171875,41.7919921875,-105.13916015625
1758788240.631494,-0.65283203125,0.02587890625,0.76953125,-10.498046875,6.7138671875,34.423828125,3.087158203125,41.8359375,-104.688720703125
1758788240.641527,-0.65283203125,0.02587890625,0.76953125,-10.498046875,6.7138671875,34.423828125,3.3013916015625,41.8798828125,-104.249267578125
1758788240.6514232,-0.67529296875,0.0947265625,0.81103515625,-17.08984375,6.4697265625,34.66796875,3.4771728515625,41.9183349609375,-103.809814453125
1758788240.6620743,-0.67529296875,0.0947265625,0.81103515625,-17.08984375,6.4697265625,34.66796875,3.6309814453125,41.9512939453125,-103.370361328125
1758788240.6715004,-0.6728515625,0.142578125,0.76416015625,-43.27392578125,5.2490234375,35.2783203125,3.6529541015625,41.978759765625,-102.919921875
1758788240.6815364,-0.6728515625,0.142578125,0.76416015625,-43.27392578125,5.2490234375,35.2783203125,3.548583984375,42.000732421875,-102.4639892578125
1758788240.691411,-0.64501953125,0.1416015625,0.736328125,-53.64990234375,3.60107421875,35.64453125,3.4002685546875,42.01171875,-102.008056640625
1758788240.701554,-0.64501953125,0.1416015625,0.736328125,-53.64990234375,3.60107421875,35.64453125,3.2025146484375,42.0172119140625,-101.5411376953125
1758788240.7118306,-0.59814453125,0.05126953125,0.75244140625,-46.93603515625,2.62451171875,35.58349609375,3.043212890625,42.022705078125,-101.07421875
1758788240.7214913,-0.59814453125,0.05126953125,0.75244140625,-46.93603515625,2.62451171875,35.58349609375,2.9168701171875,42.0172119140625,-100.6072998046875
1758788240.7314334,-0.63232421875,0.04052734375,0.75341796875,-41.3818359375,1.64794921875,35.94970703125,2.8179931640625,42.01171875,-100.1458740234375
1758788240.741555,-0.63232421875,0.04052734375,0.75341796875,-41.3818359375,1.64794921875,35.94970703125,2.74658203125,42.000732421875,-99.678955078125
1758788240.7516522,-0.61767578125,0.03564453125,0.84228515625,-33.8134765625,0.6103515625,36.43798828125,2.713623046875,41.9842529296875,-99.217529296875
1758788240.761618,-0.61767578125,0.03564453125,0.84228515625,-33.8134765625,0.6103515625,36.43798828125,2.7191162109375,41.956787109375,-98.7506103515625
1758788240.7714574,-0.6123046875,0.05078125,0.7841796875,-34.1796875,0.18310546875,37.7197265625,2.724609375,41.9293212890625,-98.28369140625
1758788240.7816484,-0.6123046875,0.05078125,0.7841796875,-34.1796875,0.18310546875,37.7197265625,2.7301025390625,41.8963623046875,-97.8057861328125
1758788240.7922206,-0.6318359375,-0.0048828125,0.7587890625,-23.25439453125,-1.15966796875,36.80419921875,2.7850341796875,41.85791015625,-97.3388671875
1758788240.8017206,-0.6318359375,-0.0048828125,0.7587890625,-23.25439453125,-1.15966796875,36.80419921875,2.889404296875,41.8084716796875,-96.8829345703125
1758788240.8121316,-0.59912109375,0.02587890625,0.77392578125,-13.427734375,-1.5869140625,36.62109375,3.0377197265625,41.759033203125,-96.427001953125
1758788240.8220592,-0.59912109375,0.02587890625,0.77392578125,-13.427734375,-1.5869140625,36.62109375,3.22998046875,41.7095947265625,-95.9820556640625
1758788240.8317845,-0.59814453125,0.07275390625,0.81201171875,-10.8642578125,-2.38037109375,36.07177734375,3.427734375,41.6546630859375,-95.5426025390625
1758788240.841739,-0.59814453125,0.07275390625,0.81201171875,-10.8642578125,-2.38037109375,36.07177734375,3.636474609375,41.5887451171875,-95.108642578125
1758788240.8515635,-0.62841796875,0.109375,0.84521484375,-17.333984375,-3.84521484375,36.31591796875,3.8177490234375,41.517333984375,-94.669189453125
1758788240.8621342,-0.62841796875,0.109375,0.84521484375,-17.333984375,-3.84521484375,36.31591796875,3.9605712890625,41.4349365234375,-94.229736328125
1758788240.8717496,-0.61181640625,0.10546875,0.775390625,-25.0244140625,-4.7607421875,37.109375,4.0704345703125,41.3470458984375,-93.790283203125
1758788240.8817382,-0.61181640625,0.10546875,0.775390625,-25.0244140625,-4.7607421875,37.109375,4.1473388671875,41.253662109375,-93.33984375
1758788240.8916247,-0.603515625,0.1298828125,0.6845703125,-36.19384765625,-6.04248046875,37.109375,4.163818359375,41.1492919921875,-92.889404296875
1758788240.9026566,-0.603515625,0.1298828125,0.6845703125,-36.19384765625,-6.04248046875,37.109375,4.130859375,41.0504150390625,-92.43896484375
1758788240.9117143,-0.5947265625,0.10009765625,0.75830078125,-43.701171875,-6.591796875,36.9873046875,4.0594482421875,40.946044921875,-91.988525390625
1758788240.9217513,-0.5947265625,0.10009765625,0.75830078125,-43.701171875,-6.591796875,36.9873046875,3.9495849609375,40.836181640625,-91.5325927734375
1758788240.9316251,-0.61767578125,0.09423828125,0.80322265625,-42.724609375,-8.36181640625,36.865234375,3.84521484375,40.726318359375,-91.0821533203125
1758788240.9419863,-0.61767578125,0.09423828125,0.80322265625,-42.724609375,-8.36181640625,36.865234375,3.746337890625,40.5999755859375,-90.6317138671875
1758788240.9516356,-0.65283203125,0.083984375,0.7958984375,-41.56494140625,-9.09423828125,38.14697265625,3.658447265625,40.4736328125,-90.17578125
1758788240.9623232,-0.65283203125,0.083984375,0.7958984375,-41.56494140625,-9.09423828125,38.14697265625,3.5760498046875,40.3472900390625,-89.71435546875
1758788240.9716957,-0.66943359375,0.06103515625,0.70849609375,-52.06298828125,-10.68115234375,37.841796875,3.438720703125,40.2154541015625,-89.2529296875
1758788240.9822166,-0.66943359375,0.06103515625,0.70849609375,-52.06298828125,-10.68115234375,37.841796875,3.251953125,40.078125,-88.7969970703125
1758788240.991689,-0.60888671875,0.06005859375,0.8525390625,-37.841796875,-11.23046875,39.306640625,3.1365966796875,39.9462890625,-88.330078125
1758788241.0018454,-0.60888671875,0.06005859375,0.8525390625,-37.841796875,-11.23046875,39.306640625,3.09814453125,39.803466796875,-87.8631591796875
1758788241.012443,-0.59912109375,0.02783203125,0.76904296875,-31.73828125,-10.31494140625,39.85595703125,3.087158203125,39.6661376953125,-87.38525390625
1758788241.0218415,-0.59912109375,0.02783203125,0.76904296875,-31.73828125,-10.31494140625,39.85595703125,3.109130859375,39.5343017578125,-86.912841796875
1758788241.0316577,-0.6416015625,0.13525390625,0.67333984375,-41.68701171875,-10.25390625,41.015625,3.0816650390625,39.407958984375,-86.4349365234375
1758788241.0418282,-0.6416015625,0.13525390625,0.67333984375,-41.68701171875,-10.25390625,41.015625,3.01025390625,39.2816162109375,-85.946044921875
1758788241.0520687,-0.60205078125,0.1025390625,0.73291015625,-46.5087890625,-10.6201171875,41.6259765625,2.92236328125,39.1552734375,-85.4461669921875
1758788241.0619042,-0.60205078125,0.1025390625,0.73291015625,-46.5087890625,-10.6201171875,41.6259765625,2.8070068359375,39.0289306640625,-84.9462890625
1758788241.0717177,-0.61279296875,0.08544921875,0.8310546875,-49.9267578125,-10.68115234375,42.66357421875,2.6861572265625,38.902587890625,-84.44091796875
1758788241.0819669,-0.61279296875,0.08544921875,0.8310546875,-49.9267578125,-10.68115234375,42.66357421875,2.548828125,38.7762451171875,-83.924560546875
1758788241.0924847,-0.68212890625,0.07958984375,0.8349609375,-40.71044921875,-10.7421875,42.66357421875,2.4554443359375,38.64990234375,-83.4136962890625
1758788241.1019387,-0.68212890625,0.07958984375,0.8349609375,-40.71044921875,-10.7421875,42.66357421875,2.406005859375,38.5235595703125,-82.90283203125
1758788241.1124544,-0.67333984375,0.06884765625,0.7431640625,-47.2412109375,-8.7890625,41.1376953125,2.318115234375,38.408203125,-82.4029541015625
1758788241.1219351,-0.67333984375,0.06884765625,0.7431640625,-47.2412109375,-8.7890625,41.1376953125,2.1917724609375,38.309326171875,-81.9140625
1758788241.1324499,-0.5546875,0.0947265625,0.6455078125,-42.1142578125,-5.2490234375,40.4052734375,2.08740234375,38.232421875,-81.4251708984375
1758788241.1419268,-0.5546875,0.0947265625,0.6455078125,-42.1142578125,-5.2490234375,40.4052734375,2.010498046875,38.1719970703125,-80.9417724609375
1758788241.1518023,-0.6416015625,0.0498046875,0.787109375,-27.77099609375,-2.8076171875,38.57421875,1.9940185546875,38.1280517578125,-80.4693603515625
1758788241.1619916,-0.6416015625,0.0498046875,0.787109375,-27.77099609375,-2.8076171875,38.57421875,2.04345703125,38.089599609375,-80.0079345703125
1758788241.1724687,-0.65771484375,0.03515625,0.96435546875,-22.5830078125,-2.197265625,37.53662109375,2.109375,38.0621337890625,-79.56298828125
1758788241.1819768,-0.65771484375,0.03515625,0.96435546875,-22.5830078125,-2.197265625,37.53662109375,2.197265625,38.0291748046875,-79.1180419921875
1758788241.1918678,-0.64306640625,0.1064453125,0.7919921875,-30.76171875,-2.197265625,36.1328125,2.2357177734375,37.99072265625,-78.6895751953125
1758788241.2019765,-0.64306640625,0.1064453125,0.7919921875,-30.76171875,-2.197265625,36.1328125,2.2247314453125,37.957763671875,-78.2720947265625
1758788241.2124798,-0.54248046875,0.12890625,0.740234375,-38.9404296875,-3.47900390625,35.82763671875,2.1807861328125,37.9193115234375,-77.84912109375
1758788241.2220254,-0.54248046875,0.12890625,0.740234375,-38.9404296875,-3.47900390625,35.82763671875,2.08740234375,37.869873046875,-77.4261474609375
1758788241.2319224,-0.5791015625,0.0810546875,0.78125,-36.56005859375,-1.89208984375,35.15625,2.021484375,37.8424072265625,-77.01416015625
1758788241.242059,-0.5791015625,0.0810546875,0.78125,-36.56005859375,-1.89208984375,35.15625,1.9500732421875,37.8094482421875,-76.5966796875
1758788241.2526355,-0.5888671875,0.04052734375,0.92138671875,-27.587890625,-3.0517578125,33.99658203125,1.9610595703125,37.7655029296875,-76.201171875
1758788241.262099,-0.5888671875,0.04052734375,0.92138671875,-27.587890625,-3.0517578125,33.99658203125,1.966552734375,37.716064453125,-75.8056640625
1758788241.2719016,-0.62744140625,-0.005859375,0.81787109375,-21.17919921875,-4.2724609375,32.5927734375,2.021484375,37.6556396484375,-75.4376220703125
1758788241.2820745,-0.62744140625,-0.005859375,0.81787109375,-21.17919921875,-4.2724609375,32.5927734375,2.076416015625,37.59521484375,-75.069580078125
1758788241.2926974,-0.5,0.00390625,0.65576171875,-1.64794921875,-5.7373046875,31.31103515625,2.30712890625,37.5238037109375,-74.7235107421875
1758788241.3021035,-0.5,0.00390625,0.65576171875,-1.64794921875,-5.7373046875,31.31103515625,2.537841796875,37.4468994140625,-74.37744140625
1758788241.3119924,-0.61767578125,0.0439453125,0.8779296875,-2.25830078125,-8.056640625,29.541015625,2.7410888671875,37.353515625,-74.0643310546875
1758788241.3223877,-0.61767578125,0.0439453125,0.8779296875,-2.25830078125,-8.056640625,29.541015625,2.9443359375,37.254638671875,-73.751220703125
1758788241.3325195,-0.64013671875,0.13720703125,0.9072265625,-12.75634765625,-7.87353515625,29.84619140625,3.043212890625,37.15576171875,-73.4271240234375
1758788241.3420742,-0.64013671875,0.13720703125,0.9072265625,-12.75634765625,-7.87353515625,29.84619140625,3.1475830078125,37.0513916015625,-73.1085205078125
1758788241.3519888,-0.57861328125,0.12451171875,0.65673828125,-24.10888671875,-8.72802734375,29.96826171875,3.1365966796875,36.947021484375,-72.784423828125
1758788241.3621206,-0.57861328125,0.12451171875,0.65673828125,-24.10888671875,-8.72802734375,29.96826171875,3.131103515625,36.8426513671875,-72.454833984375
1758788241.372648,-0.5810546875,0.09765625,0.73388671875,-32.958984375,-7.62939453125,30.029296875,3.0377197265625,36.7547607421875,-72.125244140625
1758788241.3821602,-0.5810546875,0.09765625,0.73388671875,-32.958984375,-7.62939453125,30.029296875,2.9498291015625,36.661376953125,-71.795654296875
1758788241.392071,-0.62451171875,0.08203125,0.86181640625,-43.51806640625,-5.4931640625,30.029296875,2.7520751953125,36.595458984375,-71.466064453125
1758788241.4022114,-0.62451171875,0.08203125,0.86181640625,-43.51806640625,-5.4931640625,30.029296875,2.559814453125,36.529541015625,-71.136474609375
1758788241.4127948,-0.62744140625,0.07080078125,0.80078125,-38.6962890625,-3.47900390625,29.78515625,2.4114990234375,36.485595703125,-70.806884765625
1758788241.422217,-0.62744140625,0.07080078125,0.80078125,-38.6962890625,-3.47900390625,29.78515625,2.26318359375,36.441650390625,-70.477294921875
1758788241.4320912,-0.58251953125,-0.00048828125,0.8349609375,-35.58349609375,-4.8828125,28.13720703125,2.13134765625,36.3812255859375,-70.1751708984375
1758788241.442232,-0.58251953125,-0.00048828125,0.8349609375,-35.58349609375,-4.8828125,28.13720703125,1.9940185546875,36.3262939453125,-69.873046875
1758788241.4526746,-0.61279296875,0.0322265625,0.8876953125,-18.24951171875,-3.5400390625,27.03857421875,2.0269775390625,36.2823486328125,-69.58740234375
1758788241.4622257,-0.61279296875,0.0322265625,0.8876953125,-18.24951171875,-3.5400390625,27.03857421875,2.054443359375,36.2384033203125,-69.3017578125
1758788241.472154,-0.564453125,0.046875,0.74853515625,-16.54052734375,-2.86865234375,26.4892578125,2.0928955078125,36.199951171875,-69.027099609375
1758788241.482304,-0.564453125,0.046875,0.74853515625,-16.54052734375,-2.86865234375,26.4892578125,2.13134765625,36.1614990234375,-68.7469482421875
1758788241.4921474,-0.58349609375,0.11376953125,0.7109375,-27.64892578125,-2.86865234375,26.06201171875,2.0599365234375,36.1285400390625,-68.477783203125
1758788241.5022278,-0.58349609375,0.11376953125,0.7109375,-27.64892578125,-2.86865234375,26.06201171875,1.988525390625,36.090087890625,-68.1976318359375
1758788241.5121515,-0.55859375,0.111328125,0.86328125,-47.18017578125,-4.150390625,26.611328125,1.7303466796875,36.046142578125,-67.9119873046875
1758788241.5226698,-0.55859375,0.111328125,0.86328125,-47.18017578125,-4.150390625,26.611328125,1.47216796875,35.9967041015625,-67.6263427734375
1758788241.5322194,-0.61474609375,0.0634765625,0.8740234375,-39.24560546875,-4.2724609375,26.91650390625,1.29638671875,35.947265625,-67.3297119140625
1758788241.5423422,-0.61474609375,0.0634765625,0.8740234375,-39.24560546875,-4.2724609375,26.91650390625,1.12060546875,35.8978271484375,-67.03857421875
1758788241.5525084,-0.60498046875,0.04736328125,0.826171875,-41.32080078125,-4.7607421875,26.55029296875,0.9228515625,35.8428955078125,-66.7474365234375
1758788241.5624177,-0.60498046875,0.04736328125,0.826171875,-41.32080078125,-4.7607421875,26.55029296875,0.72509765625,35.79345703125,-66.4617919921875
1758788241.572204,-0.4921875,0.02392578125,0.76708984375,-37.78076171875,-3.662109375,26.611328125,0.5657958984375,35.74951171875,-66.170654296875
1758788241.5823767,-0.4921875,0.02392578125,0.76708984375,-37.78076171875,-3.662109375,26.611328125,0.4010009765625,35.7110595703125,-65.885009765625
1758788241.5925212,-0.5556640625,-0.03759765625,0.76806640625,-15.31982421875,-2.99072265625,24.5361328125,0.4449462890625,35.672607421875,-65.621337890625
1758788241.602911,-0.5556640625,-0.03759765625,0.76806640625,-15.31982421875,-2.99072265625,24.5361328125,0.4833984375,35.6396484375,-65.36865234375
1758788241.6122615,-0.61376953125,-0.07958984375,0.9423828125,3.7841796875,-3.60107421875,23.37646484375,0.6976318359375,35.6011962890625,-65.1324462890625
1758788241.62238,-0.61376953125,-0.07958984375,0.9423828125,3.7841796875,-3.60107421875,23.37646484375,0.9063720703125,35.5572509765625,-64.9017333984375
1758788241.6322865,-0.61962890625,0.0625,0.93798828125,-6.89697265625,-3.84521484375,22.5830078125,0.999755859375,35.5133056640625,-64.6820068359375
1758788241.6430578,-0.61962890625,0.0625,0.93798828125,-6.89697265625,-3.84521484375,22.5830078125,1.0931396484375,35.4638671875,-64.4622802734375
1758788241.6522758,-0.46337890625,0.14453125,0.68359375,-21.42333984375,-2.5634765625,21.42333984375,1.043701171875,35.430908203125,-64.2535400390625
1758788241.6623805,-0.46337890625,0.14453125,0.68359375,-21.42333984375,-2.5634765625,21.42333984375,0.9942626953125,35.3924560546875,-64.0338134765625
1758788241.6723366,-0.57861328125,0.08740234375,0.84228515625,-30.029296875,-4.33349609375,21.728515625,0.8624267578125,35.343017578125,-63.8140869140625
1758788241.6825955,-0.57861328125,0.08740234375,0.84228515625,-30.029296875,-4.33349609375,21.728515625,0.736083984375,35.2880859375,-63.5888671875
1758788241.692331,-0.61083984375,-0.02587890625,0.966796875,-28.4423828125,-3.2958984375,22.15576171875,0.6207275390625,35.2496337890625,-63.358154296875
1758788241.7024775,-0.61083984375,-0.02587890625,0.966796875,-28.4423828125,-3.2958984375,22.15576171875,0.50537109375,35.2056884765625,-63.1329345703125
1758788241.7157428,-0.47509765625,-0.04736328125,0.66259765625,-2.62451171875,-2.74658203125,20.69091796875,0.63720703125,35.167236328125,-62.9296875
1758788241.7236319,-0.47509765625,-0.04736328125,0.66259765625,-2.62451171875,-2.74658203125,20.69091796875,0.7635498046875,35.13427734375,-62.73193359375
1758788241.732435,-0.60302734375,-0.07080078125,0.90087890625,13.7939453125,-4.08935546875,17.88330078125,1.0272216796875,35.0848388671875,-62.5726318359375
1758788241.7425065,-0.60302734375,-0.07080078125,0.90087890625,13.7939453125,-4.08935546875,17.88330078125,1.285400390625,35.035400390625,-62.42431640625
1758788241.7532735,-0.6376953125,0.02197265625,0.94384765625,15.5029296875,-1.220703125,17.08984375,1.5545654296875,35.013427734375,-62.281494140625
1758788241.7627223,-0.6376953125,0.02197265625,0.94384765625,15.5029296875,-1.220703125,17.08984375,1.8182373046875,34.9969482421875,-62.138671875
1758788241.772433,-0.48193359375,0.142578125,0.65966796875,-7.32421875,-1.28173828125,17.15087890625,1.8621826171875,34.969482421875,-61.9903564453125
1758788241.7825332,-0.48193359375,0.142578125,0.65966796875,-7.32421875,-1.28173828125,17.15087890625,1.91162109375,34.9530029296875,-61.8365478515625
1758788241.7930987,-0.587890625,0.11669921875,0.80908203125,-30.70068359375,0.732421875,17.822265625,1.73583984375,34.947509765625,-61.6717529296875
1758788241.8025997,-0.587890625,0.11669921875,0.80908203125,-30.70068359375,0.732421875,17.822265625,1.5655517578125,34.947509765625,-61.50146484375
1758788241.8124967,-0.66064453125,0.07421875,0.8369140625,-41.9921875,2.44140625,18.00537109375,1.285400390625,34.969482421875,-61.3311767578125
1758788241.822625,-0.66064453125,0.07421875,0.8369140625,-41.9921875,2.44140625,18.00537109375,1.0052490234375,34.991455078125,-61.1553955078125
1758788241.8327744,-0.65966796875,-0.01025390625,0.806640625,-39.97802734375,2.01416015625,16.2353515625,0.736083984375,35.013427734375,-61.0015869140625
1758788241.8426151,-0.65966796875,-0.01025390625,0.806640625,-39.97802734375,2.01416015625,16.2353515625,0.4669189453125,35.035400390625,-60.853271484375
1758788241.8525581,-0.72607421875,-0.05224609375,0.77099609375,-7.080078125,7.32421875,14.404296875,0.5108642578125,35.1177978515625,-60.732421875
1758788241.8626082,-0.72607421875,-0.05224609375,0.77099609375,-7.080078125,7.32421875,14.404296875,0.54931640625,35.2001953125,-60.611572265625
1758788241.8731315,-0.6572265625,-0.021484375,0.654296875,9.58251953125,12.5732421875,11.16943359375,0.7305908203125,35.343017578125,-60.53466796875
1758788241.8825808,-0.6572265625,-0.021484375,0.654296875,9.58251953125,12.5732421875,11.16943359375,0.911865234375,35.48583984375,-60.457763671875
1758788241.8925548,-0.6181640625,0.072265625,0.7216796875,-8.85009765625,12.39013671875,8.97216796875,0.8953857421875,35.628662109375,-60.40283203125
1758788241.9027984,-0.6181640625,0.072265625,0.7216796875,-8.85009765625,12.39013671875,8.97216796875,0.87890625,35.771484375,-60.347900390625
1758788241.9131238,-0.5419921875,0.10888671875,0.89453125,-16.29638671875,9.6435546875,7.99560546875,0.7855224609375,35.88134765625,-60.2984619140625
1758788241.9226055,-0.5419921875,0.10888671875,0.89453125,-16.29638671875,9.6435546875,7.99560546875,0.6976318359375,35.9857177734375,-60.2490234375
1758788241.9325945,-0.5478515625,0.0859375,0.83154296875,-28.38134765625,5.06591796875,8.544921875,0.494384765625,36.0406494140625,-60.1885986328125
1758788241.9427629,-0.5478515625,0.0859375,0.83154296875,-28.38134765625,5.06591796875,8.544921875,0.2911376953125,36.0955810546875,-60.1226806640625
1758788241.9525955,-0.52490234375,0.0712890625,0.787109375,-45.654296875,1.220703125,9.09423828125,-0.0714111328125,36.112060546875,-60.0457763671875
1758788241.962639,-0.52490234375,0.0712890625,0.787109375,-45.654296875,1.220703125,9.09423828125,-0.4339599609375,36.123046875,-59.96337890625
1758788241.9726357,-0.49462890625,0.0,0.80126953125,-44.73876953125,-1.40380859375,12.75634765625,-0.7635498046875,36.1065673828125,-59.842529296875
1758788241.983186,-0.49462890625,0.0,0.80126953125,-44.73876953125,-1.40380859375,12.75634765625,-1.0931396484375,36.090087890625,-59.7161865234375
1758788241.9926426,-0.583984375,-0.1748046875,0.82763671875,-5.79833984375,-2.13623046875,13.48876953125,-1.03271484375,36.068115234375,-59.5843505859375
1758788242.0027816,-0.583984375,-0.1748046875,0.82763671875,-5.79833984375,-2.13623046875,13.48876953125,-0.9832763671875,36.046142578125,-59.468994140625
1758788242.0146224,-0.67822265625,-0.17138671875,0.91650390625,18.798828125,-2.3193359375,12.02392578125,-0.7086181640625,36.0186767578125,-59.3756103515625
1758788242.0232494,-0.67822265625,-0.17138671875,0.91650390625,18.798828125,-2.3193359375,12.02392578125,-0.439453125,35.9967041015625,-59.293212890625
1758788242.0329561,-0.60400390625,0.06787109375,0.8095703125,0.91552734375,-1.3427734375,12.0849609375,-0.3515625,35.980224609375,-59.2108154296875
1758788242.0426757,-0.60400390625,0.06787109375,0.8095703125,0.91552734375,-1.3427734375,12.0849609375,-0.2581787109375,35.96923828125,-59.1229248046875
1758788242.0527923,-0.5927734375,0.10546875,0.671875,-9.8876953125,0.3662109375,11.53564453125,-0.274658203125,35.9747314453125,-59.0350341796875
1758788242.0635288,-0.5927734375,0.10546875,0.671875,-9.8876953125,0.3662109375,11.53564453125,-0.2801513671875,35.980224609375,-58.941650390625
1758788242.0729566,-0.5927734375,0.10546875,0.671875,-9.21630859375,0.06103515625,10.8642578125,-0.2911376953125,35.9912109375,-58.8592529296875
1758788242.082795,-0.7275390625,-0.01416015625,0.90283203125,-9.21630859375,0.06103515625,10.8642578125,-0.296630859375,35.9967041015625,-58.77685546875
1758788242.0927846,-0.7275390625,-0.01416015625,0.90283203125,1.46484375,1.8310546875,9.70458984375,-0.208740234375,36.024169921875,-58.7109375
1758788242.1030943,-0.6201171875,-0.06103515625,0.697265625,1.46484375,1.8310546875,9.70458984375,-0.1263427734375,36.05712890625,-58.6505126953125
1758788242.1131682,-0.611328125,-0.0458984375,0.65234375,18.9208984375,0.732421875,7.568359375,0.10986328125,36.0736083984375,-58.623046875
1758788242.1228004,-0.611328125,-0.0458984375,0.65234375,18.9208984375,0.732421875,7.568359375,0.3515625,36.10107421875,-58.5955810546875
1758788242.132805,-0.7314453125,-0.02978515625,0.935546875,25.20751953125,1.3427734375,7.4462890625,0.648193359375,36.1285400390625,-58.568115234375
1758788242.143328,-0.7314453125,-0.02978515625,0.935546875,25.20751953125,1.3427734375,7.4462890625,0.94482421875,36.156005859375,-58.546142578125
1758788242.1530006,-0.6220703125,0.03466796875,0.72021484375,7.6904296875,0.42724609375,7.4462890625,1.065673828125,36.177978515625,-58.5186767578125
1758788242.1628387,-0.6220703125,0.03466796875,0.72021484375,7.6904296875,0.42724609375,7.4462890625,1.1920166015625,36.199951171875,-58.4967041015625
1758788242.1728597,-0.55078125,0.1435546875,0.66357421875,-19.83642578125,-0.9765625,8.30078125,1.0491943359375,36.2054443359375,-58.4527587890625
1758788242.1836088,-0.55078125,0.1435546875,0.66357421875,-19.83642578125,-0.9765625,8.30078125,0.9173583984375,36.2109375,-58.4033203125
1758788242.192857,-0.65771484375,0.056640625,0.83056640625,-25.93994140625,-0.1220703125,8.72802734375,0.72509765625,36.221923828125,-58.348388671875
1758788242.2028356,-0.65771484375,0.056640625,0.83056640625,-25.93994140625,-0.1220703125,8.72802734375,0.5438232421875,36.2384033203125,-58.2879638671875
1758788242.21313,-0.66064453125,0.017578125,0.75390625,-26.18408203125,-0.54931640625,8.30078125,0.3515625,36.2493896484375,-58.2330322265625
1758788242.223476,-0.66064453125,0.017578125,0.75390625,-26.18408203125,-0.54931640625,8.30078125,0.164794921875,36.2603759765625,-58.18359375
1758788242.2328596,-0.6474609375,-0.0556640625,0.8115234375,-20.44677734375,-2.74658203125,7.01904296875,0.0164794921875,36.2493896484375,-58.1451416015625
1758788242.2429478,-0.6474609375,-0.0556640625,0.8115234375,-20.44677734375,-2.74658203125,7.01904296875,-0.120849609375,36.243896484375,-58.1121826171875
1758788242.2534564,-0.6162109375,-0.05419921875,0.80859375,-4.08935546875,-1.5869140625,6.77490234375,-0.10986328125,36.243896484375,-58.084716796875
1758788242.2629476,-0.6162109375,-0.05419921875,0.80859375,-4.08935546875,-1.5869140625,6.77490234375,-0.098876953125,36.243896484375,-58.0572509765625
1758788242.272949,-0.5810546875,-0.033203125,0.68212890625,6.9580078125,-1.5869140625,6.65283203125,0.0164794921875,36.243896484375,-58.0352783203125
1758788242.2832396,-0.5810546875,-0.033203125,0.68212890625,6.9580078125,-1.5869140625,6.65283203125,0.1318359375,36.243896484375,-58.0133056640625
1758788242.29367,-0.67919921875,0.01220703125,0.81396484375,-7.14111328125,-1.03759765625,6.9580078125,0.10986328125,36.2548828125,-57.98583984375
1758788242.3029788,-0.67919921875,0.01220703125,0.81396484375,-7.14111328125,-1.03759765625,6.9580078125,0.0933837890625,36.2603759765625,-57.9583740234375
1758788242.3130057,-0.61669921875,0.0556640625,0.75537109375,-13.36669921875,-0.6103515625,7.4462890625,0.0164794921875,36.2713623046875,-57.919921875
1758788242.3236012,-0.6513671875,-0.0009765625,0.73828125,-16.17431640625,-0.54931640625,7.568359375,-0.0714111328125,36.2823486328125,-57.8814697265625
1758788242.3331082,-0.6513671875,-0.0009765625,0.73828125,-16.17431640625,-0.54931640625,7.568359375,-0.1702880859375,36.298828125,-57.843017578125
1758788242.342977,-0.6650390625,0.01953125,0.875,-19.71435546875,-1.0986328125,7.99560546875,-0.28564453125,36.309814453125,-57.799072265625
1758788242.3529725,-0.6650390625,0.01953125,0.875,-19.71435546875,-1.0986328125,7.99560546875,-0.41748046875,36.3153076171875,-57.7496337890625
1758788242.363238,-0.60791015625,0.0185546875,0.7138671875,-24.90234375,-1.15966796875,8.30078125,-0.5767822265625,36.3262939453125,-57.7001953125
1758788242.3731592,-0.60791015625,0.0185546875,0.7138671875,-24.90234375,-1.15966796875,8.30078125,-0.7525634765625,36.331787109375,-57.645263671875
1758788242.3829858,-0.60107421875,0.0126953125,0.67431640625,-25.146484375,-0.67138671875,9.21630859375,-0.9283447265625,36.3427734375,-57.5848388671875
1758788242.3930433,-0.60107421875,0.0126953125,0.67431640625,-25.146484375,-0.67138671875,9.21630859375,-1.0986328125,36.353759765625,-57.5189208984375
1758788242.4033315,-0.67041015625,-0.10546875,0.84130859375,-4.0283203125,-0.06103515625,9.3994140625,-1.16455078125,36.375732421875,-57.4530029296875
1758788242.413512,-0.67041015625,-0.10546875,0.84130859375,-4.0283203125,-0.06103515625,9.3994140625,-1.131591796875,36.3922119140625,-57.3870849609375
1758788242.4230912,-0.626953125,-0.14306640625,0.78955078125,19.53125,-0.30517578125,8.60595703125,-0.9832763671875,36.4141845703125,-57.3321533203125
1758788242.4331024,-0.626953125,-0.14306640625,0.78955078125,19.53125,-0.30517578125,8.60595703125,-0.7305908203125,36.4306640625,-57.2882080078125
1758788242.4435234,-0.70751953125,-0.03173828125,0.82080078125,18.85986328125,-1.64794921875,7.8125,-0.4888916015625,36.4361572265625,-57.249755859375
1758788242.4531367,-0.70751953125,-0.03173828125,0.82080078125,18.85986328125,-1.64794921875,7.8125,-0.252685546875,36.441650390625,-57.2222900390625
1758788242.4631228,-0.60205078125,0.119140625,0.77392578125,-4.0283203125,-1.708984375,8.6669921875,-0.1263427734375,36.4471435546875,-57.183837890625
1758788242.4731677,-0.60205078125,0.119140625,0.77392578125,-4.0283203125,-1.708984375,8.6669921875,-0.10986328125,36.4471435546875,-57.1343994140625
1758788242.4835792,-0.580078125,0.083984375,0.6787109375,-27.7099609375,-2.0751953125,10.55908203125,-0.19775390625,36.4471435546875,-57.0684814453125
1758788242.4932437,-0.580078125,0.083984375,0.6787109375,-27.7099609375,-2.0751953125,10.55908203125,-0.3900146484375,36.441650390625,-56.986083984375
1758788242.5031328,-0.59765625,-0.0234375,0.89111328125,-21.1181640625,-2.9296875,10.986328125,-0.5438232421875,36.4361572265625,-56.898193359375
1758788242.513228,-0.59765625,-0.0234375,0.89111328125,-21.1181640625,-2.9296875,10.986328125,-0.670166015625,36.419677734375,-56.810302734375
1758788242.5238488,-0.63134765625,-0.119140625,0.81884765625,-13.3056640625,-2.99072265625,10.986328125,-0.7525634765625,36.4031982421875,-56.722412109375
1758788242.5331926,-0.63134765625,-0.119140625,0.81884765625,-13.3056640625,-2.99072265625,10.986328125,-0.802001953125,36.38671875,-56.634521484375
1758788242.5431635,-0.59619140625,-0.0986328125,0.69775390625,7.080078125,-3.662109375,10.07080078125,-0.758056640625,36.36474609375,-56.5631103515625
1758788242.5534358,-0.59619140625,-0.0986328125,0.69775390625,7.080078125,-3.662109375,10.07080078125,-0.6207275390625,36.3427734375,-56.4971923828125
1758788242.5635192,-0.58935546875,-0.07421875,0.76025390625,21.05712890625,-3.47900390625,9.521484375,-0.41748046875,36.3262939453125,-56.4422607421875
1758788242.5732145,-0.58935546875,-0.07421875,0.76025390625,21.05712890625,-3.47900390625,9.521484375,-0.15380859375,36.3043212890625,-56.392822265625
1758788242.5832658,-0.58935546875,-0.07421875,0.76025390625,15.380859375,-3.35693359375,9.27734375,0.076904296875,36.2823486328125,-56.3433837890625
1758788242.5940454,-0.61083984375,0.01416015625,0.91357421875,15.380859375,-3.35693359375,9.27734375,0.28564453125,36.2603759765625,-56.2939453125
1758788242.6033523,-0.5966796875,0.06103515625,0.79638671875,14.404296875,-3.0517578125,9.82666015625,0.4888916015625,36.2384033203125,-56.2445068359375
1758788242.6154313,-0.5966796875,0.06103515625,0.79638671875,14.404296875,-3.0517578125,9.82666015625,0.692138671875,36.2109375,-56.18408203125
1758788242.6233444,-0.62353515625,0.0029296875,0.73681640625,6.53076171875,-3.35693359375,9.8876953125,0.85693359375,36.18896484375,-56.1181640625
1758788242.6337018,-0.62353515625,0.0029296875,0.73681640625,6.53076171875,-3.35693359375,9.8876953125,0.98876953125,36.1614990234375,-56.0577392578125
1758788242.6432724,-0.6328125,0.068359375,0.81298828125,-10.3759765625,-3.173828125,10.8642578125,1.03271484375,36.1395263671875,-55.986328125
1758788242.653306,-0.6328125,0.068359375,0.81298828125,-10.3759765625,-3.173828125,10.8642578125,1.0052490234375,36.1175537109375,-55.909423828125
1758788242.6632817,-0.62841796875,0.0439453125,0.72509765625,-15.869140625,-1.03759765625,12.14599609375,0.955810546875,36.1065673828125,-55.821533203125
