timestamp,acc_x,acc_y,acc_z,gyro_x,gyro_y,gyro_z,angle_x,angle_y,angle_z
1758876768.8160622,-0.73388671875,-0.03271484375,0.681640625,0.18310546875,2.13623046875,-5.43212890625,-1.5435791015625,46.1810302734375,-161.56494140625
1758876768.8300376,-0.73388671875,-0.03271484375,0.681640625,0.18310546875,2.13623046875,-5.43212890625,-1.5985107421875,46.197509765625,-161.641845703125
1758876768.8464513,-0.7275390625,-0.037109375,0.68798828125,2.0751953125,2.38037109375,-5.126953125,-1.6424560546875,46.219482421875,-161.7132568359375
1758876768.8581693,-0.7275390625,-0.037109375,0.68798828125,2.0751953125,2.38037109375,-5.126953125,-1.6754150390625,46.241455078125,-161.7901611328125
1758876768.8688772,-0.72314453125,-0.03173828125,0.6923828125,3.47900390625,2.685546875,-4.8828125,-1.702880859375,46.263427734375,-161.861572265625
1758876768.8756082,-0.72314453125,-0.03173828125,0.6923828125,3.47900390625,2.685546875,-4.8828125,-1.7193603515625,46.285400390625,-161.9329833984375
1758876768.8830986,-0.7216796875,-0.0234375,0.68896484375,3.47900390625,2.74658203125,-4.82177734375,-1.73583984375,46.3128662109375,-162.00439453125
1758876768.8892944,-0.7216796875,-0.0234375,0.68896484375,3.47900390625,2.74658203125,-4.82177734375,-1.7523193359375,46.3348388671875,-162.0758056640625
1758876768.8955042,-0.72802734375,-0.01708984375,0.68603515625,3.23486328125,2.99072265625,-4.82177734375,-1.7742919921875,46.3623046875,-162.147216796875
1758876768.9018176,-0.72802734375,-0.01708984375,0.68603515625,3.23486328125,2.99072265625,-4.82177734375,-1.790771484375,46.3897705078125,-162.2186279296875
1758876768.911708,-0.7353515625,-0.02392578125,0.68603515625,3.84521484375,3.5400390625,-4.8828125,-1.8072509765625,46.4227294921875,-162.2900390625
1758876768.9217505,-0.7353515625,-0.02392578125,0.68603515625,3.84521484375,3.5400390625,-4.8828125,-1.82373046875,46.4556884765625,-162.3614501953125
1758876768.9317112,-0.7255859375,-0.02978515625,0.6806640625,4.33349609375,3.84521484375,-4.82177734375,-1.834716796875,46.4886474609375,-162.432861328125
1758876768.941712,-0.7255859375,-0.02978515625,0.6806640625,4.33349609375,3.84521484375,-4.82177734375,-1.845703125,46.527099609375,-162.5042724609375
1758876768.9517245,-0.71826171875,-0.02880859375,0.69140625,3.2958984375,3.96728515625,-4.638671875,-1.856689453125,46.5655517578125,-162.57568359375
1758876768.9620214,-0.71826171875,-0.02880859375,0.69140625,3.2958984375,3.96728515625,-4.638671875,-1.878662109375,46.5985107421875,-162.6470947265625
1758876768.9717407,-0.71142578125,-0.02490234375,0.70263671875,1.708984375,3.7841796875,-4.57763671875,-1.900634765625,46.636962890625,-162.718505859375
1758876768.9818778,-0.71142578125,-0.02490234375,0.70263671875,1.708984375,3.7841796875,-4.57763671875,-1.9390869140625,46.669921875,-162.7899169921875
1758876768.991989,-0.71435546875,-0.02490234375,0.703125,0.67138671875,3.60107421875,-4.39453125,-1.9720458984375,46.702880859375,-162.8558349609375
1758876769.0022905,-0.71435546875,-0.02490234375,0.703125,0.67138671875,3.60107421875,-4.39453125,-2.0159912109375,46.73583984375,-162.92724609375
1758876769.011811,-0.7275390625,-0.03125,0.6884765625,2.3193359375,3.60107421875,-4.21142578125,-2.0489501953125,46.7633056640625,-162.9931640625
1758876769.0218263,-0.7275390625,-0.03125,0.6884765625,2.3193359375,3.60107421875,-4.21142578125,-2.0709228515625,46.7962646484375,-163.05908203125
1758876769.0318265,-0.72802734375,-0.03955078125,0.6748046875,3.11279296875,3.5400390625,-3.96728515625,-2.08740234375,46.82373046875,-163.125
1758876769.0418348,-0.72802734375,-0.03955078125,0.6748046875,3.11279296875,3.5400390625,-3.96728515625,-2.1038818359375,46.856689453125,-163.19091796875
1758876769.0518594,-0.73046875,-0.03515625,0.6826171875,2.197265625,3.41796875,-3.5400390625,-2.120361328125,46.8841552734375,-163.2513427734375
1758876769.0618696,-0.73046875,-0.03515625,0.6826171875,2.197265625,3.41796875,-3.5400390625,-2.1368408203125,46.9171142578125,-163.3062744140625
1758876769.071888,-0.736328125,-0.02783203125,0.681640625,1.77001953125,3.2958984375,-3.35693359375,-2.1588134765625,46.944580078125,-163.3612060546875
1758876769.081877,-0.736328125,-0.02783203125,0.681640625,1.77001953125,3.2958984375,-3.35693359375,-2.1807861328125,46.9720458984375,-163.4161376953125
1758876769.0919137,-0.73779296875,-0.0263671875,0.669921875,0.9765625,3.173828125,-3.173828125,-2.2027587890625,47.0050048828125,-163.465576171875
1758876769.102063,-0.73779296875,-0.0263671875,0.669921875,0.9765625,3.173828125,-3.173828125,-2.230224609375,47.032470703125,-163.5150146484375
1758876769.1119645,-0.74462890625,-0.02685546875,0.6689453125,0.6103515625,3.173828125,-3.173828125,-2.2576904296875,47.0599365234375,-163.564453125
1758876769.1219254,-0.74462890625,-0.02685546875,0.6689453125,0.6103515625,3.173828125,-3.173828125,-2.2906494140625,47.08740234375,-163.6138916015625
1758876769.132189,-0.7509765625,-0.03515625,0.6630859375,1.953125,3.662109375,-3.0517578125,-2.3126220703125,47.120361328125,-163.663330078125
1758876769.1419866,-0.7509765625,-0.03515625,0.6630859375,1.953125,3.662109375,-3.0517578125,-2.3291015625,47.1588134765625,-163.7127685546875
1758876769.1520007,-0.7353515625,-0.0419921875,0.66552734375,3.41796875,3.96728515625,-3.23486328125,-2.340087890625,47.197265625,-163.76220703125
1758876769.1620102,-0.7353515625,-0.0419921875,0.66552734375,3.41796875,3.96728515625,-3.23486328125,-2.340087890625,47.2357177734375,-163.8116455078125
1758876769.1720164,-0.70068359375,-0.0302734375,0.68408203125,4.08935546875,3.662109375,-3.72314453125,-2.3455810546875,47.274169921875,-163.8665771484375
1758876769.1820111,-0.70068359375,-0.0302734375,0.68408203125,4.08935546875,3.662109375,-3.72314453125,-2.35107421875,47.30712890625,-163.927001953125
1758876769.192054,-0.68994140625,-0.0185546875,0.73193359375,3.23486328125,2.9296875,-4.2724609375,-2.3565673828125,47.3345947265625,-163.992919921875
1758876769.2020442,-0.68994140625,-0.0185546875,0.73193359375,3.23486328125,2.9296875,-4.2724609375,-2.373046875,47.3565673828125,-164.0643310546875
1758876769.2120616,-0.6982421875,-0.01513671875,0.70166015625,3.0517578125,2.25830078125,-5.0048828125,-2.39501953125,47.3785400390625,-164.1412353515625
1758876769.2220564,-0.6982421875,-0.01513671875,0.70166015625,3.0517578125,2.25830078125,-5.0048828125,-2.4224853515625,47.3895263671875,-164.2236328125
1758876769.232081,-0.7001953125,-0.029296875,0.6943359375,4.638671875,1.52587890625,-5.55419921875,-2.43896484375,47.4005126953125,-164.3115234375
1758876769.242095,-0.7001953125,-0.029296875,0.6943359375,4.638671875,1.52587890625,-5.55419921875,-2.449951171875,47.4005126953125,-164.4049072265625
1758876769.252096,-0.705078125,-0.0419921875,0.72998046875,5.37109375,1.0986328125,-5.9814453125,-2.4664306640625,47.406005859375,-164.498291015625
1758876769.2621014,-0.705078125,-0.0419921875,0.72998046875,5.37109375,1.0986328125,-5.9814453125,-2.4774169921875,47.4005126953125,-164.59716796875
1758876769.2721415,-0.703125,-0.05126953125,0.7265625,9.70458984375,0.42724609375,-6.28662109375,-2.4664306640625,47.39501953125,-164.7015380859375
1758876769.2821505,-0.703125,-0.05126953125,0.7265625,9.70458984375,0.42724609375,-6.28662109375,-2.43896484375,47.384033203125,-164.805908203125
1758876769.2921493,-0.6953125,-0.05810546875,0.71728515625,14.34326171875,-0.42724609375,-6.591796875,-2.39501953125,47.3675537109375,-164.9212646484375
1758876769.3021905,-0.6953125,-0.05810546875,0.71728515625,14.34326171875,-0.42724609375,-6.591796875,-2.3236083984375,47.35107421875,-165.03662109375
1758876769.3142815,-0.7158203125,-0.0654296875,0.74267578125,21.30126953125,-1.64794921875,-6.53076171875,-2.2247314453125,47.3236083984375,-165.1519775390625
1758876769.3222125,-0.7158203125,-0.0654296875,0.74267578125,21.30126953125,-1.64794921875,-6.53076171875,-2.08740234375,47.2906494140625,-165.2728271484375
1758876769.3322065,-0.71240234375,-0.0791015625,0.716796875,34.423828125,-2.8076171875,-7.01904296875,-1.8951416015625,47.252197265625,-165.3936767578125
1758876769.342226,-0.71240234375,-0.0791015625,0.716796875,34.423828125,-2.8076171875,-7.01904296875,-1.636962890625,47.208251953125,-165.52001953125
1758876769.3522673,-0.654296875,-0.03759765625,0.7314453125,49.25537109375,-3.7841796875,-7.01904296875,-1.3128662109375,47.1588134765625,-165.65185546875
1758876769.3623292,-0.654296875,-0.03759765625,0.7314453125,49.25537109375,-3.7841796875,-7.01904296875,-0.911865234375,47.1038818359375,-165.7891845703125
1758876769.3723495,-0.65234375,-0.064453125,0.75439453125,52.1240234375,-3.662109375,-6.65283203125,-0.4998779296875,47.0489501953125,-165.9210205078125
1758876769.3823485,-0.65234375,-0.064453125,0.75439453125,52.1240234375,-3.662109375,-6.65283203125,-0.076904296875,46.9940185546875,-166.058349609375
1758876769.3923545,-0.61767578125,-0.0244140625,0.798828125,59.4482421875,-4.7607421875,-6.7138671875,0.3790283203125,46.9281005859375,-166.201171875
1758876769.402348,-0.61767578125,-0.0244140625,0.798828125,59.4482421875,-4.7607421875,-6.7138671875,0.867919921875,46.8621826171875,-166.3494873046875
1758876769.412778,-0.62744140625,-0.02685546875,0.810546875,71.533203125,-4.82177734375,-7.38525390625,1.417236328125,46.790771484375,-166.5087890625
1758876769.4224997,-0.62744140625,-0.02685546875,0.810546875,71.533203125,-4.82177734375,-7.38525390625,2.0159912109375,46.7138671875,-166.673583984375
1758876769.4324403,-0.58251953125,-0.03369140625,0.7958984375,88.56201171875,-5.06591796875,-9.27734375,2.6861572265625,46.6424560546875,-166.8603515625
1758876769.4424007,-0.58251953125,-0.03369140625,0.7958984375,88.56201171875,-5.06591796875,-9.27734375,3.427734375,46.5655517578125,-167.069091796875
1758876769.4524627,-0.6357421875,0.01171875,0.77490234375,106.62841796875,-3.90625,-10.986328125,4.24072265625,46.494140625,-167.2943115234375
1758876769.4627955,-0.6357421875,0.01171875,0.77490234375,106.62841796875,-3.90625,-10.986328125,5.1361083984375,46.4337158203125,-167.530517578125
1758876769.4724529,-0.658203125,0.11181640625,0.73193359375,87.21923828125,-4.0283203125,-11.962890625,5.9271240234375,46.373291015625,-167.7777099609375
1758876769.482422,-0.658203125,0.11181640625,0.73193359375,87.21923828125,-4.0283203125,-11.962890625,6.6192626953125,46.3128662109375,-168.0303955078125
1758876769.4928625,-0.658203125,0.22314453125,0.70654296875,33.3251953125,-3.47900390625,-11.16943359375,7.0477294921875,46.2579345703125,-168.2666015625
1758876769.5024517,-0.658203125,0.22314453125,0.70654296875,33.3251953125,-3.47900390625,-11.16943359375,7.2235107421875,46.20849609375,-168.4918212890625
1758876769.5125074,-0.67138671875,0.26513671875,0.681640625,-20.263671875,-3.84521484375,-10.25390625,7.1466064453125,46.1590576171875,-168.7060546875
1758876769.52251,-0.67138671875,0.26513671875,0.681640625,-20.263671875,-3.84521484375,-10.25390625,6.822509765625,46.1041259765625,-168.8983154296875
1758876769.53272,-0.697265625,0.1953125,0.56298828125,-66.58935546875,-2.62451171875,-9.27734375,6.2786865234375,46.0546875,-169.068603515625
1758876769.5425014,-0.697265625,0.1953125,0.56298828125,-66.58935546875,-2.62451171875,-9.27734375,5.526123046875,46.0162353515625,-169.222412109375
1758876769.5525424,-0.80224609375,0.16796875,0.5439453125,-80.99365234375,-0.8544921875,-7.99560546875,4.7186279296875,45.9942626953125,-169.3487548828125
1758876769.5627818,-0.80224609375,0.16796875,0.5439453125,-80.99365234375,-0.8544921875,-7.99560546875,3.856201171875,45.9832763671875,-169.453125
1758876769.572821,-0.88134765625,0.0078125,0.73779296875,-48.40087890625,-0.91552734375,-8.11767578125,3.1640625,45.977783203125,-169.5465087890625
1758876769.5825474,-0.88134765625,0.0078125,0.73779296875,-48.40087890625,-0.91552734375,-8.11767578125,2.625732421875,45.9722900390625,-169.6343994140625
1758876769.5925915,-0.84130859375,-0.2353515625,0.8291015625,-0.8544921875,-2.01416015625,-9.27734375,2.318115234375,45.9613037109375,-169.73876953125
1758876769.6030252,-0.84130859375,-0.2353515625,0.8291015625,-0.8544921875,-2.01416015625,-9.27734375,2.2247314453125,45.9503173828125,-169.859619140625
1758876769.6126866,-0.72607421875,-0.19140625,0.60693359375,21.728515625,-3.47900390625,-9.70458984375,2.230224609375,45.9283447265625,-169.9969482421875
1758876769.6226225,-0.72607421875,-0.19140625,0.60693359375,21.728515625,-3.47900390625,-9.70458984375,2.3345947265625,45.90087890625,-170.1397705078125
1758876769.6327035,-0.69677734375,-0.02294921875,0.521484375,49.1943359375,-3.23486328125,-9.94873046875,2.57080078125,45.87890625,-170.2880859375
1758876769.6431217,-0.69677734375,-0.02294921875,0.521484375,49.1943359375,-3.23486328125,-9.94873046875,2.933349609375,45.8624267578125,-170.4364013671875
1758876769.6526618,-0.74072265625,0.06494140625,0.6123046875,55.35888671875,-2.9296875,-9.1552734375,3.3343505859375,45.8514404296875,-170.5792236328125
1758876769.6627014,-0.74072265625,0.06494140625,0.6123046875,55.35888671875,-2.9296875,-9.1552734375,3.768310546875,45.8404541015625,-170.70556640625
1758876769.6729374,-0.74267578125,0.13134765625,0.66845703125,23.98681640625,-3.23486328125,-7.62939453125,4.0594482421875,45.8349609375,-170.8209228515625
1758876769.68284,-0.74267578125,0.13134765625,0.66845703125,23.98681640625,-3.23486328125,-7.62939453125,4.2022705078125,45.8184814453125,-170.9197998046875
1758876769.6926858,-0.7587890625,0.24609375,0.69140625,-28.3203125,-3.60107421875,-5.4931640625,4.097900390625,45.8074951171875,-171.002197265625
1758876769.7030067,-0.7587890625,0.24609375,0.69140625,-28.3203125,-3.60107421875,-5.4931640625,3.7628173828125,45.791015625,-171.05712890625
1758876769.7134595,-0.70654296875,0.2099609375,0.6396484375,-59.63134765625,-3.60107421875,-2.44140625,3.2958984375,45.76904296875,-171.0845947265625
1758876769.7229936,-0.70654296875,0.2099609375,0.6396484375,-59.63134765625,-3.60107421875,-2.44140625,2.6971435546875,45.7470703125,-171.0791015625
1758876769.7327898,-0.80126953125,0.0595703125,0.68701171875,-74.89013671875,-4.08935546875,-0.6103515625,1.966552734375,45.72509765625,-171.0406494140625
1758876769.7427604,-0.80126953125,0.0595703125,0.68701171875,-74.89013671875,-4.08935546875,-0.6103515625,1.241455078125,45.6976318359375,-171.002197265625
1758876769.7532372,-0.83251953125,-0.10986328125,0.68798828125,-68.9697265625,-3.7841796875,0.244140625,0.582275390625,45.68115234375,-170.9527587890625
1758876769.7628083,-0.83251953125,-0.10986328125,0.68798828125,-68.9697265625,-3.7841796875,0.244140625,-0.076904296875,45.6591796875,-170.9088134765625
1758876769.772907,-0.8173828125,-0.20947265625,0.61376953125,-33.02001953125,-3.41796875,-0.67138671875,-0.3955078125,45.648193359375,-170.88134765625
1758876769.7832096,-0.8173828125,-0.20947265625,0.61376953125,-33.02001953125,-3.41796875,-0.67138671875,-0.7305908203125,45.63720703125,-170.8538818359375
1758876769.7928448,-0.77587890625,-0.1240234375,0.66064453125,-2.8076171875,-2.8076171875,-0.54931640625,-0.7635498046875,45.6317138671875,-170.8319091796875
1758876769.8027894,-0.77587890625,-0.1240234375,0.66064453125,-2.8076171875,-2.8076171875,-0.54931640625,-0.8074951171875,45.626220703125,-170.8154296875
1758876769.8128505,-0.75830078125,0.02587890625,0.63525390625,0.18310546875,-1.8310546875,0.0,-0.81298828125,45.6317138671875,-170.7879638671875
1758876769.8233695,-0.75830078125,0.02587890625,0.63525390625,0.18310546875,-1.8310546875,0.0,-0.81298828125,45.6427001953125,-170.7550048828125
1758876769.832916,-0.73486328125,0.080078125,0.63720703125,-8.056640625,-1.220703125,0.9765625,-0.8843994140625,45.6536865234375,-170.70556640625
1758876769.842891,-0.73486328125,0.080078125,0.63720703125,-8.056640625,-1.220703125,0.9765625,-0.9503173828125,45.6646728515625,-170.6451416015625
1758876769.853403,-0.732421875,0.025390625,0.658203125,-13.0615234375,-0.8544921875,2.25830078125,-1.0491943359375,45.68115234375,-170.57373046875
1758876769.8629518,-0.732421875,0.025390625,0.658203125,-13.0615234375,-0.8544921875,2.25830078125,-1.153564453125,45.692138671875,-170.496826171875
1758876769.8731153,-0.71826171875,-0.04541015625,0.68505859375,-14.404296875,-0.67138671875,3.2958984375,-1.25244140625,45.7086181640625,-170.408935546875
1758876769.8832955,-0.71826171875,-0.04541015625,0.68505859375,-14.404296875,-0.67138671875,3.2958984375,-1.3568115234375,45.7196044921875,-170.3265380859375
1758876769.8929706,-0.70166015625,-0.0673828125,0.703125,-15.5029296875,-0.48828125,4.21142578125,-1.4666748046875,45.736083984375,-170.2276611328125
1758876769.9029796,-0.70166015625,-0.0673828125,0.703125,-15.5029296875,-0.48828125,4.21142578125,-1.5765380859375,45.7415771484375,-170.1397705078125
1758876769.9132984,-0.68359375,-0.0361328125,0.70556640625,-14.6484375,-0.18310546875,4.8828125,-1.669921875,45.758056640625,-170.0408935546875
1758876769.9232209,-0.68359375,-0.0361328125,0.70556640625,-14.6484375,-0.18310546875,4.8828125,-1.768798828125,45.7635498046875,-169.947509765625
1758876769.9331412,-0.67333984375,-0.0146484375,0.7236328125,-14.34326171875,0.1220703125,5.615234375,-1.8511962890625,45.7745361328125,-169.8486328125
1758876769.94311,-0.67333984375,-0.0146484375,0.7236328125,-14.34326171875,0.1220703125,5.615234375,-1.93359375,45.7855224609375,-169.7442626953125
1758876769.9530814,-0.66455078125,0.00244140625,0.7294921875,-24.658203125,0.3662109375,6.4697265625,-2.1148681640625,45.791015625,-169.6343994140625
1758876769.9630332,-0.66455078125,0.00244140625,0.7294921875,-24.658203125,0.3662109375,6.4697265625,-2.28515625,45.7965087890625,-169.5245361328125
1758876769.9731705,-0.6416015625,0.0166015625,0.7216796875,-31.494140625,0.79345703125,7.01904296875,-2.5213623046875,45.8074951171875,-169.4036865234375
1758876769.983605,-0.6416015625,0.0166015625,0.7216796875,-31.494140625,0.79345703125,7.01904296875,-2.7520751953125,45.81298828125,-169.288330078125
1758876769.993077,-0.6357421875,-0.02490234375,0.71435546875,-30.82275390625,1.77001953125,7.50732421875,-2.9718017578125,45.8294677734375,-169.16748046875
1758876770.004603,-0.6357421875,-0.02490234375,0.71435546875,-30.82275390625,1.77001953125,7.50732421875,-3.18603515625,45.8404541015625,-169.0411376953125
1758876770.0135672,-0.625,-0.0478515625,0.72314453125,-35.888671875,2.685546875,7.99560546875,-3.4552001953125,45.8624267578125,-168.9202880859375
1758876770.0236874,-0.625,-0.0478515625,0.72314453125,-35.888671875,2.685546875,7.99560546875,-3.7188720703125,45.8843994140625,-168.7939453125
1758876770.0331314,-0.6826171875,-0.017578125,0.736328125,-41.259765625,3.60107421875,7.6904296875,-4.0374755859375,45.911865234375,-168.6785888671875
1758876770.0431411,-0.6826171875,-0.017578125,0.736328125,-41.259765625,3.60107421875,7.6904296875,-4.3560791015625,45.9393310546875,-168.5577392578125
1758876770.0537355,-0.80078125,-0.03369140625,0.80810546875,-48.88916015625,2.62451171875,7.99560546875,-4.74609375,45.955810546875,-168.431396484375
1758876770.06322,-0.80078125,-0.03369140625,0.80810546875,-48.88916015625,2.62451171875,7.99560546875,-5.130615234375,45.977783203125,-168.3050537109375
1758876770.0732927,-0.791015625,-0.09521484375,0.81591796875,-47.66845703125,0.6103515625,8.9111328125,-5.4986572265625,45.977783203125,-168.1622314453125
1758876770.0835755,-0.791015625,-0.09521484375,0.81591796875,-47.66845703125,0.6103515625,8.9111328125,-5.8612060546875,45.9832763671875,-168.0194091796875
1758876770.0932918,-0.7177734375,-0.1455078125,0.76953125,-22.4609375,-1.3427734375,9.6435546875,-5.9710693359375,45.966796875,-167.8656005859375
1758876770.1032696,-0.7177734375,-0.1455078125,0.76953125,-22.4609375,-1.3427734375,9.6435546875,-6.0809326171875,45.9503173828125,-167.7117919921875
1758876770.113807,-0.68408203125,-0.1513671875,0.63720703125,2.197265625,-2.01416015625,10.07080078125,-5.943603515625,45.9283447265625,-167.5579833984375
1758876770.1233075,-0.68408203125,-0.1513671875,0.63720703125,2.197265625,-2.01416015625,10.07080078125,-5.8172607421875,45.9063720703125,-167.40966796875
1758876770.1334069,-0.671875,-0.1337890625,0.595703125,14.83154296875,-1.64794921875,10.009765625,-5.5645751953125,45.889892578125,-167.2613525390625
1758876770.1433265,-0.671875,-0.1337890625,0.595703125,14.83154296875,-1.64794921875,10.009765625,-5.3228759765625,45.87890625,-167.113037109375
1758876770.1539576,-0.67236328125,-0.103515625,0.62158203125,17.822265625,-0.67138671875,9.70458984375,-5.0537109375,45.8734130859375,-166.97021484375
1758876770.1633067,-0.67236328125,-0.103515625,0.62158203125,17.822265625,-0.67138671875,9.70458984375,-4.7900390625,45.867919921875,-166.8218994140625
1758876770.1735547,-0.6708984375,-0.06689453125,0.65625,21.66748046875,-0.1220703125,9.765625,-4.4879150390625,45.8734130859375,-166.6790771484375
1758876770.1835685,-0.6708984375,-0.06689453125,0.65625,21.66748046875,-0.1220703125,9.765625,-4.1912841796875,45.8734130859375,-166.5362548828125
1758876770.1935744,-0.671875,-0.05322265625,0.73681640625,19.71435546875,0.3662109375,9.521484375,-3.9111328125,45.87890625,-166.39892578125
1758876770.2035003,-0.671875,-0.05322265625,0.73681640625,19.71435546875,0.3662109375,9.521484375,-3.6309814453125,45.8843994140625,-166.2615966796875
1758876770.2134213,-0.662109375,-0.033203125,0.75390625,11.41357421875,0.1220703125,10.07080078125,-3.4332275390625,45.87890625,-166.1187744140625
1758876770.2235146,-0.662109375,-0.033203125,0.75390625,11.41357421875,0.1220703125,10.07080078125,-3.22998046875,45.87890625,-165.9759521484375
1758876770.2334416,-0.69580078125,-0.01708984375,0.76806640625,-1.3427734375,-0.3662109375,10.1318359375,-3.153076171875,45.867919921875,-165.8331298828125
1758876770.24345,-0.69580078125,-0.01708984375,0.76806640625,-1.3427734375,-0.3662109375,10.1318359375,-3.0706787109375,45.85693359375,-165.6903076171875
1758876770.2535832,-0.7392578125,-0.0732421875,0.73876953125,-7.9345703125,-1.40380859375,8.72802734375,-3.0706787109375,45.8349609375,-165.56396484375
1758876770.2635214,-0.7392578125,-0.0732421875,0.73876953125,-7.9345703125,-1.40380859375,8.72802734375,-3.0706787109375,45.81298828125,-165.443115234375
1758876770.2734592,-0.72265625,-0.01318359375,0.681640625,3.2958984375,-1.89208984375,9.033203125,-2.955322265625,45.791015625,-165.311279296875
1758876770.2839148,-0.72265625,-0.01318359375,0.681640625,3.2958984375,-1.89208984375,9.033203125,-2.8399658203125,45.76904296875,-165.179443359375
1758876770.2934818,-0.6962890625,-0.01123046875,0.64453125,27.9541015625,-1.220703125,9.27734375,-2.471923828125,45.7525634765625,-165.0421142578125
1758876770.3035786,-0.6962890625,-0.01123046875,0.64453125,27.9541015625,-1.220703125,9.27734375,-2.1038818359375,45.736083984375,-164.8992919921875
1758876770.3136902,-0.708984375,-0.0859375,0.630859375,35.15625,0.18310546875,8.48388671875,-1.680908203125,45.7415771484375,-164.77294921875
1758876770.3237507,-0.708984375,-0.0859375,0.630859375,35.15625,0.18310546875,8.48388671875,-1.2579345703125,45.7415771484375,-164.6466064453125
1758876770.3335636,-0.677734375,-0.06103515625,0.669921875,24.59716796875,0.8544921875,7.75146484375,-0.955810546875,45.7470703125,-164.5367431640625
1758876770.3435535,-0.677734375,-0.06103515625,0.669921875,24.59716796875,0.8544921875,7.75146484375,-0.6536865234375,45.758056640625,-164.42138671875
1758876770.3540168,-0.63720703125,0.04638671875,0.74609375,11.474609375,1.89208984375,7.32421875,-0.4833984375,45.7745361328125,-164.3170166015625
1758876770.3636506,-0.63720703125,0.04638671875,0.74609375,11.474609375,1.89208984375,7.32421875,-0.3131103515625,45.7855224609375,-164.212646484375
1758876770.3735788,-0.595703125,0.125,0.7177734375,-10.986328125,2.62451171875,8.11767578125,-0.3460693359375,45.802001953125,-164.0972900390625
1758876770.3836398,-0.595703125,0.125,0.7177734375,-10.986328125,2.62451171875,8.11767578125,-0.37353515625,45.8184814453125,-163.9764404296875
1758876770.3941092,-0.61376953125,0.08984375,0.67919921875,-18.4326171875,3.23486328125,9.033203125,-0.46142578125,45.8349609375,-163.839111328125
1758876770.4037235,-0.61376953125,0.08984375,0.67919921875,-18.4326171875,3.23486328125,9.033203125,-0.54931640625,45.85693359375,-163.6962890625
1758876770.4136105,-0.80712890625,-0.21435546875,0.828125,0.54931640625,1.3427734375,9.58251953125,-0.4449462890625,45.85693359375,-163.553466796875
1758876770.4240034,-0.80712890625,-0.21435546875,0.828125,0.54931640625,1.3427734375,9.58251953125,-0.3460693359375,45.85693359375,-163.421630859375
1758876770.4336488,-0.79248046875,-0.19384765625,0.90771484375,16.7236328125,0.244140625,8.85009765625,-0.10986328125,45.845947265625,-163.311767578125
1758876770.4436462,-0.79248046875,-0.19384765625,0.90771484375,16.7236328125,0.244140625,8.85009765625,0.1153564453125,45.8294677734375,-163.212890625
1758876770.4536438,-0.763671875,-0.0634765625,0.62158203125,-4.0283203125,1.5869140625,6.2255859375,0.10986328125,45.8349609375,-163.14697265625
1758876770.4641516,-0.763671875,-0.0634765625,0.62158203125,-4.0283203125,1.5869140625,6.2255859375,0.1043701171875,45.8404541015625,-163.0755615234375
1758876770.4737048,-0.85546875,0.42919921875,0.7236328125,-58.16650390625,-2.74658203125,13.00048828125,-0.3515625,45.8074951171875,-162.8887939453125
1758876770.4837856,-0.85546875,0.42919921875,0.7236328125,-58.16650390625,-2.74658203125,13.00048828125,-0.7855224609375,45.780029296875,-162.674560546875
1758876770.4937642,-0.85302734375,0.2470703125,0.83056640625,-61.03515625,-2.01416015625,15.07568359375,-1.20849609375,45.7635498046875,-162.421875
1758876770.5043035,-0.85302734375,0.2470703125,0.83056640625,-61.03515625,-2.01416015625,15.07568359375,-1.6259765625,45.7470703125,-162.158203125
1758876770.5137591,-0.7744140625,-0.091796875,0.556640625,-65.12451171875,-2.9296875,17.51708984375,-2.0599365234375,45.72509765625,-161.861572265625
1758876770.5237968,-0.7744140625,-0.091796875,0.556640625,-65.12451171875,-2.9296875,17.51708984375,-2.493896484375,45.7086181640625,-161.5594482421875
1758876770.5337622,-0.78662109375,-0.14501953125,0.51708984375,-73.1201171875,-1.220703125,17.02880859375,-3.021240234375,45.7196044921875,-161.268310546875
1758876770.5443764,-0.78662109375,-0.14501953125,0.51708984375,-73.1201171875,-1.220703125,17.02880859375,-3.5540771484375,45.736083984375,-160.982666015625
1758876770.5537765,-0.77490234375,-0.1689453125,0.58251953125,-42.66357421875,-0.42724609375,15.13671875,-3.812255859375,45.7635498046875,-160.7244873046875
1758876770.563843,-0.77490234375,-0.1689453125,0.58251953125,-42.66357421875,-0.42724609375,15.13671875,-4.0704345703125,45.791015625,-160.477294921875
1758876770.5741732,-0.7255859375,-0.17822265625,0.64404296875,-1.40380859375,0.732421875,15.07568359375,-3.9276123046875,45.8294677734375,-160.235595703125
1758876770.583924,-0.7255859375,-0.17822265625,0.64404296875,-1.40380859375,0.732421875,15.07568359375,-3.790283203125,45.867919921875,-159.9993896484375
1758876770.5938365,-0.7177734375,-0.18212890625,0.5546875,12.14599609375,0.79345703125,13.916015625,-3.5430908203125,45.90087890625,-159.78515625
1758876770.6041074,-0.7177734375,-0.18212890625,0.5546875,12.14599609375,0.79345703125,13.916015625,-3.2958984375,45.9393310546875,-159.576416015625
1758876770.6144745,-0.7021484375,-0.09814453125,0.64453125,17.27294921875,0.42724609375,13.36669921875,-3.01025390625,45.9722900390625,-159.378662109375
1758876770.6240706,-0.7021484375,-0.09814453125,0.64453125,17.27294921875,0.42724609375,13.36669921875,-2.724609375,45.999755859375,-159.180908203125
1758876770.6339185,-0.69580078125,-0.06640625,0.6826171875,27.28271484375,1.0986328125,13.7939453125,-2.340087890625,46.0382080078125,-158.983154296875
1758876770.6445184,-0.69580078125,-0.06640625,0.6826171875,27.28271484375,1.0986328125,13.7939453125,-1.9500732421875,46.065673828125,-158.785400390625
1758876770.6539125,-0.76171875,-0.03076171875,0.74853515625,22.52197265625,-0.18310546875,13.61083984375,-1.614990234375,46.0821533203125,-158.587646484375
1758876770.6639416,-0.76171875,-0.03076171875,0.74853515625,22.52197265625,-0.18310546875,13.61083984375,-1.2744140625,46.0931396484375,-158.3953857421875
1758876770.6742864,-0.83447265625,-0.01416015625,0.73095703125,1.15966796875,-1.708984375,12.75634765625,-1.1590576171875,46.0931396484375,-158.214111328125
1758876770.6844778,-0.83447265625,-0.01416015625,0.73095703125,1.15966796875,-1.708984375,12.75634765625,-1.0382080078125,46.087646484375,-158.02734375
1758876770.6939905,-0.9482421875,0.11572265625,0.68310546875,-4.39453125,-4.7607421875,14.7705078125,-0.94482421875,46.0601806640625,-157.8076171875
1758876770.7042487,-0.9482421875,0.11572265625,0.68310546875,-4.39453125,-4.7607421875,14.7705078125,-0.845947265625,46.03271484375,-157.576904296875
1758876770.7141027,-0.7353515625,0.1318359375,0.548828125,-1.89208984375,-4.150390625,12.3291015625,-0.7415771484375,46.0162353515625,-157.3681640625
1758876770.7240713,-0.80126953125,-0.00048828125,0.5673828125,-16.2353515625,-4.8828125,13.36669921875,-0.6976318359375,45.9942626953125,-157.1539306640625
1758876770.7343135,-0.80126953125,-0.00048828125,0.5673828125,-16.2353515625,-4.8828125,13.36669921875,-0.7196044921875,45.977783203125,-156.9232177734375
1758876770.744447,-0.76171875,-0.0078125,0.56201171875,-8.1787109375,-3.84521484375,12.14599609375,-0.7086181640625,45.9613037109375,-156.7034912109375
1758876770.7540758,-0.76171875,-0.0078125,0.56201171875,-8.1787109375,-3.84521484375,12.14599609375,-0.6646728515625,45.955810546875,-156.4947509765625
1758876770.764097,-0.6923828125,0.03271484375,0.56640625,18.61572265625,-2.685546875,10.986328125,-0.494384765625,45.955810546875,-156.29150390625
1758876770.7745676,-0.6923828125,0.03271484375,0.56640625,18.61572265625,-2.685546875,10.986328125,-0.19775390625,45.9613037109375,-156.0992431640625
1758876770.78421,-0.72509765625,-0.0849609375,0.6142578125,28.80859375,-1.708984375,8.60595703125,0.1318359375,45.9722900390625,-155.9234619140625
1758876770.7942004,-0.72509765625,-0.0849609375,0.6142578125,28.80859375,-1.708984375,8.60595703125,0.4998779296875,45.9832763671875,-155.7696533203125
1758876770.8047469,-0.6796875,-0.0185546875,0.72705078125,41.6259765625,-0.67138671875,6.89697265625,0.9228515625,45.999755859375,-155.6378173828125
1758876770.8141873,-0.6796875,-0.0185546875,0.72705078125,41.6259765625,-0.67138671875,6.89697265625,1.3897705078125,46.0162353515625,-155.5224609375
1758876770.8241937,-0.6748046875,0.04931640625,0.72314453125,51.3916015625,-1.0986328125,6.2255859375,1.9061279296875,46.021728515625,-155.41259765625
1758876770.8341677,-0.6748046875,0.04931640625,0.72314453125,51.3916015625,-1.0986328125,6.2255859375,2.4664306640625,46.0272216796875,-155.313720703125
1758876770.8446243,-0.61083984375,0.01318359375,0.74951171875,50.29296875,-0.9765625,2.9296875,3.0047607421875,46.0272216796875,-155.2423095703125
1758876770.8541915,-0.61083984375,0.01318359375,0.74951171875,50.29296875,-0.9765625,2.9296875,3.515625,46.021728515625,-155.1983642578125
1758876770.8642275,-0.64404296875,0.12890625,0.87158203125,36.07177734375,-2.38037109375,4.69970703125,3.966064453125,46.0052490234375,-155.14892578125
1758876770.8746703,-0.64404296875,0.12890625,0.87158203125,36.07177734375,-2.38037109375,4.69970703125,4.3560791015625,45.9722900390625,-155.093994140625
1758876770.8847404,-0.5859375,0.251953125,0.87109375,7.2021484375,-2.9296875,2.3193359375,4.59228515625,45.933837890625,-155.0555419921875
1758876770.8942814,-0.5859375,0.251953125,0.87109375,7.2021484375,-2.9296875,2.3193359375,4.68017578125,45.8843994140625,-155.028076171875
1758876770.9043975,-0.56982421875,0.17041015625,0.79541015625,-40.10009765625,-4.45556640625,2.5634765625,4.5428466796875,45.823974609375,-155.006103515625
1758876770.915085,-0.56982421875,0.17041015625,0.79541015625,-40.10009765625,-4.45556640625,2.5634765625,4.1748046875,45.7525634765625,-154.9786376953125
1758876770.9244502,-0.513671875,0.09619140625,0.7509765625,-48.88916015625,-3.47900390625,2.5634765625,3.768310546875,45.68115234375,-154.9456787109375
1758876770.9343448,-0.513671875,0.09619140625,0.7509765625,-48.88916015625,-3.47900390625,2.5634765625,3.3233642578125,45.615234375,-154.918212890625
1758876770.944326,-0.5908203125,0.04296875,0.66845703125,-47.18017578125,-2.8076171875,2.5634765625,2.889404296875,45.54931640625,-154.896240234375
1758876770.9548862,-0.5908203125,0.04296875,0.66845703125,-47.18017578125,-2.8076171875,2.5634765625,2.4664306640625,45.4833984375,-154.86328125
1758876770.9643655,-0.5908203125,-0.13671875,0.74951171875,-50.1708984375,1.77001953125,0.9765625,2.021484375,45.4449462890625,-154.8468017578125
1758876770.9744546,-0.5908203125,-0.13671875,0.74951171875,-50.1708984375,1.77001953125,0.9765625,1.5435791015625,45.428466796875,-154.852294921875
1758876770.9848642,-0.76416015625,-0.01953125,1.01904296875,-22.0947265625,-3.5400390625,-0.3662109375,1.1920166015625,45.3900146484375,-154.8687744140625
1758876770.9945333,-0.76416015625,-0.01953125,1.01904296875,-22.0947265625,-3.5400390625,-0.3662109375,0.977783203125,45.318603515625,-154.9017333984375
1758876771.0045097,-0.900390625,0.22802734375,0.923828125,-14.09912109375,-3.90625,1.5869140625,0.8074951171875,45.24169921875,-154.918212890625
1758876771.0145736,-0.900390625,0.22802734375,0.923828125,-14.09912109375,-3.90625,1.5869140625,0.6976318359375,45.1702880859375,-154.9072265625
1758876771.0247474,-0.64453125,0.080078125,0.685546875,-34.24072265625,-4.82177734375,2.13623046875,0.4998779296875,45.098876953125,-154.8797607421875
1758876771.0344565,-0.64453125,0.080078125,0.685546875,-34.24072265625,-4.82177734375,2.13623046875,0.208740234375,45.02197265625,-154.8468017578125
1758876771.0444698,-0.65380859375,-0.02978515625,0.529296875,-48.2177734375,-3.0517578125,2.9296875,-0.142822265625,44.9615478515625,-154.8028564453125
1758876771.0552888,-0.65380859375,-0.02978515625,0.529296875,-48.2177734375,-3.0517578125,2.9296875,-0.5657958984375,44.912109375,-154.7479248046875
1758876771.064724,-0.77587890625,-0.05810546875,0.63623046875,-41.56494140625,-2.50244140625,1.8310546875,-0.9613037109375,44.8681640625,-154.698486328125
1758876771.0747106,-0.77587890625,-0.05810546875,0.63623046875,-41.56494140625,-2.50244140625,1.8310546875,-1.3348388671875,44.835205078125,-154.654541015625
1758876771.0846355,-1.07080078125,-0.0654296875,0.8720703125,-42.96875,-4.94384765625,1.708984375,-1.7138671875,44.7967529296875,-154.610595703125
1758876771.095251,-1.07080078125,-0.0654296875,0.8720703125,-42.96875,-4.94384765625,1.708984375,-2.1038818359375,44.7528076171875,-154.5611572265625
1758876771.1046078,-1.0419921875,-0.078125,0.43017578125,-60.791015625,-5.43212890625,2.62451171875,-2.581787109375,44.7088623046875,-154.5062255859375
1758876771.1150534,-1.0419921875,-0.078125,0.43017578125,-60.791015625,-5.43212890625,2.62451171875,-3.14208984375,44.6759033203125,-154.4293212890625
1758876771.1246185,-0.9599609375,-0.0283203125,0.5263671875,-47.05810546875,-8.48388671875,5.67626953125,-3.62548828125,44.6429443359375,-154.324951171875
1758876771.1346333,-0.9599609375,-0.0283203125,0.5263671875,-47.05810546875,-8.48388671875,5.67626953125,-4.0155029296875,44.6044921875,-154.193115234375
1758876771.1446106,-0.74365234375,0.013671875,0.537109375,-33.63037109375,-6.53076171875,6.2255859375,-4.3450927734375,44.5770263671875,-154.05029296875
1758876771.1549585,-0.74365234375,0.013671875,0.537109375,-33.63037109375,-6.53076171875,6.2255859375,-4.5977783203125,44.5660400390625,-153.9019775390625
1758876771.1646476,-0.66845703125,-0.0634765625,0.3935546875,-31.43310546875,-4.7607421875,6.103515625,-4.8394775390625,44.560546875,-153.753662109375
1758876771.1746418,-0.66845703125,-0.0634765625,0.3935546875,-31.43310546875,-4.7607421875,6.103515625,-5.07568359375,44.571533203125,-153.6053466796875
1758876771.1854477,-0.73828125,-0.06884765625,0.5576171875,-41.80908203125,-3.60107421875,5.9814453125,-5.3668212890625,44.5880126953125,-153.45703125
1758876771.1947372,-0.73828125,-0.06884765625,0.5576171875,-41.80908203125,-3.60107421875,5.9814453125,-5.7073974609375,44.6099853515625,-153.3087158203125
1758876771.2047243,-0.76953125,-0.056640625,0.716796875,-46.44775390625,-2.74658203125,5.9814453125,-6.075439453125,44.637451171875,-153.1658935546875
1758876771.2147815,-0.76953125,-0.056640625,0.716796875,-46.44775390625,-2.74658203125,5.9814453125,-6.4654541015625,44.6649169921875,-153.0230712890625
1758876771.225004,-0.7138671875,-0.0908203125,0.6708984375,-39.6728515625,-1.953125,5.79833984375,-6.8170166015625,44.6923828125,-152.8857421875
1758876771.2348375,-0.7138671875,-0.0908203125,0.6708984375,-39.6728515625,-1.953125,5.79833984375,-7.14111328125,44.7198486328125,-152.7484130859375
1758876771.2447298,-0.6748046875,-0.1240234375,0.6787109375,-30.94482421875,-1.28173828125,4.150390625,-7.4267578125,44.7528076171875,-152.6275634765625
1758876771.2551236,-0.6748046875,-0.1240234375,0.6787109375,-30.94482421875,-1.28173828125,4.150390625,-7.6849365234375,44.7747802734375,-152.523193359375
1758876771.264811,-0.6748046875,-0.1240234375,0.6787109375,-13.671875,-1.0986328125,1.89208984375,-7.8607177734375,44.7967529296875,-152.435302734375
1758876771.2747595,-0.65478515625,-0.12744140625,0.76025390625,-13.671875,-1.0986328125,1.89208984375,-7.9705810546875,44.813232421875,-152.3748779296875
1758876771.2849922,-0.638671875,-0.1376953125,0.80126953125,6.65283203125,-1.28173828125,0.244140625,-7.9815673828125,44.82421875,-152.325439453125
1758876771.2952716,-0.638671875,-0.1376953125,0.80126953125,6.65283203125,-1.28173828125,0.244140625,-7.9046630859375,44.82421875,-152.2979736328125
1758876771.3048832,-0.603515625,-0.146484375,0.7646484375,8.72802734375,-1.220703125,-0.06103515625,-7.822265625,44.8187255859375,-152.2760009765625
1758876771.3148928,-0.603515625,-0.146484375,0.7646484375,8.72802734375,-1.220703125,-0.06103515625,-7.7288818359375,44.8077392578125,-152.259521484375
1758876771.3251603,-0.595703125,-0.103515625,0.76220703125,2.5634765625,-0.732421875,-0.6103515625,-7.6739501953125,44.7967529296875,-152.2540283203125
1758876771.3350887,-0.595703125,-0.103515625,0.76220703125,2.5634765625,-0.732421875,-0.6103515625,-7.657470703125,44.7802734375,-152.2540283203125
1758876771.344837,-0.59423828125,-0.05712890625,0.728515625,7.2021484375,0.67138671875,-1.3427734375,-7.6190185546875,44.769287109375,-152.2650146484375
1758876771.354898,-0.59423828125,-0.05712890625,0.728515625,7.2021484375,0.67138671875,-1.3427734375,-7.55859375,44.7637939453125,-152.281494140625
1758876771.3651645,-0.59375,-0.06640625,0.78857421875,14.46533203125,1.03759765625,-2.5634765625,-7.4652099609375,44.7528076171875,-152.3089599609375
1758876771.3748975,-0.59375,-0.06640625,0.78857421875,14.46533203125,1.03759765625,-2.5634765625,-7.3443603515625,44.747314453125,-152.347412109375
1758876771.385067,-0.5810546875,-0.09814453125,0.71044921875,18.49365234375,1.52587890625,-3.41796875,-7.20703125,44.736328125,-152.391357421875
1758876771.395193,-0.5810546875,-0.09814453125,0.71044921875,18.49365234375,1.52587890625,-3.41796875,-7.0587158203125,44.725341796875,-152.4462890625
1758876771.4051373,-0.6044921875,-0.10888671875,0.69921875,26.2451171875,2.74658203125,-3.90625,-6.8719482421875,44.7198486328125,-152.5067138671875
1758876771.4149947,-0.6044921875,-0.10888671875,0.69921875,26.2451171875,2.74658203125,-3.90625,-6.6522216796875,44.7198486328125,-152.5726318359375
1758876771.4250693,-0.6298828125,-0.1240234375,0.72265625,43.0908203125,3.60107421875,-4.94384765625,-6.361083984375,44.725341796875,-152.655029296875
1758876771.4351988,-0.6298828125,-0.1240234375,0.72265625,43.0908203125,3.60107421875,-4.94384765625,-5.9930419921875,44.7308349609375,-152.742919921875
1758876771.4450417,-0.63330078125,-0.1611328125,0.67333984375,55.96923828125,4.5166015625,-6.40869140625,-5.570068359375,44.747314453125,-152.8472900390625
1758876771.4550335,-0.63330078125,-0.1611328125,0.67333984375,55.96923828125,4.5166015625,-6.40869140625,-5.09765625,44.7637939453125,-152.962646484375
1758876771.4652812,-0.64697265625,-0.12744140625,0.69677734375,76.5380859375,5.126953125,-7.50732421875,-4.537353515625,44.7857666015625,-153.094482421875
1758876771.4750776,-0.64697265625,-0.12744140625,0.69677734375,76.5380859375,5.126953125,-7.50732421875,-3.878173828125,44.8077392578125,-153.2373046875
1758876771.4850795,-0.666015625,-0.10546875,0.734375,84.5947265625,5.31005859375,-9.765625,-3.197021484375,44.835205078125,-153.3966064453125
1758876771.4950666,-0.666015625,-0.10546875,0.734375,84.5947265625,5.31005859375,-9.765625,-2.493896484375,44.8681640625,-153.577880859375
1758876771.5053277,-0.6845703125,0.0009765625,0.77392578125,53.1005859375,4.69970703125,-9.94873046875,-1.944580078125,44.8956298828125,-153.7591552734375
1758876771.5155067,-0.6845703125,0.0009765625,0.77392578125,53.1005859375,4.69970703125,-9.94873046875,-1.5545654296875,44.9176025390625,-153.9404296875
1758876771.5251539,-0.701171875,0.1474609375,0.75048828125,16.7236328125,4.82177734375,-8.30078125,-1.329345703125,44.945068359375,-154.0997314453125
1758876771.5351553,-0.701171875,0.1474609375,0.75048828125,16.7236328125,4.82177734375,-8.30078125,-1.2689208984375,44.9725341796875,-154.2425537109375
1758876771.5451226,-0.701171875,0.1474609375,0.75048828125,7.14111328125,3.173828125,-6.8359375,-1.241455078125,44.9945068359375,-154.368896484375
1758876771.555147,-0.73046875,0.14111328125,0.73193359375,7.14111328125,3.173828125,-6.8359375,-1.241455078125,45.010986328125,-154.4732666015625
1758876771.5651572,-0.7470703125,0.001953125,0.7451171875,2.38037109375,1.953125,-6.103515625,-1.2579345703125,45.02197265625,-154.5611572265625
1758876771.576054,-0.7470703125,0.001953125,0.7451171875,2.38037109375,1.953125,-6.103515625,-1.2908935546875,45.0274658203125,-154.6490478515625
1758876771.5852127,-0.8046875,-0.1513671875,0.8076171875,-1.8310546875,-0.91552734375,-6.04248046875,-1.351318359375,45.0164794921875,-154.7369384765625
1758876771.5952148,-0.8046875,-0.1513671875,0.8076171875,-1.8310546875,-0.91552734375,-6.04248046875,-1.4337158203125,45.0,-154.830322265625
1758876771.605355,-0.86962890625,-0.14013671875,0.82421875,28.50341796875,-2.74658203125,-6.16455078125,-1.3677978515625,44.967041015625,-154.9237060546875
1758876771.615353,-0.86962890625,-0.14013671875,0.82421875,28.50341796875,-2.74658203125,-6.16455078125,-1.1590576171875,44.93408203125,-155.028076171875
1758876771.6253064,-0.84423828125,-0.03271484375,0.70703125,52.1240234375,-4.69970703125,-6.7138671875,-0.8404541015625,44.89013671875,-155.1324462890625
1758876771.635329,-0.84423828125,-0.03271484375,0.70703125,52.1240234375,-4.69970703125,-6.7138671875,-0.406494140625,44.84619140625,-155.2423095703125
1758876771.6454673,-0.775390625,0.0947265625,0.62890625,38.51318359375,-5.55419921875,-5.67626953125,-0.032958984375,44.7967529296875,-155.3411865234375
1758876771.6553235,-0.775390625,0.0947265625,0.62890625,38.51318359375,-5.55419921875,-5.67626953125,0.274658203125,44.747314453125,-155.423583984375
1758876771.6653066,-0.7783203125,0.1201171875,0.56787109375,12.02392578125,-4.8828125,-4.21142578125,0.4669189453125,44.703369140625,-155.489501953125
1758876771.6753201,-0.7783203125,0.1201171875,0.56787109375,12.02392578125,-4.8828125,-4.21142578125,0.538330078125,44.67041015625,-155.5389404296875
1758876771.6858053,-0.80859375,0.02197265625,0.619140625,-19.04296875,-4.94384765625,-3.7841796875,0.46142578125,44.6429443359375,-155.577392578125
1758876771.6953244,-0.80859375,0.02197265625,0.619140625,-19.04296875,-4.94384765625,-3.7841796875,0.230712890625,44.6099853515625,-155.6103515625
1758876771.7054408,-0.7705078125,-0.0341796875,0.68603515625,-26.0009765625,-5.126953125,-3.72314453125,-0.02197265625,44.5880126953125,-155.6378173828125
1758876771.7156396,-0.7705078125,-0.0341796875,0.68603515625,-26.0009765625,-5.126953125,-3.72314453125,-0.318603515625,44.5550537109375,-155.665283203125
1758876771.7256656,-0.71337890625,-0.076171875,0.62060546875,-9.765625,-5.31005859375,-4.638671875,-0.46142578125,44.527587890625,-155.709228515625
1758876771.7354174,-0.71337890625,-0.076171875,0.62060546875,-9.765625,-5.31005859375,-4.638671875,-0.6097412109375,44.5001220703125,-155.7586669921875
1758876771.745469,-0.65966796875,-0.10546875,0.6513671875,6.591796875,-4.39453125,-5.859375,-0.6097412109375,44.4781494140625,-155.8245849609375
1758876771.7558372,-0.65966796875,-0.10546875,0.6513671875,6.591796875,-4.39453125,-5.859375,-0.6097412109375,44.4561767578125,-155.89599609375
1758876771.765653,-0.62548828125,-0.078125,0.68359375,25.0244140625,-3.5400390625,-7.38525390625,-0.4449462890625,44.4342041015625,-155.994873046875
1758876771.7754345,-0.62548828125,-0.078125,0.68359375,25.0244140625,-3.5400390625,-7.38525390625,-0.28564453125,44.417724609375,-156.0992431640625
1758876771.7855253,-0.6025390625,-0.0546875,0.75341796875,41.9921875,-2.3193359375,-9.33837890625,0.0164794921875,44.40673828125,-156.236572265625
1758876771.7958362,-0.6025390625,-0.0546875,0.75341796875,41.9921875,-2.3193359375,-9.33837890625,0.3240966796875,44.3902587890625,-156.37939453125
1758876771.805652,-0.54052734375,-0.013671875,0.7353515625,45.7763671875,-1.15966796875,-10.68115234375,0.6536865234375,44.384765625,-156.544189453125
1758876771.8155127,-0.54052734375,-0.013671875,0.7353515625,45.7763671875,-1.15966796875,-10.68115234375,0.9832763671875,44.3682861328125,-156.708984375
1758876771.8257535,-0.51123046875,0.0634765625,0.82958984375,39.00146484375,-0.3662109375,-11.53564453125,1.2359619140625,44.36279296875,-156.895751953125
1758876771.8355753,-0.51123046875,0.0634765625,0.82958984375,39.00146484375,-0.3662109375,-11.53564453125,1.494140625,44.3463134765625,-157.08251953125
1758876771.845484,-0.50634765625,0.12451171875,0.78076171875,23.13232421875,0.91552734375,-11.23046875,1.60400390625,44.3408203125,-157.2637939453125
1758876771.855833,-0.50634765625,0.12451171875,0.78076171875,23.13232421875,0.91552734375,-11.23046875,1.7138671875,44.3243408203125,-157.445068359375
1758876771.8656747,-0.64599609375,0.103515625,0.91943359375,2.9296875,0.67138671875,-10.498046875,1.636962890625,44.307861328125,-157.6153564453125
1758876771.87571,-0.64599609375,0.103515625,0.91943359375,2.9296875,0.67138671875,-10.498046875,1.5655517578125,44.285888671875,-157.7911376953125
1758876771.885577,-1.20947265625,-0.134765625,1.00537109375,63.4765625,-2.9296875,-8.4228515625,2.109375,44.2364501953125,-157.9339599609375
1758876771.896054,-1.20947265625,-0.134765625,1.00537109375,63.4765625,-2.9296875,-8.4228515625,2.6422119140625,44.197998046875,-158.0767822265625
1758876771.905656,-0.76953125,-0.14013671875,0.52294921875,81.48193359375,-0.67138671875,-15.5029296875,3.284912109375,44.1925048828125,-158.3184814453125
1758876771.9157405,-0.76953125,-0.14013671875,0.52294921875,81.48193359375,-0.67138671875,-15.5029296875,3.9111328125,44.1925048828125,-158.5601806640625
1758876771.9257593,-0.603515625,0.26123046875,0.5986328125,4.21142578125,0.244140625,-12.451171875,3.8067626953125,44.2034912109375,-158.7469482421875
1758876771.9357867,-0.603515625,0.26123046875,0.5986328125,4.21142578125,0.244140625,-12.451171875,3.71337890625,44.2144775390625,-158.92822265625
1758876771.9456801,-0.6328125,0.23828125,0.720703125,-30.76171875,3.47900390625,-9.8876953125,3.3123779296875,44.2584228515625,-159.06005859375
1758876771.9561548,-0.6328125,0.23828125,0.720703125,-30.76171875,3.47900390625,-9.8876953125,2.9168701171875,44.2913818359375,-159.19189453125
1758876771.9656754,-0.60205078125,0.12060546875,0.65283203125,-44.189453125,3.662109375,-8.60595703125,2.4114990234375,44.329833984375,-159.2962646484375
1758876771.975681,-0.60205078125,0.12060546875,0.65283203125,-44.189453125,3.662109375,-8.60595703125,1.91162109375,44.36279296875,-159.400634765625
1758876771.9860647,-0.64599609375,0.03173828125,0.67626953125,-53.40576171875,3.11279296875,-4.33349609375,1.3623046875,44.3902587890625,-159.444580078125
1758876771.995738,-0.64599609375,0.03173828125,0.67626953125,-53.40576171875,3.11279296875,-4.33349609375,0.81298828125,44.417724609375,-159.488525390625
1758876772.0057085,-0.71435546875,-0.12548828125,0.7724609375,-18.37158203125,2.3193359375,-4.45556640625,0.6097412109375,44.439697265625,-159.5379638671875
1758876772.0157344,-0.71435546875,-0.12548828125,0.7724609375,-18.37158203125,2.3193359375,-4.45556640625,0.3955078125,44.4561767578125,-159.598388671875
1758876772.0259068,-0.6474609375,-0.1650390625,0.8447265625,-2.9296875,1.03759765625,-5.06591796875,0.3240966796875,44.4561767578125,-159.6807861328125
1758876772.0357354,-0.6474609375,-0.1650390625,0.8447265625,-2.9296875,1.03759765625,-5.06591796875,0.24169921875,44.4561767578125,-159.7686767578125
1758876772.0457215,-0.50341796875,-0.1142578125,0.517578125,5.2490234375,2.8076171875,-5.859375,0.2252197265625,44.47265625,-159.873046875
1758876772.055845,-0.50341796875,-0.1142578125,0.517578125,5.2490234375,2.8076171875,-5.859375,0.208740234375,44.4891357421875,-159.98291015625
1758876772.0660768,-0.599609375,-0.0712890625,0.53173828125,26.3671875,3.5400390625,-6.16455078125,0.3955078125,44.5166015625,-160.0982666015625
1758876772.075817,-0.599609375,-0.0712890625,0.53173828125,26.3671875,3.5400390625,-6.16455078125,0.5767822265625,44.5440673828125,-160.2081298828125
1758876772.0858824,-0.7392578125,-0.0029296875,0.87646484375,22.705078125,2.5634765625,-8.056640625,0.703125,44.5660400390625,-160.345458984375
1758876772.0962186,-0.7392578125,-0.0029296875,0.87646484375,22.705078125,2.5634765625,-8.056640625,0.8349609375,44.58251953125,-160.48828125
1758876772.1058662,-0.75146484375,0.10107421875,0.91943359375,32.2265625,1.15966796875,-6.77490234375,1.0711669921875,44.58251953125,-160.609130859375
1758876772.1158597,-0.75146484375,0.10107421875,0.91943359375,32.2265625,1.15966796875,-6.77490234375,1.318359375,44.5770263671875,-160.72998046875
1758876772.125878,-0.6923828125,0.06640625,0.61865234375,36.92626953125,2.50244140625,-6.89697265625,1.6094970703125,44.593505859375,-160.8453369140625
1758876772.1362245,-0.6923828125,0.06640625,0.61865234375,36.92626953125,2.50244140625,-6.89697265625,1.900634765625,44.6099853515625,-160.9552001953125
1758876772.145867,-0.78857421875,0.03076171875,0.58349609375,15.5029296875,3.11279296875,-7.87353515625,1.9720458984375,44.637451171875,-161.0760498046875
1758876772.1559067,-0.78857421875,0.03076171875,0.58349609375,15.5029296875,3.11279296875,-7.87353515625,2.0489501953125,44.6759033203125,-161.1859130859375
1758876772.1663067,-0.9375,0.0947265625,0.91015625,2.62451171875,1.953125,-8.36181640625,1.988525390625,44.6978759765625,-161.3067626953125
1758876772.175995,-0.9375,0.0947265625,0.91015625,2.62451171875,1.953125,-8.36181640625,1.93359375,44.725341796875,-161.422119140625
1758876772.1859436,-0.8359375,0.06005859375,0.7958984375,-6.591796875,0.9765625,-7.8125,1.790771484375,44.736328125,-161.5264892578125
1758876772.1960218,-0.8359375,0.06005859375,0.7958984375,-6.591796875,0.9765625,-7.8125,1.6534423828125,44.7528076171875,-161.630859375
1758876772.206177,-0.744140625,0.0556640625,0.4912109375,-41.015625,0.8544921875,-5.9814453125,1.1920166015625,44.7747802734375,-161.7022705078125
1758876772.21602,-0.744140625,0.0556640625,0.4912109375,-41.015625,0.8544921875,-5.9814453125,0.736083984375,44.7967529296875,-161.7681884765625
1758876772.2260077,-0.74951171875,0.06298828125,0.50439453125,-49.86572265625,1.89208984375,-5.43212890625,0.2032470703125,44.835205078125,-161.8231201171875
1758876772.2361095,-0.74951171875,0.06298828125,0.50439453125,-49.86572265625,1.89208984375,-5.43212890625,-0.3240966796875,44.8736572265625,-161.8670654296875
1758876772.2460115,-0.76806640625,-0.0078125,0.64892578125,-32.958984375,1.708984375,-5.18798828125,-0.6866455078125,44.912109375,-161.905517578125
1758876772.2560215,-0.76806640625,-0.0078125,0.64892578125,-32.958984375,1.708984375,-5.18798828125,-1.043701171875,44.9560546875,-161.9439697265625
1758876772.2660449,-0.73291015625,-0.10205078125,0.73876953125,-18.1884765625,0.48828125,-4.82177734375,-1.2579345703125,44.9835205078125,-161.9879150390625
1758876772.276319,-0.73291015625,-0.10205078125,0.73876953125,-18.1884765625,0.48828125,-4.82177734375,-1.4776611328125,45.0054931640625,-162.0318603515625
1758876772.2860887,-0.7001953125,-0.13671875,0.63623046875,-0.91552734375,0.06103515625,-5.0048828125,-1.527099609375,45.02197265625,-162.0867919921875
1758876772.296156,-0.7001953125,-0.13671875,0.63623046875,-0.91552734375,0.06103515625,-5.0048828125,-1.5875244140625,45.0384521484375,-162.147216796875
1758876772.3062482,-0.6904296875,-0.11767578125,0.583984375,20.5078125,-0.06103515625,-5.9814453125,-1.4447021484375,45.054931640625,-162.22412109375
1758876772.316155,-0.6904296875,-0.11767578125,0.583984375,20.5078125,-0.06103515625,-5.9814453125,-1.3128662109375,45.0714111328125,-162.301025390625
1758876772.3261409,-0.6904296875,-0.11767578125,0.583984375,36.56005859375,0.30517578125,-6.7138671875,-1.0272216796875,45.0933837890625,-162.3944091796875
1758876772.3361695,-0.70361328125,-0.0810546875,0.63330078125,36.56005859375,0.30517578125,-6.7138671875,-0.7470703125,45.1153564453125,-162.4932861328125
1758876772.3465657,-0.70654296875,-0.03173828125,0.6845703125,41.32080078125,0.79345703125,-6.9580078125,-0.4229736328125,45.1373291015625,-162.5921630859375
1758876772.3561773,-0.70654296875,-0.03173828125,0.6845703125,41.32080078125,0.79345703125,-6.9580078125,-0.098876953125,45.164794921875,-162.696533203125
1758876772.366357,-0.7001953125,0.01220703125,0.72265625,43.3349609375,0.91552734375,-6.77490234375,0.2362060546875,45.186767578125,-162.79541015625
1758876772.376184,-0.7001953125,0.01220703125,0.72265625,43.3349609375,0.91552734375,-6.77490234375,0.582275390625,45.208740234375,-162.894287109375
1758876772.3861787,-0.72705078125,0.0224609375,0.72021484375,47.42431640625,1.5869140625,-7.080078125,0.966796875,45.2362060546875,-163.004150390625
1758876772.396277,-0.72705078125,0.0224609375,0.72021484375,47.42431640625,1.5869140625,-7.080078125,1.351318359375,45.263671875,-163.1085205078125
1758876772.4067378,-0.74462890625,0.03466796875,0.681640625,43.45703125,2.3193359375,-7.38525390625,1.69189453125,45.296630859375,-163.2183837890625
1758876772.417322,-0.74462890625,0.03466796875,0.681640625,43.45703125,2.3193359375,-7.38525390625,2.0379638671875,45.32958984375,-163.32275390625
1758876772.4262936,-0.7509765625,0.06298828125,0.69775390625,34.72900390625,2.62451171875,-7.14111328125,2.296142578125,45.3680419921875,-163.4271240234375
1758876772.436646,-0.7509765625,0.06298828125,0.69775390625,34.72900390625,2.62451171875,-7.14111328125,2.559814453125,45.406494140625,-163.531494140625
1758876772.4462433,-0.74951171875,0.0830078125,0.76513671875,20.01953125,2.5634765625,-6.4697265625,2.6806640625,45.4449462890625,-163.6248779296875
1758876772.4562838,-0.74951171875,0.0830078125,0.76513671875,20.01953125,2.5634765625,-6.4697265625,2.8070068359375,45.4779052734375,-163.71826171875
1758876772.4662669,-0.71923828125,0.1005859375,0.7119140625,-2.44140625,2.44140625,-4.5166015625,2.735595703125,45.5108642578125,-163.7841796875
1758876772.4767714,-0.71923828125,0.1005859375,0.7119140625,-2.44140625,2.44140625,-4.5166015625,2.6641845703125,45.5438232421875,-163.8446044921875
1758876772.4863288,-0.6943359375,0.08056640625,0.65283203125,-12.14599609375,2.62451171875,-2.9296875,2.515869140625,45.5712890625,-163.883056640625
1758876772.4963422,-0.6943359375,0.08056640625,0.65283203125,-12.14599609375,2.62451171875,-2.9296875,2.373046875,45.604248046875,-163.9215087890625
1758876772.506701,-0.69091796875,0.029296875,0.65478515625,-13.3056640625,2.685546875,-1.89208984375,2.2247314453125,45.63720703125,-163.9434814453125
1758876772.516771,-0.69091796875,0.029296875,0.65478515625,-13.3056640625,2.685546875,-1.89208984375,2.0819091796875,45.670166015625,-163.9654541015625
1758876772.5263803,-0.7021484375,-0.03466796875,0.708984375,-10.6201171875,2.62451171875,-1.28173828125,1.9720458984375,45.6976318359375,-163.98193359375
1758876772.5364208,-0.7021484375,-0.03466796875,0.708984375,-10.6201171875,2.62451171875,-1.28173828125,1.8511962890625,45.72509765625,-164.00390625
1758876772.5467317,-0.7021484375,-0.03466796875,0.708984375,-8.23974609375,2.685546875,-0.732421875,1.7633056640625,45.7525634765625,-164.0203857421875
1758876772.556711,-0.70947265625,-0.060546875,0.68896484375,-8.23974609375,2.685546875,-0.732421875,1.669921875,45.7855224609375,-164.0423583984375
1758876772.5664105,-0.7138671875,-0.02685546875,0.67431640625,-8.056640625,2.8076171875,-0.42724609375,1.58203125,45.81298828125,-164.0643310546875
1758876772.576446,-0.7138671875,-0.02685546875,0.67431640625,-8.056640625,2.8076171875,-0.42724609375,1.4886474609375,45.845947265625,-164.080810546875
1758876772.5868602,-0.7080078125,0.03125,0.70751953125,-6.591796875,3.0517578125,0.244140625,1.417236328125,45.8734130859375,-164.091796875
1758876772.5964797,-0.7080078125,0.03125,0.70751953125,-6.591796875,3.0517578125,0.244140625,1.351318359375,45.9063720703125,-164.102783203125
1758876772.606514,-0.7099609375,0.0634765625,0.71533203125,-8.85009765625,2.9296875,0.6103515625,1.2689208984375,45.933837890625,-164.102783203125
1758876772.6165166,-0.7099609375,0.0634765625,0.71533203125,-8.85009765625,2.9296875,0.6103515625,1.1865234375,45.9613037109375,-164.0972900390625
1758876772.6267412,-0.70703125,0.0458984375,0.73779296875,-14.16015625,2.44140625,1.0986328125,1.0601806640625,45.9832763671875,-164.091796875
1758876772.636554,-0.70703125,0.0458984375,0.73779296875,-14.16015625,2.44140625,1.0986328125,0.9393310546875,46.0052490234375,-164.080810546875
1758876772.6465433,-0.70703125,0.01904296875,0.6826171875,-18.06640625,2.197265625,1.708984375,0.780029296875,46.021728515625,-164.0643310546875
1758876772.6566277,-0.70703125,0.01904296875,0.6826171875,-18.06640625,2.197265625,1.708984375,0.626220703125,46.0382080078125,-164.0478515625
1758876772.666758,-0.7001953125,0.00390625,0.69140625,-20.751953125,1.953125,1.953125,0.4449462890625,46.0546875,-164.02587890625
1758876772.6765912,-0.7001953125,0.00390625,0.69140625,-20.751953125,1.953125,1.953125,0.2691650390625,46.0711669921875,-164.00390625
1758876772.6865718,-0.70166015625,0.021484375,0.70703125,-22.64404296875,1.953125,2.0751953125,0.0714111328125,46.087646484375,-163.98193359375
1758876772.6967568,-0.70166015625,0.021484375,0.70703125,-22.64404296875,1.953125,2.0751953125,-0.120849609375,46.0986328125,-163.9599609375
1758876772.7068472,-0.72314453125,0.04345703125,0.71923828125,-27.587890625,1.5869140625,2.13623046875,-0.3570556640625,46.1151123046875,-163.9324951171875
1758876772.7166884,-0.7802734375,0.08203125,0.6826171875,-44.86083984375,1.28173828125,3.173828125,-0.68115234375,46.12060546875,-163.89404296875
1758876772.726696,-0.7802734375,0.08203125,0.6826171875,-44.86083984375,1.28173828125,3.173828125,-1.0711669921875,46.131591796875,-163.8446044921875
1758876772.7371619,-0.87255859375,0.0234375,0.6494140625,-55.96923828125,0.732421875,3.11279296875,-1.5216064453125,46.142578125,-163.7896728515625
1758876772.746795,-0.87255859375,0.0234375,0.6494140625,-55.96923828125,0.732421875,3.11279296875,-2.021484375,46.1590576171875,-163.7237548828125
1758876772.7567613,-0.92138671875,-0.1015625,0.59033203125,-55.84716796875,-0.06103515625,3.662109375,-2.515869140625,46.1700439453125,-163.65234375
1758876772.7669904,-0.92138671875,-0.1015625,0.59033203125,-55.84716796875,-0.06103515625,3.662109375,-3.01025390625,46.1865234375,-163.575439453125
1758876772.7770214,-0.89306640625,-0.134765625,0.5146484375,-57.55615234375,-0.54931640625,3.72314453125,-3.5211181640625,46.20849609375,-163.49853515625
1758876772.7866974,-0.89306640625,-0.134765625,0.5146484375,-57.55615234375,-0.54931640625,3.72314453125,-4.04296875,46.23046875,-163.4161376953125
1758876772.7969441,-0.81982421875,-0.1083984375,0.490234375,-37.4755859375,0.1220703125,4.08935546875,-4.4659423828125,46.263427734375,-163.3282470703125
1758876772.8067987,-0.81982421875,-0.1083984375,0.490234375,-37.4755859375,0.1220703125,4.08935546875,-4.7845458984375,46.307373046875,-163.2403564453125
1758876772.816818,-0.791015625,-0.12451171875,0.4765625,-7.01904296875,1.220703125,3.7841796875,-4.9658203125,46.3568115234375,-163.1524658203125
1758876772.8269982,-0.791015625,-0.12451171875,0.4765625,-7.01904296875,1.220703125,3.7841796875,-4.9932861328125,46.4117431640625,-163.070068359375
1758876772.8370016,-0.76416015625,-0.109375,0.583984375,12.51220703125,1.3427734375,2.99072265625,-4.9383544921875,46.47216796875,-162.9986572265625
1758876772.8467932,-0.76416015625,-0.109375,0.583984375,12.51220703125,1.3427734375,2.99072265625,-4.7900390625,46.527099609375,-162.92724609375
1758876772.8568633,-0.728515625,-0.05712890625,0.71337890625,18.310546875,1.220703125,2.685546875,-4.6142578125,46.58203125,-162.8668212890625
1758876772.8668616,-0.728515625,-0.05712890625,0.71337890625,18.310546875,1.220703125,2.685546875,-4.41650390625,46.6314697265625,-162.8118896484375
1758876772.8769271,-0.7001953125,-0.01025390625,0.73779296875,10.19287109375,0.42724609375,2.685546875,-4.2572021484375,46.6754150390625,-162.75146484375
1758876772.88689,-0.7001953125,-0.01025390625,0.73779296875,10.19287109375,0.42724609375,2.685546875,-4.130859375,46.702880859375,-162.7020263671875
1758876772.89763,-0.6806640625,-0.00537109375,0.76416015625,-1.89208984375,-0.3662109375,2.86865234375,-4.06494140625,46.724853515625,-162.6470947265625
1758876772.907273,-0.6806640625,-0.00537109375,0.76416015625,-1.89208984375,-0.3662109375,2.86865234375,-4.053955078125,46.7413330078125,-162.5921630859375
1758876772.9194975,-0.68212890625,-0.04052734375,0.7646484375,-6.103515625,-0.732421875,2.685546875,-4.0594482421875,46.746826171875,-162.542724609375
1758876772.9379165,-0.68212890625,-0.04052734375,0.7646484375,-6.103515625,-0.732421875,2.685546875,-4.0924072265625,46.746826171875,-162.498779296875
1758876772.946301,-0.70556640625,-0.068359375,0.720703125,-4.638671875,-0.67138671875,2.5634765625,-4.1143798828125,46.746826171875,-162.4603271484375
1758876772.9534163,-0.70556640625,-0.068359375,0.720703125,-4.638671875,-0.67138671875,2.5634765625,-4.130859375,46.746826171875,-162.421875
1758876772.9607227,-0.7294921875,-0.06201171875,0.6630859375,-4.638671875,-0.8544921875,2.50244140625,-4.1473388671875,46.7413330078125,-162.3834228515625
1758876772.9674134,-0.7294921875,-0.06201171875,0.6630859375,-4.638671875,-0.8544921875,2.50244140625,-4.1693115234375,46.73583984375,-162.3504638671875
1758876772.9821496,-0.736328125,-0.04833984375,0.65673828125,-5.0048828125,-0.67138671875,2.25830078125,-4.1912841796875,46.7303466796875,-162.3175048828125
1758876772.9885137,-0.736328125,-0.04833984375,0.65673828125,-5.0048828125,-0.67138671875,2.25830078125,-4.2132568359375,46.724853515625,-162.2845458984375
1758876772.9970534,-0.72998046875,-0.0546875,0.6904296875,-3.35693359375,-0.244140625,2.01416015625,-4.2352294921875,46.724853515625,-162.257080078125
1758876773.0148246,-0.72998046875,-0.0546875,0.6904296875,-3.35693359375,-0.244140625,2.01416015625,-4.2462158203125,46.724853515625,-162.2296142578125
1758876773.021797,-0.720703125,-0.06591796875,0.70166015625,-0.42724609375,0.06103515625,1.89208984375,-4.2462158203125,46.7303466796875,-162.2021484375
1758876773.0285788,-0.720703125,-0.06591796875,0.70166015625,-0.42724609375,0.06103515625,1.89208984375,-4.229736328125,46.7303466796875,-162.1746826171875
1758876773.0371425,-0.71484375,-0.05712890625,0.68994140625,0.30517578125,0.244140625,1.8310546875,-4.2132568359375,46.73583984375,-162.1527099609375
1758876773.051295,-0.71484375,-0.05712890625,0.68994140625,0.30517578125,0.244140625,1.8310546875,-4.1912841796875,46.7413330078125,-162.1307373046875
1758876773.0576603,-0.7158203125,-0.03759765625,0.69970703125,-3.2958984375,0.18310546875,1.89208984375,-4.1912841796875,46.7413330078125,-162.1087646484375
1758876773.0671587,-0.7158203125,-0.03759765625,0.69970703125,-3.2958984375,0.18310546875,1.89208984375,-4.2022705078125,46.7413330078125,-162.081298828125
1758876773.0802088,-0.71240234375,-0.04541015625,0.7119140625,-7.38525390625,0.18310546875,2.25830078125,-4.2352294921875,46.746826171875,-162.0538330078125
1758876773.0874064,-0.71240234375,-0.04541015625,0.7119140625,-7.38525390625,0.18310546875,2.25830078125,-4.28466796875,46.746826171875,-162.0263671875
1758876773.0971625,-0.72265625,-0.0693359375,0.70654296875,-9.3994140625,0.1220703125,2.8076171875,-4.339599609375,46.746826171875,-161.993408203125
1758876773.1071131,-0.72265625,-0.0693359375,0.70654296875,-9.3994140625,0.1220703125,2.8076171875,-4.405517578125,46.746826171875,-161.9549560546875
1758876773.123154,-0.7216796875,-0.0703125,0.67724609375,-8.60595703125,0.1220703125,3.0517578125,-4.4659423828125,46.7413330078125,-161.9219970703125
1758876773.129199,-0.7216796875,-0.0703125,0.67724609375,-8.60595703125,0.1220703125,3.0517578125,-4.5208740234375,46.7413330078125,-161.883544921875
1758876773.1372507,-0.7236328125,-0.06298828125,0.6787109375,-7.2021484375,0.1220703125,3.23486328125,-4.5648193359375,46.746826171875,-161.8450927734375
1758876773.147209,-0.7236328125,-0.06298828125,0.6787109375,-7.2021484375,0.1220703125,3.23486328125,-4.603271484375,46.746826171875,-161.8011474609375
1758876773.15761,-0.71728515625,-0.0546875,0.6953125,-9.58251953125,0.244140625,3.47900390625,-4.6527099609375,46.746826171875,-161.7626953125
1758876773.1673253,-0.71728515625,-0.0546875,0.6953125,-9.58251953125,0.244140625,3.47900390625,-4.713134765625,46.746826171875,-161.7132568359375
1758876773.1773205,-0.70947265625,-0.05517578125,0.7236328125,-14.46533203125,0.30517578125,4.150390625,-4.7955322265625,46.7523193359375,-161.663818359375
1758876773.1879513,-0.70947265625,-0.05517578125,0.7236328125,-14.46533203125,0.30517578125,4.150390625,-4.8944091796875,46.7523193359375,-161.6143798828125
1758876773.1972725,-0.712890625,-0.0625,0.72509765625,-19.775390625,0.0,4.8828125,-5.0152587890625,46.7523193359375,-161.553955078125
1758876773.207405,-0.712890625,-0.0625,0.72509765625,-19.775390625,0.0,4.8828125,-5.1580810546875,46.7523193359375,-161.488037109375
1758876773.2173555,-0.71240234375,-0.0634765625,0.7099609375,-29.052734375,-0.30517578125,5.4931640625,-5.3448486328125,46.746826171875,-161.422119140625
1758876773.2272642,-0.71240234375,-0.0634765625,0.7099609375,-29.052734375,-0.30517578125,5.4931640625,-5.570068359375,46.7413330078125,-161.34521484375
1758876773.2375703,-0.708984375,-0.05419921875,0.7060546875,-35.2783203125,-0.3662109375,5.67626953125,-5.8282470703125,46.73583984375,-161.2738037109375
1758876773.247545,-0.708984375,-0.05419921875,0.7060546875,-35.2783203125,-0.3662109375,5.67626953125,-6.1138916015625,46.7303466796875,-161.1968994140625
1758876773.2573464,-0.6865234375,-0.07568359375,0.75390625,-36.07177734375,-0.18310546875,5.92041015625,-6.3995361328125,46.724853515625,-161.114501953125
1758876773.2674205,-0.6865234375,-0.07568359375,0.75390625,-36.07177734375,-0.18310546875,5.92041015625,-6.6851806640625,46.7193603515625,-161.03759765625
1758876773.277789,-0.66455078125,-0.10546875,0.791015625,-39.6728515625,-0.3662109375,6.65283203125,-6.9873046875,46.7083740234375,-160.9552001953125
1758876773.2874174,-0.66455078125,-0.10546875,0.791015625,-39.6728515625,-0.3662109375,6.65283203125,-7.3004150390625,46.6973876953125,-160.8673095703125
1758876773.2974033,-0.62060546875,-0.126953125,0.83056640625,-52.24609375,-1.15966796875,7.01904296875,-7.6739501953125,46.680908203125,-160.7794189453125
1758876773.3074,-0.62060546875,-0.126953125,0.83056640625,-52.24609375,-1.15966796875,7.01904296875,-8.10791015625,46.658935546875,-160.6915283203125
1758876773.3176544,-0.63671875,-0.091796875,0.82080078125,-49.25537109375,-2.01416015625,7.9345703125,-8.525390625,46.6259765625,-160.6036376953125
1758876773.327417,-0.63671875,-0.091796875,0.82080078125,-49.25537109375,-2.01416015625,7.9345703125,-8.9154052734375,46.593017578125,-160.5047607421875
1758876773.3375137,-0.603515625,-0.126953125,0.78759765625,-38.02490234375,-3.96728515625,7.99560546875,-9.2449951171875,46.5435791015625,-160.4058837890625
1758876773.3475358,-0.603515625,-0.126953125,0.78759765625,-38.02490234375,-3.96728515625,7.99560546875,-9.5196533203125,46.483154296875,-160.3070068359375
1758876773.3575456,-0.6181640625,-0.169921875,0.7744140625,-21.8505859375,-4.94384765625,7.080078125,-9.7174072265625,46.417236328125,-160.213623046875
1758876773.3675153,-0.6181640625,-0.169921875,0.7744140625,-21.8505859375,-4.94384765625,7.080078125,-9.84375,46.3458251953125,-160.1312255859375
1758876773.3775754,-0.626953125,-0.16064453125,0.767578125,-2.01416015625,-5.79833984375,5.9814453125,-9.8712158203125,46.263427734375,-160.059814453125
1758876773.3878715,-0.626953125,-0.16064453125,0.767578125,-2.01416015625,-5.79833984375,5.9814453125,-9.8162841796875,46.1810302734375,-159.993896484375
1758876773.3978446,-0.576171875,-0.15771484375,0.84228515625,13.671875,-6.77490234375,3.96728515625,-9.68994140625,46.087646484375,-159.93896484375
1758876773.407536,-0.576171875,-0.15771484375,0.84228515625,13.671875,-6.77490234375,3.96728515625,-9.4976806640625,45.98876953125,-159.9114990234375
1758876773.4175537,-0.53125,-0.1171875,0.77587890625,15.7470703125,-6.2255859375,3.11279296875,-9.305419921875,45.8843994140625,-159.8895263671875
1758876773.4279559,-0.53125,-0.1171875,0.77587890625,15.7470703125,-6.2255859375,3.11279296875,-9.107666015625,45.7855224609375,-159.873046875
1758876773.4375627,-0.51318359375,-0.09228515625,0.7216796875,-6.9580078125,-5.31005859375,0.67138671875,-9.041748046875,45.68115234375,-159.884033203125
1758876773.4475791,-0.51318359375,-0.09228515625,0.7216796875,-6.9580078125,-5.31005859375,0.67138671875,-9.0966796875,45.582275390625,-159.9114990234375
1758876773.4578063,-0.62841796875,-0.119140625,0.8203125,-12.87841796875,-6.2255859375,-0.54931640625,-9.1845703125,45.4779052734375,-159.9444580078125
1758876773.467639,-0.62841796875,-0.119140625,0.8203125,-12.87841796875,-6.2255859375,-0.54931640625,-9.3109130859375,45.3680419921875,-159.98291015625
1758876773.4776847,-0.576171875,-0.06103515625,0.74609375,-4.69970703125,-5.31005859375,-4.57763671875,-9.415283203125,45.263671875,-160.0543212890625
1758876773.487909,-0.576171875,-0.06103515625,0.74609375,-4.69970703125,-5.31005859375,-4.57763671875,-9.4921875,45.15380859375,-160.1422119140625
1758876773.4978454,-0.64453125,0.15087890625,0.583984375,-33.99658203125,-6.8359375,-1.953125,-9.6954345703125,45.0439453125,-160.2081298828125
1758876773.5076966,-0.64453125,0.15087890625,0.583984375,-33.99658203125,-6.8359375,-1.953125,-10.01953125,44.93408203125,-160.2301025390625
1758876773.5177426,-0.4443359375,-0.02490234375,0.55517578125,-14.892578125,-1.89208984375,-3.0517578125,-10.2447509765625,44.857177734375,-160.2520751953125
1758876773.5279846,-0.4443359375,-0.02490234375,0.55517578125,-14.892578125,-1.89208984375,-3.0517578125,-10.382080078125,44.7967529296875,-160.2850341796875
1758876773.5377026,-0.70654296875,-0.11865234375,0.49365234375,6.103515625,-0.54931640625,-1.5869140625,-10.4095458984375,44.7528076171875,-160.3125
1758876773.547828,-0.70654296875,-0.11865234375,0.49365234375,6.103515625,-0.54931640625,-1.5869140625,-10.3271484375,44.7198486328125,-160.3179931640625
1758876773.5580435,-1.2685546875,-0.45947265625,1.10595703125,123.779296875,-3.23486328125,-5.79833984375,-9.68994140625,44.681396484375,-160.3564453125
1758876773.5678582,-1.2685546875,-0.45947265625,1.10595703125,123.779296875,-3.23486328125,-5.79833984375,-8.50341796875,44.6319580078125,-160.4278564453125
1758876773.577859,-0.646484375,-0.40380859375,0.82958984375,154.60205078125,-9.3994140625,-10.07080078125,-7.2015380859375,44.549560546875,-160.543212890625
1758876773.5878162,-0.646484375,-0.40380859375,0.82958984375,154.60205078125,-9.3994140625,-10.07080078125,-5.7843017578125,44.439697265625,-160.7025146484375
1758876773.5980961,-0.6435546875,-0.1279296875,0.56982421875,106.8115234375,-5.7373046875,-9.82666015625,-4.625244140625,44.3408203125,-160.8782958984375
1758876773.6079092,-0.6435546875,-0.1279296875,0.56982421875,106.8115234375,-5.7373046875,-9.82666015625,-3.7078857421875,44.2694091796875,-161.0540771484375
1758876773.6181068,-0.6064453125,0.07275390625,0.4794921875,14.6484375,-5.92041015625,-8.36181640625,-3.2464599609375,44.2034912109375,-161.2188720703125
1758876773.6280904,-0.6064453125,0.07275390625,0.4794921875,14.6484375,-5.92041015625,-8.36181640625,-3.22998046875,44.14306640625,-161.3616943359375
1758876773.6379113,-0.66552734375,0.22607421875,0.6513671875,-3.0517578125,-4.57763671875,-6.103515625,-3.2794189453125,44.088134765625,-161.4825439453125
1758876773.6479223,-0.66552734375,0.22607421875,0.6513671875,-3.0517578125,-4.57763671875,-6.103515625,-3.3892822265625,44.044189453125,-161.5704345703125
1758876773.6579406,-0.5966796875,0.1318359375,0.5712890625,25.57373046875,-2.3193359375,-2.62451171875,-3.328857421875,44.0167236328125,-161.619873046875
1758876773.6679373,-0.5966796875,0.1318359375,0.5712890625,25.57373046875,-2.3193359375,-2.62451171875,-3.09814453125,43.9947509765625,-161.641845703125
1758876773.6778958,-0.6357421875,-0.1552734375,0.59521484375,12.20703125,-2.38037109375,-2.13623046875,-2.9278564453125,43.978271484375,-161.6583251953125
1758876773.6880462,-0.6357421875,-0.1552734375,0.59521484375,12.20703125,-2.38037109375,-2.13623046875,-2.83447265625,43.9617919921875,-161.6748046875
1758876773.6979907,-0.8134765625,-0.13720703125,0.9814453125,-55.17578125,-2.86865234375,-1.89208984375,-3.076171875,43.9453125,-161.69677734375
1758876773.707972,-0.8134765625,-0.13720703125,0.9814453125,-55.17578125,-2.86865234375,-1.89208984375,-3.6529541015625,43.9178466796875,-161.71875
1758876773.7179446,-0.95947265625,0.06396484375,1.0302734375,-67.32177734375,-5.126953125,1.3427734375,-4.3121337890625,43.868408203125,-161.6912841796875
1758876773.728282,-0.95947265625,0.06396484375,1.0302734375,-67.32177734375,-5.126953125,1.3427734375,-4.9603271484375,43.824462890625,-161.6583251953125
1758876773.7379513,-0.80126953125,-0.13427734375,0.8720703125,25.2685546875,-8.85009765625,1.28173828125,-4.68017578125,43.736572265625,-161.619873046875
1758876773.7479985,-0.80126953125,-0.13427734375,0.8720703125,25.2685546875,-8.85009765625,1.28173828125,-4.405517578125,43.648681640625,-161.5869140625
1758876773.7580407,-0.57177734375,-0.3193359375,0.47119140625,61.34033203125,-5.126953125,1.89208984375,-3.7847900390625,43.5992431640625,-161.5594482421875
1758876773.7680757,-0.57177734375,-0.3193359375,0.47119140625,61.34033203125,-5.126953125,1.89208984375,-3.175048828125,43.5552978515625,-161.54296875
1758876773.7780623,-0.62060546875,-0.25634765625,0.470703125,42.1142578125,-2.685546875,0.0,-2.79052734375,43.538818359375,-161.56494140625
1758876773.7882674,-0.62060546875,-0.25634765625,0.470703125,42.1142578125,-2.685546875,0.0,-2.4169921875,43.5223388671875,-161.5869140625
1758876773.798119,-0.7763671875,0.0068359375,0.88818359375,39.4287109375,-1.52587890625,0.0,-2.0709228515625,43.516845703125,-161.6143798828125
1758876773.8081145,-0.7763671875,0.0068359375,0.88818359375,39.4287109375,-1.52587890625,0.0,-1.7193603515625,43.5113525390625,-161.630859375
1758876773.8181555,-0.6259765625,0.05322265625,0.73876953125,55.7861328125,-0.3662109375,1.03759765625,-1.1865234375,43.5113525390625,-161.6363525390625
1758876773.8285983,-0.6259765625,0.05322265625,0.73876953125,55.7861328125,-0.3662109375,1.03759765625,-0.6536865234375,43.5113525390625,-161.641845703125
1758876773.8381221,-0.552734375,-0.03369140625,0.39990234375,36.56005859375,1.8310546875,3.47900390625,-0.2911376953125,43.538818359375,-161.60888671875
1758876773.8485837,-0.552734375,-0.03369140625,0.39990234375,36.56005859375,1.8310546875,3.47900390625,0.0714111328125,43.5662841796875,-161.575927734375
1758876773.8586383,-0.75146484375,-0.0693359375,0.63525390625,27.34375,3.11279296875,2.99072265625,0.3350830078125,43.6102294921875,-161.54296875
1758876773.8682718,-0.75146484375,-0.0693359375,0.63525390625,27.34375,3.11279296875,2.99072265625,0.5987548828125,43.6541748046875,-161.5155029296875
1758876773.8785372,-1.0576171875,0.0947265625,1.2529296875,13.97705078125,-2.25830078125,3.173828125,0.736083984375,43.6431884765625,-161.4825439453125
1758876773.8882494,-1.0576171875,0.0947265625,1.2529296875,13.97705078125,-2.25830078125,3.173828125,0.87890625,43.626708984375,-161.4495849609375
1758876773.8992724,-0.72509765625,0.2666015625,0.93408203125,-44.921875,-5.615234375,6.77490234375,0.4833984375,43.57177734375,-161.356201171875
1758876773.9082363,-0.72509765625,0.2666015625,0.93408203125,-44.921875,-5.615234375,6.77490234375,0.1043701171875,43.5113525390625,-161.2628173828125
1758876773.9187796,-0.5205078125,0.1630859375,0.31884765625,-77.57568359375,-5.55419921875,11.04736328125,-0.54931640625,43.4619140625,-161.092529296875
1758876773.9284503,-0.5205078125,0.1630859375,0.31884765625,-77.57568359375,-5.55419921875,11.04736328125,-1.1920166015625,43.4124755859375,-160.9112548828125
1758876773.9394643,-0.62353515625,0.02587890625,0.4091796875,-90.8203125,-2.38037109375,10.3759765625,-1.9720458984375,43.406982421875,-160.7244873046875
1758876773.9482636,-0.62353515625,0.02587890625,0.4091796875,-90.8203125,-2.38037109375,10.3759765625,-2.74658203125,43.406982421875,-160.5377197265625
1758876773.9582653,-0.71875,-0.01611328125,0.71142578125,-128.35693359375,-0.79345703125,9.6435546875,-3.900146484375,43.4234619140625,-160.3564453125
1758876773.9684203,-0.71875,-0.01611328125,0.71142578125,-128.35693359375,-0.79345703125,9.6435546875,-5.0482177734375,43.4454345703125,-160.169677734375
1758876773.978319,-0.74658203125,-0.0537109375,0.56298828125,-120.361328125,-0.06103515625,12.75634765625,-6.08642578125,43.4783935546875,-159.9444580078125
1758876773.9883559,-0.74658203125,-0.0537109375,0.56298828125,-120.361328125,-0.06103515625,12.75634765625,-7.1246337890625,43.5223388671875,-159.7137451171875
1758876773.9983797,-0.74365234375,-0.25830078125,0.83642578125,-58.2275390625,-2.0751953125,12.8173828125,-7.547607421875,43.538818359375,-159.4830322265625
1758876774.0086608,-0.74365234375,-0.25830078125,0.83642578125,-58.2275390625,-2.0751953125,12.8173828125,-7.97607421875,43.5552978515625,-159.268798828125
1758876774.0183764,-1.20263671875,-0.482421875,1.01953125,51.81884765625,-4.7607421875,16.6015625,-7.283935546875,43.5498046875,-159.0106201171875
1758876774.0287519,-1.20263671875,-0.482421875,1.01953125,51.81884765625,-4.7607421875,16.6015625,-6.61376953125,43.538818359375,-158.7689208984375
1758876774.0384085,-0.61474609375,-0.13720703125,0.35986328125,101.4404296875,-2.86865234375,7.50732421875,-5.548095703125,43.5443115234375,-158.6590576171875
1758876774.0484068,-0.61474609375,-0.13720703125,0.35986328125,101.4404296875,-2.86865234375,7.50732421875,-4.493408203125,43.5498046875,-158.5491943359375
1758876774.058478,-0.65673828125,-0.03857421875,0.5751953125,60.60791015625,-3.0517578125,6.8359375,-3.8507080078125,43.5498046875,-158.44482421875
1758876774.0687907,-0.65673828125,-0.03857421875,0.5751953125,60.60791015625,-3.0517578125,6.8359375,-3.2135009765625,43.5552978515625,-158.345947265625
1758876774.078452,-0.66259765625,-0.0654296875,0.74853515625,-4.33349609375,-0.79345703125,7.2021484375,-3.2244873046875,43.5772705078125,-158.2415771484375
1758876774.0885518,-0.66259765625,-0.0654296875,0.74853515625,-4.33349609375,-0.79345703125,7.2021484375,-3.22998046875,43.59375,-158.13720703125
1758876774.0986888,-0.59814453125,0.1943359375,0.64013671875,-2.62451171875,-0.06103515625,8.9111328125,-3.1915283203125,43.6212158203125,-158.00537109375
1758876774.1085224,-0.59814453125,0.1943359375,0.64013671875,-2.62451171875,-0.06103515625,8.9111328125,-3.1365966796875,43.6431884765625,-157.862548828125
1758876774.1184998,-0.69482421875,0.0458984375,0.6396484375,-8.85009765625,0.48828125,8.97216796875,-3.14208984375,43.670654296875,-157.7142333984375
1758876774.1285446,-0.69482421875,0.0458984375,0.6396484375,-8.85009765625,0.48828125,8.97216796875,-3.14208984375,43.6981201171875,-157.56591796875
1758876774.1385665,-0.97705078125,-0.0869140625,0.8017578125,2.9296875,-1.28173828125,10.7421875,-3.01025390625,43.714599609375,-157.39013671875
1758876774.1485546,-0.97705078125,-0.0869140625,0.8017578125,2.9296875,-1.28173828125,10.7421875,-2.8839111328125,43.7310791015625,-157.2088623046875
1758876774.158541,-0.86865234375,-0.2080078125,0.74853515625,43.701171875,-2.25830078125,6.77490234375,-2.3895263671875,43.7310791015625,-157.093505859375
1758876774.1690161,-0.86865234375,-0.2080078125,0.74853515625,43.701171875,-2.25830078125,6.77490234375,-1.9061279296875,43.736572265625,-156.9891357421875
1758876774.1786227,-0.7119140625,-0.12841796875,0.65380859375,55.35888671875,-2.25830078125,3.2958984375,-1.351318359375,43.7420654296875,-156.9342041015625
1758876774.1886425,-0.7119140625,-0.12841796875,0.65380859375,55.35888671875,-2.25830078125,3.2958984375,-0.7965087890625,43.7420654296875,-156.8902587890625
1758876774.1986275,-0.64892578125,0.0458984375,0.6708984375,24.47509765625,-0.54931640625,3.41796875,-0.54931640625,43.758544921875,-156.8408203125
1758876774.2093832,-0.64892578125,0.0458984375,0.6708984375,24.47509765625,-0.54931640625,3.41796875,-0.296630859375,43.7750244140625,-156.7913818359375
1758876774.218649,-0.6865234375,0.20068359375,0.67578125,5.92041015625,0.67138671875,2.44140625,-0.2362060546875,43.802490234375,-156.7474365234375
1758876774.2289197,-0.6865234375,0.20068359375,0.67578125,5.92041015625,0.67138671875,2.44140625,-0.1593017578125,43.8299560546875,-156.697998046875
1758876774.238883,-0.6611328125,0.162109375,0.80419921875,-1.03759765625,0.3662109375,2.3193359375,-0.142822265625,43.846435546875,-156.64306640625
1758876774.248966,-0.6611328125,0.162109375,0.80419921875,-1.03759765625,0.3662109375,2.3193359375,-0.1263427734375,43.8629150390625,-156.5826416015625
1758876774.258711,-0.64013671875,0.0556640625,0.74072265625,-21.97265625,0.9765625,2.01416015625,-0.3131103515625,43.87939453125,-156.5277099609375
1758876774.269253,-0.64013671875,0.0556640625,0.74072265625,-21.97265625,0.9765625,2.01416015625,-0.494384765625,43.8958740234375,-156.478271484375
1758876774.2790716,-0.6689453125,-0.04833984375,0.7158203125,-28.076171875,0.30517578125,0.30517578125,-0.758056640625,43.9013671875,-156.4508056640625
1758876774.289036,-0.6689453125,-0.04833984375,0.7158203125,-28.076171875,0.30517578125,0.30517578125,-1.021728515625,43.9068603515625,-156.4288330078125
1758876774.298815,-0.72021484375,-0.015625,0.71240234375,-26.123046875,0.06103515625,-1.03759765625,-1.2799072265625,43.912353515625,-156.4288330078125
1758876774.3093195,-0.72021484375,-0.015625,0.71240234375,-26.123046875,0.06103515625,-1.03759765625,-1.5380859375,43.9178466796875,-156.42333984375
1758876774.3187761,-0.71875,0.02587890625,0.67919921875,-29.47998046875,-0.91552734375,-1.5869140625,-1.834716796875,43.912353515625,-156.42333984375
1758876774.3292227,-0.71875,0.02587890625,0.67919921875,-29.47998046875,-0.91552734375,-1.5869140625,-2.1258544921875,43.9068603515625,-156.42333984375
1758876774.3390098,-0.7099609375,0.02001953125,0.701171875,-47.2412109375,-2.44140625,-0.30517578125,-2.581787109375,43.890380859375,-156.4013671875
1758876774.3497353,-0.7099609375,0.02001953125,0.701171875,-47.2412109375,-2.44140625,-0.30517578125,-3.0322265625,43.8739013671875,-156.3739013671875
1758876774.3588653,-0.65771484375,-0.01904296875,0.66748046875,-57.12890625,-3.11279296875,0.6103515625,-3.570556640625,43.8519287109375,-156.33544921875
1758876774.3695116,-0.65771484375,-0.01904296875,0.66748046875,-57.12890625,-3.11279296875,0.6103515625,-4.1033935546875,43.824462890625,-156.29150390625
1758876774.3797832,-0.6123046875,-0.05078125,0.6953125,-62.68310546875,-2.9296875,1.15966796875,-4.691162109375,43.802490234375,-156.2420654296875
1758876774.3895895,-0.6123046875,-0.05078125,0.6953125,-62.68310546875,-2.9296875,1.15966796875,-5.2734375,43.780517578125,-156.192626953125
1758876774.3988988,-0.583984375,-0.048828125,0.72900390625,-63.1103515625,-2.197265625,1.8310546875,-5.855712890625,43.7640380859375,-156.1322021484375
1758876774.4092004,-0.583984375,-0.048828125,0.72900390625,-63.1103515625,-2.197265625,1.8310546875,-6.4324951171875,43.7420654296875,-156.0772705078125
1758876774.4190528,-0.5400390625,-0.08349609375,0.7158203125,-69.82421875,-0.6103515625,2.13623046875,-7.0751953125,43.7310791015625,-156.016845703125
1758876774.4291236,-0.5400390625,-0.08349609375,0.7158203125,-69.82421875,-0.6103515625,2.13623046875,-7.7178955078125,43.7200927734375,-155.9619140625
1758876774.4394305,-0.5029296875,-0.078125,0.70166015625,-70.12939453125,1.52587890625,2.25830078125,-8.3660888671875,43.7310791015625,-155.906982421875
1758876774.4492848,-0.5029296875,-0.078125,0.70166015625,-70.12939453125,1.52587890625,2.25830078125,-9.0087890625,43.736572265625,-155.8575439453125
1758876774.4590523,-0.4892578125,-0.09033203125,0.7021484375,-64.63623046875,4.21142578125,2.5634765625,-9.5965576171875,43.7640380859375,-155.8135986328125
1758876774.4690971,-0.4892578125,-0.09033203125,0.7021484375,-64.63623046875,4.21142578125,2.5634765625,-10.1898193359375,43.7860107421875,-155.7696533203125
1758876774.4799962,-0.47802734375,-0.1357421875,0.6474609375,-56.0302734375,7.32421875,3.60107421875,-10.6842041015625,43.8409423828125,-155.7257080078125
1758876774.4890327,-0.47802734375,-0.1357421875,0.6474609375,-56.0302734375,7.32421875,3.60107421875,-11.1895751953125,43.890380859375,-155.6817626953125
1758876774.4990857,-0.578125,-0.2177734375,0.75732421875,-26.67236328125,8.544921875,4.7607421875,-11.392822265625,43.956298828125,-155.6378173828125
1758876774.509172,-0.578125,-0.2177734375,0.75732421875,-26.67236328125,8.544921875,4.7607421875,-11.6015625,44.0167236328125,-155.5938720703125
1758876774.5190706,-0.79052734375,-0.39404296875,1.1806640625,69.3359375,6.77490234375,3.2958984375,-10.87646484375,44.05517578125,-155.5828857421875
1758876774.5292182,-0.79052734375,-0.39404296875,1.1806640625,69.3359375,6.77490234375,3.2958984375,-10.1678466796875,44.088134765625,-155.58837890625
1758876774.5396473,-0.6279296875,-0.58203125,0.80126953125,119.81201171875,8.4228515625,-1.15966796875,-9.019775390625,44.1265869140625,-155.67626953125
1758876774.549283,-0.6279296875,-0.58203125,0.80126953125,119.81201171875,8.4228515625,-1.15966796875,-7.8936767578125,44.1705322265625,-155.7861328125
1758876774.5591717,-0.65673828125,-0.2900390625,0.4775390625,127.0751953125,9.8876953125,-4.08935546875,-6.7401123046875,44.2254638671875,-155.93994140625
1758876774.569199,-0.65673828125,-0.2900390625,0.4775390625,127.0751953125,9.8876953125,-4.08935546875,-5.60302734375,44.2913818359375,-156.09375
1758876774.57982,-1.125,0.08349609375,1.2314453125,84.228515625,4.82177734375,-2.99072265625,-4.8614501953125,44.3133544921875,-156.2091064453125
1758876774.5892284,-1.125,0.08349609375,1.2314453125,84.228515625,4.82177734375,-2.99072265625,-4.10888671875,44.3353271484375,-156.3079833984375
1758876774.5992048,-0.78271484375,0.29052734375,0.9306640625,-7.01904296875,3.60107421875,-2.13623046875,-4.2352294921875,44.3463134765625,-156.37939453125
1758876774.6093545,-0.78271484375,0.29052734375,0.9306640625,-7.01904296875,3.60107421875,-2.13623046875,-4.3505859375,44.3572998046875,-156.434326171875
1758876774.6195323,-0.76611328125,0.34130859375,0.4462890625,-63.96484375,-1.77001953125,6.4697265625,-4.921875,44.329833984375,-156.3409423828125
1758876774.6293488,-0.76611328125,0.34130859375,0.4462890625,-63.96484375,-1.77001953125,6.4697265625,-5.47119140625,44.3133544921875,-156.2200927734375
1758876774.6392448,-0.62158203125,-0.2412109375,0.45166015625,-51.81884765625,-0.244140625,4.0283203125,-5.9271240234375,44.3133544921875,-156.1322021484375
1758876774.6495125,-0.62158203125,-0.2412109375,0.45166015625,-51.81884765625,-0.244140625,4.0283203125,-6.39404296875,44.31884765625,-156.0552978515625
1758876774.6593199,-0.66552734375,-0.38427734375,0.49462890625,-18.4326171875,2.13623046875,3.662109375,-6.5423583984375,44.351806640625,-156.0003662109375
1758876774.6693618,-0.66552734375,-0.38427734375,0.49462890625,-18.4326171875,2.13623046875,3.662109375,-6.712646484375,44.384765625,-155.950927734375
1758876774.6802964,-0.67431640625,-0.40673828125,0.55859375,29.11376953125,3.7841796875,1.28173828125,-6.4434814453125,44.4342041015625,-155.9564208984375
1758876774.6893559,-0.666015625,-0.208984375,0.59814453125,56.21337890625,5.9814453125,-0.79345703125,-6.0589599609375,44.49462890625,-155.9893798828125
1758876774.6995955,-0.666015625,-0.208984375,0.59814453125,56.21337890625,5.9814453125,-0.79345703125,-5.55908203125,44.560546875,-156.038818359375
1758876774.709583,-0.6533203125,-0.0302734375,0.595703125,54.443359375,7.62939453125,-2.0751953125,-5.0811767578125,44.6429443359375,-156.0992431640625
1758876774.72018,-0.6533203125,-0.0302734375,0.595703125,54.443359375,7.62939453125,-2.0751953125,-4.6142578125,44.725341796875,-156.1651611328125
1758876774.7295094,-0.70166015625,0.0654296875,0.7109375,51.20849609375,8.36181640625,-2.62451171875,-4.1583251953125,44.813232421875,-156.2310791015625
1758876774.73971,-0.70166015625,0.0654296875,0.7109375,51.20849609375,8.36181640625,-2.62451171875,-3.7188720703125,44.9066162109375,-156.29150390625
1758876774.7502956,-0.9794921875,0.2373046875,1.072265625,-4.08935546875,5.18798828125,-2.62451171875,-3.53759765625,44.9835205078125,-156.3409423828125
1758876774.7608678,-0.9794921875,0.2373046875,1.072265625,-4.08935546875,5.18798828125,-2.62451171875,-3.6199951171875,45.0384521484375,-156.37939453125
1758876774.7694774,-0.826171875,0.236328125,0.8251953125,-72.75390625,1.708984375,-0.79345703125,-4.0155029296875,45.0714111328125,-156.3848876953125
1758876774.7802289,-0.826171875,0.236328125,0.8251953125,-72.75390625,1.708984375,-0.79345703125,-4.7296142578125,45.0933837890625,-156.3629150390625
1758876774.7895916,-0.78759765625,-0.16455078125,0.56201171875,-52.490234375,-1.15966796875,2.01416015625,-5.3118896484375,45.098876953125,-156.3189697265625
1758876774.8000262,-0.78759765625,-0.16455078125,0.56201171875,-52.490234375,-1.15966796875,2.01416015625,-5.789794921875,45.098876953125,-156.24755859375
1758876774.8094952,-0.7763671875,-0.31640625,0.50927734375,10.68115234375,-0.48828125,-1.220703125,-5.9710693359375,45.1043701171875,-156.2091064453125
1758876774.819513,-0.7763671875,-0.31640625,0.50927734375,10.68115234375,-0.48828125,-1.220703125,-5.8721923828125,45.1153564453125,-156.20361328125
1758876774.830309,-0.75537109375,-0.25634765625,0.5771484375,50.23193359375,0.244140625,-4.0283203125,-5.5975341796875,45.1318359375,-156.2255859375
1758876774.8395858,-0.75537109375,-0.25634765625,0.5771484375,50.23193359375,0.244140625,-4.0283203125,-5.1580810546875,45.15380859375,-156.280517578125
1758876774.8498092,-0.74267578125,-0.03564453125,0.5595703125,38.75732421875,2.13623046875,-5.4931640625,-4.7845458984375,45.186767578125,-156.346435546875
1758876774.8595963,-0.74267578125,-0.03564453125,0.5595703125,38.75732421875,2.13623046875,-5.4931640625,-4.482421875,45.2252197265625,-156.42333984375
1758876774.8696465,-0.7412109375,0.068359375,0.63623046875,21.3623046875,2.38037109375,-5.79833984375,-4.2626953125,45.2691650390625,-156.4947509765625
1758876774.880727,-0.7412109375,0.068359375,0.63623046875,21.3623046875,2.38037109375,-5.79833984375,-4.1253662109375,45.318603515625,-156.566162109375
1758876774.8898866,-0.78759765625,0.10009765625,0.69580078125,-6.16455078125,3.2958984375,-4.2724609375,-4.10888671875,45.3680419921875,-156.6156005859375
1758876774.8996246,-0.78759765625,0.10009765625,0.69580078125,-6.16455078125,3.2958984375,-4.2724609375,-4.21875,45.4229736328125,-156.654052734375
1758876774.909663,-0.77392578125,0.06689453125,0.63427734375,-18.98193359375,2.62451171875,-3.7841796875,-4.3780517578125,45.472412109375,-156.676025390625
1758876774.9197965,-0.77392578125,0.06689453125,0.63427734375,-18.98193359375,2.62451171875,-3.7841796875,-4.5977783203125,45.5218505859375,-156.6925048828125
1758876774.9297395,-0.7509765625,0.01025390625,0.65869140625,-29.4189453125,3.5400390625,-3.23486328125,-4.8614501953125,45.5767822265625,-156.697998046875
1758876774.9397037,-0.7509765625,0.01025390625,0.65869140625,-29.4189453125,3.5400390625,-3.23486328125,-5.1690673828125,45.63720703125,-156.697998046875
1758876774.9498389,-0.73779296875,-0.0390625,0.640625,-45.34912109375,3.662109375,-2.86865234375,-5.55908203125,45.692138671875,-156.697998046875
1758876774.960052,-0.73779296875,-0.0390625,0.640625,-45.34912109375,3.662109375,-2.86865234375,-6.0205078125,45.7525634765625,-156.697998046875
1758876774.9699974,-0.76123046875,-0.1484375,0.7021484375,-29.9072265625,4.0283203125,-3.173828125,-6.405029296875,45.8074951171875,-156.697998046875
1758876774.9797618,-0.76123046875,-0.1484375,0.7021484375,-29.9072265625,4.0283203125,-3.173828125,-6.7236328125,45.867919921875,-156.708984375
1758876774.9898918,-0.7568359375,-0.181640625,0.65673828125,-20.08056640625,4.57763671875,-4.08935546875,-6.998291015625,45.9228515625,-156.73095703125
1758876774.9997928,-0.7568359375,-0.181640625,0.65673828125,-20.08056640625,4.57763671875,-4.08935546875,-7.2344970703125,45.9832763671875,-156.7694091796875
1758876775.009853,-0.755859375,-0.0810546875,0.66796875,-31.79931640625,4.82177734375,-3.47900390625,-7.5311279296875,46.043701171875,-156.807861328125
1758876775.0198371,-0.755859375,-0.0810546875,0.66796875,-31.79931640625,4.82177734375,-3.47900390625,-7.8826904296875,46.1041259765625,-156.8408203125
1758876775.0301008,-0.75244140625,-0.060546875,0.6962890625,-35.888671875,5.31005859375,-2.8076171875,-8.2452392578125,46.16455078125,-156.8682861328125
1758876775.0401292,-0.75244140625,-0.060546875,0.6962890625,-35.888671875,5.31005859375,-2.8076171875,-8.6297607421875,46.2249755859375,-156.8902587890625
1758876775.049917,-0.71923828125,-0.13134765625,0.64111328125,-32.04345703125,5.43212890625,-2.44140625,-8.98681640625,46.2908935546875,-156.90673828125
1758876775.0598996,-0.71923828125,-0.13134765625,0.64111328125,-32.04345703125,5.43212890625,-2.44140625,-9.327392578125,46.351318359375,-156.9287109375
1758876775.0701377,-0.71923828125,-0.13134765625,0.64111328125,-25.0244140625,5.31005859375,-2.01416015625,-9.6295166015625,46.4117431640625,-156.9451904296875
1758876775.079897,-0.72509765625,-0.15869140625,0.65234375,-25.0244140625,5.31005859375,-2.01416015625,-9.898681640625,46.47216796875,-156.9671630859375
1758876775.090073,-0.7421875,-0.16259765625,0.67529296875,-20.56884765625,4.82177734375,-1.220703125,-10.140380859375,46.5325927734375,-156.9781494140625
1758876775.0999293,-0.7421875,-0.16259765625,0.67529296875,-20.56884765625,4.82177734375,-1.220703125,-10.360107421875,46.5875244140625,-156.99462890625
1758876775.1108587,-0.763671875,-0.19140625,0.6142578125,-11.23046875,4.57763671875,-1.0986328125,-10.535888671875,46.636962890625,-157.005615234375
1758876775.120018,-0.763671875,-0.19140625,0.6142578125,-11.23046875,4.57763671875,-1.0986328125,-10.667724609375,46.69189453125,-157.0220947265625
1758876775.1301482,-0.79296875,-0.19873046875,0.640625,0.06103515625,4.2724609375,-0.30517578125,-10.7391357421875,46.7413330078125,-157.0330810546875
1758876775.1404333,-0.79296875,-0.19873046875,0.640625,0.06103515625,4.2724609375,-0.30517578125,-10.755615234375,46.7962646484375,-157.03857421875
1758876775.1506753,-0.78515625,-0.10986328125,0.6044921875,1.64794921875,4.94384765625,0.18310546875,-10.7611083984375,46.8511962890625,-157.049560546875
1758876775.1600246,-0.78515625,-0.10986328125,0.6044921875,1.64794921875,4.94384765625,0.18310546875,-10.755615234375,46.91162109375,-157.049560546875
1758876775.1703913,-0.75146484375,-0.09765625,0.58740234375,-2.01416015625,5.67626953125,-0.1220703125,-10.777587890625,46.9775390625,-157.049560546875
1758876775.1803248,-0.75146484375,-0.09765625,0.58740234375,-2.01416015625,5.67626953125,-0.1220703125,-10.810546875,47.0489501953125,-157.049560546875
1758876775.1902804,-0.73828125,-0.12646484375,0.70361328125,-7.2021484375,5.79833984375,0.1220703125,-10.8709716796875,47.120361328125,-157.049560546875
1758876775.2001567,-0.73828125,-0.12646484375,0.70361328125,-7.2021484375,5.79833984375,0.1220703125,-10.953369140625,47.1917724609375,-157.049560546875
1758876775.2110853,-0.7119140625,-0.17431640625,0.7001953125,-0.67138671875,6.40869140625,0.244140625,-11.00830078125,47.26318359375,-157.049560546875
1758876775.2201486,-0.7119140625,-0.17431640625,0.7001953125,-0.67138671875,6.40869140625,0.244140625,-11.0247802734375,47.3291015625,-157.0550537109375
1758876775.230675,-0.71484375,-0.12841796875,0.67626953125,1.15966796875,6.40869140625,0.18310546875,-11.0357666015625,47.4005126953125,-157.0660400390625
1758876775.240405,-0.71484375,-0.12841796875,0.67626953125,1.15966796875,6.40869140625,0.18310546875,-11.041259765625,47.4664306640625,-157.0770263671875
1758876775.2506528,-0.7294921875,-0.12060546875,0.67724609375,4.0283203125,6.53076171875,-0.18310546875,-11.0302734375,47.5323486328125,-157.0880126953125
1758876775.2603617,-0.7294921875,-0.12060546875,0.67724609375,4.0283203125,6.53076171875,-0.18310546875,-11.00830078125,47.5927734375,-157.1044921875
1758876775.270397,-0.7392578125,-0.15625,0.65087890625,2.3193359375,6.4697265625,0.244140625,-10.9918212890625,47.65869140625,-157.1209716796875
1758876775.2801902,-0.7392578125,-0.15625,0.65087890625,2.3193359375,6.4697265625,0.244140625,-10.9808349609375,47.7191162109375,-157.1319580078125
1758876775.2903767,-0.74560546875,-0.13427734375,0.64892578125,0.42724609375,6.28662109375,0.54931640625,-10.9808349609375,47.7850341796875,-157.1429443359375
1758876775.3005204,-0.74560546875,-0.13427734375,0.64892578125,0.42724609375,6.28662109375,0.54931640625,-10.986328125,47.845458984375,-157.1539306640625
1758876775.3102412,-0.7353515625,-0.1240234375,0.66259765625,2.99072265625,6.2255859375,-0.1220703125,-10.986328125,47.9058837890625,-157.17041015625
1758876775.3203516,-0.7353515625,-0.1240234375,0.66259765625,2.99072265625,6.2255859375,-0.1220703125,-10.9698486328125,47.96630859375,-157.1868896484375
1758876775.330631,-0.720703125,-0.1416015625,0.6806640625,11.29150390625,6.16455078125,-1.953125,-10.9259033203125,48.021240234375,-157.225341796875
1758876775.3403378,-0.720703125,-0.1416015625,0.6806640625,11.29150390625,6.16455078125,-1.953125,-10.8544921875,48.076171875,-157.269287109375
1758876775.3504782,-0.7216796875,-0.12548828125,0.69873046875,25.5126953125,6.103515625,-3.47900390625,-10.7171630859375,48.1256103515625,-157.3297119140625
1758876775.3619144,-0.7216796875,-0.12548828125,0.69873046875,25.5126953125,6.103515625,-3.47900390625,-10.513916015625,48.175048828125,-157.4066162109375
1758876775.3707488,-0.69287109375,-0.1513671875,0.71826171875,16.9677734375,4.94384765625,-1.953125,-10.34912109375,48.218994140625,-157.467041015625
1758876775.380558,-0.69287109375,-0.1513671875,0.71826171875,16.9677734375,4.94384765625,-1.953125,-10.21728515625,48.251953125,-157.52197265625
1758876775.3905058,-0.728515625,-0.11669921875,0.70703125,13.5498046875,5.37109375,-1.40380859375,-10.1019287109375,48.2904052734375,-157.5714111328125
1758876775.4004223,-0.728515625,-0.11669921875,0.70703125,13.5498046875,5.37109375,-1.40380859375,-10.0030517578125,48.3233642578125,-157.620849609375
1758876775.4104972,-0.72412109375,-0.10546875,0.66162109375,22.52197265625,4.0283203125,-2.01416015625,-9.854736328125,48.3563232421875,-157.67578125
1758876775.4204297,-0.72412109375,-0.10546875,0.66162109375,22.52197265625,4.0283203125,-2.01416015625,-9.66796875,48.3782958984375,-157.7252197265625
1758876775.4304163,-0.74755859375,-0.08544921875,0.7158203125,34.1796875,3.23486328125,-2.9296875,-9.42626953125,48.4002685546875,-157.78564453125
1758876775.44077,-0.74755859375,-0.08544921875,0.7158203125,34.1796875,3.23486328125,-2.9296875,-9.129638671875,48.416748046875,-157.8515625
1758876775.4504473,-0.72021484375,-0.1689453125,0.64599609375,23.62060546875,1.40380859375,-1.64794921875,-8.876953125,48.4222412109375,-157.906494140625
1758876775.4604824,-0.72021484375,-0.1689453125,0.64599609375,23.62060546875,1.40380859375,-1.64794921875,-8.668212890625,48.4222412109375,-157.950439453125
1758876775.470629,-0.7412109375,-0.1435546875,0.62255859375,5.859375,-0.1220703125,-0.6103515625,-8.5528564453125,48.416748046875,-157.9888916015625
1758876775.480481,-0.7412109375,-0.1435546875,0.62255859375,5.859375,-0.1220703125,-0.6103515625,-8.514404296875,48.40576171875,-158.016357421875
1758876775.4905605,-0.75634765625,-0.048828125,0.673828125,8.9111328125,-0.8544921875,0.67138671875,-8.4539794921875,48.3892822265625,-158.038330078125
1758876775.500724,-0.75634765625,-0.048828125,0.673828125,8.9111328125,-0.8544921875,0.67138671875,-8.3660888671875,48.3782958984375,-158.0438232421875
1758876775.5105407,-0.71875,-0.0673828125,0.67626953125,14.6484375,-0.9765625,-0.3662109375,-8.2562255859375,48.36181640625,-158.04931640625
1758876775.5206199,-0.71875,-0.0673828125,0.67626953125,14.6484375,-0.9765625,-0.3662109375,-8.118896484375,48.3453369140625,-158.0657958984375
1758876775.5309694,-0.66748046875,-0.1083984375,0.705078125,28.80859375,-0.732421875,-0.91552734375,-7.9156494140625,48.328857421875,-158.0877685546875
1758876775.5406477,-0.66748046875,-0.1083984375,0.705078125,28.80859375,-0.732421875,-0.91552734375,-7.646484375,48.306884765625,-158.115234375
1758876775.5506005,-0.66748046875,-0.1083984375,0.705078125,17.08984375,-0.6103515625,-0.3662109375,-7.4322509765625,48.2904052734375,-158.148193359375
1758876775.5607748,-0.666015625,-0.1298828125,0.79443359375,17.08984375,-0.6103515625,-0.3662109375,-7.2784423828125,48.2684326171875,-158.1756591796875
1758876775.5705833,-0.64453125,-0.048828125,0.7939453125,0.6103515625,-0.8544921875,0.91552734375,-7.196044921875,48.240966796875,-158.203125
1758876775.5807006,-0.64453125,-0.048828125,0.7939453125,0.6103515625,-0.8544921875,0.91552734375,-7.18505859375,48.2080078125,-158.2196044921875
1758876775.591038,-0.5703125,-0.048828125,0.818359375,5.37109375,-0.30517578125,-0.91552734375,-7.1630859375,48.175048828125,-158.2525634765625
1758876775.6007407,-0.5703125,-0.048828125,0.818359375,5.37109375,-0.30517578125,-0.91552734375,-7.119140625,48.14208984375,-158.302001953125
1758876775.6106699,-0.48876953125,-0.0830078125,0.783203125,8.85009765625,0.30517578125,-2.0751953125,-7.0697021484375,48.1036376953125,-158.3624267578125
1758876775.6211016,-0.48876953125,-0.0830078125,0.783203125,8.85009765625,0.30517578125,-2.0751953125,-7.00927734375,48.0596923828125,-158.44482421875
1758876775.6309571,-0.34326171875,-0.13330078125,0.7548828125,2.74658203125,1.89208984375,-4.33349609375,-6.9927978515625,48.021240234375,-158.5491943359375
1758876775.6411612,-0.34326171875,-0.13330078125,0.7548828125,2.74658203125,1.89208984375,-4.33349609375,-7.020263671875,47.9827880859375,-158.6865234375
1758876775.653037,-0.447265625,-0.15673828125,0.67333984375,0.0,3.0517578125,-6.34765625,-7.086181640625,47.9388427734375,-158.8458251953125
1758876775.661297,-0.447265625,-0.15673828125,0.67333984375,0.0,3.0517578125,-6.34765625,-7.174072265625,47.8948974609375,-159.0325927734375
1758876775.6710162,-0.52587890625,-0.1259765625,0.974609375,7.50732421875,1.03759765625,-5.55419921875,-7.1795654296875,47.83447265625,-159.202880859375
1758876775.6807504,-0.52587890625,-0.1259765625,0.974609375,7.50732421875,1.03759765625,-5.55419921875,-7.18505859375,47.7630615234375,-159.3841552734375
1758876775.6920538,-0.76513671875,-0.0634765625,0.99853515625,87.58544921875,-1.220703125,-3.11279296875,-6.361083984375,47.6751708984375,-159.5269775390625
1758876775.700741,-0.76513671875,-0.0634765625,0.99853515625,87.58544921875,-1.220703125,-3.11279296875,-5.5426025390625,47.5927734375,-159.664306640625
1758876775.7111676,-0.65673828125,0.05810546875,0.51611328125,168.02978515625,-1.8310546875,-2.50244140625,-3.9111328125,47.5103759765625,-159.78515625
1758876775.721138,-0.65673828125,0.05810546875,0.51611328125,168.02978515625,-1.8310546875,-2.50244140625,-2.28515625,47.4334716796875,-159.9005126953125
1758876775.7313654,-1.30419921875,-0.1240234375,0.8017578125,221.8017578125,-6.28662109375,-4.94384765625,-0.15380859375,47.3291015625,-160.0323486328125
1758876775.7408547,-1.30419921875,-0.1240234375,0.8017578125,221.8017578125,-6.28662109375,-4.94384765625,1.95556640625,47.2467041015625,-160.1641845703125
1758876775.7521942,-0.9111328125,-0.39111328125,1.119140625,171.7529296875,-10.68115234375,-13.3056640625,3.4552001953125,47.1258544921875,-160.4388427734375
1758876775.7609887,-0.9111328125,-0.39111328125,1.119140625,171.7529296875,-10.68115234375,-13.3056640625,4.932861328125,47.0050048828125,-160.7354736328125
1758876775.770841,-0.587890625,-0.017578125,0.443359375,51.08642578125,-9.27734375,-8.7890625,5.2459716796875,46.9061279296875,-160.9661865234375
1758876775.7808747,-0.587890625,-0.017578125,0.443359375,51.08642578125,-9.27734375,-8.7890625,5.5645751953125,46.8072509765625,-161.1968994140625
1758876775.7912436,-0.51611328125,0.19970703125,0.16943359375,-2.0751953125,-5.859375,-9.3994140625,5.3558349609375,46.7523193359375,-161.4166259765625
1758876775.8008645,-0.51611328125,0.19970703125,0.16943359375,-2.0751953125,-5.859375,-9.3994140625,5.16357421875,46.702880859375,-161.6253662109375
1758876775.810858,-0.5908203125,0.2509765625,0.43798828125,14.09912109375,-2.25830078125,-6.04248046875,5.1910400390625,46.69189453125,-161.7572021484375
1758876775.821125,-0.5908203125,0.2509765625,0.43798828125,14.09912109375,-2.25830078125,-6.04248046875,5.2294921875,46.680908203125,-161.8780517578125
1758876775.831223,-0.67333984375,0.22802734375,0.56298828125,-11.962890625,0.67138671875,-3.60107421875,5.0537109375,46.6973876953125,-161.949462890625
1758876775.8410854,-0.67333984375,0.22802734375,0.56298828125,-11.962890625,0.67138671875,-3.60107421875,4.888916015625,46.7193603515625,-162.0098876953125
1758876775.85097,-0.64892578125,0.2119140625,0.66064453125,-65.673828125,0.67138671875,0.8544921875,4.2462158203125,46.7303466796875,-161.9989013671875
1758876775.861071,-0.64892578125,0.2119140625,0.66064453125,-65.673828125,0.67138671875,0.8544921875,3.614501953125,46.7413330078125,-161.982421875
1758876775.8709743,-0.84814453125,0.373046875,0.78955078125,-103.94287109375,0.91552734375,3.0517578125,2.6422119140625,46.7523193359375,-161.9219970703125
1758876775.8810098,-0.84814453125,0.373046875,0.78955078125,-103.94287109375,0.91552734375,3.0517578125,1.69189453125,46.7633056640625,-161.839599609375
1758876775.8917568,-0.68701171875,0.15234375,0.59375,-143.00537109375,1.220703125,7.01904296875,0.4010009765625,46.7742919921875,-161.69677734375
1758876775.9010408,-0.68701171875,0.15234375,0.59375,-143.00537109375,1.220703125,7.01904296875,-0.87890625,46.7962646484375,-161.5484619140625
1758876775.910983,-1.0625,-0.248046875,0.9638671875,-134.1552734375,-8.056640625,7.99560546875,-2.0654296875,46.7193603515625,-161.38916015625
1758876775.9210415,-1.0625,-0.248046875,0.9638671875,-134.1552734375,-8.056640625,7.99560546875,-3.2684326171875,46.6534423828125,-161.246337890625
1758876775.931412,-1.0419921875,-0.46630859375,1.0224609375,-9.33837890625,-7.50732421875,6.9580078125,-3.251953125,46.5875244140625,-161.1309814453125
1758876775.9411917,-1.0419921875,-0.46630859375,1.0224609375,-9.33837890625,-7.50732421875,6.9580078125,-3.2574462890625,46.5216064453125,-161.03759765625
1758876775.9510853,-0.873046875,-0.3134765625,0.4111328125,56.396484375,-9.033203125,6.7138671875,-2.6312255859375,46.4447021484375,-160.9552001953125
1758876775.9612925,-0.873046875,-0.3134765625,0.4111328125,56.396484375,-9.033203125,6.7138671875,-2.0159912109375,46.373291015625,-160.8782958984375
1758876775.9711316,-0.7841796875,-0.07470703125,0.43212890625,48.33984375,-4.08935546875,4.7607421875,-1.5106201171875,46.3623046875,-160.828857421875
1758876775.9812388,-0.7841796875,-0.07470703125,0.43212890625,48.33984375,-4.08935546875,4.7607421875,-1.0107421875,46.351318359375,-160.77392578125
1758876775.9924865,-0.74853515625,0.166015625,0.4375,-0.9765625,-0.6103515625,7.2021484375,-0.977783203125,46.38427734375,-160.6695556640625
1758876776.001251,-0.74853515625,0.166015625,0.4375,-0.9765625,-0.6103515625,7.2021484375,-0.9283447265625,46.417236328125,-160.5596923828125
1758876776.0111043,-0.78759765625,0.19140625,0.58935546875,-35.64453125,0.9765625,9.94873046875,-1.1865234375,46.4666748046875,-160.3948974609375
1758876776.0214145,-0.78759765625,0.19140625,0.58935546875,-35.64453125,0.9765625,9.94873046875,-1.4337158203125,46.5216064453125,-160.2191162109375
1758876776.0312033,-0.82080078125,0.052734375,0.626953125,-43.0908203125,2.5634765625,12.0849609375,-1.7303466796875,46.5875244140625,-160.0048828125
1758876776.0418284,-0.82080078125,0.052734375,0.626953125,-43.0908203125,2.5634765625,12.0849609375,-2.0159912109375,46.658935546875,-159.796142578125
1758876776.051255,-0.82666015625,-0.18505859375,0.63037109375,-29.35791015625,3.0517578125,11.71875,-2.1807861328125,46.7303466796875,-159.5928955078125
1758876776.061492,-0.82666015625,-0.18505859375,0.63037109375,-29.35791015625,3.0517578125,11.71875,-2.35107421875,46.8017578125,-159.400634765625
1758876776.0712445,-0.82666015625,-0.18505859375,0.63037109375,-5.126953125,4.150390625,10.986328125,-2.2906494140625,46.8841552734375,-159.2303466796875
1758876776.0820272,-0.80224609375,-0.18212890625,0.61328125,-5.126953125,4.150390625,10.986328125,-2.2412109375,46.966552734375,-159.0655517578125
1758876776.0919483,-0.78125,-0.06640625,0.63232421875,19.287109375,3.60107421875,10.19287109375,-1.95556640625,47.0379638671875,-158.9117431640625
1758876776.1016028,-0.78125,-0.06640625,0.63232421875,19.287109375,3.60107421875,10.19287109375,-1.6754150390625,47.109375,-158.763427734375
1758876776.1112788,-0.7421875,0.02197265625,0.61767578125,16.78466796875,2.9296875,9.521484375,-1.4227294921875,47.1697998046875,-158.62060546875
1758876776.1222703,-0.7421875,0.02197265625,0.61767578125,16.78466796875,2.9296875,9.521484375,-1.1700439453125,47.230224609375,-158.477783203125
1758876776.131271,-0.748046875,0.01123046875,0.5966796875,9.33837890625,2.0751953125,10.1318359375,-0.9832763671875,47.28515625,-158.323974609375
1758876776.1418915,-0.748046875,0.01123046875,0.5966796875,9.33837890625,2.0751953125,10.1318359375,-0.791015625,47.3345947265625,-158.1646728515625
1758876776.1514452,-0.806640625,0.00390625,0.63818359375,10.3759765625,0.6103515625,10.55908203125,-0.5877685546875,47.3675537109375,-158.00537109375
1758876776.1617496,-0.806640625,0.00390625,0.63818359375,10.3759765625,0.6103515625,10.55908203125,-0.3790283203125,47.4005126953125,-157.840576171875
1758876776.1713536,-0.82373046875,0.0048828125,0.62841796875,13.85498046875,0.48828125,10.1318359375,-0.142822265625,47.4334716796875,-157.686767578125
1758876776.1823084,-0.82373046875,0.0048828125,0.62841796875,13.85498046875,0.48828125,10.1318359375,0.087890625,47.4664306640625,-157.5274658203125
1758876776.1924515,-0.853515625,0.0283203125,0.5517578125,12.8173828125,-0.06103515625,10.55908203125,0.3240966796875,47.493896484375,-157.3626708984375
1758876776.2020378,-0.853515625,0.0283203125,0.5517578125,12.8173828125,-0.06103515625,10.55908203125,0.5548095703125,47.52685546875,-157.1923828125
1758876776.2114265,-0.8203125,0.078125,0.5263671875,7.2021484375,0.732421875,9.6435546875,0.72509765625,47.57080078125,-157.0330810546875
1758876776.2223914,-0.8203125,0.078125,0.5263671875,7.2021484375,0.732421875,9.6435546875,0.90087890625,47.6092529296875,-156.8682861328125
1758876776.2313824,-0.78369140625,0.06591796875,0.57958984375,-9.521484375,0.54931640625,9.033203125,0.90087890625,47.6531982421875,-156.708984375
1758876776.2422395,-0.78369140625,0.06591796875,0.57958984375,-9.521484375,0.54931640625,9.033203125,0.9063720703125,47.691650390625,-156.5496826171875
1758876776.25217,-0.7451171875,0.0,0.7001953125,-16.17431640625,0.3662109375,8.6669921875,0.845947265625,47.7301025390625,-156.3958740234375
1758876776.2619452,-0.7451171875,0.0,0.7001953125,-16.17431640625,0.3662109375,8.6669921875,0.780029296875,47.757568359375,-156.24755859375
1758876776.2716372,-0.7158203125,0.00146484375,0.7265625,-7.8125,0.1220703125,7.87353515625,0.791015625,47.7850341796875,-156.11572265625
1758876776.281622,-0.7158203125,0.00146484375,0.7265625,-7.8125,0.1220703125,7.87353515625,0.7965087890625,47.801513671875,-155.9893798828125
1758876776.2924376,-0.70361328125,0.01611328125,0.70068359375,-1.03759765625,-0.244140625,6.8359375,0.8624267578125,47.8179931640625,-155.8795166015625
1758876776.302085,-0.70361328125,0.01611328125,0.70068359375,-1.03759765625,-0.244140625,6.8359375,0.9283447265625,47.823486328125,-155.775146484375
1758876776.3118863,-0.7080078125,0.03466796875,0.69189453125,0.91552734375,-0.30517578125,5.7373046875,1.0052490234375,47.83447265625,-155.687255859375
1758876776.321644,-0.7080078125,0.03466796875,0.69189453125,0.91552734375,-0.30517578125,5.7373046875,1.07666015625,47.83447265625,-155.6048583984375
1758876776.3327386,-0.71337890625,0.02099609375,0.69873046875,0.79345703125,-0.732421875,4.82177734375,1.142578125,47.83447265625,-155.533447265625
1758876776.3421028,-0.71337890625,0.02099609375,0.69873046875,0.79345703125,-0.732421875,4.82177734375,1.2030029296875,47.8289794921875,-155.4620361328125
1758876776.352047,-0.70166015625,0.0078125,0.7021484375,1.77001953125,-1.3427734375,4.2724609375,1.2689208984375,47.8179931640625,-155.4071044921875
1758876776.362008,-0.70166015625,0.0078125,0.7021484375,1.77001953125,-1.3427734375,4.2724609375,1.3348388671875,47.801513671875,-155.3521728515625
1758876776.372004,-0.744140625,0.01953125,0.72314453125,4.150390625,-2.25830078125,4.21142578125,1.4227294921875,47.779541015625,-155.302734375
1758876776.3825607,-0.744140625,0.01953125,0.72314453125,4.150390625,-2.25830078125,4.21142578125,1.5106201171875,47.7520751953125,-155.2532958984375
1758876776.3931997,-0.74755859375,0.03466796875,0.67919921875,5.92041015625,-2.38037109375,3.84521484375,1.6094970703125,47.724609375,-155.2093505859375
1758876776.4017549,-0.74755859375,0.03466796875,0.67919921875,5.92041015625,-2.38037109375,3.84521484375,1.7083740234375,47.70263671875,-155.1654052734375
1758876776.4126458,-0.7412109375,0.06494140625,0.63525390625,-4.33349609375,-3.47900390625,3.96728515625,1.7083740234375,47.6641845703125,-155.115966796875
1758876776.4218616,-0.7412109375,0.06494140625,0.63525390625,-4.33349609375,-3.47900390625,3.96728515625,1.7138671875,47.6312255859375,-155.06103515625
1758876776.432248,-0.76171875,0.046875,0.66259765625,-17.08984375,-4.33349609375,4.21142578125,1.593017578125,47.5872802734375,-155.006103515625
1758876776.4420247,-0.76171875,0.046875,0.66259765625,-17.08984375,-4.33349609375,4.21142578125,1.47216796875,47.5433349609375,-154.940185546875
1758876776.4523292,-0.75732421875,0.021484375,0.634765625,-26.06201171875,-5.37109375,3.2958984375,1.25244140625,47.493896484375,-154.896240234375
1758876776.4618084,-0.75732421875,0.021484375,0.634765625,-26.06201171875,-5.37109375,3.2958984375,1.0382080078125,47.4444580078125,-154.84130859375
1758876776.472471,-0.72216796875,0.0224609375,0.6259765625,-17.4560546875,-5.2490234375,2.3193359375,0.8953857421875,47.4005126953125,-154.808349609375
1758876776.4821494,-0.72216796875,0.0224609375,0.6259765625,-17.4560546875,-5.2490234375,2.3193359375,0.758056640625,47.35107421875,-154.7698974609375
1758876776.4917786,-0.72705078125,-0.03125,0.689453125,-1.953125,-4.57763671875,2.25830078125,0.76904296875,47.3126220703125,-154.7314453125
1758876776.5019138,-0.72705078125,-0.03125,0.689453125,-1.953125,-4.57763671875,2.25830078125,0.780029296875,47.274169921875,-154.698486328125
1758876776.5122397,-0.7197265625,0.0087890625,0.7275390625,-3.84521484375,-3.7841796875,2.8076171875,0.7745361328125,47.2357177734375,-154.6600341796875
1758876776.5218546,-0.7197265625,0.0087890625,0.7275390625,-3.84521484375,-3.7841796875,2.8076171875,0.76904296875,47.2027587890625,-154.62158203125
1758876776.5318844,-0.73291015625,0.02099609375,0.72119140625,-24.47509765625,-4.08935546875,3.41796875,0.5657958984375,47.1588134765625,-154.5721435546875
1758876776.5427654,-0.73291015625,0.02099609375,0.72119140625,-24.47509765625,-4.08935546875,3.41796875,0.362548828125,47.120361328125,-154.5281982421875
1758876776.5523202,-0.73291015625,0.02099609375,0.72119140625,-14.5263671875,-3.173828125,2.86865234375,0.252685546875,47.08740234375,-154.48974609375
1758876776.5622463,-0.71044921875,0.00537109375,0.6953125,-14.5263671875,-3.173828125,2.86865234375,0.142822265625,47.054443359375,-154.4512939453125
1758876776.5727375,-0.73486328125,0.00634765625,0.67529296875,-3.84521484375,-2.9296875,2.0751953125,0.1373291015625,47.021484375,-154.423828125
1758876776.5819538,-0.73486328125,0.00634765625,0.67529296875,-3.84521484375,-2.9296875,2.0751953125,0.1263427734375,46.9940185546875,-154.3963623046875
1758876776.5922408,-0.7216796875,0.001953125,0.6708984375,-4.45556640625,-3.0517578125,2.44140625,0.10986328125,46.9610595703125,-154.35791015625
1758876776.602411,-0.7216796875,0.001953125,0.6708984375,-4.45556640625,-3.0517578125,2.44140625,0.098876953125,46.93359375,-154.324951171875
1758876776.6120174,-0.71240234375,-0.013671875,0.712890625,-10.009765625,-3.35693359375,3.662109375,0.0439453125,46.900634765625,-154.27001953125
1758876776.6223133,-0.71240234375,-0.013671875,0.712890625,-10.009765625,-3.35693359375,3.662109375,-0.010986328125,46.8621826171875,-154.2205810546875
1758876776.632117,-0.7060546875,0.01123046875,0.73095703125,-18.310546875,-3.60107421875,5.615234375,-0.1318359375,46.82373046875,-154.1436767578125
1758876776.6420112,-0.7060546875,0.01123046875,0.73095703125,-18.310546875,-3.60107421875,5.615234375,-0.2471923828125,46.7852783203125,-154.0667724609375
1758876776.65283,-0.7177734375,-0.01025390625,0.70703125,-23.92578125,-4.21142578125,5.79833984375,-0.41748046875,46.7413330078125,-153.984375
1758876776.6622095,-0.7138671875,-0.00341796875,0.68115234375,-24.169921875,-4.57763671875,6.28662109375,-0.5877685546875,46.69189453125,-153.9019775390625
1758876776.6720462,-0.7138671875,-0.00341796875,0.68115234375,-24.169921875,-4.57763671875,6.28662109375,-0.758056640625,46.6424560546875,-153.8140869140625
1758876776.682106,-0.72607421875,-0.0078125,0.69140625,-25.45166015625,-4.39453125,6.34765625,-0.933837890625,46.5985107421875,-153.720703125
1758876776.6924458,-0.72607421875,-0.0078125,0.69140625,-25.45166015625,-4.39453125,6.34765625,-1.109619140625,46.549072265625,-153.6273193359375
1758876776.702184,-0.72509765625,-0.009765625,0.6953125,-26.06201171875,-3.90625,5.92041015625,-1.29638671875,46.5106201171875,-153.5394287109375
1758876776.7121081,-0.72509765625,-0.009765625,0.6953125,-26.06201171875,-3.90625,5.92041015625,-1.483154296875,46.4666748046875,-153.4515380859375
1758876776.722441,-0.71484375,-0.025390625,0.6982421875,-17.63916015625,-2.99072265625,5.06591796875,-1.636962890625,46.4337158203125,-153.369140625
