timestamp,acc_x,acc_y,acc_z,gyro_x,gyro_y,gyro_z,angle_x,angle_y,angle_z
1758878274.3506303,-0.74267578125,0.173828125,0.666015625,-3.47900390625,-2.74658203125,-2.25830078125,15.6884765625,47.493896484375,-75.7012939453125
1758878274.360797,-0.74267578125,0.173828125,0.666015625,-3.47900390625,-2.74658203125,-2.25830078125,15.6280517578125,47.471923828125,-75.73974609375
1758878274.3708935,-0.73828125,0.1884765625,0.6494140625,-2.50244140625,-2.9296875,-2.685546875,15.567626953125,47.4554443359375,-75.7891845703125
1758878274.3799171,-0.73828125,0.1884765625,0.6494140625,-2.50244140625,-2.9296875,-2.685546875,15.5126953125,47.4334716796875,-75.8331298828125
1758878274.390014,-0.748046875,0.1953125,0.6376953125,-1.64794921875,-3.0517578125,-2.0751953125,15.4742431640625,47.4114990234375,-75.8770751953125
1758878274.4000323,-0.748046875,0.1953125,0.6376953125,-1.64794921875,-3.0517578125,-2.0751953125,15.4302978515625,47.3895263671875,-75.9100341796875
1758878274.4097915,-0.7490234375,0.1259765625,0.607421875,-9.6435546875,-4.5166015625,1.220703125,15.3424072265625,47.3455810546875,-75.9100341796875
1758878274.4199443,-0.7490234375,0.1259765625,0.607421875,-9.6435546875,-4.5166015625,1.220703125,15.2490234375,47.30712890625,-75.91552734375
1758878274.4296298,-0.7841796875,0.18017578125,0.6669921875,3.173828125,-3.35693359375,-0.18310546875,15.27099609375,47.2796630859375,-75.9320068359375
1758878274.4396713,-0.7841796875,0.18017578125,0.6669921875,3.173828125,-3.35693359375,-0.18310546875,15.29296875,47.2576904296875,-75.948486328125
1758878274.449659,-0.70751953125,0.13623046875,0.6259765625,1.3427734375,-3.662109375,1.8310546875,15.31494140625,47.21923828125,-75.9429931640625
1758878274.4596539,-0.70751953125,0.13623046875,0.6259765625,1.3427734375,-3.662109375,1.8310546875,15.3369140625,47.186279296875,-75.9375
1758878274.4696593,-0.69677734375,0.275390625,0.796875,-4.0283203125,-2.0751953125,3.60107421875,15.325927734375,47.1588134765625,-75.8990478515625
1758878274.4794943,-0.69677734375,0.275390625,0.796875,-4.0283203125,-2.0751953125,3.60107421875,15.3204345703125,47.1258544921875,-75.8551025390625
1758878274.4895828,-0.72509765625,0.0888671875,0.5390625,-3.72314453125,-5.0048828125,5.126953125,15.3204345703125,47.0654296875,-75.8056640625
1758878274.4995546,-0.72509765625,0.0888671875,0.5390625,-3.72314453125,-5.0048828125,5.126953125,15.3204345703125,47.0050048828125,-75.7562255859375
1758878274.5095408,-0.80224609375,0.18701171875,0.6494140625,5.43212890625,-2.50244140625,2.8076171875,15.3973388671875,46.9830322265625,-75.7342529296875
1758878274.5201128,-0.80224609375,0.18701171875,0.6494140625,5.43212890625,-2.50244140625,2.8076171875,15.46875,46.95556640625,-75.7122802734375
1758878274.52983,-0.67529296875,0.2236328125,0.70703125,2.13623046875,-1.40380859375,2.0751953125,15.5072021484375,46.9390869140625,-75.6903076171875
1758878274.5395586,-0.67529296875,0.2236328125,0.70703125,2.13623046875,-1.40380859375,2.0751953125,15.545654296875,46.922607421875,-75.673828125
1758878274.5495915,-0.701171875,0.2412109375,0.70361328125,0.0,-0.91552734375,1.15966796875,15.556640625,46.91162109375,-75.662841796875
1758878274.5595813,-0.701171875,0.2412109375,0.70361328125,0.0,-0.91552734375,1.15966796875,15.5731201171875,46.8951416015625,-75.6463623046875
1758878274.569611,-0.72705078125,0.18798828125,0.63720703125,-1.77001953125,-1.3427734375,0.91552734375,15.5621337890625,46.878662109375,-75.6353759765625
1758878274.5796192,-0.72705078125,0.18798828125,0.63720703125,-1.77001953125,-1.3427734375,0.91552734375,15.556640625,46.8621826171875,-75.6298828125
1758878274.5896215,-0.74658203125,0.16748046875,0.6123046875,-3.2958984375,-2.50244140625,1.03759765625,15.5291748046875,46.834716796875,-75.6243896484375
1758878274.5996528,-0.74658203125,0.16748046875,0.6123046875,-3.2958984375,-2.50244140625,1.03759765625,15.5072021484375,46.8072509765625,-75.618896484375
1758878274.609647,-0.74169921875,0.1513671875,0.6259765625,-2.38037109375,-4.0283203125,0.79345703125,15.479736328125,46.768798828125,-75.6243896484375
1758878274.6196556,-0.74169921875,0.1513671875,0.6259765625,-2.38037109375,-4.0283203125,0.79345703125,15.457763671875,46.7303466796875,-75.6353759765625
1758878274.62968,-0.7314453125,0.205078125,0.6787109375,2.38037109375,-5.67626953125,-0.48828125,15.457763671875,46.680908203125,-75.662841796875
1758878274.6396813,-0.7314453125,0.205078125,0.6787109375,2.38037109375,-5.67626953125,-0.48828125,15.4632568359375,46.6314697265625,-75.69580078125
1758878274.6497142,-0.70849609375,0.20751953125,0.630859375,4.21142578125,-7.50732421875,-1.77001953125,15.4742431640625,46.571044921875,-75.750732421875
1758878274.6597056,-0.70849609375,0.20751953125,0.630859375,4.21142578125,-7.50732421875,-1.77001953125,15.479736328125,46.505126953125,-75.8056640625
1758878274.6697178,-0.73583984375,0.21533203125,0.65625,-0.244140625,-8.4228515625,-2.62451171875,15.435791015625,46.4337158203125,-75.87158203125
1758878274.6797116,-0.73583984375,0.21533203125,0.65625,-0.244140625,-8.4228515625,-2.62451171875,15.3863525390625,46.3623046875,-75.9320068359375
1758878274.6897242,-0.7294921875,0.19775390625,0.638671875,-2.0751953125,-9.1552734375,-3.23486328125,15.31494140625,46.2908935546875,-76.0089111328125
1758878274.6997514,-0.7294921875,0.19775390625,0.638671875,-2.0751953125,-9.1552734375,-3.23486328125,15.2490234375,46.2139892578125,-76.080322265625
1758878274.7097692,-0.716796875,0.18115234375,0.6572265625,-2.5634765625,-10.3759765625,-3.72314453125,15.1666259765625,46.131591796875,-76.168212890625
1758878274.7197633,-0.716796875,0.18115234375,0.6572265625,-2.5634765625,-10.3759765625,-3.72314453125,15.084228515625,46.043701171875,-76.2506103515625
1758878274.7297704,-0.7158203125,0.17578125,0.654296875,-2.13623046875,-11.23046875,-3.84521484375,15.0018310546875,45.955810546875,-76.343994140625
1758878274.7397907,-0.7158203125,0.17578125,0.654296875,-2.13623046875,-11.23046875,-3.84521484375,14.91943359375,45.8624267578125,-76.431884765625
1758878274.7498019,-0.71533203125,0.177734375,0.6962890625,-2.3193359375,-10.25390625,-4.0283203125,14.8370361328125,45.780029296875,-76.519775390625
1758878274.7598135,-0.71533203125,0.177734375,0.6962890625,-2.3193359375,-10.25390625,-4.0283203125,14.754638671875,45.692138671875,-76.6131591796875
1758878274.7698495,-0.6875,0.1845703125,0.72705078125,-1.220703125,-9.21630859375,-3.90625,14.6832275390625,45.6207275390625,-76.695556640625
1758878274.779832,-0.6875,0.1845703125,0.72705078125,-1.220703125,-9.21630859375,-3.90625,14.61181640625,45.5438232421875,-76.7779541015625
1758878274.7898588,-0.68896484375,0.146484375,0.6923828125,1.89208984375,-8.9111328125,-3.60107421875,14.578857421875,45.4669189453125,-76.8603515625
1758878274.7998614,-0.68896484375,0.146484375,0.6923828125,1.89208984375,-8.9111328125,-3.60107421875,14.5404052734375,45.3900146484375,-76.9427490234375
1758878274.809881,-0.6923828125,0.16748046875,0.705078125,6.40869140625,-9.3994140625,-4.82177734375,14.534912109375,45.3131103515625,-77.0416259765625
1758878274.8198895,-0.6923828125,0.16748046875,0.705078125,6.40869140625,-9.3994140625,-4.82177734375,14.5294189453125,45.230712890625,-77.1405029296875
1758878274.829947,-0.697265625,0.20849609375,0.701171875,6.34765625,-10.19287109375,-4.08935546875,14.5294189453125,45.142822265625,-77.23388671875
1758878274.839977,-0.697265625,0.20849609375,0.701171875,6.34765625,-10.19287109375,-4.08935546875,14.5294189453125,45.054931640625,-77.32177734375
1758878274.849994,-0.70458984375,0.1708984375,0.638671875,0.30517578125,-11.3525390625,-2.62451171875,14.47998046875,44.9505615234375,-77.398681640625
1758878274.8599796,-0.70458984375,0.1708984375,0.638671875,0.30517578125,-11.3525390625,-2.62451171875,14.43603515625,44.84619140625,-77.4700927734375
1758878274.8699992,-0.73291015625,0.17138671875,0.67431640625,-1.953125,-10.8642578125,-1.46484375,14.3756103515625,44.7528076171875,-77.5250244140625
1758878274.8799794,-0.73291015625,0.17138671875,0.67431640625,-1.953125,-10.8642578125,-1.46484375,14.3206787109375,44.6539306640625,-77.5799560546875
1758878274.890026,-0.720703125,0.1494140625,0.6572265625,-4.08935546875,-9.3994140625,1.03759765625,14.2657470703125,44.5660400390625,-77.596435546875
1758878274.9000072,-0.720703125,0.1494140625,0.6572265625,-4.08935546875,-9.3994140625,1.03759765625,14.21630859375,44.4781494140625,-77.6129150390625
1758878274.9100392,-0.71875,0.126953125,0.7216796875,-5.859375,-5.37109375,2.685546875,14.17236328125,44.4287109375,-77.6019287109375
1758878274.9200165,-0.71875,0.126953125,0.7216796875,-5.859375,-5.37109375,2.685546875,14.1229248046875,44.373779296875,-77.58544921875
1758878274.9301202,-0.67138671875,0.1435546875,0.78955078125,0.732421875,-1.52587890625,3.0517578125,14.150390625,44.3572998046875,-77.5579833984375
1758878274.9400241,-0.67138671875,0.1435546875,0.78955078125,0.732421875,-1.52587890625,3.0517578125,14.17236328125,44.3353271484375,-77.5360107421875
1758878274.9501839,-0.5927734375,0.14306640625,0.78076171875,15.5029296875,-2.8076171875,0.8544921875,14.3206787109375,44.307861328125,-77.5469970703125
1758878274.9601123,-0.5927734375,0.14306640625,0.78076171875,15.5029296875,-2.8076171875,0.8544921875,14.4635009765625,44.2694091796875,-77.5579833984375
1758878274.9701486,-0.5888671875,0.23779296875,0.724609375,24.96337890625,-5.31005859375,-2.38037109375,14.666748046875,44.2144775390625,-77.6239013671875
1758878274.9800856,-0.5888671875,0.23779296875,0.724609375,24.96337890625,-5.31005859375,-2.38037109375,14.87548828125,44.1595458984375,-77.684326171875
1758878274.9901502,-0.64453125,0.2890625,0.83349609375,2.62451171875,-4.2724609375,-2.197265625,14.864501953125,44.110107421875,-77.7337646484375
1758878275.0035272,-0.64453125,0.2890625,0.83349609375,2.62451171875,-4.2724609375,-2.197265625,14.8590087890625,44.05517578125,-77.7777099609375
1758878275.0102055,-0.58251953125,0.22607421875,0.748046875,-9.21630859375,-4.0283203125,-2.44140625,14.732666015625,44.000244140625,-77.8216552734375
1758878275.0202253,-0.58251953125,0.22607421875,0.748046875,-9.21630859375,-4.0283203125,-2.44140625,14.61181640625,43.9453125,-77.860107421875
1758878275.0343003,-0.57470703125,0.17724609375,0.8115234375,-27.34375,-4.638671875,-2.685546875,14.30419921875,43.8848876953125,-77.904052734375
1758878275.0404668,-0.57470703125,0.17724609375,0.8115234375,-27.34375,-4.638671875,-2.685546875,13.99658203125,43.8189697265625,-77.9534912109375
1758878275.05021,-0.5732421875,0.17822265625,0.849609375,-37.841796875,-5.859375,-1.64794921875,13.5955810546875,43.736572265625,-77.9864501953125
1758878275.06675,-0.5732421875,0.17822265625,0.849609375,-37.841796875,-5.859375,-1.64794921875,13.194580078125,43.648681640625,-78.0194091796875
1758878275.073636,-0.56689453125,0.15771484375,0.82470703125,-40.0390625,-6.28662109375,-0.18310546875,12.7880859375,43.5498046875,-78.035888671875
1758878275.0801864,-0.56689453125,0.15771484375,0.82470703125,-40.0390625,-6.28662109375,-0.18310546875,12.3760986328125,43.4564208984375,-78.046875
1758878275.0902476,-0.60595703125,0.15380859375,0.81591796875,-43.212890625,-7.14111328125,1.28173828125,11.9476318359375,43.3465576171875,-78.0413818359375
1758878275.100624,-0.60595703125,0.15380859375,0.81591796875,-43.212890625,-7.14111328125,1.28173828125,11.524658203125,43.2366943359375,-78.035888671875
1758878275.1135983,-0.658203125,0.15185546875,0.751953125,-46.93603515625,-7.87353515625,2.9296875,11.0797119140625,43.1158447265625,-78.0084228515625
1758878275.1203449,-0.658203125,0.15185546875,0.751953125,-46.93603515625,-7.87353515625,2.9296875,10.634765625,43.0059814453125,-77.9754638671875
1758878275.1304414,-0.712890625,0.14208984375,0.7109375,-45.83740234375,-9.21630859375,4.8828125,10.21728515625,42.8741455078125,-77.9205322265625
1758878275.1468356,-0.712890625,0.14208984375,0.7109375,-45.83740234375,-9.21630859375,4.8828125,9.8052978515625,42.7532958984375,-77.8656005859375
1758878275.1537702,-0.69921875,0.11328125,0.70849609375,-54.5654296875,-9.70458984375,7.080078125,9.327392578125,42.626953125,-77.7777099609375
1758878275.160353,-0.69921875,0.11328125,0.70849609375,-54.5654296875,-9.70458984375,7.080078125,8.8494873046875,42.506103515625,-77.6898193359375
1758878275.1703753,-0.67724609375,0.14599609375,0.6767578125,-65.24658203125,-10.07080078125,9.3994140625,8.2891845703125,42.3797607421875,-77.5634765625
1758878275.1867836,-0.67724609375,0.14599609375,0.6767578125,-65.24658203125,-10.07080078125,9.3994140625,7.734375,42.2589111328125,-77.4371337890625
1758878275.1934183,-0.67529296875,0.14501953125,0.703125,-68.9697265625,-9.1552734375,11.962890625,7.1685791015625,42.1435546875,-77.2723388671875
1758878275.200348,-0.67529296875,0.14501953125,0.703125,-68.9697265625,-9.1552734375,11.962890625,6.6082763671875,42.03369140625,-77.10205078125
1758878275.2103944,-0.7177734375,0.06494140625,0.60302734375,-61.6455078125,-7.9345703125,13.00048828125,6.13037109375,41.9403076171875,-76.915283203125
1758878275.2246659,-0.7177734375,0.06494140625,0.60302734375,-61.6455078125,-7.9345703125,13.00048828125,5.657958984375,41.8524169921875,-76.728515625
1758878275.2307541,-0.68701171875,-0.017578125,0.65478515625,-47.36328125,-7.080078125,13.12255859375,5.3228759765625,41.7755126953125,-76.5472412109375
1758878275.240454,-0.68701171875,-0.017578125,0.65478515625,-47.36328125,-7.080078125,13.12255859375,4.9822998046875,41.7041015625,-76.365966796875
1758878275.2564092,-0.654296875,0.00048828125,0.7236328125,-34.3017578125,-5.859375,12.939453125,4.76806640625,41.649169921875,-76.190185546875
1758878275.2625248,-0.654296875,0.00048828125,0.7236328125,-34.3017578125,-5.859375,12.939453125,4.5538330078125,41.5887451171875,-76.0198974609375
1758878275.2704723,-0.6591796875,0.03125,0.7646484375,-18.9208984375,-5.06591796875,12.87841796875,4.4879150390625,41.539306640625,-75.849609375
1758878275.2808812,-0.6591796875,0.03125,0.7646484375,-18.9208984375,-5.06591796875,12.87841796875,4.4219970703125,41.484375,-75.684814453125
1758878275.2905412,-0.63037109375,0.05029296875,0.783203125,-15.0146484375,-3.84521484375,13.61083984375,4.39453125,41.4459228515625,-75.509033203125
1758878275.3005216,-0.63037109375,0.05029296875,0.783203125,-15.0146484375,-3.84521484375,13.61083984375,4.37255859375,41.396484375,-75.3277587890625
1758878275.3105254,-0.65966796875,0.033203125,0.7490234375,-8.056640625,-2.38037109375,13.7939453125,4.41650390625,41.3690185546875,-75.146484375
1758878275.3209436,-0.65966796875,0.033203125,0.7490234375,-8.056640625,-2.38037109375,13.7939453125,4.46044921875,41.3360595703125,-74.970703125
1758878275.3305445,-0.658203125,0.00927734375,0.7529296875,2.5634765625,-0.54931640625,13.61083984375,4.6087646484375,41.3250732421875,-74.794921875
1758878275.340589,-0.658203125,0.00927734375,0.7529296875,2.5634765625,-0.54931640625,13.61083984375,4.7515869140625,41.30859375,-74.6246337890625
1758878275.3509927,-0.63232421875,0.033203125,0.7509765625,10.009765625,1.0986328125,13.12255859375,4.9603271484375,41.3140869140625,-74.4598388671875
1758878275.3606439,-0.64208984375,0.07763671875,0.73486328125,10.986328125,2.99072265625,12.51220703125,5.174560546875,41.3250732421875,-74.300537109375
1758878275.371902,-0.64208984375,0.07763671875,0.73486328125,10.986328125,2.99072265625,12.51220703125,5.3887939453125,41.341552734375,-74.1412353515625
1758878275.3806098,-0.63232421875,0.11962890625,0.7392578125,9.21630859375,4.94384765625,11.71875,5.592041015625,41.3690185546875,-73.9874267578125
1758878275.3910532,-0.63232421875,0.11962890625,0.7392578125,9.21630859375,4.94384765625,11.71875,5.789794921875,41.407470703125,-73.8336181640625
1758878275.4006004,-0.62548828125,0.14599609375,0.75634765625,2.13623046875,5.67626953125,9.33837890625,5.9381103515625,41.451416015625,-73.6962890625
1758878275.4109852,-0.62548828125,0.14599609375,0.75634765625,2.13623046875,5.67626953125,9.33837890625,6.0479736328125,41.495361328125,-73.564453125
1758878275.4206502,-0.64697265625,0.0927734375,0.81396484375,-0.91552734375,5.859375,7.99560546875,6.1358642578125,41.5338134765625,-73.443603515625
1758878275.430645,-0.64697265625,0.0927734375,0.81396484375,-0.91552734375,5.859375,7.99560546875,6.207275390625,41.5777587890625,-73.3282470703125
1758878275.440671,-0.677734375,0.072265625,0.83837890625,1.15966796875,5.43212890625,6.04248046875,6.273193359375,41.6217041015625,-73.2293701171875
1758878275.4508724,-0.677734375,0.072265625,0.83837890625,1.15966796875,5.43212890625,6.04248046875,6.3446044921875,41.66015625,-73.14697265625
1758878275.460715,-0.59765625,0.05712890625,0.7578125,12.0849609375,4.57763671875,3.96728515625,6.4544677734375,41.693115234375,-73.0755615234375
1758878275.4707625,-0.59765625,0.05712890625,0.7578125,12.0849609375,4.57763671875,3.96728515625,6.61376953125,41.7205810546875,-73.026123046875
1758878275.4808578,-0.60205078125,0.06201171875,0.70263671875,21.30126953125,4.7607421875,2.38037109375,6.8060302734375,41.7535400390625,-72.982177734375
1758878275.4907348,-0.60205078125,0.06201171875,0.70263671875,21.30126953125,4.7607421875,2.38037109375,7.0367431640625,41.7864990234375,-72.9547119140625
1758878275.5007565,-0.62158203125,0.06396484375,0.66259765625,26.67236328125,4.8828125,0.79345703125,7.2894287109375,41.8194580078125,-72.938232421875
1758878275.511223,-0.62158203125,0.06396484375,0.66259765625,26.67236328125,4.8828125,0.79345703125,7.5531005859375,41.85791015625,-72.9327392578125
1758878275.520772,-0.65966796875,0.11767578125,0.76123046875,21.91162109375,4.0283203125,-0.06103515625,7.7947998046875,41.890869140625,-72.938232421875
1758878275.5307796,-0.65966796875,0.11767578125,0.76123046875,21.91162109375,4.0283203125,-0.06103515625,8.0035400390625,41.923828125,-72.9437255859375
1758878275.5407953,-0.64453125,0.17724609375,0.771484375,11.1083984375,3.47900390625,-0.244140625,8.162841796875,41.9512939453125,-72.94921875
1758878275.551038,-0.64453125,0.17724609375,0.771484375,11.1083984375,3.47900390625,-0.244140625,8.2672119140625,41.978759765625,-72.9547119140625
1758878275.5607865,-0.65283203125,0.1591796875,0.75146484375,-1.5869140625,1.8310546875,0.0,8.316650390625,41.9952392578125,-72.960205078125
1758878275.5708046,-0.65283203125,0.1591796875,0.75146484375,-1.5869140625,1.8310546875,0.0,8.3001708984375,42.000732421875,-72.960205078125
1758878275.5810578,-0.65283203125,0.1591796875,0.75146484375,10.1318359375,-0.67138671875,-0.30517578125,8.3441162109375,41.9952392578125,-72.960205078125
1758878275.5908415,-0.76318359375,0.08154296875,0.85400390625,10.1318359375,-0.67138671875,-0.30517578125,8.4375,41.9842529296875,-72.97119140625
1758878275.6008506,-0.70947265625,-0.0224609375,0.81640625,34.912109375,-2.8076171875,-1.15966796875,8.646240234375,41.956787109375,-72.9931640625
1758878275.611403,-0.70947265625,-0.0224609375,0.81640625,34.912109375,-2.8076171875,-1.15966796875,8.96484375,41.923828125,-73.037109375
1758878275.62088,-0.638671875,0.048828125,0.6591796875,49.86572265625,-3.60107421875,-2.197265625,9.349365234375,41.890869140625,-73.092041015625
1758878275.6309848,-0.638671875,0.048828125,0.6591796875,49.86572265625,-3.60107421875,-2.197265625,9.7998046875,41.8524169921875,-73.157958984375
1758878275.6410842,-0.658203125,0.08837890625,0.66357421875,65.5517578125,-3.47900390625,-3.23486328125,10.3216552734375,41.8194580078125,-73.23486328125
1758878275.6509848,-0.658203125,0.08837890625,0.66357421875,65.5517578125,-3.47900390625,-3.23486328125,10.9149169921875,41.7919921875,-73.3172607421875
1758878275.6609251,-0.67236328125,0.1064453125,0.70263671875,73.18115234375,-3.72314453125,-3.7841796875,11.5411376953125,41.7645263671875,-73.41064453125
1758878275.6712494,-0.67236328125,0.1064453125,0.70263671875,73.18115234375,-3.72314453125,-3.7841796875,12.19482421875,41.7425537109375,-73.509521484375
1758878275.6809466,-0.71533203125,0.16015625,0.73779296875,67.93212890625,-4.08935546875,-4.5166015625,12.821044921875,41.715087890625,-73.6138916015625
1758878275.6909719,-0.71533203125,0.16015625,0.73779296875,67.93212890625,-4.08935546875,-4.5166015625,13.4197998046875,41.693115234375,-73.7237548828125
1758878275.700929,-0.75,0.2314453125,0.79931640625,37.17041015625,-5.0048828125,-3.96728515625,13.8592529296875,41.6656494140625,-73.8336181640625
1758878275.711345,-0.75,0.2314453125,0.79931640625,37.17041015625,-5.0048828125,-3.96728515625,14.1558837890625,41.627197265625,-73.9324951171875
1758878275.7210653,-0.73095703125,0.31884765625,0.66357421875,7.50732421875,-4.2724609375,-2.62451171875,14.315185546875,41.5997314453125,-74.0203857421875
1758878275.7311602,-0.73095703125,0.31884765625,0.66357421875,7.50732421875,-4.2724609375,-2.62451171875,14.337158203125,41.572265625,-74.091796875
1758878275.74131,-0.681640625,0.25390625,0.66015625,-0.244140625,-3.173828125,-1.708984375,14.337158203125,41.55029296875,-74.146728515625
1758878275.7511408,-0.681640625,0.25390625,0.66015625,-0.244140625,-3.173828125,-1.708984375,14.3096923828125,41.5338134765625,-74.190673828125
1758878275.7610562,-0.70458984375,0.171875,0.64990234375,-6.591796875,-1.40380859375,-1.89208984375,14.249267578125,41.5283203125,-74.2291259765625
1758878275.7710433,-0.70458984375,0.171875,0.64990234375,-6.591796875,-1.40380859375,-1.89208984375,14.161376953125,41.5283203125,-74.267578125
1758878275.7811534,-0.69775390625,0.1376953125,0.64697265625,-3.47900390625,-0.06103515625,-2.44140625,14.095458984375,41.539306640625,-74.3115234375
1758878275.7910209,-0.69775390625,0.1376953125,0.64697265625,-3.47900390625,-0.06103515625,-2.44140625,14.0350341796875,41.561279296875,-74.3499755859375
1758878275.8013337,-0.7041015625,0.18359375,0.6884765625,6.04248046875,0.67138671875,-2.8076171875,14.0240478515625,41.5887451171875,-74.3994140625
1758878275.8114324,-0.7041015625,0.18359375,0.6884765625,6.04248046875,0.67138671875,-2.8076171875,14.0625,41.6162109375,-74.443359375
1758878275.8211389,-0.6748046875,0.22900390625,0.70458984375,-2.01416015625,1.28173828125,-2.25830078125,14.0625,41.649169921875,-74.4818115234375
1758878275.8311284,-0.6748046875,0.22900390625,0.70458984375,-2.01416015625,1.28173828125,-2.25830078125,14.029541015625,41.68212890625,-74.5147705078125
1758878275.8411872,-0.6572265625,0.240234375,0.6884765625,-15.380859375,1.40380859375,-1.220703125,13.9306640625,41.715087890625,-74.5367431640625
1758878275.8511262,-0.6572265625,0.240234375,0.6884765625,-15.380859375,1.40380859375,-1.220703125,13.7823486328125,41.7425537109375,-74.5477294921875
1758878275.8611808,-0.69287109375,0.19775390625,0.73828125,-24.35302734375,1.46484375,0.42724609375,13.590087890625,41.77001953125,-74.5477294921875
1758878275.8714788,-0.69287109375,0.19775390625,0.73828125,-24.35302734375,1.46484375,0.42724609375,13.3648681640625,41.7919921875,-74.5367431640625
1758878275.8812401,-0.69287109375,0.19775390625,0.73828125,-24.23095703125,1.3427734375,2.13623046875,13.150634765625,41.8084716796875,-74.5147705078125
1758878275.8911753,-0.70849609375,0.1533203125,0.7275390625,-24.23095703125,1.3427734375,2.13623046875,12.94189453125,41.8304443359375,-74.4818115234375
1758878275.9012215,-0.71728515625,0.1259765625,0.68212890625,-15.93017578125,1.40380859375,3.11279296875,12.777099609375,41.846923828125,-74.443359375
1758878275.9116044,-0.71728515625,0.1259765625,0.68212890625,-15.93017578125,1.40380859375,3.11279296875,12.65625,41.8634033203125,-74.4049072265625
1758878275.9212048,-0.716796875,0.126953125,0.69970703125,-9.27734375,1.46484375,4.33349609375,12.5738525390625,41.8798828125,-74.35546875
1758878275.9312863,-0.716796875,0.126953125,0.69970703125,-9.27734375,1.46484375,4.33349609375,12.5299072265625,41.90185546875,-74.300537109375
1758878275.9413638,-0.7158203125,0.14013671875,0.68115234375,-6.40869140625,1.5869140625,5.2490234375,12.50244140625,41.9183349609375,-74.2401123046875
1758878275.9513276,-0.7158203125,0.14013671875,0.68115234375,-6.40869140625,1.5869140625,5.2490234375,12.491455078125,41.934814453125,-74.1796875
1758878275.9613068,-0.720703125,0.1591796875,0.66162109375,-9.521484375,2.0751953125,5.9814453125,12.4639892578125,41.956787109375,-74.1082763671875
1758878275.9717262,-0.720703125,0.1591796875,0.66162109375,-9.521484375,2.0751953125,5.9814453125,12.4310302734375,41.9842529296875,-74.036865234375
1758878275.9817646,-0.7080078125,0.17138671875,0.677734375,-12.14599609375,2.44140625,6.4697265625,12.3870849609375,42.0062255859375,-73.9544677734375
1758878275.9913409,-0.7080078125,0.17138671875,0.677734375,-12.14599609375,2.44140625,6.4697265625,12.3321533203125,42.03369140625,-73.8720703125
1758878276.0013576,-0.71044921875,0.16943359375,0.685546875,-10.31494140625,2.86865234375,6.77490234375,12.2882080078125,42.066650390625,-73.7841796875
1758878276.0114481,-0.71044921875,0.16943359375,0.685546875,-10.31494140625,2.86865234375,6.77490234375,12.2607421875,42.0941162109375,-73.6962890625
1758878276.0214639,-0.6962890625,0.1513671875,0.6708984375,-7.2021484375,3.47900390625,6.65283203125,12.2442626953125,42.1270751953125,-73.6029052734375
1758878276.0313873,-0.6962890625,0.1513671875,0.6708984375,-7.2021484375,3.47900390625,6.65283203125,12.2442626953125,42.16552734375,-73.5150146484375
1758878276.0418196,-0.67822265625,0.154296875,0.68505859375,-7.9345703125,4.08935546875,6.40869140625,12.23876953125,42.20947265625,-73.4271240234375
1758878276.0516496,-0.67822265625,0.154296875,0.68505859375,-7.9345703125,4.08935546875,6.40869140625,12.2332763671875,42.2479248046875,-73.333740234375
1758878276.061453,-0.66259765625,0.17333984375,0.71728515625,-7.14111328125,4.33349609375,6.103515625,12.227783203125,42.2918701171875,-73.245849609375
1758878276.071437,-0.66259765625,0.17333984375,0.71728515625,-7.14111328125,4.33349609375,6.103515625,12.2222900390625,42.3358154296875,-73.1634521484375
1758878276.081882,-0.65625,0.1787109375,0.74365234375,-6.65283203125,4.5166015625,5.859375,12.2222900390625,42.3797607421875,-73.0755615234375
1758878276.0914502,-0.65625,0.1787109375,0.74365234375,-6.65283203125,4.5166015625,5.859375,12.2222900390625,42.418212890625,-72.9931640625
1758878276.1014783,-0.6142578125,0.15771484375,0.7490234375,-8.97216796875,4.2724609375,5.859375,12.2113037109375,42.4566650390625,-72.9052734375
1758878276.1115005,-0.6142578125,0.15771484375,0.7490234375,-8.97216796875,4.2724609375,5.859375,12.1893310546875,42.4896240234375,-72.8228759765625
1758878276.1214828,-0.6201171875,0.1494140625,0.7578125,-10.31494140625,4.21142578125,5.4931640625,12.1563720703125,42.51708984375,-72.740478515625
1758878276.1314793,-0.6201171875,0.1494140625,0.7578125,-10.31494140625,4.21142578125,5.4931640625,12.1124267578125,42.5445556640625,-72.6580810546875
1758878276.1419637,-0.62060546875,0.14599609375,0.76611328125,-8.36181640625,4.0283203125,5.0048828125,12.0794677734375,42.572021484375,-72.586669921875
1758878276.1520638,-0.62060546875,0.14599609375,0.76611328125,-8.36181640625,4.0283203125,5.0048828125,12.052001953125,42.593994140625,-72.5152587890625
1758878276.1614883,-0.638671875,0.16796875,0.78173828125,-13.7939453125,3.90625,4.82177734375,11.9915771484375,42.615966796875,-72.44384765625
1758878276.1715753,-0.638671875,0.16796875,0.78173828125,-13.7939453125,3.90625,4.82177734375,11.9091796875,42.6324462890625,-72.3779296875
1758878276.1820207,-0.65380859375,0.1904296875,0.751953125,-18.06640625,3.5400390625,4.5166015625,11.79931640625,42.64892578125,-72.31201171875
1758878276.1915796,-0.65380859375,0.1904296875,0.751953125,-18.06640625,3.5400390625,4.5166015625,11.6729736328125,42.659912109375,-72.24609375
1758878276.2016969,-0.6396484375,0.1640625,0.75927734375,-21.8505859375,3.173828125,4.08935546875,11.524658203125,42.6763916015625,-72.18017578125
1758878276.2115908,-0.6396484375,0.1640625,0.75927734375,-21.8505859375,3.173828125,4.08935546875,11.3543701171875,42.6873779296875,-72.1197509765625
1758878276.2216558,-0.6337890625,0.13525390625,0.74755859375,-21.42333984375,3.23486328125,3.72314453125,11.1895751953125,42.69287109375,-72.059326171875
1758878276.2319102,-0.6337890625,0.13525390625,0.74755859375,-21.42333984375,3.23486328125,3.72314453125,11.019287109375,42.703857421875,-72.00439453125
1758878276.2420805,-0.6357421875,0.126953125,0.72314453125,-16.9677734375,3.2958984375,2.86865234375,10.8709716796875,42.71484375,-71.949462890625
1758878276.2516365,-0.6357421875,0.126953125,0.72314453125,-16.9677734375,3.2958984375,2.86865234375,10.7391357421875,42.7313232421875,-71.905517578125
1758878276.2617111,-0.63427734375,0.12841796875,0.748046875,-8.6669921875,3.2958984375,1.953125,10.645751953125,42.7423095703125,-71.8670654296875
1758878276.2721696,-0.63427734375,0.12841796875,0.748046875,-8.6669921875,3.2958984375,1.953125,10.5853271484375,42.7587890625,-71.839599609375
1758878276.2816908,-0.6572265625,0.12744140625,0.7451171875,-0.91552734375,3.0517578125,1.28173828125,10.5633544921875,42.7752685546875,-71.8121337890625
1758878276.29175,-0.6572265625,0.12744140625,0.7451171875,-0.91552734375,3.0517578125,1.28173828125,10.5743408203125,42.7862548828125,-71.7901611328125
1758878276.3019934,-0.6865234375,0.115234375,0.763671875,5.06591796875,2.44140625,0.67138671875,10.61279296875,42.7972412109375,-71.7791748046875
1758878276.3116896,-0.6865234375,0.115234375,0.763671875,5.06591796875,2.44140625,0.67138671875,10.6732177734375,42.8082275390625,-71.7681884765625
1758878276.3217888,-0.70263671875,0.142578125,0.7529296875,1.220703125,1.5869140625,0.3662109375,10.711669921875,42.813720703125,-71.7681884765625
1758878276.3324468,-0.70263671875,0.142578125,0.7529296875,1.220703125,1.5869140625,0.3662109375,10.7281494140625,42.8192138671875,-71.7626953125
1758878276.3418722,-0.6943359375,0.173828125,0.73095703125,-6.2255859375,0.6103515625,0.48828125,10.711669921875,42.8192138671875,-71.7626953125
1758878276.3517797,-0.6943359375,0.173828125,0.73095703125,-6.2255859375,0.6103515625,0.48828125,10.65673828125,42.813720703125,-71.7626953125
1758878276.3621585,-0.68798828125,0.19189453125,0.70947265625,-8.6669921875,0.0,0.18310546875,10.5853271484375,42.8082275390625,-71.7572021484375
1758878276.3722136,-0.68798828125,0.19189453125,0.70947265625,-8.6669921875,0.0,0.18310546875,10.5084228515625,42.7972412109375,-71.7572021484375
1758878276.3817916,-0.67626953125,0.173828125,0.6767578125,-5.67626953125,0.0,-0.18310546875,10.447998046875,42.791748046875,-71.7572021484375
1758878276.3918355,-0.67626953125,0.173828125,0.6767578125,-5.67626953125,0.0,-0.18310546875,10.3985595703125,42.7862548828125,-71.751708984375
1758878276.4023771,-0.681640625,0.14208984375,0.7109375,-7.2021484375,-0.30517578125,-0.48828125,10.3326416015625,42.78076171875,-71.7572021484375
1758878276.411833,-0.681640625,0.14208984375,0.7109375,-7.2021484375,-0.30517578125,-0.48828125,10.2667236328125,42.7752685546875,-71.7572021484375
1758878276.421985,-0.693359375,0.109375,0.7216796875,-9.8876953125,-0.42724609375,-0.732421875,10.1678466796875,42.769775390625,-71.7681884765625
1758878276.4321482,-0.693359375,0.109375,0.7216796875,-9.8876953125,-0.42724609375,-0.732421875,10.0689697265625,42.7642822265625,-71.7791748046875
1758878276.441932,-0.68115234375,0.1103515625,0.69775390625,-11.962890625,-0.67138671875,-1.28173828125,9.9481201171875,42.7587890625,-71.795654296875
1758878276.4519804,-0.68115234375,0.1103515625,0.69775390625,-11.962890625,-0.67138671875,-1.28173828125,9.82177734375,42.7587890625,-71.817626953125
1758878276.4622872,-0.6748046875,0.1201171875,0.66748046875,-10.07080078125,-0.1220703125,-1.77001953125,9.7119140625,42.7587890625,-71.8450927734375
1758878276.4720352,-0.6748046875,0.1201171875,0.66748046875,-10.07080078125,-0.1220703125,-1.77001953125,9.60205078125,42.7642822265625,-71.8670654296875
1758878276.4819517,-0.64892578125,0.14794921875,0.68359375,-7.8125,0.0,-1.8310546875,9.51416015625,42.769775390625,-71.89453125
1758878276.4919424,-0.64892578125,0.14794921875,0.68359375,-7.8125,0.0,-1.8310546875,9.4317626953125,42.7752685546875,-71.91650390625
1758878276.5027244,-0.66552734375,0.15576171875,0.74365234375,-15.80810546875,0.244140625,-1.28173828125,9.2724609375,42.78076171875,-71.927490234375
1758878276.5119295,-0.66552734375,0.15576171875,0.74365234375,-15.80810546875,0.244140625,-1.28173828125,9.1131591796875,42.7862548828125,-71.9439697265625
1758878276.5219746,-0.69189453125,0.1845703125,0.74072265625,-34.912109375,0.732421875,-0.1220703125,8.778076171875,42.791748046875,-71.9329833984375
1758878276.5323544,-0.69189453125,0.1845703125,0.74072265625,-34.912109375,0.732421875,-0.1220703125,8.448486328125,42.7972412109375,-71.9219970703125
1758878276.5420358,-0.69384765625,0.16357421875,0.69140625,-45.7763671875,1.8310546875,0.0,8.0145263671875,42.813720703125,-71.905517578125
1758878276.5519514,-0.69384765625,0.16357421875,0.69140625,-45.7763671875,1.8310546875,0.0,7.5860595703125,42.835693359375,-71.883544921875
1758878276.562123,-0.7080078125,0.0947265625,0.6533203125,-49.13330078125,3.90625,-0.6103515625,7.1246337890625,42.8741455078125,-71.8670654296875
1758878276.5725243,-0.7080078125,0.0947265625,0.6533203125,-49.13330078125,3.90625,-0.6103515625,6.65771484375,42.923583984375,-71.8560791015625
1758878276.582065,-0.7080078125,0.0947265625,0.6533203125,-49.74365234375,5.9814453125,-0.9765625,6.185302734375,42.989501953125,-71.839599609375
1758878276.5923724,-0.71826171875,0.09033203125,0.646484375,-49.74365234375,5.9814453125,-0.9765625,5.712890625,43.055419921875,-71.82861328125
1758878276.6021342,-0.74853515625,0.06787109375,0.7197265625,-43.701171875,6.9580078125,-1.77001953125,5.29541015625,43.1378173828125,-71.82861328125
1758878276.6120389,-0.74853515625,0.06787109375,0.7197265625,-43.701171875,6.9580078125,-1.77001953125,4.8779296875,43.22021484375,-71.82861328125
1758878276.6222146,-0.7392578125,-0.02978515625,0.75830078125,-33.8134765625,6.591796875,-2.13623046875,4.54833984375,43.297119140625,-71.8341064453125
1758878276.632575,-0.7392578125,-0.02978515625,0.75830078125,-33.8134765625,6.591796875,-2.13623046875,4.21875,43.3685302734375,-71.8505859375
1758878276.6421466,-0.72705078125,-0.0751953125,0.71533203125,-15.2587890625,5.79833984375,-1.953125,4.06494140625,43.43994140625,-71.87255859375
1758878276.6522055,-0.72705078125,-0.0751953125,0.71533203125,-15.2587890625,5.79833984375,-1.953125,3.9056396484375,43.505859375,-71.9000244140625
1758878276.6626549,-0.73779296875,-0.0361328125,0.69384765625,1.8310546875,4.69970703125,-1.15966796875,3.9166259765625,43.5662841796875,-71.91650390625
1758878276.6722696,-0.73779296875,-0.0361328125,0.69384765625,1.8310546875,4.69970703125,-1.15966796875,3.9276123046875,43.6212158203125,-71.9439697265625
1758878276.6821704,-0.75146484375,0.0634765625,0.705078125,4.82177734375,3.47900390625,0.0,3.97705078125,43.6651611328125,-71.9549560546875
1758878276.692249,-0.75146484375,0.0634765625,0.705078125,4.82177734375,3.47900390625,0.0,4.0264892578125,43.714599609375,-71.96044921875
1758878276.7025204,-0.744140625,0.10302734375,0.67138671875,1.953125,2.44140625,0.91552734375,4.053955078125,43.74755859375,-71.9549560546875
1758878276.712161,-0.744140625,0.10302734375,0.67138671875,1.953125,2.44140625,0.91552734375,4.0869140625,43.7860107421875,-71.9439697265625
1758878276.7222314,-0.7451171875,0.0595703125,0.666015625,-2.62451171875,1.708984375,1.52587890625,4.0814208984375,43.8134765625,-71.9219970703125
1758878276.7326648,-0.7451171875,0.0595703125,0.666015625,-2.62451171875,1.708984375,1.52587890625,4.075927734375,43.846435546875,-71.9000244140625
1758878276.7422662,-0.7412109375,0.04052734375,0.67578125,-3.7841796875,1.46484375,1.64794921875,4.0594482421875,43.8739013671875,-71.883544921875
1758878276.752559,-0.7412109375,0.04052734375,0.67578125,-3.7841796875,1.46484375,1.64794921875,4.0374755859375,43.9068603515625,-71.861572265625
1758878276.7625554,-0.7119140625,0.05224609375,0.673828125,-2.197265625,1.40380859375,1.3427734375,4.031982421875,43.934326171875,-71.8450927734375
1758878276.7722943,-0.7119140625,0.05224609375,0.673828125,-2.197265625,1.40380859375,1.3427734375,4.0264892578125,43.9617919921875,-71.82861328125
1758878276.7823493,-0.69580078125,0.064453125,0.6982421875,-4.7607421875,1.3427734375,1.28173828125,3.9990234375,43.9892578125,-71.8121337890625
1758878276.7925906,-0.69580078125,0.064453125,0.6982421875,-4.7607421875,1.3427734375,1.28173828125,3.966064453125,44.0167236328125,-71.795654296875
1758878276.8023682,-0.69189453125,0.0615234375,0.73095703125,-9.1552734375,1.03759765625,1.220703125,3.8946533203125,44.0386962890625,-71.7791748046875
1758878276.8123097,-0.69189453125,0.0615234375,0.73095703125,-9.1552734375,1.03759765625,1.220703125,3.8177490234375,44.0606689453125,-71.7626953125
1758878276.8228877,-0.697265625,0.06005859375,0.70849609375,-11.29150390625,0.8544921875,0.9765625,3.724365234375,44.0771484375,-71.751708984375
1758878276.832563,-0.697265625,0.06005859375,0.70849609375,-11.29150390625,0.8544921875,0.9765625,3.62548828125,44.0936279296875,-71.7352294921875
1758878276.8423803,-0.68701171875,0.0478515625,0.716796875,-14.34326171875,0.244140625,0.67138671875,3.49365234375,44.09912109375,-71.7242431640625
1758878276.8525338,-0.68701171875,0.0478515625,0.716796875,-14.34326171875,0.244140625,0.67138671875,3.3673095703125,44.110107421875,-71.7132568359375
1758878276.8627803,-0.68896484375,0.0458984375,0.72900390625,-18.5546875,0.244140625,0.54931640625,3.1915283203125,44.1156005859375,-71.7022705078125
1758878276.8723726,-0.68896484375,0.0458984375,0.72900390625,-18.5546875,0.244140625,0.54931640625,3.021240234375,44.12109375,-71.6912841796875
1758878276.8824644,-0.68896484375,0.0458984375,0.72900390625,-23.4375,-0.42724609375,0.30517578125,2.7960205078125,44.12109375,-71.685791015625
1758878276.8928096,-0.66162109375,0.04931640625,0.7509765625,-23.4375,-0.42724609375,0.30517578125,2.5762939453125,44.1156005859375,-71.6802978515625
1758878276.9024827,-0.66845703125,0.05712890625,0.75244140625,-29.9072265625,-1.15966796875,0.30517578125,2.2906494140625,44.1046142578125,-71.6693115234375
1758878276.9124405,-0.66845703125,0.05712890625,0.75244140625,-29.9072265625,-1.15966796875,0.30517578125,2.0050048828125,44.0936279296875,-71.65283203125
1758878276.9230556,-0.67919921875,0.0439453125,0.77099609375,-30.517578125,-2.50244140625,0.3662109375,1.7193603515625,44.066162109375,-71.641845703125
1758878276.9325612,-0.67919921875,0.0439453125,0.77099609375,-30.517578125,-2.50244140625,0.3662109375,1.4337158203125,44.033203125,-71.6253662109375
1758878276.9425323,-0.67138671875,0.01171875,0.77001953125,-29.96826171875,-3.173828125,0.3662109375,1.153564453125,43.9947509765625,-71.60888671875
1758878276.9529817,-0.67138671875,0.01171875,0.77001953125,-29.96826171875,-3.173828125,0.3662109375,0.867919921875,43.956298828125,-71.5869140625
1758878276.9625664,-0.6484375,0.01025390625,0.7412109375,-35.46142578125,-3.60107421875,0.48828125,0.538330078125,43.9178466796875,-71.5704345703125
1758878276.972521,-0.6484375,0.01025390625,0.7412109375,-35.46142578125,-3.60107421875,0.48828125,0.2032470703125,43.8739013671875,-71.5484619140625
1758878276.982679,-0.654296875,0.02783203125,0.7451171875,-41.1376953125,-3.7841796875,0.42724609375,-0.1812744140625,43.824462890625,-71.5264892578125
1758878276.992572,-0.654296875,0.02783203125,0.7451171875,-41.1376953125,-3.7841796875,0.42724609375,-0.5657958984375,43.780517578125,-71.5045166015625
1758878277.0025392,-0.666015625,0.0078125,0.72705078125,-42.05322265625,-3.41796875,0.18310546875,-0.9613037109375,43.736572265625,-71.4825439453125
1758878277.0127473,-0.666015625,0.0078125,0.72705078125,-42.05322265625,-3.41796875,0.18310546875,-1.3568115234375,43.692626953125,-71.4605712890625
1758878277.02297,-0.66943359375,-0.04296875,0.7744140625,-40.83251953125,-4.39453125,-0.48828125,-1.746826171875,43.6431884765625,-71.444091796875
1758878277.032595,-0.66943359375,-0.04296875,0.7744140625,-40.83251953125,-4.39453125,-0.48828125,-2.1368408203125,43.5882568359375,-71.43310546875
1758878277.0426424,-0.7001953125,-0.0703125,0.81787109375,-31.6162109375,-5.615234375,-0.79345703125,-2.43896484375,43.5223388671875,-71.4276123046875
1758878277.0530367,-0.7001953125,-0.0703125,0.81787109375,-31.6162109375,-5.615234375,-0.79345703125,-2.7410888671875,43.4564208984375,-71.4166259765625
1758878277.0626578,-0.7001953125,-0.12060546875,0.7626953125,-10.009765625,-6.9580078125,-1.0986328125,-2.83447265625,43.3795166015625,-71.422119140625
1758878277.0726604,-0.7001953125,-0.12060546875,0.7626953125,-10.009765625,-6.9580078125,-1.0986328125,-2.933349609375,43.3026123046875,-71.422119140625
1758878277.0829496,-0.6962890625,-0.1240234375,0.70068359375,6.103515625,-8.23974609375,-1.03759765625,-2.87841796875,43.209228515625,-71.43310546875
1758878277.0929067,-0.6962890625,-0.1240234375,0.70068359375,6.103515625,-8.23974609375,-1.03759765625,-2.823486328125,43.121337890625,-71.444091796875
1758878277.1026163,-0.71533203125,-0.0859375,0.6845703125,22.64404296875,-8.544921875,-1.52587890625,-2.6092529296875,43.033447265625,-71.466064453125
1758878277.112651,-0.71533203125,-0.0859375,0.6845703125,22.64404296875,-8.544921875,-1.52587890625,-2.4005126953125,42.9510498046875,-71.4935302734375
1758878277.1230159,-0.69921875,-0.05859375,0.65234375,31.3720703125,-8.30078125,-2.01416015625,-2.1148681640625,42.86865234375,-71.5264892578125
1758878277.1326728,-0.69921875,-0.05859375,0.65234375,31.3720703125,-8.30078125,-2.01416015625,-1.8292236328125,42.791748046875,-71.56494140625
1758878277.1427228,-0.7021484375,-0.02294921875,0.65966796875,27.587890625,-8.056640625,-2.197265625,-1.58203125,42.71484375,-71.60888671875
1758878277.1531088,-0.7021484375,-0.02294921875,0.65966796875,27.587890625,-8.056640625,-2.197265625,-1.34033203125,42.6434326171875,-71.65283203125
1758878277.163124,-0.70947265625,-0.0009765625,0.67822265625,23.62060546875,-7.6904296875,-2.0751953125,-1.131591796875,42.5775146484375,-71.6912841796875
1758878277.1727874,-0.70947265625,-0.0009765625,0.67822265625,23.62060546875,-7.6904296875,-2.0751953125,-0.9283447265625,42.51708984375,-71.729736328125
1758878277.1827784,-0.724609375,-0.03173828125,0.685546875,25.634765625,-7.26318359375,-2.01416015625,-0.703125,42.4566650390625,-71.773681640625
1758878277.1928582,-0.724609375,-0.03173828125,0.685546875,25.634765625,-7.26318359375,-2.01416015625,-0.4779052734375,42.4017333984375,-71.8121337890625
1758878277.2027884,-0.716796875,-0.04638671875,0.6826171875,26.91650390625,-7.01904296875,-2.01416015625,-0.24169921875,42.3468017578125,-71.861572265625
1758878277.2127938,-0.716796875,-0.04638671875,0.6826171875,26.91650390625,-7.01904296875,-2.01416015625,-0.0054931640625,42.2918701171875,-71.905517578125
1758878277.2230518,-0.7236328125,-0.01025390625,0.68310546875,26.55029296875,-6.40869140625,-2.13623046875,0.2142333984375,42.2479248046875,-71.9549560546875
1758878277.233205,-0.7236328125,-0.01025390625,0.68310546875,26.55029296875,-6.40869140625,-2.13623046875,0.4449462890625,42.2039794921875,-72.00439453125
1758878277.2428129,-0.72802734375,0.01708984375,0.6767578125,25.87890625,-5.31005859375,-2.0751953125,0.6646728515625,42.1710205078125,-72.0538330078125
1758878277.252869,-0.72802734375,0.01708984375,0.6767578125,25.87890625,-5.31005859375,-2.0751953125,0.889892578125,42.1435546875,-72.103271484375
1758878277.2633722,-0.72314453125,0.01904296875,0.69921875,21.54541015625,-3.72314453125,-1.8310546875,1.0711669921875,42.1270751953125,-72.147216796875
1758878277.2729323,-0.72314453125,0.01904296875,0.69921875,21.54541015625,-3.72314453125,-1.8310546875,1.2579345703125,42.1160888671875,-72.191162109375
1758878277.2829251,-0.7138671875,0.0185546875,0.70458984375,13.18359375,-2.01416015625,-1.15966796875,1.3623046875,42.1160888671875,-72.22412109375
1758878277.293338,-0.7138671875,0.0185546875,0.70458984375,13.18359375,-2.01416015625,-1.15966796875,1.47216796875,42.12158203125,-72.2515869140625
1758878277.3032386,-0.6943359375,0.02099609375,0.72607421875,8.6669921875,-0.54931640625,-0.48828125,1.5435791015625,42.132568359375,-72.279052734375
1758878277.312904,-0.6943359375,0.02099609375,0.72607421875,8.6669921875,-0.54931640625,-0.48828125,1.614990234375,42.1490478515625,-72.2955322265625
1758878277.3230033,-0.68701171875,0.013671875,0.73193359375,8.7890625,0.79345703125,-0.244140625,1.69189453125,42.176513671875,-72.3175048828125
1758878277.3333545,-0.68701171875,0.013671875,0.73193359375,8.7890625,0.79345703125,-0.244140625,1.7633056640625,42.2039794921875,-72.333984375
1758878277.3429344,-0.67138671875,0.00390625,0.73828125,10.55908203125,2.01416015625,-0.244140625,1.856689453125,42.2369384765625,-72.3504638671875
1758878277.3529663,-0.67138671875,0.00390625,0.73828125,10.55908203125,2.01416015625,-0.244140625,1.9500732421875,42.2698974609375,-72.366943359375
1758878277.3635035,-0.66064453125,0.013671875,0.75634765625,10.7421875,3.41796875,-0.30517578125,2.0489501953125,42.3193359375,-72.3834228515625
1758878277.3730292,-0.66064453125,0.013671875,0.75634765625,10.7421875,3.41796875,-0.30517578125,2.142333984375,42.36328125,-72.39990234375
1758878277.383121,-0.65576171875,0.02783203125,0.7744140625,8.60595703125,4.8828125,-0.244140625,2.2137451171875,42.418212890625,-72.4163818359375
1758878277.3931072,-0.65576171875,0.02783203125,0.7744140625,8.60595703125,4.8828125,-0.244140625,2.2906494140625,42.47314453125,-72.4273681640625
1758878277.4030185,-0.6513671875,0.02978515625,0.78076171875,9.94873046875,5.9814453125,-0.42724609375,2.3785400390625,42.5335693359375,-72.44384765625
1758878277.4130588,-0.65185546875,0.01806640625,0.76025390625,14.95361328125,6.77490234375,-0.91552734375,2.4884033203125,42.5994873046875,-72.4603271484375
1758878277.4233067,-0.65185546875,0.01806640625,0.76025390625,14.95361328125,6.77490234375,-0.91552734375,2.625732421875,42.6654052734375,-72.4822998046875
1758878277.4330053,-0.66064453125,0.017578125,0.71533203125,20.1416015625,7.080078125,-1.77001953125,2.779541015625,42.7313232421875,-72.509765625
1758878277.443069,-0.66064453125,0.017578125,0.71533203125,20.1416015625,7.080078125,-1.77001953125,2.955322265625,42.802734375,-72.542724609375
1758878277.4532816,-0.67822265625,0.03857421875,0.748046875,17.7001953125,7.14111328125,-2.0751953125,3.1201171875,42.86865234375,-72.57568359375
1758878277.4630635,-0.67822265625,0.03857421875,0.748046875,17.7001953125,7.14111328125,-2.0751953125,3.2684326171875,42.9400634765625,-72.608642578125
1758878277.4730446,-0.67041015625,0.06591796875,0.75634765625,13.97705078125,7.6904296875,-2.13623046875,3.4002685546875,43.011474609375,-72.6470947265625
1758878277.483466,-0.67041015625,0.06591796875,0.75634765625,13.97705078125,7.6904296875,-2.13623046875,3.515625,43.0828857421875,-72.6800537109375
1758878277.493165,-0.65966796875,0.0595703125,0.74267578125,11.90185546875,8.60595703125,-2.01416015625,3.6199951171875,43.1597900390625,-72.70751953125
1758878277.5031743,-0.65966796875,0.0595703125,0.74267578125,11.90185546875,8.60595703125,-2.01416015625,3.7188720703125,43.2421875,-72.7349853515625
1758878277.513352,-0.6572265625,0.037109375,0.7490234375,12.3291015625,9.033203125,-2.25830078125,3.8177490234375,43.3245849609375,-72.762451171875
1758878277.5235786,-0.6572265625,0.037109375,0.7490234375,12.3291015625,9.033203125,-2.25830078125,3.9166259765625,43.406982421875,-72.79541015625
1758878277.5332682,-0.65283203125,0.0380859375,0.76708984375,13.5498046875,9.33837890625,-2.5634765625,4.02099609375,43.4893798828125,-72.828369140625
1758878277.5432596,-0.65283203125,0.0380859375,0.76708984375,13.5498046875,9.33837890625,-2.5634765625,4.1253662109375,43.5772705078125,-72.861328125
1758878277.553445,-0.64306640625,0.05615234375,0.7568359375,9.27734375,9.46044921875,-2.3193359375,4.2132568359375,43.65966796875,-72.894287109375
1758878277.5635278,-0.64306640625,0.05615234375,0.7568359375,9.27734375,9.46044921875,-2.3193359375,4.28466796875,43.7420654296875,-72.9217529296875
1758878277.573183,-0.6455078125,0.07177734375,0.751953125,5.18798828125,9.33837890625,-1.953125,4.3341064453125,43.8189697265625,-72.94921875
1758878277.583287,-0.6455078125,0.07177734375,0.751953125,5.18798828125,9.33837890625,-1.953125,4.3670654296875,43.9013671875,-72.97119140625
1758878277.5936878,-0.66015625,0.06103515625,0.7431640625,2.0751953125,9.58251953125,-1.3427734375,4.3890380859375,43.978271484375,-72.9876708984375
1758878277.603248,-0.66015625,0.06103515625,0.7431640625,2.0751953125,9.58251953125,-1.3427734375,4.4000244140625,44.0606689453125,-72.9986572265625
1758878277.6132092,-0.6630859375,0.0419921875,0.72314453125,1.46484375,9.82666015625,-0.732421875,4.405517578125,44.1375732421875,-73.0096435546875
1758878277.6235151,-0.6630859375,0.0419921875,0.72314453125,1.46484375,9.82666015625,-0.732421875,4.41650390625,44.219970703125,-73.0096435546875
1758878277.6336217,-0.66455078125,0.02734375,0.72900390625,3.7841796875,9.765625,-0.48828125,4.4384765625,44.3023681640625,-73.01513671875
1758878277.6435394,-0.66455078125,0.02734375,0.72900390625,3.7841796875,9.765625,-0.48828125,4.471435546875,44.384765625,-73.01513671875
1758878277.653323,-0.6611328125,0.02734375,0.7333984375,4.33349609375,9.27734375,-0.244140625,4.5098876953125,44.461669921875,-73.01513671875
1758878277.6637099,-0.6611328125,0.02734375,0.7333984375,4.33349609375,9.27734375,-0.244140625,4.54833984375,44.53857421875,-73.01513671875
1758878277.6732867,-0.65087890625,0.0458984375,0.72412109375,5.2490234375,8.1787109375,0.0,4.59228515625,44.6099853515625,-73.0206298828125
1758878277.6833081,-0.65087890625,0.0458984375,0.72412109375,5.2490234375,8.1787109375,0.0,4.6417236328125,44.67041015625,-73.0206298828125
1758878277.6936548,-0.66259765625,0.0546875,0.7412109375,5.06591796875,7.01904296875,0.0,4.691162109375,44.7308349609375,-73.0206298828125
1758878277.703394,-0.66259765625,0.0546875,0.7412109375,5.06591796875,7.01904296875,0.0,4.7406005859375,44.7802734375,-73.0206298828125
1758878277.7133129,-0.66552734375,0.05322265625,0.75244140625,8.7890625,5.67626953125,-0.18310546875,4.8065185546875,44.8297119140625,-73.0206298828125
1758878277.7237697,-0.66552734375,0.05322265625,0.75244140625,8.7890625,5.67626953125,-0.18310546875,4.8834228515625,44.8626708984375,-73.026123046875
1758878277.7334192,-0.6630859375,0.05419921875,0.74169921875,5.55419921875,4.82177734375,-0.3662109375,4.9493408203125,44.901123046875,-73.0316162109375
1758878277.7433777,-0.6630859375,0.05419921875,0.74169921875,5.55419921875,4.82177734375,-0.3662109375,4.998779296875,44.9285888671875,-73.0426025390625
1758878277.7534778,-0.67919921875,0.1005859375,0.732421875,-2.13623046875,4.0283203125,-0.42724609375,5.0042724609375,44.9505615234375,-73.048095703125
1758878277.7637482,-0.67919921875,0.1005859375,0.732421875,-2.13623046875,4.0283203125,-0.42724609375,4.976806640625,44.9725341796875,-73.0535888671875
1758878277.7734182,-0.6923828125,0.11083984375,0.712890625,-5.7373046875,3.5400390625,-0.91552734375,4.932861328125,44.9945068359375,-73.05908203125
1758878277.7837636,-0.6923828125,0.11083984375,0.712890625,-5.7373046875,3.5400390625,-0.91552734375,4.8724365234375,45.010986328125,-73.0645751953125
1758878277.7935016,-0.73291015625,0.07861328125,0.69189453125,-9.1552734375,2.50244140625,-1.28173828125,4.7900390625,45.0274658203125,-73.0755615234375
1758878277.803426,-0.73291015625,0.07861328125,0.69189453125,-9.1552734375,2.50244140625,-1.28173828125,4.691162109375,45.0384521484375,-73.0865478515625
1758878277.813457,-0.724609375,0.05224609375,0.66015625,-6.28662109375,1.0986328125,-2.25830078125,4.603271484375,45.0494384765625,-73.10302734375
1758878277.8240433,-0.724609375,0.05224609375,0.66015625,-6.28662109375,1.0986328125,-2.25830078125,4.5263671875,45.0494384765625,-73.125
1758878277.8336313,-0.7021484375,0.03369140625,0.70361328125,-2.86865234375,0.42724609375,-3.0517578125,4.4549560546875,45.054931640625,-73.157958984375
1758878277.8438914,-0.7021484375,0.03369140625,0.70361328125,-2.86865234375,0.42724609375,-3.0517578125,4.4000244140625,45.054931640625,-73.201904296875
1758878277.8534966,-0.69677734375,0.0458984375,0.7001953125,1.40380859375,-0.30517578125,-3.662109375,4.361572265625,45.0494384765625,-73.245849609375
1758878277.8640199,-0.69677734375,0.0458984375,0.7001953125,1.40380859375,-0.30517578125,-3.662109375,4.3450927734375,45.0439453125,-73.30078125
1758878277.8735662,-0.70166015625,0.0517578125,0.7119140625,1.77001953125,-0.3662109375,-3.47900390625,4.3231201171875,45.0384521484375,-73.3502197265625
1758878277.8835568,-0.70166015625,0.0517578125,0.7119140625,1.77001953125,-0.3662109375,-3.47900390625,4.306640625,45.032958984375,-73.399658203125
1758878277.893646,-0.6884765625,0.06201171875,0.697265625,3.11279296875,-0.48828125,-3.7841796875,4.295654296875,45.0274658203125,-73.4490966796875
1758878277.903591,-0.6884765625,0.06201171875,0.697265625,3.11279296875,-0.48828125,-3.7841796875,4.2901611328125,45.02197265625,-73.49853515625
1758878277.9135742,-0.68603515625,0.06689453125,0.68017578125,6.591796875,-0.244140625,-4.39453125,4.3011474609375,45.0164794921875,-73.553466796875
1758878277.9235766,-0.68603515625,0.06689453125,0.68017578125,6.591796875,-0.244140625,-4.39453125,4.32861328125,45.0164794921875,-73.6138916015625
1758878277.9340923,-0.6904296875,0.06982421875,0.697265625,6.8359375,0.0,-4.7607421875,4.3505859375,45.010986328125,-73.67431640625
1758878277.9435723,-0.6904296875,0.06982421875,0.697265625,6.8359375,0.0,-4.7607421875,4.37255859375,45.010986328125,-73.740234375
1758878277.953636,-0.69140625,0.07763671875,0.681640625,4.45556640625,0.54931640625,-4.82177734375,4.3890380859375,45.0164794921875,-73.8006591796875
1758878277.9636512,-0.69140625,0.07763671875,0.681640625,4.45556640625,0.54931640625,-4.82177734375,4.3890380859375,45.02197265625,-73.861083984375
1758878277.9737647,-0.70458984375,0.0703125,0.701171875,-0.244140625,1.46484375,-4.69970703125,4.3670654296875,45.032958984375,-73.9215087890625
1758878277.98366,-0.70458984375,0.0703125,0.701171875,-0.244140625,1.46484375,-4.69970703125,4.32861328125,45.0494384765625,-73.9764404296875
1758878277.9939883,-0.69580078125,0.05419921875,0.70458984375,-0.6103515625,2.50244140625,-4.69970703125,4.28466796875,45.0714111328125,-74.0313720703125
1758878278.0040448,-0.69580078125,0.05419921875,0.70458984375,-0.6103515625,2.50244140625,-4.69970703125,4.2352294921875,45.098876953125,-74.0863037109375
1758878278.0136907,-0.71923828125,0.0458984375,0.70947265625,-0.732421875,3.23486328125,-4.7607421875,4.1912841796875,45.1263427734375,-74.1412353515625
1758878278.0237293,-0.71923828125,0.0458984375,0.70947265625,-0.732421875,3.23486328125,-4.7607421875,4.141845703125,45.1593017578125,-74.20166015625
1758878278.0340931,-0.78564453125,0.0625,0.73974609375,-16.6015625,3.0517578125,-4.39453125,4.02099609375,45.1922607421875,-74.256591796875
1758878278.0437255,-0.78564453125,0.0625,0.73974609375,-16.6015625,3.0517578125,-4.39453125,3.8177490234375,45.2252197265625,-74.3060302734375
1758878278.053774,-0.80517578125,0.1044921875,0.72216796875,-32.3486328125,2.62451171875,-3.173828125,3.5430908203125,45.2581787109375,-74.3499755859375
1758878278.064068,-0.80517578125,0.1044921875,0.72216796875,-32.3486328125,2.62451171875,-3.173828125,3.2025146484375,45.28564453125,-74.37744140625
1758878278.0738113,-0.81298828125,0.0537109375,0.6474609375,-33.50830078125,2.685546875,-1.46484375,2.867431640625,45.318603515625,-74.3939208984375
1758878278.0838168,-0.81298828125,0.0537109375,0.6474609375,-33.50830078125,2.685546875,-1.46484375,2.5323486328125,45.3515625,-74.3994140625
1758878278.0938168,-0.80712890625,-0.03173828125,0.6064453125,-29.60205078125,2.13623046875,0.0,2.230224609375,45.384521484375,-74.3939208984375
1758878278.104299,-0.80712890625,-0.03173828125,0.6064453125,-29.60205078125,2.13623046875,0.0,1.9500732421875,45.41748046875,-74.3829345703125
1758878278.1138413,-0.79931640625,-0.06494140625,0.5771484375,-18.73779296875,2.197265625,0.732421875,1.7193603515625,45.4559326171875,-74.3719482421875
1758878278.1238613,-0.79931640625,-0.06494140625,0.5771484375,-18.73779296875,2.197265625,0.732421875,1.549072265625,45.4998779296875,-74.35546875
1758878278.1342623,-0.798828125,-0.044921875,0.56689453125,-6.53076171875,2.50244140625,1.220703125,1.439208984375,45.5438232421875,-74.344482421875
1758878278.1438727,-0.798828125,-0.044921875,0.56689453125,-6.53076171875,2.50244140625,1.220703125,1.3897705078125,45.59326171875,-74.33349609375
1758878278.1538684,-0.79736328125,-0.00244140625,0.59912109375,-1.64794921875,3.41796875,1.8310546875,1.3623046875,45.648193359375,-74.3170166015625
1758878278.1638913,-0.79736328125,-0.00244140625,0.59912109375,-1.64794921875,3.41796875,1.8310546875,1.3623046875,45.714111328125,-74.300537109375
1758878278.1744633,-0.77978515625,0.03125,0.6142578125,-0.3662109375,3.2958984375,1.953125,1.373291015625,45.7745361328125,-74.2840576171875
1758878278.183962,-0.77978515625,0.03125,0.6142578125,-0.3662109375,3.2958984375,1.953125,1.3897705078125,45.8349609375,-74.2620849609375
1758878278.194306,-0.78759765625,0.03515625,0.6318359375,-0.79345703125,3.173828125,1.77001953125,1.40625,45.90087890625,-74.2401123046875
1758878278.203968,-0.78759765625,0.03515625,0.6318359375,-0.79345703125,3.173828125,1.77001953125,1.417236328125,45.9613037109375,-74.2181396484375
1758878278.213922,-0.77734375,0.02197265625,0.607421875,-0.732421875,2.62451171875,1.0986328125,1.42822265625,46.0162353515625,-74.1961669921875
1758878278.224028,-0.77734375,0.02197265625,0.607421875,-0.732421875,2.62451171875,1.0986328125,1.4337158203125,46.07666015625,-74.1851806640625
1758878278.2345889,-0.771484375,0.02783203125,0.60986328125,-1.0986328125,2.25830078125,0.06103515625,1.4337158203125,46.1260986328125,-74.1796875
1758878278.2439857,-0.771484375,0.02783203125,0.60986328125,-1.0986328125,2.25830078125,0.06103515625,1.4227294921875,46.1810302734375,-74.1796875
1758878278.2540243,-0.73583984375,0.0341796875,0.65966796875,-0.54931640625,1.5869140625,-1.03759765625,1.417236328125,46.23046875,-74.1851806640625
1758878278.2644498,-0.73583984375,0.0341796875,0.65966796875,-0.54931640625,1.5869140625,-1.03759765625,1.4007568359375,46.2744140625,-74.20166015625
1758878278.2740366,-0.71923828125,0.0234375,0.705078125,-0.42724609375,1.28173828125,-1.64794921875,1.3897705078125,46.3128662109375,-74.2181396484375
1758878278.2840285,-0.71923828125,0.0234375,0.705078125,-0.42724609375,1.28173828125,-1.64794921875,1.373291015625,46.351318359375,-74.2401123046875
1758878278.2945633,-0.70361328125,0.00732421875,0.71044921875,-0.244140625,0.67138671875,-2.01416015625,1.351318359375,46.3787841796875,-74.267578125
1758878278.3040738,-0.70361328125,0.00732421875,0.71044921875,-0.244140625,0.67138671875,-2.01416015625,1.329345703125,46.4007568359375,-74.2950439453125
1758878278.3140645,-0.7021484375,0.00732421875,0.71484375,-0.1220703125,0.1220703125,-2.13623046875,1.3128662109375,46.4227294921875,-74.322509765625
1758878278.324648,-0.7021484375,0.00732421875,0.71484375,-0.1220703125,0.1220703125,-2.13623046875,1.2908935546875,46.4337158203125,-74.3499755859375
1758878278.3341587,-0.7060546875,0.01708984375,0.70654296875,0.6103515625,-0.244140625,-2.38037109375,1.2689208984375,46.439208984375,-74.3829345703125
1758878278.3441687,-0.7060546875,0.01708984375,0.70654296875,0.6103515625,-0.244140625,-2.38037109375,1.25244140625,46.4447021484375,-74.4158935546875
1758878278.3547196,-0.712890625,0.01806640625,0.69384765625,1.28173828125,-0.54931640625,-2.5634765625,1.2359619140625,46.4501953125,-74.4488525390625
1758878278.3641458,-0.712890625,0.01806640625,0.69384765625,1.28173828125,-0.54931640625,-2.5634765625,1.2249755859375,46.4501953125,-74.4818115234375
1758878278.3741882,-0.71875,0.00830078125,0.693359375,1.28173828125,-0.9765625,-2.44140625,1.2139892578125,46.4447021484375,-74.5147705078125
1758878278.384567,-0.71875,0.00830078125,0.693359375,1.28173828125,-0.9765625,-2.44140625,1.197509765625,46.439208984375,-74.5477294921875
1758878278.394232,-0.71875,0.00830078125,0.693359375,1.220703125,-1.40380859375,-1.953125,1.1920166015625,46.42822265625,-74.5806884765625
1758878278.404291,-0.72021484375,0.0,0.68798828125,1.220703125,-1.40380859375,-1.953125,1.1810302734375,46.417236328125,-74.608154296875
1758878278.4142005,-0.72314453125,0.0009765625,0.68798828125,0.54931640625,-1.64794921875,-1.3427734375,1.1700439453125,46.40625,-74.630126953125
1758878278.424682,-0.72314453125,0.0009765625,0.68798828125,0.54931640625,-1.64794921875,-1.3427734375,1.1590576171875,46.395263671875,-74.652099609375
1758878278.4343357,-0.71875,0.00732421875,0.6884765625,0.30517578125,-1.46484375,-0.732421875,1.153564453125,46.3787841796875,-74.6630859375
1758878278.4445548,-0.71875,0.00732421875,0.6884765625,0.30517578125,-1.46484375,-0.732421875,1.1480712890625,46.3677978515625,-74.674072265625
1758878278.4548304,-0.7119140625,0.00439453125,0.705078125,-0.30517578125,-1.03759765625,-0.06103515625,1.142578125,46.3568115234375,-74.674072265625
1758878278.4642777,-0.7119140625,0.00439453125,0.705078125,-0.30517578125,-1.03759765625,-0.06103515625,1.1370849609375,46.3458251953125,-74.6795654296875
1758878278.4744945,-0.70556640625,0.0,0.716796875,-0.18310546875,-0.732421875,0.54931640625,1.1370849609375,46.34033203125,-74.6685791015625
1758878278.4846096,-0.70556640625,0.0,0.716796875,-0.18310546875,-0.732421875,0.54931640625,1.1370849609375,46.329345703125,-74.6630859375
1758878278.494383,-0.705078125,0.0009765625,0.71435546875,0.732421875,-0.67138671875,0.9765625,1.153564453125,46.3238525390625,-74.652099609375
1758878278.5048676,-0.705078125,0.0009765625,0.71435546875,0.732421875,-0.67138671875,0.9765625,1.16455078125,46.3128662109375,-74.64111328125
1758878278.5143688,-0.71044921875,0.00927734375,0.7021484375,0.8544921875,-0.54931640625,1.28173828125,1.1865234375,46.3018798828125,-74.6246337890625
1758878278.524667,-0.71044921875,0.00927734375,0.7021484375,0.8544921875,-0.54931640625,1.28173828125,1.2030029296875,46.29638671875,-74.608154296875
1758878278.5344386,-0.7119140625,0.013671875,0.697265625,0.0,-0.244140625,1.52587890625,1.2139892578125,46.285400390625,-74.5916748046875
1758878278.5448174,-0.7119140625,0.013671875,0.697265625,0.0,-0.244140625,1.52587890625,1.2249755859375,46.2799072265625,-74.5697021484375
1758878278.5547688,-0.7041015625,0.01513671875,0.70751953125,-0.3662109375,0.0,1.52587890625,1.2359619140625,46.2744140625,-74.5477294921875
1758878278.5644233,-0.7041015625,0.01513671875,0.70751953125,-0.3662109375,0.0,1.52587890625,1.2469482421875,46.2744140625,-74.5257568359375
1758878278.5744143,-0.69580078125,0.015625,0.72265625,-0.06103515625,0.06103515625,1.40380859375,1.2579345703125,46.2689208984375,-74.50927734375
1758878278.5849335,-0.69580078125,0.015625,0.72265625,-0.06103515625,0.06103515625,1.40380859375,1.2689208984375,46.263427734375,-74.4873046875
1758878278.5945876,-0.68798828125,0.017578125,0.7275390625,-0.54931640625,0.0,1.220703125,1.2744140625,46.25244140625,-74.4708251953125
1758878278.6045084,-0.68798828125,0.017578125,0.7275390625,-0.54931640625,0.0,1.220703125,1.2799072265625,46.2469482421875,-74.454345703125
1758878278.6146917,-0.68310546875,0.0146484375,0.73388671875,-1.0986328125,-0.30517578125,1.220703125,1.2799072265625,46.2359619140625,-74.432373046875
1758878278.6247532,-0.68310546875,0.0146484375,0.73388671875,-1.0986328125,-0.30517578125,1.220703125,1.2799072265625,46.219482421875,-74.4158935546875
1758878278.6345334,-0.67578125,0.01416015625,0.73876953125,-1.3427734375,-0.67138671875,1.0986328125,1.2744140625,46.2030029296875,-74.3994140625
1758878278.6445541,-0.67578125,0.01416015625,0.73876953125,-1.3427734375,-0.67138671875,1.0986328125,1.2689208984375,46.1810302734375,-74.37744140625
1758878278.654934,-0.677734375,0.01416015625,0.7470703125,-1.0986328125,-0.9765625,0.91552734375,1.2689208984375,46.1590576171875,-74.366455078125
1758878278.6645544,-0.677734375,0.01416015625,0.7470703125,-1.0986328125,-0.9765625,0.91552734375,1.263427734375,46.1370849609375,-74.3499755859375
1758878278.6745992,-0.66943359375,0.01953125,0.7451171875,-1.40380859375,-1.28173828125,0.48828125,1.25244140625,46.109619140625,-74.3389892578125
1758878278.6849658,-0.66943359375,0.01953125,0.7451171875,-1.40380859375,-1.28173828125,0.48828125,1.2469482421875,46.0821533203125,-74.3280029296875
1758878278.6946244,-0.64697265625,0.02490234375,0.7509765625,-1.28173828125,-2.13623046875,-0.06103515625,1.23046875,46.043701171875,-74.3280029296875
1758878278.7046425,-0.64697265625,0.02490234375,0.7509765625,-1.28173828125,-2.13623046875,-0.06103515625,1.219482421875,45.999755859375,-74.322509765625
1758878278.714676,-0.64453125,0.021484375,0.7802734375,-1.40380859375,-3.23486328125,-0.30517578125,1.197509765625,45.9503173828125,-74.322509765625
1758878278.725621,-0.64453125,0.021484375,0.7802734375,-1.40380859375,-3.23486328125,-0.30517578125,1.1810302734375,45.8953857421875,-74.322509765625
1758878278.734721,-0.63720703125,0.005859375,0.79345703125,-2.38037109375,-4.57763671875,-0.06103515625,1.1590576171875,45.8294677734375,-74.3170166015625
1758878278.7451947,-0.63720703125,0.005859375,0.79345703125,-2.38037109375,-4.57763671875,-0.06103515625,1.131591796875,45.758056640625,-74.3115234375
1758878278.7551353,-0.64453125,-0.01318359375,0.76708984375,-1.77001953125,-5.37109375,0.1220703125,1.1151123046875,45.68115234375,-74.3060302734375
1758878278.7647512,-0.64453125,-0.01318359375,0.76708984375,-1.77001953125,-5.37109375,0.1220703125,1.0986328125,45.5987548828125,-74.3060302734375
1758878278.7747118,-0.63720703125,-0.00439453125,0.7607421875,3.35693359375,-5.92041015625,-0.1220703125,1.1260986328125,45.516357421875,-74.3060302734375
1758878278.7849948,-0.63720703125,-0.00439453125,0.7607421875,3.35693359375,-5.92041015625,-0.1220703125,1.153564453125,45.428466796875,-74.3060302734375
1758878278.7950716,-0.6640625,0.01220703125,0.7548828125,7.62939453125,-5.859375,-0.67138671875,1.219482421875,45.3460693359375,-74.3170166015625
1758878278.8047264,-0.6640625,0.01220703125,0.7548828125,7.62939453125,-5.859375,-0.67138671875,1.2799072265625,45.263671875,-74.3280029296875
1758878278.8148022,-0.66650390625,0.03125,0.73828125,10.3759765625,-5.43212890625,-1.52587890625,1.3623046875,45.1812744140625,-74.344482421875
1758878278.825017,-0.66650390625,0.03125,0.73828125,10.3759765625,-5.43212890625,-1.52587890625,1.4501953125,45.1043701171875,-74.366455078125
1758878278.8347933,-0.666015625,0.0048828125,0.70458984375,15.56396484375,-4.45556640625,-2.8076171875,1.571044921875,45.0384521484375,-74.4049072265625
1758878278.8448586,-0.666015625,0.0048828125,0.70458984375,15.56396484375,-4.45556640625,-2.8076171875,1.69189453125,44.97802734375,-74.4488525390625
1758878278.8552473,-0.67578125,0.001953125,0.6630859375,18.6767578125,-2.8076171875,-3.7841796875,1.834716796875,44.93408203125,-74.5037841796875
1758878278.864838,-0.67578125,0.001953125,0.6630859375,18.6767578125,-2.8076171875,-3.7841796875,1.9775390625,44.89013671875,-74.5587158203125
1758878278.874847,-0.7177734375,0.021484375,0.68115234375,21.91162109375,-1.708984375,-4.57763671875,2.142333984375,44.8626708984375,-74.630126953125
1758878278.8850653,-0.7177734375,0.021484375,0.68115234375,21.91162109375,-1.708984375,-4.57763671875,2.30712890625,44.835205078125,-74.696044921875
1758878278.895297,-0.7529296875,0.04052734375,0.73291015625,21.30126953125,-1.708984375,-5.18798828125,2.4554443359375,44.813232421875,-74.7784423828125
1758878278.9048402,-0.7529296875,0.04052734375,0.73291015625,21.30126953125,-1.708984375,-5.18798828125,2.6092529296875,44.791259765625,-74.8553466796875
1758878278.9148805,-0.7734375,0.06396484375,0.72607421875,11.77978515625,-2.74658203125,-5.126953125,2.669677734375,44.75830078125,-74.9267578125
1758878278.9252982,-0.7734375,0.06396484375,0.72607421875,11.77978515625,-2.74658203125,-5.126953125,2.7301025390625,44.7308349609375,-75.003662109375
1758878278.934964,-0.755859375,0.07763671875,0.69140625,-1.77001953125,-3.72314453125,-4.150390625,2.669677734375,44.6923828125,-75.0640869140625
1758878278.9449677,-0.755859375,0.07763671875,0.69140625,-1.77001953125,-3.72314453125,-4.150390625,2.6092529296875,44.659423828125,-75.1190185546875
1758878278.955343,-0.74169921875,0.03515625,0.6279296875,-2.44140625,-3.60107421875,-3.47900390625,2.548828125,44.62646484375,-75.16845703125
1758878278.9650104,-0.74169921875,0.03515625,0.6279296875,-2.44140625,-3.60107421875,-3.47900390625,2.493896484375,44.5989990234375,-75.21240234375
1758878278.9752975,-0.7568359375,-0.02587890625,0.6201171875,0.244140625,-2.99072265625,-2.9296875,2.4664306640625,44.58251953125,-75.25634765625
1758878278.985097,-0.7568359375,-0.02587890625,0.6201171875,0.244140625,-2.99072265625,-2.9296875,2.4334716796875,44.5660400390625,-75.30029296875
1758878278.995039,-0.75830078125,-0.01953125,0.6376953125,5.92041015625,-1.77001953125,-2.685546875,2.4609375,44.560546875,-75.34423828125
1758878279.0049794,-0.75830078125,-0.01953125,0.6376953125,5.92041015625,-1.77001953125,-2.685546875,2.4884033203125,44.560546875,-75.3936767578125
1758878279.0153277,-0.755859375,0.0166015625,0.67236328125,11.77978515625,-0.42724609375,-2.50244140625,2.5762939453125,44.571533203125,-75.4376220703125
1758878279.0254433,-0.755859375,0.0166015625,0.67236328125,11.77978515625,-0.42724609375,-2.50244140625,2.65869140625,44.5880126953125,-75.4815673828125
1758878279.0350375,-0.751953125,0.04150390625,0.6875,11.5966796875,1.3427734375,-2.01416015625,2.7520751953125,44.6209716796875,-75.5145263671875
1758878279.045102,-0.751953125,0.04150390625,0.6875,11.5966796875,1.3427734375,-2.01416015625,2.8399658203125,44.6484375,-75.552978515625
1758878279.055595,-0.74853515625,0.044921875,0.6748046875,9.033203125,3.2958984375,-1.708984375,2.911376953125,44.703369140625,-75.5804443359375
1758878279.0651448,-0.74853515625,0.044921875,0.6748046875,9.033203125,3.2958984375,-1.708984375,2.9827880859375,44.7528076171875,-75.60791015625
1758878279.0751252,-0.74755859375,0.03369140625,0.681640625,6.9580078125,5.2490234375,-1.46484375,3.0322265625,44.82421875,-75.6298828125
1758878279.0854635,-0.74755859375,0.03369140625,0.681640625,6.9580078125,5.2490234375,-1.46484375,3.087158203125,44.89013671875,-75.65185546875
1758878279.0951574,-0.71826171875,0.0400390625,0.67578125,6.89697265625,6.77490234375,-1.52587890625,3.14208984375,44.9725341796875,-75.673828125
1758878279.1051266,-0.71826171875,0.0400390625,0.67578125,6.89697265625,6.77490234375,-1.52587890625,3.1915283203125,45.0604248046875,-75.69580078125
1758878279.115195,-0.70361328125,0.0458984375,0.705078125,7.32421875,7.568359375,-1.52587890625,3.251953125,45.1483154296875,-75.7122802734375
1758878279.1255596,-0.70361328125,0.0458984375,0.705078125,7.32421875,7.568359375,-1.52587890625,3.3123779296875,45.2362060546875,-75.7342529296875
1758878279.1352296,-0.6953125,0.04052734375,0.7236328125,5.06591796875,7.4462890625,-0.91552734375,3.350830078125,45.318603515625,-75.7452392578125
1758878279.1452262,-0.6953125,0.04052734375,0.7236328125,5.06591796875,7.4462890625,-0.91552734375,3.394775390625,45.4010009765625,-75.750732421875
1758878279.155539,-0.689453125,0.03759765625,0.72021484375,3.173828125,7.080078125,0.0,3.427734375,45.472412109375,-75.750732421875
1758878279.1652255,-0.689453125,0.03759765625,0.72021484375,3.173828125,7.080078125,0.0,3.460693359375,45.5438232421875,-75.7452392578125
1758878279.1752973,-0.68896484375,0.0322265625,0.705078125,1.3427734375,6.4697265625,0.79345703125,3.482666015625,45.6097412109375,-75.728759765625
1758878279.185494,-0.68896484375,0.0322265625,0.705078125,1.3427734375,6.4697265625,0.79345703125,3.504638671875,45.6756591796875,-75.7177734375
1758878279.1955392,-0.6875,0.033203125,0.7080078125,0.8544921875,5.67626953125,1.40380859375,3.526611328125,45.7305908203125,-75.69580078125
1758878279.2052402,-0.6875,0.033203125,0.7080078125,0.8544921875,5.67626953125,1.40380859375,3.548583984375,45.7855224609375,-75.673828125
1758878279.2152667,-0.6826171875,0.04150390625,0.70849609375,1.40380859375,5.31005859375,1.89208984375,3.58154296875,45.8294677734375,-75.6463623046875
1758878279.2259257,-0.6826171875,0.04150390625,0.70849609375,1.40380859375,5.31005859375,1.89208984375,3.6090087890625,45.87890625,-75.618896484375
1758878279.2352927,-0.67333984375,0.04248046875,0.73095703125,0.42724609375,5.0048828125,2.197265625,3.636474609375,45.9228515625,-75.5859375
1758878279.2453954,-0.67333984375,0.04248046875,0.73095703125,0.42724609375,5.0048828125,2.197265625,3.6639404296875,45.9613037109375,-75.552978515625
1758878279.25567,-0.671875,0.04443359375,0.73974609375,0.8544921875,4.7607421875,2.3193359375,3.6968994140625,45.999755859375,-75.52001953125
1758878279.2654371,-0.671875,0.04443359375,0.73974609375,0.8544921875,4.7607421875,2.3193359375,3.724365234375,46.03271484375,-75.4815673828125
1758878279.2754655,-0.6767578125,0.0439453125,0.7275390625,-0.79345703125,4.21142578125,2.44140625,3.7408447265625,46.0601806640625,-75.443115234375
1758878279.2854323,-0.6767578125,0.0439453125,0.7275390625,-0.79345703125,4.21142578125,2.44140625,3.75732421875,46.087646484375,-75.41015625
1758878279.2957473,-0.6806640625,0.04931640625,0.7109375,-0.8544921875,3.5400390625,2.01416015625,3.768310546875,46.109619140625,-75.377197265625
1758878279.3054037,-0.6806640625,0.04931640625,0.7109375,-0.8544921875,3.5400390625,2.01416015625,3.779296875,46.131591796875,-75.34423828125
1758878279.3154347,-0.69140625,0.04931640625,0.69775390625,0.732421875,3.47900390625,1.0986328125,3.80126953125,46.1480712890625,-75.3277587890625
1758878279.3263752,-0.69140625,0.04931640625,0.69775390625,0.732421875,3.47900390625,1.0986328125,3.8177490234375,46.1700439453125,-75.3057861328125
1758878279.3369384,-0.70068359375,0.0576171875,0.70263671875,-1.89208984375,3.41796875,0.42724609375,3.8067626953125,46.1920166015625,-75.2947998046875
1758878279.3454454,-0.70068359375,0.0576171875,0.70263671875,-1.89208984375,3.41796875,0.42724609375,3.790283203125,46.2139892578125,-75.2838134765625
1758878279.3554945,-0.7255859375,0.06591796875,0.7060546875,-7.38525390625,3.5400390625,0.30517578125,3.724365234375,46.2359619140625,-75.2783203125
1758878279.3657534,-0.7255859375,0.06591796875,0.7060546875,-7.38525390625,3.5400390625,0.30517578125,3.658447265625,46.263427734375,-75.2618408203125
1758878279.3755,-0.751953125,0.07275390625,0.7099609375,-14.0380859375,3.11279296875,0.244140625,3.526611328125,46.2799072265625,-75.2508544921875
1758878279.3855295,-0.751953125,0.07275390625,0.7099609375,-14.0380859375,3.11279296875,0.244140625,3.394775390625,46.3018798828125,-75.2398681640625
1758878279.3959365,-0.76025390625,0.05615234375,0.66455078125,-17.2119140625,2.44140625,0.0,3.22998046875,46.3238525390625,-75.2288818359375
1758878279.4055166,-0.76025390625,0.05615234375,0.66455078125,-17.2119140625,2.44140625,0.0,3.065185546875,46.34033203125,-75.2178955078125
1758878279.4155219,-0.76416015625,0.04736328125,0.625,-18.37158203125,1.953125,0.18310546875,2.8948974609375,46.3568115234375,-75.2069091796875
1758878279.4259372,-0.76416015625,0.04736328125,0.625,-18.37158203125,1.953125,0.18310546875,2.724609375,46.3787841796875,-75.1904296875
1758878279.4356117,-0.78466796875,0.03662109375,0.6513671875,-18.6767578125,2.5634765625,0.48828125,2.5543212890625,46.40625,-75.1739501953125
1758878279.445672,-0.7763671875,0.013671875,0.64892578125,-18.12744140625,3.2958984375,0.9765625,2.3895263671875,46.439208984375,-75.1519775390625
1758878279.4560158,-0.7763671875,0.013671875,0.64892578125,-18.12744140625,3.2958984375,0.9765625,2.230224609375,46.4776611328125,-75.1300048828125
1758878279.4657667,-0.7626953125,0.01513671875,0.63671875,-15.9912109375,2.99072265625,0.6103515625,2.076416015625,46.51611328125,-75.1080322265625
1758878279.4756267,-0.7626953125,0.01513671875,0.63671875,-15.9912109375,2.99072265625,0.6103515625,1.93359375,46.5545654296875,-75.091552734375
1758878279.4857554,-0.7412109375,0.03076171875,0.6396484375,-12.63427734375,2.50244140625,0.3662109375,1.8072509765625,46.5875244140625,-75.08056640625
1758878279.4960122,-0.7412109375,0.03076171875,0.6396484375,-12.63427734375,2.50244140625,0.3662109375,1.69189453125,46.6259765625,-75.0640869140625
1758878279.50566,-0.755859375,0.009765625,0.67724609375,-12.8173828125,1.953125,0.91552734375,1.58203125,46.658935546875,-75.047607421875
1758878279.5156236,-0.755859375,0.009765625,0.67724609375,-12.8173828125,1.953125,0.91552734375,1.47216796875,46.6864013671875,-75.0311279296875
1758878279.5268662,-0.75830078125,-0.00732421875,0.6640625,-10.92529296875,1.15966796875,1.46484375,1.373291015625,46.7083740234375,-75.003662109375
1758878279.535662,-0.75830078125,-0.00732421875,0.6640625,-10.92529296875,1.15966796875,1.46484375,1.285400390625,46.7303466796875,-74.981689453125
1758878279.5457225,-0.7451171875,-0.01611328125,0.63818359375,-6.2255859375,0.0,1.52587890625,1.219482421875,46.746826171875,-74.9542236328125
1758878279.556004,-0.7451171875,-0.01611328125,0.63818359375,-6.2255859375,0.0,1.52587890625,1.175537109375,46.7578125,-74.9322509765625
1758878279.5657244,-0.734375,0.0048828125,0.6474609375,-4.08935546875,-0.91552734375,1.28173828125,1.142578125,46.7633056640625,-74.915771484375
1758878279.5757043,-0.734375,0.0048828125,0.6474609375,-4.08935546875,-0.91552734375,1.28173828125,1.1151123046875,46.7633056640625,-74.8992919921875
1758878279.5861003,-0.734375,0.0048828125,0.6474609375,-2.01416015625,-2.01416015625,0.67138671875,1.0986328125,46.7578125,-74.8828125
1758878279.595804,-0.736328125,0.0224609375,0.6865234375,-2.01416015625,-2.01416015625,0.67138671875,1.087646484375,46.746826171875,-74.871826171875
1758878279.6057785,-0.7314453125,0.02197265625,0.69140625,1.77001953125,-2.9296875,0.1220703125,1.087646484375,46.73583984375,-74.8663330078125
1758878279.6161268,-0.7314453125,0.02197265625,0.69140625,1.77001953125,-2.9296875,0.1220703125,1.109619140625,46.7138671875,-74.8663330078125
1758878279.6263573,-0.72021484375,0.02099609375,0.66357421875,5.9814453125,-3.60107421875,-0.79345703125,1.1480712890625,46.6864013671875,-74.871826171875
1758878279.636075,-0.72021484375,0.02099609375,0.66357421875,5.9814453125,-3.60107421875,-0.79345703125,1.197509765625,46.658935546875,-74.8828125
1758878279.6460974,-0.71728515625,0.009765625,0.6875,7.75146484375,-3.662109375,-1.40380859375,1.2579345703125,46.6314697265625,-74.893798828125
1758878279.6558754,-0.71728515625,0.009765625,0.6875,7.75146484375,-3.662109375,-1.40380859375,1.318359375,46.5985107421875,-74.915771484375
1758878279.66583,-0.71044921875,0.00341796875,0.71484375,8.97216796875,-3.2958984375,-1.77001953125,1.38427734375,46.571044921875,-74.937744140625
1758878279.675828,-0.71044921875,0.00341796875,0.71484375,8.97216796875,-3.2958984375,-1.77001953125,1.4556884765625,46.5435791015625,-74.9652099609375
1758878279.6859865,-0.6884765625,0.005859375,0.71533203125,11.8408203125,-3.23486328125,-2.62451171875,1.5325927734375,46.5106201171875,-74.9981689453125
1758878279.695916,-0.6884765625,0.005859375,0.71533203125,11.8408203125,-3.23486328125,-2.62451171875,1.6204833984375,46.483154296875,-75.03662109375
1758878279.7059507,-0.6640625,0.017578125,0.724609375,15.625,-3.41796875,-3.72314453125,1.7193603515625,46.4501953125,-75.0860595703125
1758878279.7163649,-0.6640625,0.017578125,0.724609375,15.625,-3.41796875,-3.72314453125,1.8292236328125,46.4117431640625,-75.1409912109375
1758878279.7260714,-0.63037109375,0.02978515625,0.74267578125,18.798828125,-3.90625,-4.638671875,1.95556640625,46.373291015625,-75.2069091796875
1758878279.7359343,-0.63037109375,0.02978515625,0.74267578125,18.798828125,-3.90625,-4.638671875,2.08740234375,46.329345703125,-75.2728271484375
1758878279.745979,-0.587890625,0.02734375,0.77392578125,19.775390625,-4.638671875,-4.94384765625,2.2247314453125,46.2744140625,-75.34423828125
1758878279.7562957,-0.587890625,0.02734375,0.77392578125,19.775390625,-4.638671875,-4.94384765625,2.362060546875,46.219482421875,-75.4156494140625
1758878279.7659848,-0.5439453125,0.01904296875,0.79248046875,20.08056640625,-5.55419921875,-4.8828125,2.4993896484375,46.153564453125,-75.487060546875
1758878279.7759478,-0.5439453125,0.01904296875,0.79248046875,20.08056640625,-5.55419921875,-4.8828125,2.6422119140625,46.07666015625,-75.5584716796875
1758878279.786024,-0.5234375,0.00390625,0.81591796875,21.17919921875,-6.53076171875,-4.2724609375,2.79052734375,45.98876953125,-75.6298828125
1758878279.7959588,-0.5234375,0.00390625,0.81591796875,21.17919921875,-6.53076171875,-4.2724609375,2.9443359375,45.8953857421875,-75.69580078125
1758878279.8059804,-0.5595703125,0.00830078125,0.8515625,19.83642578125,-6.89697265625,-4.08935546875,3.087158203125,45.7965087890625,-75.76171875
1758878279.81626,-0.5595703125,0.00830078125,0.8515625,19.83642578125,-6.89697265625,-4.08935546875,3.22998046875,45.692138671875,-75.82763671875
1758878279.8261764,-0.60986328125,0.05517578125,0.82666015625,13.3056640625,-6.04248046875,-3.47900390625,3.33984375,45.5877685546875,-75.8880615234375
1758878279.8360364,-0.60986328125,0.05517578125,0.82666015625,13.3056640625,-6.04248046875,-3.47900390625,3.4222412109375,45.4833984375,-75.9429931640625
1758878279.8460999,-0.64990234375,0.0986328125,0.84716796875,1.28173828125,-4.2724609375,-2.86865234375,3.44970703125,45.3900146484375,-75.992431640625
1758878279.8560975,-0.64990234375,0.0986328125,0.84716796875,1.28173828125,-4.2724609375,-2.86865234375,3.4222412109375,45.3076171875,-76.0308837890625
1758878279.8661337,-0.74853515625,0.08154296875,0.81298828125,-9.58251953125,-2.50244140625,-2.50244140625,3.3453369140625,45.2362060546875,-76.0638427734375
1758878279.8761115,-0.74853515625,0.08154296875,0.81298828125,-9.58251953125,-2.50244140625,-2.50244140625,3.2244873046875,45.1702880859375,-76.09130859375
1758878279.8864264,-0.7666015625,0.02978515625,0.7578125,-14.46533203125,-3.173828125,-2.01416015625,3.0816650390625,45.10986328125,-76.11328125
1758878279.8962383,-0.7666015625,0.02978515625,0.7578125,-14.46533203125,-3.173828125,-2.01416015625,2.9168701171875,45.0494384765625,-76.1297607421875
1758878279.90611,-0.6953125,0.0341796875,0.642578125,-12.63427734375,-2.74658203125,-0.9765625,2.7685546875,44.989013671875,-76.146240234375
1758878279.9161248,-0.6953125,0.0341796875,0.642578125,-12.63427734375,-2.74658203125,-0.9765625,2.6312255859375,44.9395751953125,-76.1517333984375
1758878279.9266973,-0.70068359375,-0.00146484375,0.6162109375,-1.220703125,-1.77001953125,0.0,2.559814453125,44.8956298828125,-76.1517333984375
1758878279.9361255,-0.70068359375,-0.00146484375,0.6162109375,-1.220703125,-1.77001953125,0.0,2.548828125,44.8626708984375,-76.146240234375
1758878279.9462366,-0.734375,-0.02197265625,0.65966796875,9.94873046875,-1.3427734375,0.18310546875,2.5927734375,44.835205078125,-76.146240234375
1758878279.9564373,-0.734375,-0.02197265625,0.65966796875,9.94873046875,-1.3427734375,0.18310546875,2.6861572265625,44.813232421875,-76.146240234375
1758878279.9662588,-0.77294921875,-0.001953125,0.70361328125,9.8876953125,-1.3427734375,0.3662109375,2.7850341796875,44.7967529296875,-76.146240234375
1758878279.9762552,-0.77294921875,-0.001953125,0.70361328125,9.8876953125,-1.3427734375,0.3662109375,2.87841796875,44.7747802734375,-76.1517333984375
1758878279.986617,-0.75439453125,0.06884765625,0.65478515625,-3.41796875,-1.46484375,1.52587890625,2.911376953125,44.7637939453125,-76.146240234375
1758878279.9962583,-0.75439453125,0.06884765625,0.65478515625,-3.41796875,-1.46484375,1.52587890625,2.8839111328125,44.747314453125,-76.1297607421875
1758878280.006261,-0.7353515625,0.119140625,0.61181640625,-12.20703125,-0.54931640625,2.197265625,2.823486328125,44.7418212890625,-76.1077880859375
1758878280.0166886,-0.7353515625,0.119140625,0.61181640625,-12.20703125,-0.54931640625,2.197265625,2.724609375,44.7418212890625,-76.0748291015625
1758878280.0263107,-0.75244140625,0.0908203125,0.6337890625,-23.3154296875,0.0,3.0517578125,2.5762939453125,44.747314453125,-76.0308837890625
1758878280.0362442,-0.75244140625,0.0908203125,0.6337890625,-23.3154296875,0.0,3.0517578125,2.384033203125,44.7528076171875,-75.9814453125
1758878280.046392,-0.75634765625,0.05029296875,0.65771484375,-33.87451171875,0.48828125,3.60107421875,2.1478271484375,44.769287109375,-75.9210205078125
1758878280.0568411,-0.75634765625,0.05029296875,0.65771484375,-33.87451171875,0.48828125,3.60107421875,1.856689453125,44.7857666015625,-75.8551025390625
1758878280.066374,-0.76025390625,0.025390625,0.64453125,-38.51318359375,0.9765625,3.5400390625,1.549072265625,44.8077392578125,-75.794677734375
1758878280.0764058,-0.76025390625,0.025390625,0.64453125,-38.51318359375,0.9765625,3.5400390625,1.2139892578125,44.835205078125,-75.728759765625
1758878280.086633,-0.75341796875,0.02734375,0.6328125,-38.87939453125,1.52587890625,3.5400390625,0.87890625,44.8626708984375,-75.6683349609375
1758878280.0965726,-0.75341796875,0.02734375,0.6328125,-38.87939453125,1.52587890625,3.5400390625,0.5438232421875,44.8956298828125,-75.60791015625
1758878280.106382,-0.7568359375,-0.0009765625,0.66259765625,-29.4189453125,1.89208984375,3.23486328125,0.2581787109375,44.93408203125,-75.5419921875
1758878280.116417,-0.7568359375,-0.0009765625,0.66259765625,-29.4189453125,1.89208984375,3.23486328125,0.010986328125,44.9725341796875,-75.487060546875
1758878280.1269894,-0.748046875,-0.03955078125,0.66259765625,-18.12744140625,1.8310546875,2.5634765625,-0.17578125,45.010986328125,-75.4376220703125
1758878280.1363933,-0.748046875,-0.03955078125,0.66259765625,-18.12744140625,1.8310546875,2.5634765625,-0.3131103515625,45.0439453125,-75.3936767578125
1758878280.1465144,-0.73291015625,-0.03759765625,0.64794921875,-9.70458984375,1.52587890625,1.953125,-0.41748046875,45.0823974609375,-75.355224609375
1758878280.1567628,-0.73291015625,-0.03759765625,0.64794921875,-9.70458984375,1.52587890625,1.953125,-0.4888916015625,45.1153564453125,-75.322265625
1758878280.1665363,-0.7470703125,-0.025390625,0.705078125,-7.14111328125,1.40380859375,1.77001953125,-0.5438232421875,45.15380859375,-75.2947998046875
1758878280.1765018,-0.7470703125,-0.025390625,0.705078125,-7.14111328125,1.40380859375,1.77001953125,-0.59326171875,45.1812744140625,-75.267333984375
1758878280.18662,-0.755859375,-0.0029296875,0.73583984375,-6.591796875,1.5869140625,1.89208984375,-0.63720703125,45.2142333984375,-75.2398681640625
1758878280.1965196,-0.755859375,-0.0029296875,0.73583984375,-6.591796875,1.5869140625,1.89208984375,-0.6756591796875,45.2471923828125,-75.21240234375
1758878280.206505,-0.724609375,0.0,0.68359375,-3.90625,1.64794921875,1.64794921875,-0.7086181640625,45.274658203125,-75.1849365234375
1758878280.2168448,-0.724609375,0.0,0.68359375,-3.90625,1.64794921875,1.64794921875,-0.72509765625,45.3076171875,-75.157470703125
1758878280.2270613,-0.71826171875,-0.0126953125,0.66650390625,-3.60107421875,1.40380859375,0.91552734375,-0.7415771484375,45.3350830078125,-75.1409912109375
1758878280.2365553,-0.71826171875,-0.0126953125,0.66650390625,-3.60107421875,1.40380859375,0.91552734375,-0.76904296875,45.362548828125,-75.12451171875
1758878280.2465997,-0.74609375,-0.00537109375,0.67724609375,3.35693359375,1.8310546875,-0.18310546875,-0.758056640625,45.3900146484375,-75.1190185546875
1758878280.2570968,-0.74609375,-0.00537109375,0.67724609375,3.35693359375,1.8310546875,-0.18310546875,-0.72509765625,45.41748046875,-75.1190185546875
1758878280.2666616,-0.751953125,-0.0263671875,0.666015625,11.29150390625,2.44140625,-0.9765625,-0.6536865234375,45.450439453125,-75.12451171875
1758878280.2767408,-0.751953125,-0.0263671875,0.666015625,11.29150390625,2.44140625,-0.9765625,-0.54931640625,45.4888916015625,-75.1409912109375
1758878280.286833,-0.7333984375,-0.03515625,0.64453125,12.75634765625,2.3193359375,-1.3427734375,-0.4449462890625,45.52734375,-75.157470703125
1758878280.2966638,-0.7333984375,-0.03515625,0.64453125,12.75634765625,2.3193359375,-1.3427734375,-0.32958984375,45.560302734375,-75.179443359375
1758878280.3067691,-0.74365234375,-0.02490234375,0.6708984375,16.29638671875,2.13623046875,-1.708984375,-0.208740234375,45.5987548828125,-75.2069091796875
1758878280.316635,-0.74365234375,-0.02490234375,0.6708984375,16.29638671875,2.13623046875,-1.708984375,-0.06591796875,45.6317138671875,-75.2398681640625
1758878280.3270285,-0.74267578125,0.0,0.6875,16.29638671875,1.220703125,-1.52587890625,0.06591796875,45.6646728515625,-75.2728271484375
1758878280.3367434,-0.74267578125,0.0,0.6875,16.29638671875,1.220703125,-1.52587890625,0.208740234375,45.6866455078125,-75.30029296875
1758878280.3468084,-0.7314453125,0.01513671875,0.68701171875,15.13671875,0.79345703125,-1.5869140625,0.340576171875,45.7086181640625,-75.333251953125
1758878280.3572571,-0.7314453125,0.01513671875,0.68701171875,15.13671875,0.79345703125,-1.5869140625,0.472412109375,45.7305908203125,-75.3607177734375
1758878280.366784,-0.72802734375,0.0107421875,0.68896484375,13.12255859375,0.3662109375,-1.03759765625,0.59326171875,45.7470703125,-75.3826904296875
1758878280.3767962,-0.72802734375,0.0107421875,0.68896484375,13.12255859375,0.3662109375,-1.03759765625,0.7086181640625,45.758056640625,-75.4046630859375
1758878280.3868525,-0.73681640625,0.0,0.69677734375,11.1083984375,0.30517578125,-0.8544921875,0.81298828125,45.7745361328125,-75.4266357421875
1758878280.3967757,-0.73681640625,0.0,0.69677734375,11.1083984375,0.30517578125,-0.8544921875,0.9063720703125,45.7855224609375,-75.443115234375
1758878280.406799,-0.7392578125,0.01171875,0.68408203125,9.765625,0.3662109375,-1.3427734375,0.9942626953125,45.7965087890625,-75.465087890625
1758878280.4167216,-0.7392578125,0.01171875,0.68408203125,9.765625,0.3662109375,-1.3427734375,1.0711669921875,45.8074951171875,-75.4925537109375
1758878280.4271479,-0.7490234375,0.0400390625,0.7060546875,5.18798828125,0.42724609375,-1.77001953125,1.1260986328125,45.823974609375,-75.52001953125
1758878280.4367762,-0.7490234375,0.0400390625,0.7060546875,5.18798828125,0.42724609375,-1.77001953125,1.153564453125,45.8349609375,-75.5474853515625
1758878280.4468684,-0.7392578125,0.0615234375,0.72021484375,-0.48828125,0.6103515625,-2.13623046875,1.153564453125,45.845947265625,-75.574951171875
1758878280.457253,-0.7392578125,0.0615234375,0.72021484375,-0.48828125,0.6103515625,-2.13623046875,1.1260986328125,45.8624267578125,-75.60791015625
1758878280.466877,-0.7421875,0.0302734375,0.71826171875,-5.615234375,0.8544921875,-1.64794921875,1.0546875,45.8734130859375,-75.6298828125
1758878280.4768467,-0.7421875,0.0302734375,0.71826171875,-5.615234375,0.8544921875,-1.64794921875,0.9832763671875,45.889892578125,-75.6463623046875
1758878280.4870067,-0.748046875,-0.0107421875,0.66015625,-9.46044921875,1.5869140625,-1.220703125,0.87890625,45.911865234375,-75.662841796875
1758878280.4969108,-0.748046875,-0.0107421875,0.66015625,-9.46044921875,1.5869140625,-1.220703125,0.7745361328125,45.933837890625,-75.6793212890625
1758878280.5069118,-0.7666015625,-0.02392578125,0.6416015625,-7.32421875,2.9296875,-0.8544921875,0.6976318359375,45.9722900390625,-75.6903076171875
1758878280.5169063,-0.7666015625,-0.02392578125,0.6416015625,-7.32421875,2.9296875,-0.8544921875,0.615234375,46.0107421875,-75.7012939453125
1758878280.5280516,-0.76806640625,-0.01123046875,0.6376953125,-1.89208984375,4.638671875,-0.8544921875,0.582275390625,46.065673828125,-75.7177734375
1758878280.5370922,-0.76806640625,-0.01123046875,0.6376953125,-1.89208984375,4.638671875,-0.8544921875,0.5548095703125,46.1260986328125,-75.7342529296875
1758878280.547131,-0.7587890625,0.005859375,0.64794921875,0.1220703125,6.04248046875,-0.8544921875,0.54931640625,46.197509765625,-75.750732421875
1758878280.557368,-0.7587890625,0.005859375,0.64794921875,0.1220703125,6.04248046875,-0.8544921875,0.538330078125,46.2689208984375,-75.76171875
1758878280.5670102,-0.7626953125,0.01025390625,0.671875,0.30517578125,7.080078125,-0.6103515625,0.5328369140625,46.3568115234375,-75.772705078125
1758878280.5769975,-0.7626953125,0.01025390625,0.671875,0.30517578125,7.080078125,-0.6103515625,0.5328369140625,46.439208984375,-75.78369140625
1758878280.5871255,-0.7626953125,0.01025390625,0.671875,-0.48828125,6.591796875,-0.1220703125,0.5218505859375,46.51611328125,-75.7891845703125
1758878280.5970278,-0.720703125,-0.00048828125,0.662109375,-0.48828125,6.591796875,-0.1220703125,0.516357421875,46.5875244140625,-75.7891845703125
1758878280.6070294,-0.7509765625,-0.00244140625,0.7041015625,-1.8310546875,6.16455078125,0.91552734375,0.50537109375,46.658935546875,-75.7781982421875
1758878280.6174526,-0.7509765625,-0.00244140625,0.7041015625,-1.8310546875,6.16455078125,0.91552734375,0.4998779296875,46.7303466796875,-75.7672119140625
1758878280.6274145,-0.70849609375,-0.01611328125,0.66162109375,-2.197265625,5.37109375,2.01416015625,0.494384765625,46.790771484375,-75.73974609375
1758878280.6370814,-0.70849609375,-0.01611328125,0.66162109375,-2.197265625,5.37109375,2.01416015625,0.494384765625,46.8511962890625,-75.7177734375
1758878280.6471014,-0.7421875,-0.0029296875,0.69873046875,-2.99072265625,4.5166015625,2.8076171875,0.4888916015625,46.900634765625,-75.6793212890625
1758878280.6571586,-0.7421875,-0.0029296875,0.69873046875,-2.99072265625,4.5166015625,2.8076171875,0.4888916015625,46.9500732421875,-75.640869140625
1758878280.6671188,-0.73388671875,0.00732421875,0.67041015625,-1.89208984375,4.5166015625,3.23486328125,0.4998779296875,46.99951171875,-75.596923828125
1758878280.677109,-0.73388671875,0.00732421875,0.67041015625,-1.89208984375,4.5166015625,3.23486328125,0.5108642578125,47.04345703125,-75.552978515625
1758878280.687456,-0.73974609375,0.00634765625,0.67919921875,-3.7841796875,4.21142578125,3.47900390625,0.5108642578125,47.0928955078125,-75.5035400390625
1758878280.697506,-0.73974609375,0.00634765625,0.67919921875,-3.7841796875,4.21142578125,3.47900390625,0.50537109375,47.1368408203125,-75.4595947265625
1758878280.7071908,-0.7421875,0.00244140625,0.67578125,-7.01904296875,4.150390625,3.662109375,0.4779052734375,47.1807861328125,-75.4046630859375
1758878280.71715,-0.7421875,0.00244140625,0.67578125,-7.01904296875,4.150390625,3.662109375,0.4449462890625,47.21923828125,-75.355224609375
1758878280.72777,-0.7314453125,0.01611328125,0.6708984375,-7.2021484375,3.7841796875,3.11279296875,0.406494140625,47.26318359375,-75.311279296875
1758878280.7371912,-0.7314453125,0.01611328125,0.6708984375,-7.2021484375,3.7841796875,3.11279296875,0.3680419921875,47.3016357421875,-75.267333984375
1758878280.747228,-0.7314453125,0.02001953125,0.67333984375,-6.53076171875,3.96728515625,2.62451171875,0.32958984375,47.340087890625,-75.2288818359375
1758878280.7575636,-0.7314453125,0.02001953125,0.67333984375,-6.53076171875,3.96728515625,2.62451171875,0.296630859375,47.384033203125,-75.1849365234375
1758878280.7675912,-0.720703125,0.0087890625,0.693359375,-7.01904296875,4.0283203125,2.13623046875,0.252685546875,47.4224853515625,-75.1519775390625
1758878280.7772334,-0.720703125,0.0087890625,0.693359375,-7.01904296875,4.0283203125,2.13623046875,0.208740234375,47.4609375,-75.1190185546875
1758878280.7872994,-0.71044921875,-0.0068359375,0.71875,-5.7373046875,3.96728515625,1.708984375,0.1702880859375,47.4993896484375,-75.091552734375
1758878280.7972934,-0.71044921875,-0.0068359375,0.71875,-5.7373046875,3.96728515625,1.708984375,0.1318359375,47.5323486328125,-75.0640869140625
1758878280.807311,-0.701171875,0.0009765625,0.716796875,-6.16455078125,3.35693359375,0.732421875,0.0823974609375,47.559814453125,-75.047607421875
1758878280.817275,-0.701171875,0.0009765625,0.716796875,-6.16455078125,3.35693359375,0.732421875,0.0274658203125,47.5872802734375,-75.03662109375
1758878280.8273609,-0.68310546875,0.03173828125,0.71435546875,-6.65283203125,2.74658203125,-0.1220703125,-0.0274658203125,47.6092529296875,-75.0311279296875
1758878280.8377569,-0.68310546875,0.03173828125,0.71435546875,-6.65283203125,2.74658203125,-0.1220703125,-0.0933837890625,47.625732421875,-75.025634765625
1758878280.8473577,-0.67333984375,0.02392578125,0.74609375,-8.544921875,2.50244140625,-0.244140625,-0.17578125,47.63671875,-75.0201416015625
1758878280.8573706,-0.67333984375,0.02392578125,0.74609375,-8.544921875,2.50244140625,-0.244140625,-0.252685546875,47.647705078125,-75.0146484375
1758878280.867588,-0.64892578125,-0.0029296875,0.7685546875,-10.8642578125,1.953125,-0.18310546875,-0.3570556640625,47.647705078125,-75.003662109375
1758878280.87737,-0.64892578125,-0.0029296875,0.7685546875,-10.8642578125,1.953125,-0.18310546875,-0.46142578125,47.647705078125,-74.99267578125
1758878280.8873796,-0.638671875,-0.03076171875,0.75341796875,-9.82666015625,1.46484375,-0.79345703125,-0.560302734375,47.6422119140625,-74.99267578125
1758878280.8976915,-0.638671875,-0.03076171875,0.75341796875,-9.82666015625,1.46484375,-0.79345703125,-0.6646728515625,47.6312255859375,-74.9981689453125
1758878280.9076457,-0.59521484375,-0.01416015625,0.74169921875,-2.74658203125,0.91552734375,-2.0751953125,-0.7086181640625,47.61474609375,-75.0146484375
1758878280.9174397,-0.59521484375,-0.01416015625,0.74169921875,-2.74658203125,0.91552734375,-2.0751953125,-0.7525634765625,47.5927734375,-75.03662109375
1758878280.9274569,-0.56640625,-0.00830078125,0.787109375,3.173828125,0.732421875,-2.74658203125,-0.7470703125,47.5653076171875,-75.0640869140625
1758878280.938049,-0.56640625,-0.00830078125,0.787109375,3.173828125,0.732421875,-2.74658203125,-0.7415771484375,47.537841796875,-75.091552734375
1758878280.9474862,-0.5439453125,-0.01904296875,0.77978515625,5.9814453125,0.6103515625,-3.0517578125,-0.7086181640625,47.5048828125,-75.12451171875
1758878280.95754,-0.5439453125,-0.01904296875,0.77978515625,5.9814453125,0.6103515625,-3.0517578125,-0.68115234375,47.4664306640625,-75.157470703125
1758878280.9679277,-0.5771484375,-0.03125,0.75732421875,14.892578125,0.06103515625,-3.60107421875,-0.5712890625,47.4224853515625,-75.1959228515625
1758878280.9775903,-0.5771484375,-0.03125,0.75732421875,14.892578125,0.06103515625,-3.60107421875,-0.46142578125,47.3785400390625,-75.2398681640625
1758878280.98751,-0.671875,-0.06591796875,0.82470703125,35.70556640625,-0.91552734375,-4.69970703125,-0.1593017578125,47.3236083984375,-75.30029296875
1758878280.997922,-0.671875,-0.06591796875,0.82470703125,35.70556640625,-0.91552734375,-4.69970703125,0.1318359375,47.2686767578125,-75.3662109375
1758878281.0132194,-0.71044921875,-0.041015625,0.8212890625,45.8984375,-1.8310546875,-5.615234375,0.516357421875,47.2027587890625,-75.4541015625
1758878281.021961,-0.71044921875,-0.041015625,0.8212890625,45.8984375,-1.8310546875,-5.615234375,0.8953857421875,47.142333984375,-75.5364990234375
1758878281.0303528,-0.75048828125,0.0546875,0.76171875,22.705078125,-2.01416015625,-5.79833984375,1.0491943359375,47.0819091796875,-75.6298828125
1758878281.0380824,-0.75048828125,0.0546875,0.76171875,22.705078125,-2.01416015625,-5.79833984375,1.197509765625,47.021484375,-75.7122802734375
1758878281.0476823,-0.8291015625,0.1435546875,0.701171875,-10.31494140625,-2.13623046875,-5.37109375,1.03271484375,46.9720458984375,-75.78369140625
1758878281.0576317,-0.8291015625,0.1435546875,0.701171875,-10.31494140625,-2.13623046875,-5.37109375,0.8734130859375,46.922607421875,-75.849609375
1758878281.0678737,-0.8525390625,0.11474609375,0.63818359375,-32.04345703125,-2.13623046875,-4.33349609375,0.516357421875,46.878662109375,-75.8935546875
1758878281.0776656,-0.8525390625,0.11474609375,0.63818359375,-32.04345703125,-2.13623046875,-4.33349609375,0.164794921875,46.845703125,-75.9320068359375
1758878281.0876648,-0.8046875,-0.0205078125,0.578125,-25.634765625,-1.28173828125,-2.99072265625,-0.1043701171875,46.8182373046875,-75.9539794921875
1758878281.0976806,-0.8046875,-0.0205078125,0.578125,-25.634765625,-1.28173828125,-2.99072265625,-0.37353515625,46.8017578125,-75.9814453125
1758878281.1079473,-0.7939453125,-0.126953125,0.54931640625,-2.197265625,-0.244140625,-2.50244140625,-0.4119873046875,46.8017578125,-76.00341796875
1758878281.1176448,-0.7939453125,-0.126953125,0.54931640625,-2.197265625,-0.244140625,-2.50244140625,-0.46142578125,46.8072509765625,-76.036376953125
1758878281.1279168,-0.79443359375,-0.13134765625,0.5537109375,17.2119140625,0.244140625,-2.0751953125,-0.3131103515625,46.8182373046875,-76.0748291015625
1758878281.1378698,-0.79443359375,-0.13134765625,0.5537109375,17.2119140625,0.244140625,-2.0751953125,-0.17578125,46.834716796875,-76.1187744140625
1758878281.1477332,-0.81787109375,-0.07275390625,0.5810546875,28.86962890625,0.732421875,-1.5869140625,0.076904296875,46.856689453125,-76.1627197265625
1758878281.1580913,-0.81787109375,-0.07275390625,0.5810546875,28.86962890625,0.732421875,-1.5869140625,0.32958984375,46.8841552734375,-76.2066650390625
1758878281.167869,-0.8369140625,-0.017578125,0.599609375,32.3486328125,0.48828125,-1.28173828125,0.6207275390625,46.91162109375,-76.2451171875
1758878281.1786494,-0.8369140625,-0.017578125,0.599609375,32.3486328125,0.48828125,-1.28173828125,0.911865234375,46.9390869140625,-76.2890625
1758878281.1877613,-0.88134765625,0.0439453125,0.60888671875,27.03857421875,0.1220703125,-1.03759765625,1.153564453125,46.966552734375,-76.3275146484375
1758878281.197917,-0.88134765625,0.0439453125,0.60888671875,27.03857421875,0.1220703125,-1.03759765625,1.395263671875,46.99951171875,-76.3604736328125
1758878281.2081776,-0.859375,0.0859375,0.57177734375,10.92529296875,0.244140625,-0.1220703125,1.4886474609375,47.032470703125,-76.376953125
1758878281.2179444,-0.859375,0.0859375,0.57177734375,10.92529296875,0.244140625,-0.1220703125,1.5875244140625,47.0654296875,-76.387939453125
1758878281.2278807,-0.84423828125,0.08642578125,0.52880859375,-7.9345703125,1.28173828125,0.91552734375,1.51611328125,47.1148681640625,-76.376953125
1758878281.2378883,-0.84423828125,0.08642578125,0.52880859375,-7.9345703125,1.28173828125,0.91552734375,1.4447021484375,47.164306640625,-76.365966796875
1758878281.2482858,-0.837890625,0.0458984375,0.51416015625,-17.02880859375,2.13623046875,1.28173828125,1.29638671875,47.230224609375,-76.3494873046875
1758878281.2579014,-0.837890625,0.0458984375,0.51416015625,-17.02880859375,2.13623046875,1.28173828125,1.142578125,47.2906494140625,-76.3275146484375
1758878281.2679048,-0.81640625,-0.00048828125,0.51123046875,-13.61083984375,3.23486328125,0.9765625,1.021728515625,47.3675537109375,-76.31103515625
1758878281.2782042,-0.81640625,-0.00048828125,0.51123046875,-13.61083984375,3.23486328125,0.9765625,0.9063720703125,47.4444580078125,-76.2945556640625
1758878281.2879064,-0.80419921875,-0.03564453125,0.53076171875,-4.638671875,4.08935546875,0.3662109375,0.867919921875,47.5323486328125,-76.2945556640625
1758878281.2979438,-0.80419921875,-0.03564453125,0.53076171875,-4.638671875,4.08935546875,0.3662109375,0.823974609375,47.6202392578125,-76.2945556640625
1758878281.3082666,-0.7978515625,-0.03564453125,0.56591796875,6.04248046875,4.82177734375,-0.244140625,0.8843994140625,47.713623046875,-76.3055419921875
1758878281.3179457,-0.7978515625,-0.03564453125,0.56591796875,6.04248046875,4.82177734375,-0.244140625,0.9393310546875,47.8070068359375,-76.3165283203125
1758878281.3279302,-0.78173828125,-0.0126953125,0.59521484375,12.939453125,4.94384765625,-0.732421875,1.0546875,47.900390625,-76.3385009765625
1758878281.3384573,-0.78173828125,-0.0126953125,0.59521484375,12.939453125,4.94384765625,-0.732421875,1.1700439453125,47.9937744140625,-76.3604736328125
1758878281.3483338,-0.75537109375,0.0263671875,0.630859375,15.13671875,4.21142578125,-1.3427734375,1.3018798828125,48.0706787109375,-76.387939453125
1758878281.358028,-0.75537109375,0.0263671875,0.630859375,15.13671875,4.21142578125,-1.3427734375,1.4337158203125,48.153076171875,-76.4154052734375
1758878281.3682797,-0.740234375,0.04052734375,0.673828125,15.68603515625,3.60107421875,-1.77001953125,1.5655517578125,48.218994140625,-76.4483642578125
1758878281.3784726,-0.740234375,0.04052734375,0.673828125,15.68603515625,3.60107421875,-1.77001953125,1.702880859375,48.284912109375,-76.4813232421875
1758878281.3880603,-0.73291015625,0.04150390625,0.697265625,14.6484375,2.99072265625,-2.3193359375,1.8182373046875,48.33984375,-76.519775390625
1758878281.3981237,-0.73291015625,0.04150390625,0.697265625,14.6484375,2.99072265625,-2.3193359375,1.9390869140625,48.3892822265625,-76.552734375
1758878281.4080882,-0.724609375,0.02978515625,0.70166015625,11.90185546875,2.5634765625,-2.62451171875,2.0269775390625,48.4332275390625,-76.5911865234375
1758878281.418101,-0.724609375,0.02978515625,0.70166015625,11.90185546875,2.5634765625,-2.62451171875,2.1148681640625,48.4716796875,-76.6351318359375
1758878281.429024,-0.7275390625,0.02734375,0.7021484375,11.23046875,2.44140625,-3.2958984375,2.186279296875,48.504638671875,-76.6845703125
1758878281.4381688,-0.7275390625,0.02734375,0.7021484375,11.23046875,2.44140625,-3.2958984375,2.26318359375,48.53759765625,-76.7340087890625
1758878281.448611,-0.72607421875,0.025390625,0.6787109375,16.29638671875,2.25830078125,-4.33349609375,2.373046875,48.570556640625,-76.79443359375
1758878281.4583173,-0.73828125,0.01904296875,0.666015625,26.123046875,2.13623046875,-5.55419921875,2.52685546875,48.5980224609375,-76.871337890625
1758878281.4681263,-0.73828125,0.01904296875,0.666015625,26.123046875,2.13623046875,-5.55419921875,2.7191162109375,48.62548828125,-76.9537353515625
1758878281.478252,-0.71484375,0.02197265625,0.67626953125,32.958984375,1.64794921875,-6.4697265625,2.9443359375,48.6474609375,-77.047119140625
1758878281.4882326,-0.71484375,0.02197265625,0.67626953125,32.958984375,1.64794921875,-6.4697265625,3.1915283203125,48.66943359375,-77.14599609375
1758878281.4982204,-0.73193359375,0.0537109375,0.72607421875,29.35791015625,0.1220703125,-7.32421875,3.416748046875,48.680419921875,-77.255859375
1758878281.508193,-0.73193359375,0.0537109375,0.72607421875,29.35791015625,0.1220703125,-7.32421875,3.6199951171875,48.680419921875,-77.36572265625
1758878281.5182173,-0.7080078125,0.080078125,0.7109375,24.47509765625,-0.8544921875,-7.99560546875,3.790283203125,48.680419921875,-77.486572265625
1758878281.5286913,-0.7080078125,0.080078125,0.7109375,24.47509765625,-0.8544921875,-7.99560546875,3.9385986328125,48.66943359375,-77.607421875
1758878281.5382345,-0.71533203125,0.08154296875,0.70703125,19.8974609375,-2.13623046875,-7.87353515625,4.06494140625,48.6474609375,-77.7227783203125
1758878281.5482326,-0.71533203125,0.08154296875,0.70703125,19.8974609375,-2.13623046875,-7.87353515625,4.1693115234375,48.62548828125,-77.838134765625
1758878281.558624,-0.69970703125,0.05810546875,0.73193359375,20.263671875,-3.5400390625,-7.75146484375,4.273681640625,48.592529296875,-77.9534912109375
1758878281.568296,-0.69970703125,0.05810546875,0.73193359375,20.263671875,-3.5400390625,-7.75146484375,4.383544921875,48.548583984375,-78.06884765625
1758878281.5783687,-0.681640625,0.025390625,0.73876953125,26.91650390625,-4.7607421875,-8.36181640625,4.5208740234375,48.4991455078125,-78.189697265625
1758878281.5887153,-0.681640625,0.025390625,0.73876953125,26.91650390625,-4.7607421875,-8.36181640625,4.6856689453125,48.4442138671875,-78.321533203125
1758878281.5984032,-0.68017578125,0.02490234375,0.75927734375,31.31103515625,-5.126953125,-9.33837890625,4.866943359375,48.3837890625,-78.4588623046875
1758878281.608302,-0.68017578125,0.02490234375,0.75927734375,31.31103515625,-5.126953125,-9.33837890625,5.0592041015625,48.3233642578125,-78.607177734375
1758878281.6186743,-0.6865234375,0.05419921875,0.76025390625,33.3251953125,-4.82177734375,-10.07080078125,5.2569580078125,48.262939453125,-78.7664794921875
1758878281.6287127,-0.6865234375,0.05419921875,0.76025390625,33.3251953125,-4.82177734375,-10.07080078125,5.460205078125,48.2025146484375,-78.92578125
1758878281.6383545,-0.66552734375,0.0810546875,0.74267578125,35.7666015625,-4.0283203125,-10.6201171875,5.6689453125,48.1475830078125,-79.090576171875
1758878281.6483772,-0.66552734375,0.0810546875,0.74267578125,35.7666015625,-4.0283203125,-10.6201171875,5.8941650390625,48.0926513671875,-79.2608642578125
1758878281.6589627,-0.67431640625,0.09130859375,0.7626953125,31.92138671875,-3.96728515625,-10.7421875,6.097412109375,48.0377197265625,-79.43115234375
1758878281.6684082,-0.67431640625,0.09130859375,0.7626953125,31.92138671875,-3.96728515625,-10.7421875,6.2786865234375,47.9827880859375,-79.6014404296875
1758878281.6784656,-0.701171875,0.1123046875,0.75927734375,20.81298828125,-3.84521484375,-10.07080078125,6.4105224609375,47.9278564453125,-79.7607421875
1758878281.6893306,-0.701171875,0.1123046875,0.75927734375,20.81298828125,-3.84521484375,-10.07080078125,6.492919921875,47.8729248046875,-79.91455078125
1758878281.6984637,-0.71630859375,0.109375,0.7158203125,14.34326171875,-3.84521484375,-9.521484375,6.5533447265625,47.8179931640625,-80.0628662109375
1758878281.7084923,-0.71630859375,0.109375,0.7158203125,14.34326171875,-3.84521484375,-9.521484375,6.580810546875,47.7630615234375,-80.2056884765625
1758878281.7184606,-0.724609375,0.06982421875,0.669921875,8.4228515625,-3.35693359375,-8.36181640625,6.5863037109375,47.713623046875,-80.343017578125
1758878281.7287936,-0.724609375,0.06982421875,0.669921875,8.4228515625,-3.35693359375,-8.36181640625,6.56982421875,47.669677734375,-80.4638671875
1758878281.738484,-0.74560546875,0.0556640625,0.66015625,-0.1220703125,-3.173828125,-6.77490234375,6.5203857421875,47.625732421875,-80.5792236328125
1758878281.748487,-0.74560546875,0.0556640625,0.66015625,-0.1220703125,-3.173828125,-6.77490234375,6.43798828125,47.581787109375,-80.68359375
1758878281.758963,-0.75048828125,0.07373046875,0.66357421875,-9.27734375,-3.2958984375,-5.18798828125,6.317138671875,47.5433349609375,-80.771484375
1758878281.768597,-0.75048828125,0.07373046875,0.66357421875,-9.27734375,-3.2958984375,-5.18798828125,6.163330078125,47.4993896484375,-80.8538818359375
1758878281.778604,-0.736328125,0.087890625,0.63916015625,-21.484375,-3.11279296875,-2.62451171875,5.965576171875,47.4609375,-80.9088134765625
1758878281.7890813,-0.736328125,0.087890625,0.63916015625,-21.484375,-3.11279296875,-2.62451171875,5.7183837890625,47.427978515625,-80.947265625
1758878281.7986493,-0.73828125,0.0830078125,0.62255859375,-34.72900390625,-2.8076171875,-0.18310546875,5.4217529296875,47.3895263671875,-80.9637451171875
1758878281.8086407,-0.73828125,0.0830078125,0.62255859375,-34.72900390625,-2.8076171875,-0.18310546875,5.07568359375,47.3565673828125,-80.9637451171875
1758878281.8185885,-0.7568359375,0.07177734375,0.63232421875,-42.724609375,-2.25830078125,1.46484375,4.7076416015625,47.3291015625,-80.9417724609375
1758878281.8290033,-0.7568359375,0.07177734375,0.63232421875,-42.724609375,-2.25830078125,1.46484375,4.306640625,47.30712890625,-80.914306640625
1758878281.8386285,-0.75830078125,0.056640625,0.6435546875,-47.4853515625,-1.953125,2.8076171875,3.88916015625,47.28515625,-80.870361328125
1758878281.8486497,-0.75830078125,0.056640625,0.6435546875,-47.4853515625,-1.953125,2.8076171875,3.460693359375,47.26318359375,-80.8154296875
1758878281.859011,-0.73876953125,0.0380859375,0.6298828125,-45.5322265625,-1.5869140625,3.5400390625,3.043212890625,47.2467041015625,-80.7550048828125
1758878281.8688307,-0.73876953125,0.0380859375,0.6298828125,-45.5322265625,-1.5869140625,3.5400390625,2.647705078125,47.2357177734375,-80.68359375
1758878281.878727,-0.73388671875,0.0126953125,0.6337890625,-39.4287109375,-1.15966796875,4.21142578125,2.2796630859375,47.2247314453125,-80.6121826171875
1758878281.8887057,-0.73388671875,0.0126953125,0.6337890625,-39.4287109375,-1.15966796875,4.21142578125,1.9500732421875,47.21923828125,-80.5352783203125
1758878281.8992622,-0.7373046875,-0.0078125,0.67431640625,-35.0341796875,-0.91552734375,4.21142578125,1.6424560546875,47.2137451171875,-80.4583740234375
1758878281.9087586,-0.7373046875,-0.0078125,0.67431640625,-35.0341796875,-0.91552734375,4.21142578125,1.351318359375,47.208251953125,-80.386962890625
1758878281.9187694,-0.73193359375,0.01171875,0.67626953125,-34.7900390625,-0.732421875,4.0283203125,1.0601806640625,47.208251953125,-80.3155517578125
1758878281.9290783,-0.73193359375,0.01171875,0.67626953125,-34.7900390625,-0.732421875,4.0283203125,0.7745361328125,47.2027587890625,-80.244140625
1758878281.9388332,-0.71875,0.03125,0.677734375,-34.1796875,-0.48828125,3.2958984375,0.4833984375,47.2027587890625,-80.17822265625
1758878281.948737,-0.71875,0.03125,0.677734375,-34.1796875,-0.48828125,3.2958984375,0.1922607421875,47.2027587890625,-80.1123046875
1758878281.9590924,-0.701171875,0.03759765625,0.67138671875,-29.84619140625,-0.1220703125,2.62451171875,-0.0714111328125,47.2027587890625,-80.0518798828125
1758878281.969168,-0.701171875,0.03759765625,0.67138671875,-29.84619140625,-0.1220703125,2.62451171875,-0.318603515625,47.2027587890625,-79.991455078125
1758878281.9787931,-0.70166015625,0.00927734375,0.701171875,-32.8369140625,0.1220703125,2.86865234375,-0.582275390625,47.208251953125,-79.9310302734375
1758878281.9887927,-0.70166015625,0.00927734375,0.701171875,-32.8369140625,0.1220703125,2.86865234375,-0.85693359375,47.208251953125,-79.8651123046875
1758878281.9993951,-0.69921875,0.01416015625,0.7197265625,-42.05322265625,-0.06103515625,3.11279296875,-1.175537109375,47.208251953125,-79.7991943359375
1758878282.0088563,-0.69921875,0.01416015625,0.7197265625,-42.05322265625,-0.06103515625,3.11279296875,-1.5380859375,47.2027587890625,-79.727783203125
1758878282.0188692,-0.685546875,0.01611328125,0.70849609375,-45.654296875,-0.244140625,3.0517578125,-1.9171142578125,47.2027587890625,-79.65087890625
1758878282.0296934,-0.685546875,0.01611328125,0.70849609375,-45.654296875,-0.244140625,3.0517578125,-2.3126220703125,47.1917724609375,-79.5794677734375
1758878282.0390651,-0.669921875,-0.00830078125,0.68896484375,-43.8232421875,-0.30517578125,2.8076171875,-2.70263671875,47.186279296875,-79.5025634765625
1758878282.0489707,-0.669921875,-0.00830078125,0.68896484375,-43.8232421875,-0.30517578125,2.8076171875,-3.076171875,47.17529296875,-79.43115234375
1758878282.0590866,-0.66748046875,-0.05126953125,0.6982421875,-39.00146484375,-0.06103515625,2.38037109375,-3.4332275390625,47.1697998046875,-79.3597412109375
1758878282.0693543,-0.66748046875,-0.05126953125,0.6982421875,-39.00146484375,-0.06103515625,2.38037109375,-3.768310546875,47.1588134765625,-79.2938232421875
1758878282.0790107,-0.66845703125,-0.09130859375,0.69970703125,-29.296875,0.06103515625,2.44140625,-4.0594482421875,47.1533203125,-79.222412109375
1758878282.0890539,-0.66845703125,-0.09130859375,0.69970703125,-29.296875,0.06103515625,2.44140625,-4.3011474609375,47.142333984375,-79.1619873046875
1758878282.0991483,-0.68701171875,-0.10791015625,0.69091796875,-12.51220703125,0.244140625,2.3193359375,-4.46044921875,47.1368408203125,-79.1015625
1758878282.1090035,-0.68701171875,-0.10791015625,0.69091796875,-12.51220703125,0.244140625,2.3193359375,-4.54833984375,47.1258544921875,-79.0521240234375
1758878282.1189888,-0.7021484375,-0.1328125,0.69580078125,5.37109375,0.06103515625,1.89208984375,-4.54833984375,47.1148681640625,-79.002685546875
1758878282.129286,-0.7021484375,-0.1328125,0.69580078125,5.37109375,0.06103515625,1.89208984375,-4.4659423828125,47.1038818359375,-78.9642333984375
1758878282.1390324,-0.7021484375,-0.1328125,0.69580078125,18.73779296875,-0.244140625,1.77001953125,-4.3231201171875,47.0928955078125,-78.936767578125
1758878282.148993,-0.72705078125,-0.10498046875,0.72216796875,18.73779296875,-0.244140625,1.77001953125,-4.119873046875,47.0819091796875,-78.9093017578125
1758878282.1593475,-0.80078125,-0.0146484375,0.7548828125,17.2119140625,-1.15966796875,2.0751953125,-3.9276123046875,47.0599365234375,-78.8763427734375
1758878282.1690383,-0.80078125,-0.0146484375,0.7548828125,17.2119140625,-1.15966796875,2.0751953125,-3.7353515625,47.0379638671875,-78.8433837890625
1758878282.1790402,-0.7939453125,0.06201171875,0.76611328125,-1.953125,-2.74658203125,2.685546875,-3.6309814453125,47.010498046875,-78.804931640625
1758878282.1893911,-0.7939453125,0.06201171875,0.76611328125,-1.953125,-2.74658203125,2.685546875,-3.614501953125,46.9775390625,-78.75
1758878282.1990917,-0.73193359375,0.0400390625,0.7080078125,-25.20751953125,-3.23486328125,4.0283203125,-3.7078857421875,46.9390869140625,-78.6785888671875
1758878282.209055,-0.73193359375,0.0400390625,0.7080078125,-25.20751953125,-3.23486328125,4.0283203125,-3.900146484375,46.9061279296875,-78.59619140625
1758878282.2194443,-0.68115234375,-0.03173828125,0.64501953125,-38.57421875,-2.8076171875,5.0048828125,-4.15283203125,46.86767578125,-78.5028076171875
1758878282.2294652,-0.68115234375,-0.03173828125,0.64501953125,-38.57421875,-2.8076171875,5.0048828125,-4.46044921875,46.8402099609375,-78.4039306640625
1758878282.2391524,-0.69482421875,-0.10546875,0.64990234375,-31.8603515625,-1.64794921875,4.8828125,-4.7406005859375,46.812744140625,-78.3050537109375
1758878282.2491937,-0.69482421875,-0.10546875,0.64990234375,-31.8603515625,-1.64794921875,4.8828125,-4.9932861328125,46.7962646484375,-78.211669921875
1758878282.2592614,-0.69580078125,-0.15966796875,0.63037109375,-11.90185546875,-0.6103515625,4.2724609375,-5.152587890625,46.7852783203125,-78.1292724609375
1758878282.269167,-0.69580078125,-0.15966796875,0.63037109375,-11.90185546875,-0.6103515625,4.2724609375,-5.218505859375,46.77978515625,-78.057861328125
1758878282.279232,-0.72216796875,-0.15576171875,0.65185546875,12.14599609375,0.54931640625,3.5400390625,-5.174560546875,46.77978515625,-78.0029296875
1758878282.2895546,-0.72216796875,-0.15576171875,0.65185546875,12.14599609375,0.54931640625,3.5400390625,-5.020751953125,46.7852783203125,-77.9534912109375
1758878282.2992158,-0.82177734375,-0.1201171875,0.703125,30.21240234375,1.0986328125,3.47900390625,-4.7845458984375,46.7962646484375,-77.9150390625
1758878282.309237,-0.82177734375,-0.1201171875,0.703125,30.21240234375,1.0986328125,3.47900390625,-4.46044921875,46.8072509765625,-77.882080078125
1758878282.3192148,-0.87158203125,-0.0322265625,0.74560546875,30.82275390625,-0.1220703125,3.662109375,-4.130859375,46.8182373046875,-77.8436279296875
1758878282.3298934,-0.87158203125,-0.0322265625,0.74560546875,30.82275390625,-0.1220703125,3.662109375,-3.80126953125,46.82373046875,-77.80517578125
1758878282.3393912,-0.7919921875,0.0234375,0.701171875,8.60595703125,-0.9765625,4.0283203125,-3.5760498046875,46.82373046875,-77.7557373046875
1758878282.3494627,-0.7919921875,0.0234375,0.701171875,8.60595703125,-0.9765625,4.0283203125,-3.4552001953125,46.8182373046875,-77.706298828125
1758878282.3593009,-0.72900390625,0.0322265625,0.5869140625,-17.08984375,-0.67138671875,5.67626953125,-3.4552001953125,46.82373046875,-77.6348876953125
1758878282.3696141,-0.72900390625,0.0322265625,0.5869140625,-17.08984375,-0.67138671875,5.67626953125,-3.5650634765625,46.82373046875,-77.552490234375
1758878282.3793206,-0.75146484375,-0.00341796875,0.55078125,-26.79443359375,-0.244140625,7.080078125,-3.71337890625,46.834716796875,-77.45361328125
1758878282.3893132,-0.75146484375,-0.00341796875,0.55078125,-26.79443359375,-0.244140625,7.080078125,-3.9056396484375,46.8511962890625,-77.34375
1758878282.3993564,-0.76220703125,-0.07666015625,0.583984375,-19.47021484375,0.0,7.50732421875,-4.0484619140625,46.86767578125,-77.2283935546875
