timestamp,acc_x,acc_y,acc_z,gyro_x,gyro_y,gyro_z,angle_x,angle_y,angle_z
1760837558.208913,0.0,0.0,0.0,17.63916015625,-11.5966796875,20.69091796875,-8.6187744140625,25.455322265625,175.2923583984375
1760837558.2191393,-0.33349609375,-0.11669921875,0.970703125,17.63916015625,-11.5966796875,20.69091796875,-8.3221435546875,25.3564453125,175.5230712890625
1760837558.2300746,-0.33349609375,-0.11669921875,0.970703125,14.0380859375,-15.9912109375,23.8037109375,-8.0419921875,25.213623046875,175.7867431640625
1760837558.2438362,-0.349609375,-0.10498046875,0.9892578125,14.0380859375,-15.9912109375,23.8037109375,-7.767333984375,25.07080078125,176.044921875
1760837558.255933,-0.35595703125,-0.1064453125,1.03125,9.8876953125,-19.6533203125,26.4892578125,-7.525634765625,24.89501953125,176.3360595703125
1760837558.264779,-0.35595703125,-0.1064453125,1.03125,9.8876953125,-19.6533203125,26.4892578125,-7.283935546875,24.7137451171875,176.6217041015625
1760837558.2712302,-0.35400390625,-0.0966796875,1.08447265625,9.82666015625,-23.01025390625,28.50341796875,-7.03125,24.49951171875,176.9293212890625
1760837558.2785683,-0.35400390625,-0.0966796875,1.08447265625,9.82666015625,-23.01025390625,28.50341796875,-6.78955078125,24.2852783203125,177.2369384765625
1760837558.2871454,-0.36181640625,-0.07763671875,1.13037109375,5.92041015625,-26.06201171875,30.33447265625,-6.5753173828125,24.0380859375,177.5665283203125
1760837558.2971616,-0.36181640625,-0.07763671875,1.13037109375,5.92041015625,-26.06201171875,30.33447265625,-6.361083984375,23.7908935546875,177.8961181640625
1760837558.3071582,-0.34716796875,-0.05908203125,1.1337890625,-3.84521484375,-28.74755859375,31.79931640625,-6.240234375,23.5162353515625,178.2366943359375
1760837558.3174877,-0.34716796875,-0.05908203125,1.1337890625,-3.84521484375,-28.74755859375,31.79931640625,-6.119384765625,23.2415771484375,178.5772705078125
1760837558.3271668,-0.3583984375,-0.046875,1.150390625,-8.36181640625,-30.517578125,32.3486328125,-6.0479736328125,22.950439453125,178.9288330078125
1760837558.337717,-0.3583984375,-0.046875,1.150390625,-8.36181640625,-30.517578125,32.3486328125,-5.9710693359375,22.6593017578125,179.2803955078125
1760837558.3472626,-0.40869140625,-0.00390625,1.15087890625,-12.5732421875,-32.1044921875,31.79931640625,-5.943603515625,22.3516845703125,179.62646484375
1760837558.348696,-0.40869140625,-0.00390625,1.15087890625,-12.5732421875,-32.1044921875,31.79931640625,-126.62841796875,1.29638671875,60.46875
1760837558.3574753,-0.40869140625,-0.00390625,1.15087890625,-12.5732421875,-32.1044921875,31.79931640625,-5.91064453125,22.0440673828125,179.97802734375
1760837558.367161,-0.39892578125,-0.0048828125,1.1103515625,-6.89697265625,-33.38623046875,30.029296875,-5.8282470703125,21.7254638671875,-179.6759033203125
1760837558.3780522,-0.39892578125,-0.0048828125,1.1103515625,-6.89697265625,-33.38623046875,30.029296875,-5.7513427734375,21.412353515625,-179.3353271484375
1760837558.387569,-0.37353515625,-0.0068359375,1.0283203125,12.6953125,-33.87451171875,27.89306640625,-5.482177734375,21.0882568359375,-179.01123046875
1760837558.3976362,-0.37353515625,-0.0068359375,1.0283203125,12.6953125,-33.87451171875,27.89306640625,-5.2239990234375,20.7696533203125,-178.6871337890625
1760837558.4072757,-0.3466796875,0.0068359375,0.9912109375,28.62548828125,-32.2265625,26.2451171875,-4.81201171875,20.467529296875,-178.3795166015625
1760837558.417689,-0.3466796875,0.0068359375,0.9912109375,28.62548828125,-32.2265625,26.2451171875,-4.4000244140625,20.159912109375,-178.0718994140625
1760837558.4272702,-0.33984375,0.025390625,0.99169921875,19.04296875,-29.84619140625,25.20751953125,-4.097900390625,19.8797607421875,-177.7752685546875
1760837558.4377017,-0.33984375,0.025390625,0.99169921875,19.04296875,-29.84619140625,25.20751953125,-3.7957763671875,19.5941162109375,-177.4786376953125
1760837558.4472218,-0.32763671875,0.01513671875,0.97900390625,5.7373046875,-28.25927734375,24.35302734375,-3.6309814453125,19.3304443359375,-177.1929931640625
1760837558.4577374,-0.32763671875,0.01513671875,0.97900390625,5.7373046875,-28.25927734375,24.35302734375,-3.4661865234375,19.061279296875,-176.90185546875
1760837558.467259,-0.33349609375,0.00732421875,0.98388671875,9.33837890625,-27.16064453125,23.13232421875,-3.27392578125,18.8031005859375,-176.6217041015625
1760837558.47768,-0.33349609375,0.00732421875,0.98388671875,9.33837890625,-27.16064453125,23.13232421875,-3.0816650390625,18.5504150390625,-176.341552734375
1760837558.4872816,-0.30322265625,0.0009765625,0.97998046875,21.6064453125,-25.146484375,21.484375,-2.7740478515625,18.314208984375,-176.0833740234375
1760837558.4977527,-0.30322265625,0.0009765625,0.97998046875,21.6064453125,-25.146484375,21.484375,-2.471923828125,18.0780029296875,-175.8197021484375
1760837558.5072994,-0.26708984375,0.02392578125,1.0009765625,16.54052734375,-22.0947265625,19.775390625,-2.230224609375,17.8692626953125,-175.58349609375
1760837558.5177286,-0.26708984375,0.02392578125,1.0009765625,16.54052734375,-22.0947265625,19.775390625,-1.988525390625,17.655029296875,-175.341796875
1760837558.5273297,-0.27880859375,0.02685546875,1.00732421875,4.57763671875,-19.287109375,17.76123046875,-1.8731689453125,17.4737548828125,-175.1275634765625
1760837558.5373404,-0.27880859375,0.02685546875,1.00732421875,4.57763671875,-19.287109375,17.76123046875,-1.7578125,17.2869873046875,-174.913330078125
1760837558.5473535,-0.26025390625,-0.00732421875,1.00244140625,7.62939453125,-17.02880859375,16.17431640625,-1.6204833984375,17.1221923828125,-174.715576171875
1760837558.5573578,-0.26025390625,-0.00732421875,1.00244140625,7.62939453125,-17.02880859375,16.17431640625,-1.483154296875,16.9573974609375,-174.517822265625
1760837558.5673618,-0.263671875,-0.01220703125,0.96435546875,21.42333984375,-15.19775390625,15.2587890625,-1.2139892578125,16.80908203125,-174.3365478515625
1760837558.5773787,-0.263671875,-0.01220703125,0.96435546875,21.42333984375,-15.19775390625,15.2587890625,-0.94482421875,16.6607666015625,-174.1497802734375
1760837558.5873966,-0.27685546875,-0.005859375,0.96630859375,31.67724609375,-13.24462890625,14.58740234375,-0.582275390625,16.534423828125,-173.9739990234375
1760837558.5974746,-0.27685546875,-0.005859375,0.96630859375,31.67724609375,-13.24462890625,14.58740234375,-0.2197265625,16.402587890625,-173.8037109375
1760837558.6074808,-0.32177734375,0.0302734375,0.9755859375,21.42333984375,-11.04736328125,14.58740234375,0.032958984375,16.292724609375,-173.6279296875
1760837558.6174788,-0.32177734375,0.0302734375,0.9755859375,21.42333984375,-11.04736328125,14.58740234375,0.28564453125,16.1883544921875,-173.4466552734375
1760837558.6274838,-0.33935546875,0.0263671875,0.96875,4.33349609375,-8.97216796875,14.83154296875,0.37353515625,16.1004638671875,-173.265380859375
1760837558.6374853,-0.33935546875,0.0263671875,0.96875,4.33349609375,-8.97216796875,14.83154296875,0.4559326171875,16.01806640625,-173.0841064453125
1760837558.6475005,-0.3056640625,-0.01171875,0.927734375,7.4462890625,-7.2021484375,15.2587890625,0.5767822265625,15.9521484375,-172.891845703125
1760837558.6575394,-0.3056640625,-0.01171875,0.927734375,7.4462890625,-7.2021484375,15.2587890625,0.6866455078125,15.8917236328125,-172.6995849609375
1760837558.6674898,-0.310546875,-0.0146484375,0.9267578125,26.91650390625,-4.638671875,15.7470703125,0.999755859375,15.853271484375,-172.50732421875
1760837558.6774807,-0.310546875,-0.0146484375,0.9267578125,26.91650390625,-4.638671875,15.7470703125,1.3018798828125,15.8148193359375,-172.3095703125
1760837558.6875114,-0.318359375,0.00341796875,0.92138671875,33.14208984375,-1.15966796875,15.68603515625,1.669921875,15.809326171875,-172.1173095703125
1760837558.697656,-0.318359375,0.00341796875,0.92138671875,33.14208984375,-1.15966796875,15.68603515625,2.032470703125,15.8038330078125,-171.9195556640625
1760837558.7079551,-0.31201171875,0.02197265625,0.90234375,12.63427734375,2.685546875,15.07568359375,2.1917724609375,15.8367919921875,-171.727294921875
1760837558.7176495,-0.31201171875,0.02197265625,0.90234375,12.63427734375,2.685546875,15.07568359375,2.3455810546875,15.8697509765625,-171.5350341796875
1760837558.7275596,-0.3447265625,0.0126953125,0.9140625,-15.56396484375,6.591796875,14.0380859375,2.21923828125,15.9466552734375,-171.353759765625
1760837558.7377114,-0.3447265625,0.0126953125,0.9140625,-15.56396484375,6.591796875,14.0380859375,2.0928955078125,16.01806640625,-171.1669921875
1760837558.7476346,-0.3203125,-0.00634765625,0.927734375,-35.09521484375,9.6435546875,12.8173828125,1.768798828125,16.1279296875,-170.9967041015625
1760837558.7579064,-0.3203125,-0.00634765625,0.927734375,-35.09521484375,9.6435546875,12.8173828125,1.4501953125,16.2322998046875,-170.826416015625
1760837558.7676308,-0.27197265625,-0.02294921875,0.9287109375,-34.66796875,11.71875,11.16943359375,1.131591796875,16.3641357421875,-170.672607421875
1760837558.7777197,-0.27197265625,-0.02294921875,0.9287109375,-34.66796875,11.71875,11.16943359375,0.8074951171875,16.490478515625,-170.518798828125
1760837558.7876444,-0.2734375,-0.0078125,0.9384765625,-23.74267578125,12.8173828125,9.1552734375,0.59326171875,16.622314453125,-170.3924560546875
1760837558.7981575,-0.2734375,-0.0078125,0.9384765625,-23.74267578125,12.8173828125,9.1552734375,0.384521484375,16.7596435546875,-170.26611328125
1760837558.8085775,-0.28076171875,-0.00341796875,0.955078125,-12.39013671875,13.0615234375,7.32421875,0.2801513671875,16.8914794921875,-170.1617431640625
1760837558.817842,-0.28076171875,-0.00341796875,0.955078125,-12.39013671875,13.0615234375,7.32421875,0.17578125,17.02880859375,-170.057373046875
1760837558.8277116,-0.29296875,0.00390625,0.9853515625,-12.939453125,12.8173828125,5.615234375,0.0604248046875,17.16064453125,-169.9749755859375
1760837558.8380516,-0.2998046875,0.015625,0.98583984375,-24.47509765625,12.3291015625,3.5400390625,-0.1043701171875,17.2869873046875,-169.903564453125
1760837558.849579,-0.2998046875,0.015625,0.98583984375,-24.47509765625,12.3291015625,3.5400390625,-0.340576171875,17.4078369140625,-169.8431396484375
1760837558.8585796,-0.265625,-0.01708984375,0.96728515625,-16.2353515625,11.77978515625,1.28173828125,-0.5328369140625,17.5286865234375,-169.793701171875
1760837558.8691404,-0.265625,-0.01708984375,0.96728515625,-16.2353515625,11.77978515625,1.28173828125,-0.6866455078125,17.64404296875,-169.7607421875
1760837558.885699,-0.27099609375,-0.0341796875,0.9580078125,15.13671875,11.29150390625,-0.48828125,-0.6866455078125,17.75390625,-169.7332763671875
1760837558.8925474,-0.27099609375,-0.0341796875,0.9580078125,15.13671875,11.29150390625,-0.48828125,-0.538330078125,17.86376953125,-169.7222900390625
1760837558.8993087,-0.3193359375,-0.0224609375,0.98583984375,33.447265625,11.53564453125,-1.46484375,-0.296630859375,17.9681396484375,-169.716796875
1760837558.9162087,-0.3193359375,-0.0224609375,0.98583984375,33.447265625,11.53564453125,-1.46484375,0.02197265625,18.0780029296875,-169.7222900390625
1760837558.924095,-0.3427734375,0.0029296875,0.99169921875,16.90673828125,12.39013671875,-2.44140625,0.263671875,18.1878662109375,-169.7222900390625
1760837558.9314358,-0.3427734375,0.0029296875,0.99169921875,16.90673828125,12.39013671875,-2.44140625,0.41748046875,18.3087158203125,-169.7332763671875
1760837558.9457061,-0.33642578125,-0.00341796875,0.966796875,-16.357421875,13.427734375,-4.0283203125,0.406494140625,18.4295654296875,-169.749755859375
1760837558.9544775,-0.33642578125,-0.00341796875,0.966796875,-16.357421875,13.427734375,-4.0283203125,0.2252197265625,18.5614013671875,-169.7772216796875
1760837558.9617095,-0.333984375,-0.0361328125,0.93115234375,-31.55517578125,14.34326171875,-5.43212890625,-0.0274658203125,18.6932373046875,-169.815673828125
1760837558.96975,-0.333984375,-0.0361328125,0.93115234375,-31.55517578125,14.34326171875,-5.43212890625,-0.362548828125,18.83056640625,-169.8541259765625
1760837558.9841743,-0.326171875,-0.05859375,0.9091796875,-20.44677734375,14.70947265625,-6.28662109375,-0.6427001953125,18.973388671875,-169.903564453125
1760837558.9915204,-0.326171875,-0.05859375,0.9091796875,-20.44677734375,14.70947265625,-6.28662109375,-0.8734130859375,19.1107177734375,-169.95849609375
1760837558.9982448,-0.32763671875,-0.06396484375,0.89892578125,1.46484375,15.13671875,-7.01904296875,-0.9942626953125,19.2535400390625,-170.013427734375
1760837559.0094385,-0.32763671875,-0.06396484375,0.89892578125,1.46484375,15.13671875,-7.01904296875,-1.0107421875,19.40185546875,-170.0738525390625
1760837559.0261343,-0.31689453125,-0.0419921875,0.900390625,17.4560546875,15.7470703125,-7.87353515625,-0.94482421875,19.5501708984375,-170.145263671875
1760837559.0340078,-0.31689453125,-0.0419921875,0.900390625,17.4560546875,15.7470703125,-7.87353515625,-0.8074951171875,19.698486328125,-170.2166748046875
1760837559.04078,-0.3154296875,-0.01513671875,0.90869140625,18.798828125,16.7236328125,-8.85009765625,-0.6646728515625,19.852294921875,-170.299072265625
1760837559.0552976,-0.3154296875,-0.01513671875,0.90869140625,18.798828125,16.7236328125,-8.85009765625,-0.516357421875,20.0115966796875,-170.3814697265625
1760837559.0642135,-0.32763671875,0.00927734375,0.92333984375,-5.9814453125,17.63916015625,-9.70458984375,-0.494384765625,20.1763916015625,-170.474853515625
1760837559.0713177,-0.32763671875,0.00927734375,0.92333984375,-5.9814453125,17.63916015625,-9.70458984375,-0.59326171875,20.3466796875,-170.5682373046875
1760837559.0779774,-0.3291015625,0.0,0.9140625,-32.89794921875,18.00537109375,-10.07080078125,-0.8294677734375,20.511474609375,-170.672607421875
1760837559.0933828,-0.3291015625,0.0,0.9140625,-32.89794921875,18.00537109375,-10.07080078125,-1.197509765625,20.6817626953125,-170.771484375
1760837559.0999055,-0.30810546875,-0.03076171875,0.861328125,-36.2548828125,18.5546875,-9.8876953125,-1.58203125,20.85205078125,-170.8758544921875
1760837559.1087558,-0.30810546875,-0.03076171875,0.861328125,-36.2548828125,18.5546875,-9.8876953125,-1.9775390625,21.0223388671875,-170.9857177734375
1760837559.1183994,-0.32373046875,-0.0390625,0.841796875,-25.69580078125,20.3857421875,-9.1552734375,-2.3236083984375,21.20361328125,-171.0845947265625
1760837559.1337435,-0.32373046875,-0.0390625,0.841796875,-25.69580078125,20.3857421875,-9.1552734375,-2.6092529296875,21.390380859375,-171.18896484375
1760837559.1412027,-0.36376953125,-0.0224609375,0.86865234375,-14.34326171875,22.0947265625,-7.50732421875,-2.8399658203125,21.588134765625,-171.2823486328125
1760837559.1483164,-0.36376953125,-0.0224609375,0.86865234375,-14.34326171875,22.0947265625,-7.50732421875,-3.01025390625,21.7913818359375,-171.3702392578125
1760837559.167286,-0.37451171875,-0.01708984375,0.919921875,-1.5869140625,22.8271484375,-5.55419921875,-3.109130859375,22.005615234375,-171.4471435546875
1760837559.1749413,-0.37451171875,-0.01708984375,0.919921875,-1.5869140625,22.8271484375,-5.55419921875,-3.14208984375,22.2198486328125,-171.507568359375
1760837559.1827354,-0.37646484375,-0.0107421875,0.96484375,7.01904296875,22.0947265625,-4.0283203125,-3.131103515625,22.4285888671875,-171.5679931640625
1760837559.2059398,-0.37646484375,-0.0107421875,0.96484375,7.01904296875,22.0947265625,-4.0283203125,-3.0706787109375,22.6373291015625,-171.617431640625
1760837559.2172542,-0.40087890625,0.0029296875,0.9853515625,2.99072265625,20.44677734375,-2.44140625,-3.0267333984375,22.8350830078125,-171.6558837890625
1760837559.2244601,-0.40087890625,0.0029296875,0.9853515625,2.99072265625,20.44677734375,-2.44140625,-2.999267578125,23.0218505859375,-171.6888427734375
1760837559.2362065,-0.4267578125,0.01806640625,0.98779296875,-11.23046875,18.37158203125,-0.732421875,-3.0377197265625,23.203125,-171.705322265625
1760837559.24291,-0.4267578125,0.01806640625,0.98779296875,-11.23046875,18.37158203125,-0.732421875,-3.1475830078125,23.3734130859375,-171.71630859375
1760837559.2533875,-0.451171875,-0.00927734375,0.97607421875,-15.7470703125,15.93017578125,0.9765625,-3.2684326171875,23.53271484375,-171.71630859375
1760837559.271764,-0.451171875,-0.00927734375,0.97607421875,-15.7470703125,15.93017578125,0.9765625,-3.40576171875,23.6865234375,-171.7108154296875
1760837559.2873216,-0.4326171875,-0.0361328125,0.9755859375,-4.82177734375,13.00048828125,3.0517578125,-3.4881591796875,23.818359375,-171.683349609375
1760837559.3141491,-0.4326171875,-0.0361328125,0.9755859375,-4.82177734375,13.00048828125,3.0517578125,-3.5101318359375,23.9447021484375,-171.650390625
1760837559.3224025,-0.42822265625,-0.041015625,0.94287109375,7.99560546875,9.8876953125,4.2724609375,-3.4661865234375,24.049072265625,-171.6064453125
1760837559.3473492,-0.42822265625,-0.041015625,0.94287109375,7.99560546875,9.8876953125,4.2724609375,-3.3563232421875,24.1424560546875,-171.5570068359375
1760837559.3550546,-0.40673828125,-0.04296875,0.9033203125,10.498046875,7.99560546875,5.06591796875,-3.22998046875,24.224853515625,-171.5020751953125
1760837559.3618517,-0.40673828125,-0.04296875,0.9033203125,10.498046875,7.99560546875,5.06591796875,-3.0926513671875,24.3017578125,-171.4471435546875
1760837559.3685806,-0.4072265625,-0.04248046875,0.88427734375,7.568359375,7.6904296875,4.69970703125,-2.9718017578125,24.3731689453125,-171.3922119140625
1760837559.3817973,-0.4072265625,-0.04248046875,0.88427734375,7.568359375,7.6904296875,4.69970703125,-2.8729248046875,24.444580078125,-171.3372802734375
1760837559.3902597,-0.4111328125,-0.048828125,0.896484375,5.67626953125,7.87353515625,4.2724609375,-2.779541015625,24.521484375,-171.287841796875
1760837559.397868,-0.4111328125,-0.048828125,0.896484375,5.67626953125,7.87353515625,4.2724609375,-2.6971435546875,24.5928955078125,-171.243896484375
1760837559.4076436,-0.42431640625,-0.060546875,0.92724609375,10.19287109375,7.62939453125,4.57763671875,-2.5982666015625,24.6697998046875,-171.1944580078125
1760837559.4225252,-0.42431640625,-0.060546875,0.92724609375,10.19287109375,7.62939453125,4.57763671875,-2.471923828125,24.7412109375,-171.1505126953125
1760837559.430149,-0.533203125,-0.24658203125,1.306640625,7.87353515625,1.64794921875,2.01416015625,-2.373046875,24.7796630859375,-171.112060546875
1760837559.4367735,-0.533203125,-0.24658203125,1.306640625,7.87353515625,1.64794921875,2.01416015625,-2.2906494140625,24.7906494140625,-171.10107421875
1760837559.4430873,-0.49365234375,-0.12841796875,0.9970703125,-10.009765625,-1.46484375,-0.91552734375,-2.3126220703125,24.78515625,-171.1065673828125
1760837559.4497492,-0.49365234375,-0.12841796875,0.9970703125,-10.009765625,-1.46484375,-0.91552734375,-2.427978515625,24.76318359375,-171.123046875
1760837559.4631815,-0.384765625,-0.00341796875,0.74267578125,-6.4697265625,-0.54931640625,-2.0751953125,-2.5323486328125,24.7467041015625,-171.1505126953125
1760837559.4709594,-0.384765625,-0.00341796875,0.74267578125,-6.4697265625,-0.54931640625,-2.0751953125,-2.6202392578125,24.7357177734375,-171.177978515625
1760837559.4775336,-0.37158203125,-0.0224609375,0.82666015625,1.708984375,2.50244140625,-1.52587890625,-2.65869140625,24.7467041015625,-171.199951171875
1760837559.4846928,-0.37158203125,-0.0224609375,0.82666015625,1.708984375,2.50244140625,-1.52587890625,-2.65869140625,24.7686767578125,-171.221923828125
1760837559.4949713,-0.4267578125,0.0,0.90185546875,15.80810546875,2.62451171875,-0.9765625,-2.581787109375,24.7906494140625,-171.2384033203125
1760837559.5036516,-0.4267578125,0.0,0.90185546875,15.80810546875,2.62451171875,-0.9765625,-2.4334716796875,24.8126220703125,-171.2493896484375
1760837559.5109727,-0.4736328125,-0.0634765625,1.04541015625,11.962890625,0.67138671875,-1.03759765625,-2.30712890625,24.8291015625,-171.2603759765625
1760837559.5263026,-0.4736328125,-0.0634765625,1.04541015625,11.962890625,0.67138671875,-1.03759765625,-2.197265625,24.8291015625,-171.2713623046875
1760837559.5390525,-0.45458984375,-0.0234375,0.89306640625,0.732421875,-0.67138671875,-1.40380859375,-2.1478271484375,24.8291015625,-171.2823486328125
1760837559.5492158,-0.45458984375,-0.0234375,0.89306640625,0.732421875,-0.67138671875,-1.40380859375,-2.1478271484375,24.8236083984375,-171.298828125
1760837559.5612347,-0.42138671875,0.00439453125,0.8291015625,2.197265625,0.6103515625,-0.91552734375,-2.142333984375,24.8236083984375,-171.3043212890625
1760837559.5785632,-0.42138671875,0.00439453125,0.8291015625,2.197265625,0.6103515625,-0.91552734375,-2.13134765625,24.8291015625,-171.309814453125
1760837559.5862744,-0.43212890625,-0.02685546875,0.93212890625,2.3193359375,2.01416015625,-0.6103515625,-2.109375,24.8455810546875,-171.3153076171875
1760837559.619375,-0.43212890625,-0.02685546875,0.93212890625,2.3193359375,2.01416015625,-0.6103515625,-2.0928955078125,24.8675537109375,-171.3153076171875
1760837559.6309826,-0.42041015625,-0.05224609375,0.9453125,-1.220703125,1.953125,-0.9765625,-2.0928955078125,24.8895263671875,-171.32080078125
1760837559.6379774,-0.42041015625,-0.05224609375,0.9453125,-1.220703125,1.953125,-0.9765625,-2.109375,24.9114990234375,-171.3262939453125
1760837559.6450155,-0.40478515625,-0.04052734375,0.90087890625,-0.3662109375,1.89208984375,-1.15966796875,-2.1258544921875,24.927978515625,-171.3372802734375
1760837559.6652129,-0.40478515625,-0.04052734375,0.90087890625,-0.3662109375,1.89208984375,-1.15966796875,-2.1368408203125,24.9444580078125,-171.3482666015625
1760837559.6727147,-0.4072265625,-0.03466796875,0.9140625,-0.1220703125,2.01416015625,-1.03759765625,-2.1478271484375,24.9664306640625,-171.3592529296875
1760837559.6792524,-0.4072265625,-0.03466796875,0.9140625,-0.1220703125,2.01416015625,-1.03759765625,-2.1533203125,24.98291015625,-171.3702392578125
1760837559.6860898,-0.4130859375,-0.0439453125,0.92333984375,-1.28173828125,1.89208984375,-0.732421875,-2.164306640625,24.9993896484375,-171.375732421875
1760837559.6938071,-0.4130859375,-0.0439453125,0.92333984375,-1.28173828125,1.89208984375,-0.732421875,-2.186279296875,25.015869140625,-171.38671875
1760837559.701385,-0.40185546875,-0.04443359375,0.91357421875,-0.91552734375,1.8310546875,-0.18310546875,-2.197265625,25.0323486328125,-171.397705078125
1760837559.7086573,-0.40185546875,-0.04443359375,0.91357421875,-0.91552734375,1.8310546875,-0.18310546875,-2.2137451171875,25.048828125,-171.397705078125
1760837559.7154706,-0.39990234375,-0.04150390625,0.90234375,-1.03759765625,1.8310546875,0.244140625,-2.2247314453125,25.059814453125,-171.4031982421875
1760837559.7223535,-0.39990234375,-0.04150390625,0.90234375,-1.03759765625,1.8310546875,0.244140625,-2.2357177734375,25.0762939453125,-171.40869140625
1760837559.7298272,-0.42236328125,-0.0380859375,0.92431640625,-1.40380859375,1.40380859375,0.6103515625,-2.2467041015625,25.0872802734375,-171.40869140625
1760837559.7387292,-0.42236328125,-0.0380859375,0.92431640625,-1.40380859375,1.40380859375,0.6103515625,-2.2576904296875,25.0982666015625,-171.4031982421875
1760837559.7457302,-0.42041015625,-0.03759765625,0.92041015625,-1.46484375,0.9765625,0.67138671875,-2.274169921875,25.103759765625,-171.4031982421875
1760837559.7577336,-0.42041015625,-0.03759765625,0.92041015625,-1.46484375,0.9765625,0.67138671875,-2.28515625,25.1092529296875,-171.397705078125
1760837559.7644587,-0.42041015625,-0.03759765625,0.92041015625,-2.197265625,1.0986328125,0.79345703125,-2.3016357421875,25.11474609375,-171.3922119140625
1760837559.7783775,-0.41796875,-0.0341796875,0.9013671875,-2.197265625,1.0986328125,0.79345703125,-2.3236083984375,25.125732421875,-171.38671875
1760837559.7867012,-0.42431640625,-0.04052734375,0.9013671875,-2.8076171875,1.5869140625,0.8544921875,-2.3455810546875,25.1312255859375,-171.3812255859375
1760837559.7942796,-0.42431640625,-0.04052734375,0.9013671875,-2.8076171875,1.5869140625,0.8544921875,-2.3675537109375,25.147705078125,-171.375732421875
1760837559.8027685,-0.45068359375,-0.04443359375,0.91162109375,-3.173828125,1.77001953125,0.8544921875,-2.39501953125,25.15869140625,-171.36474609375
1760837559.8103256,-0.45068359375,-0.04443359375,0.91162109375,-3.173828125,1.77001953125,0.8544921875,-2.4224853515625,25.1751708984375,-171.3592529296875
1760837559.8287945,-0.4658203125,-0.03271484375,0.89306640625,-3.5400390625,1.89208984375,1.03759765625,-2.4554443359375,25.191650390625,-171.3482666015625
1760837559.8384838,-0.4658203125,-0.03271484375,0.89306640625,-3.5400390625,1.89208984375,1.03759765625,-2.48291015625,25.213623046875,-171.331787109375
1760837559.84792,-0.4482421875,-0.0361328125,0.89111328125,-4.08935546875,2.0751953125,1.28173828125,-2.515869140625,25.235595703125,-171.32080078125
1760837559.856873,-0.4482421875,-0.0361328125,0.89111328125,-4.08935546875,2.0751953125,1.28173828125,-2.548828125,25.257568359375,-171.3043212890625
1760837559.864572,-0.43798828125,-0.04541015625,0.9033203125,-4.21142578125,2.0751953125,1.28173828125,-2.5872802734375,25.279541015625,-171.287841796875
1760837559.882987,-0.43798828125,-0.04541015625,0.9033203125,-4.21142578125,2.0751953125,1.28173828125,-2.6202392578125,25.301513671875,-171.265869140625
1760837559.8914108,-0.43115234375,-0.05712890625,0.89794921875,-2.3193359375,1.953125,0.91552734375,-2.6422119140625,25.323486328125,-171.2548828125
1760837559.8981016,-0.43115234375,-0.05712890625,0.89794921875,-2.3193359375,1.953125,0.91552734375,-2.65869140625,25.345458984375,-171.243896484375
1760837559.9052718,-0.423828125,-0.05078125,0.89599609375,0.0,1.708984375,0.48828125,-2.65869140625,25.367431640625,-171.2384033203125
1760837559.9126606,-0.423828125,-0.05078125,0.89599609375,0.0,1.708984375,0.48828125,-2.65869140625,25.3839111328125,-171.23291015625
1760837559.921025,-0.42138671875,-0.04443359375,0.8984375,2.0751953125,1.220703125,0.18310546875,-2.63671875,25.400390625,-171.2274169921875
1760837559.9425564,-0.42138671875,-0.04443359375,0.8984375,2.0751953125,1.220703125,0.18310546875,-2.6202392578125,25.411376953125,-171.221923828125
1760837559.9550457,-0.412109375,-0.05029296875,0.9150390625,2.44140625,0.48828125,0.06103515625,-2.5927734375,25.4168701171875,-171.221923828125
1760837559.981749,-0.412109375,-0.05029296875,0.9150390625,2.44140625,0.48828125,0.06103515625,-2.57080078125,25.4168701171875,-171.221923828125
1760837559.9926035,-0.41357421875,-0.041015625,0.91455078125,0.6103515625,-0.18310546875,0.0,-2.5653076171875,25.4168701171875,-171.221923828125
1760837560.0204437,-0.41357421875,-0.041015625,0.91455078125,0.6103515625,-0.18310546875,0.0,-2.5653076171875,25.411376953125,-171.2274169921875
1760837560.031703,-0.40478515625,-0.03564453125,0.904296875,0.91552734375,-0.8544921875,0.0,-2.5543212890625,25.400390625,-171.2274169921875
1760837560.0550768,-0.40478515625,-0.03564453125,0.904296875,0.91552734375,-0.8544921875,0.0,-2.548828125,25.389404296875,-171.2274169921875
1760837560.0629117,-0.4072265625,-0.04638671875,0.912109375,2.9296875,-1.28173828125,-0.244140625,-2.5213623046875,25.3729248046875,-171.23291015625
1760837560.0817869,-0.4072265625,-0.04638671875,0.912109375,2.9296875,-1.28173828125,-0.244140625,-2.493896484375,25.3564453125,-171.2384033203125
1760837560.0896602,-0.41259765625,-0.04638671875,0.91552734375,3.47900390625,-1.46484375,-0.42724609375,-2.4609375,25.3399658203125,-171.2493896484375
1760837560.0964606,-0.41259765625,-0.04638671875,0.91552734375,3.47900390625,-1.46484375,-0.42724609375,-2.427978515625,25.3179931640625,-171.2548828125
1760837560.1033213,-0.41943359375,-0.0361328125,0.91357421875,2.3193359375,-1.77001953125,-0.244140625,-2.4114990234375,25.2960205078125,-171.2603759765625
1760837560.1099293,-0.41943359375,-0.0361328125,0.91357421875,2.3193359375,-1.77001953125,-0.244140625,-2.3895263671875,25.2740478515625,-171.265869140625
1760837560.1172476,-0.42431640625,-0.037109375,0.9111328125,1.15966796875,-2.0751953125,0.06103515625,-2.3785400390625,25.2520751953125,-171.2713623046875
1760837560.1238284,-0.42431640625,-0.037109375,0.9111328125,1.15966796875,-2.0751953125,0.06103515625,-2.3675537109375,25.2301025390625,-171.2713623046875
1760837560.1519654,-0.4228515625,-0.04541015625,0.90966796875,0.18310546875,-2.0751953125,0.42724609375,-2.3675537109375,25.20263671875,-171.2713623046875
1760837560.163286,-0.4228515625,-0.04541015625,0.90966796875,0.18310546875,-2.0751953125,0.42724609375,-2.362060546875,25.1806640625,-171.265869140625
1760837560.173841,-0.43505859375,-0.03564453125,0.9091796875,-0.54931640625,-2.0751953125,0.79345703125,-2.3675537109375,25.15869140625,-171.2603759765625
1760837560.1890967,-0.43505859375,-0.03564453125,0.9091796875,-0.54931640625,-2.0751953125,0.79345703125,-2.3675537109375,25.13671875,-171.2493896484375
1760837560.2053955,-0.4423828125,-0.03759765625,0.89990234375,-0.244140625,-1.77001953125,1.220703125,-2.3675537109375,25.1202392578125,-171.2384033203125
1760837560.2120812,-0.4423828125,-0.03759765625,0.89990234375,-0.244140625,-1.77001953125,1.220703125,-2.362060546875,25.0982666015625,-171.221923828125
1760837560.2183707,-0.439453125,-0.04443359375,0.89501953125,-0.48828125,-1.15966796875,1.52587890625,-2.362060546875,25.0927734375,-171.2054443359375
1760837560.2253318,-0.439453125,-0.04443359375,0.89501953125,-0.48828125,-1.15966796875,1.52587890625,-2.362060546875,25.081787109375,-171.1834716796875
1760837560.2319126,-0.43359375,-0.05078125,0.89697265625,-0.06103515625,-0.8544921875,1.89208984375,-2.3565673828125,25.0762939453125,-171.1614990234375
1760837560.2385702,-0.43359375,-0.05078125,0.89697265625,-0.06103515625,-0.8544921875,1.89208984375,-2.3455810546875,25.07080078125,-171.1395263671875
1760837560.2449543,-0.4375,-0.056640625,0.91162109375,0.48828125,-0.91552734375,2.13623046875,-2.3345947265625,25.0653076171875,-171.112060546875
1760837560.252199,-0.4375,-0.056640625,0.91162109375,0.48828125,-0.91552734375,2.13623046875,-2.3236083984375,25.0543212890625,-171.0845947265625
1760837560.258813,-0.4443359375,-0.03759765625,0.90380859375,-0.06103515625,-1.0986328125,2.50244140625,-2.318115234375,25.048828125,-171.05712890625
1760837560.266284,-0.4443359375,-0.03759765625,0.90380859375,-0.06103515625,-1.0986328125,2.50244140625,-2.30712890625,25.0433349609375,-171.024169921875
1760837560.272798,-0.44970703125,-0.03076171875,0.8876953125,0.0,-0.9765625,3.11279296875,-2.296142578125,25.037841796875,-170.9857177734375
1760837560.2790174,-0.44970703125,-0.03076171875,0.8876953125,0.0,-0.9765625,3.11279296875,-2.28515625,25.0323486328125,-170.947265625
1760837560.2864497,-0.43896484375,-0.046875,0.89013671875,1.28173828125,-0.732421875,3.2958984375,-2.2576904296875,25.0323486328125,-170.9033203125
1760837560.2932842,-0.43896484375,-0.046875,0.89013671875,1.28173828125,-0.732421875,3.2958984375,-2.230224609375,25.0323486328125,-170.8648681640625
1760837560.300596,-0.4306640625,-0.046875,0.91015625,1.953125,-0.6103515625,3.2958984375,-2.197265625,25.0323486328125,-170.8209228515625
1760837560.3071861,-0.4306640625,-0.046875,0.91015625,1.953125,-0.6103515625,3.2958984375,-2.1697998046875,25.0323486328125,-170.7769775390625
1760837560.3135977,-0.43896484375,-0.0322265625,0.9140625,0.9765625,-0.6103515625,3.11279296875,-2.1478271484375,25.0323486328125,-170.738525390625
1760837560.320572,-0.43896484375,-0.0322265625,0.9140625,0.9765625,-0.6103515625,3.11279296875,-2.1258544921875,25.02685546875,-170.7000732421875
1760837560.3267367,-0.439453125,-0.0234375,0.90673828125,1.15966796875,-0.54931640625,3.173828125,-2.1038818359375,25.02685546875,-170.66162109375
1760837560.3339057,-0.439453125,-0.0234375,0.90673828125,1.15966796875,-0.54931640625,3.173828125,-2.076416015625,25.0323486328125,-170.61767578125
1760837560.3406885,-0.4345703125,-0.025390625,0.89453125,0.48828125,-0.1220703125,3.2958984375,-2.0599365234375,25.0323486328125,-170.5792236328125
1760837560.348975,-0.4345703125,-0.025390625,0.89453125,0.48828125,-0.1220703125,3.2958984375,-2.0379638671875,25.037841796875,-170.5352783203125
1760837560.355101,-0.4306640625,-0.037109375,0.904296875,0.42724609375,0.30517578125,3.173828125,-2.021484375,25.048828125,-170.496826171875
1760837560.361558,-0.4306640625,-0.037109375,0.904296875,0.42724609375,0.30517578125,3.173828125,-2.0050048828125,25.0543212890625,-170.4583740234375
1760837560.3687525,-0.43603515625,-0.03857421875,0.91845703125,0.1220703125,0.42724609375,2.86865234375,-1.9940185546875,25.0653076171875,-170.419921875
1760837560.3756483,-0.43603515625,-0.03857421875,0.91845703125,0.1220703125,0.42724609375,2.86865234375,-1.9775390625,25.07080078125,-170.3814697265625
1760837560.3829067,-0.43408203125,-0.0244140625,0.9052734375,0.3662109375,0.48828125,2.62451171875,-1.966552734375,25.081787109375,-170.3485107421875
1760837560.3892746,-0.43408203125,-0.0244140625,0.9052734375,0.3662109375,0.48828125,2.62451171875,-1.9500732421875,25.0927734375,-170.3155517578125
1760837560.395512,-0.419921875,-0.0283203125,0.8994140625,1.220703125,0.54931640625,2.44140625,-1.9281005859375,25.0982666015625,-170.2825927734375
1760837560.403191,-0.419921875,-0.0283203125,0.8994140625,1.220703125,0.54931640625,2.44140625,-1.9061279296875,25.1092529296875,-170.255126953125
1760837560.4095924,-0.419921875,-0.02880859375,0.90478515625,0.54931640625,0.6103515625,2.01416015625,-1.8896484375,25.1202392578125,-170.2276611328125
1760837560.4157267,-0.419921875,-0.02880859375,0.90478515625,0.54931640625,0.6103515625,2.01416015625,-1.878662109375,25.125732421875,-170.2001953125
1760837560.4241903,-0.42578125,-0.02734375,0.90869140625,0.732421875,0.3662109375,1.5869140625,-1.8621826171875,25.1312255859375,-170.17822265625
1760837560.4310982,-0.42578125,-0.02734375,0.90869140625,0.732421875,0.3662109375,1.5869140625,-1.8511962890625,25.13671875,-170.15625
1760837560.4382436,-0.43212890625,-0.029296875,0.90771484375,1.8310546875,0.0,1.0986328125,-1.8292236328125,25.1422119140625,-170.145263671875
1760837560.4446142,-0.43212890625,-0.029296875,0.90771484375,1.8310546875,0.0,1.0986328125,-1.8072509765625,25.1422119140625,-170.1287841796875
1760837560.451731,-0.43359375,-0.02783203125,0.900390625,2.25830078125,-0.244140625,0.91552734375,-1.77978515625,25.1422119140625,-170.1177978515625
1760837560.458507,-0.43359375,-0.02783203125,0.900390625,2.25830078125,-0.244140625,0.91552734375,-1.7523193359375,25.1422119140625,-170.101318359375
1760837560.4649694,-0.4287109375,-0.02392578125,0.89794921875,2.5634765625,-0.3662109375,0.732421875,-1.724853515625,25.13671875,-170.09033203125
1760837560.4720907,-0.4287109375,-0.02392578125,0.89794921875,2.5634765625,-0.3662109375,0.732421875,-1.6973876953125,25.13671875,-170.079345703125
1760837560.479749,-0.4287109375,-0.0205078125,0.90771484375,1.5869140625,-0.3662109375,0.6103515625,-1.680908203125,25.13671875,-170.068359375
1760837560.490034,-0.4287109375,-0.0205078125,0.90771484375,1.5869140625,-0.3662109375,0.6103515625,-1.658935546875,25.13671875,-170.057373046875
1760837560.5006425,-0.435546875,-0.01953125,0.91162109375,0.732421875,-0.67138671875,0.48828125,-1.6534423828125,25.1312255859375,-170.0518798828125
1760837560.5103528,-0.435546875,-0.01953125,0.91162109375,0.732421875,-0.67138671875,0.48828125,-1.6424560546875,25.125732421875,-170.0408935546875
1760837560.5285194,-0.43994140625,-0.0205078125,0.89697265625,0.6103515625,-0.79345703125,0.42724609375,-1.6314697265625,25.1202392578125,-170.035400390625
1760837560.5348299,-0.43994140625,-0.0205078125,0.89697265625,0.6103515625,-0.79345703125,0.42724609375,-1.6259765625,25.11474609375,-170.0244140625
1760837560.5612166,-0.4326171875,-0.02783203125,0.89501953125,0.8544921875,-0.79345703125,0.30517578125,-1.614990234375,25.1092529296875,-170.0189208984375
1760837560.5686224,-0.4326171875,-0.02783203125,0.89501953125,0.8544921875,-0.79345703125,0.30517578125,-1.60400390625,25.103759765625,-170.0079345703125
1760837560.5860653,-0.42822265625,-0.02880859375,0.9033203125,0.91552734375,-0.79345703125,0.18310546875,-1.593017578125,25.0982666015625,-170.00244140625
1760837560.6021924,-0.42822265625,-0.02880859375,0.9033203125,0.91552734375,-0.79345703125,0.18310546875,-1.5875244140625,25.0927734375,-169.9969482421875
1760837560.6213565,-0.43212890625,-0.02099609375,0.9140625,0.42724609375,-0.9765625,0.06103515625,-1.58203125,25.0872802734375,-169.991455078125
1760837560.6368325,-0.43212890625,-0.02099609375,0.9140625,0.42724609375,-0.9765625,0.06103515625,-1.5765380859375,25.081787109375,-169.9859619140625
1760837560.6430316,-0.4326171875,-0.0185546875,0.9013671875,0.48828125,-1.15966796875,0.0,-1.571044921875,25.07080078125,-169.98046875
1760837560.6503665,-0.4326171875,-0.0185546875,0.9013671875,0.48828125,-1.15966796875,0.0,-1.5655517578125,25.059814453125,-169.9749755859375
1760837560.6603544,-0.43212890625,-0.0263671875,0.90234375,0.54931640625,-1.220703125,0.06103515625,-1.56005859375,25.0543212890625,-169.969482421875
1760837560.6786482,-0.43212890625,-0.0263671875,0.90234375,0.54931640625,-1.220703125,0.06103515625,-1.5545654296875,25.0433349609375,-169.9639892578125
1760837560.6916735,-0.42578125,-0.0283203125,0.90869140625,0.732421875,-1.28173828125,0.1220703125,-1.5435791015625,25.0323486328125,-169.9530029296875
1760837560.706957,-0.42578125,-0.0283203125,0.90869140625,0.732421875,-1.28173828125,0.1220703125,-1.5380859375,25.0213623046875,-169.947509765625
1760837560.7255833,-0.42529296875,-0.02783203125,0.90283203125,1.0986328125,-1.220703125,0.0,-1.527099609375,25.015869140625,-169.9420166015625
1760837560.7431252,-0.42529296875,-0.02783203125,0.90283203125,1.0986328125,-1.220703125,0.0,-1.51611328125,25.0048828125,-169.9365234375
1760837560.7576854,-0.4306640625,-0.02392578125,0.90185546875,2.197265625,-1.0986328125,-0.244140625,-1.4996337890625,24.993896484375,-169.9365234375
1760837560.7745552,-0.4306640625,-0.02392578125,0.90185546875,2.197265625,-1.0986328125,-0.244140625,-1.4776611328125,24.9884033203125,-169.9310302734375
1760837560.789044,-0.427734375,-0.025390625,0.9072265625,3.7841796875,-1.03759765625,-0.48828125,-1.4447021484375,24.9774169921875,-169.9310302734375
1760837560.8079338,-0.427734375,-0.025390625,0.9072265625,3.7841796875,-1.03759765625,-0.48828125,-1.40625,24.971923828125,-169.9310302734375
1760837560.8330212,-0.4248046875,-0.02001953125,0.9169921875,3.60107421875,-0.91552734375,-0.54931640625,-1.373291015625,24.9664306640625,-169.9365234375
1760837560.8404922,-0.4248046875,-0.02001953125,0.9169921875,3.60107421875,-0.91552734375,-0.54931640625,-1.34033203125,24.9554443359375,-169.9365234375
1760837560.8474085,-0.4267578125,-0.0166015625,0.90771484375,2.0751953125,-0.732421875,-0.48828125,-1.3238525390625,24.949951171875,-169.9365234375
1760837560.854611,-0.4267578125,-0.0166015625,0.90771484375,2.0751953125,-0.732421875,-0.48828125,-1.307373046875,24.9444580078125,-169.9420166015625
1760837560.8793144,-0.4423828125,-0.01025390625,0.90185546875,1.46484375,-0.3662109375,-0.48828125,-1.29638671875,24.9444580078125,-169.9420166015625
1760837560.8859513,-0.4423828125,-0.01025390625,0.90185546875,1.46484375,-0.3662109375,-0.48828125,-1.285400390625,24.9444580078125,-169.9420166015625
1760837560.8940134,-0.4384765625,-0.021484375,0.9013671875,1.77001953125,-0.1220703125,-0.54931640625,-1.2689208984375,24.9444580078125,-169.9365234375
1760837560.9007375,-0.4384765625,-0.021484375,0.9013671875,1.77001953125,-0.1220703125,-0.54931640625,-1.25244140625,24.949951171875,-169.9365234375
1760837560.907326,-0.431640625,-0.021484375,0.90234375,1.77001953125,0.0,-0.67138671875,-1.241455078125,24.949951171875,-169.9365234375
1760837560.9144912,-0.431640625,-0.021484375,0.90234375,1.77001953125,0.0,-0.67138671875,-1.2249755859375,24.9554443359375,-169.9420166015625
1760837560.9291382,-0.4287109375,-0.01904296875,0.9072265625,1.220703125,0.0,-0.79345703125,-1.219482421875,24.9554443359375,-169.9420166015625
1760837560.9364536,-0.4267578125,-0.01806640625,0.90966796875,0.6103515625,0.0,-0.732421875,-1.2139892578125,24.9609375,-169.947509765625
1760837560.942784,-0.4267578125,-0.01806640625,0.90966796875,0.6103515625,0.0,-0.732421875,-1.20849609375,24.9609375,-169.947509765625
1760837560.9496279,-0.42138671875,-0.0205078125,0.90673828125,0.3662109375,0.0,-0.8544921875,-1.20849609375,24.9664306640625,-169.947509765625
1760837560.9643745,-0.42138671875,-0.0205078125,0.90673828125,0.3662109375,0.0,-0.8544921875,-1.20849609375,24.9664306640625,-169.9530029296875
1760837560.972293,-0.42236328125,-0.0185546875,0.90380859375,0.9765625,-0.1220703125,-0.79345703125,-1.20849609375,24.971923828125,-169.95849609375
1760837560.9808009,-0.42236328125,-0.0185546875,0.90380859375,0.9765625,-0.1220703125,-0.79345703125,-1.2030029296875,24.971923828125,-169.9639892578125
1760837560.987269,-0.41455078125,-0.02001953125,0.91357421875,1.46484375,-0.3662109375,-0.67138671875,-1.1920166015625,24.9664306640625,-169.969482421875
1760837560.9955828,-0.41455078125,-0.02001953125,0.91357421875,1.46484375,-0.3662109375,-0.67138671875,-1.1810302734375,24.9664306640625,-169.9749755859375
1760837561.009282,-0.4091796875,-0.0224609375,0.91845703125,0.732421875,-0.732421875,-0.48828125,-1.175537109375,24.9609375,-169.98046875
1760837561.0198598,-0.4091796875,-0.0224609375,0.91845703125,0.732421875,-0.732421875,-0.48828125,-1.1700439453125,24.9554443359375,-169.9859619140625
1760837561.026427,-0.41943359375,-0.0146484375,0.9140625,-0.1220703125,-0.91552734375,-0.30517578125,-1.1700439453125,24.9444580078125,-169.991455078125
1760837561.0326734,-0.41943359375,-0.0146484375,0.9140625,-0.1220703125,-0.91552734375,-0.30517578125,-1.1700439453125,24.9334716796875,-169.991455078125
1760837561.040224,-0.4267578125,-0.0146484375,0.900390625,-0.1220703125,-1.0986328125,-0.1220703125,-1.175537109375,24.927978515625,-169.9969482421875
1760837561.0468373,-0.4267578125,-0.0146484375,0.900390625,-0.1220703125,-1.0986328125,-0.1220703125,-1.175537109375,24.9169921875,-169.9969482421875
1760837561.0609117,-0.4228515625,-0.0224609375,0.90380859375,0.18310546875,-1.0986328125,-0.06103515625,-1.175537109375,24.906005859375,-169.991455078125
1760837561.069353,-0.4228515625,-0.0224609375,0.90380859375,0.18310546875,-1.0986328125,-0.06103515625,-1.175537109375,24.89501953125,-169.991455078125
1760837561.0758398,-0.41650390625,-0.02490234375,0.9169921875,1.15966796875,-1.15966796875,-0.18310546875,-1.1700439453125,24.884033203125,-169.9969482421875
1760837561.0830507,-0.41650390625,-0.02490234375,0.9169921875,1.15966796875,-1.15966796875,-0.18310546875,-1.1590576171875,24.873046875,-169.9969482421875
1760837561.0991247,-0.4189453125,-0.0205078125,0.916015625,1.40380859375,-1.220703125,-0.18310546875,-1.1480712890625,24.8565673828125,-169.9969482421875
1760837561.1085594,-0.4189453125,-0.0205078125,0.916015625,1.40380859375,-1.220703125,-0.18310546875,-1.1370849609375,24.8455810546875,-170.00244140625
1760837561.123105,-0.43017578125,-0.01416015625,0.90087890625,1.28173828125,-1.220703125,-0.1220703125,-1.12060546875,24.8345947265625,-170.00244140625
1760837561.1403623,-0.43017578125,-0.01416015625,0.90087890625,1.28173828125,-1.220703125,-0.1220703125,-1.109619140625,24.8236083984375,-170.00244140625
1760837561.1468832,-0.4189453125,-0.02001953125,0.90625,1.40380859375,-1.0986328125,-0.1220703125,-1.0986328125,24.8126220703125,-170.00244140625
1760837561.1608553,-0.4189453125,-0.02001953125,0.90625,1.40380859375,-1.0986328125,-0.1220703125,-1.087646484375,24.8016357421875,-170.00244140625
1760837561.178943,-0.41162109375,-0.02294921875,0.91357421875,2.01416015625,-0.9765625,-0.1220703125,-1.0711669921875,24.7906494140625,-170.00244140625
1760837561.1871052,-0.41162109375,-0.02294921875,0.91357421875,2.01416015625,-0.9765625,-0.1220703125,-1.0491943359375,24.7796630859375,-170.00244140625
1760837561.203176,-0.41015625,-0.015625,0.91845703125,1.5869140625,-1.0986328125,-0.06103515625,-1.03271484375,24.774169921875,-170.00244140625
1760837561.209854,-0.41015625,-0.015625,0.91845703125,1.5869140625,-1.0986328125,-0.06103515625,-1.021728515625,24.76318359375,-170.00244140625
1760837561.2239728,-0.41845703125,-0.009765625,0.91455078125,0.06103515625,-1.0986328125,0.06103515625,-1.0162353515625,24.7467041015625,-170.00244140625
1760837561.2306218,-0.41845703125,-0.009765625,0.91455078125,0.06103515625,-1.0986328125,0.06103515625,-1.0107421875,24.7357177734375,-170.00244140625
1760837561.2445512,-0.42041015625,-0.01416015625,0.908203125,-0.1220703125,-1.0986328125,0.3662109375,-1.0107421875,24.7247314453125,-170.00244140625
1760837561.251725,-0.42041015625,-0.01416015625,0.908203125,-0.1220703125,-1.0986328125,0.3662109375,-1.0107421875,24.7137451171875,-169.9969482421875
1760837561.2697153,-0.4189453125,-0.0205078125,0.9091796875,-0.244140625,-1.03759765625,0.48828125,-1.0107421875,24.7027587890625,-169.991455078125
1760837561.2786644,-0.4189453125,-0.0205078125,0.9091796875,-0.244140625,-1.03759765625,0.48828125,-1.0107421875,24.6917724609375,-169.9859619140625
1760837561.3138652,-0.41357421875,-0.01953125,0.912109375,-0.1220703125,-0.8544921875,0.6103515625,-1.0107421875,24.686279296875,-169.98046875
1760837561.3241506,-0.41357421875,-0.01953125,0.912109375,-0.1220703125,-0.8544921875,0.6103515625,-1.0107421875,24.67529296875,-169.9749755859375
1760837561.3333418,-0.42333984375,-0.017578125,0.91943359375,-0.9765625,-0.732421875,0.6103515625,-1.0162353515625,24.6697998046875,-169.969482421875
1760837561.3417807,-0.42333984375,-0.017578125,0.91943359375,-0.9765625,-0.732421875,0.6103515625,-1.021728515625,24.6588134765625,-169.95849609375
1760837561.3576508,-0.42333984375,-0.017578125,0.91943359375,-1.8310546875,-0.42724609375,0.79345703125,-1.03271484375,24.6533203125,-169.9530029296875
1760837561.3689723,-0.44140625,-0.00927734375,0.90673828125,-1.8310546875,-0.42724609375,0.79345703125,-1.0491943359375,24.6533203125,-169.9420166015625
1760837561.3753715,-0.44287109375,-0.01513671875,0.896484375,-1.89208984375,0.0,1.0986328125,-1.0601806640625,24.6533203125,-169.925537109375
1760837561.3820357,-0.44287109375,-0.01513671875,0.896484375,-1.89208984375,0.0,1.0986328125,-1.07666015625,24.6533203125,-169.9090576171875
1760837561.3979135,-0.43505859375,-0.02587890625,0.9013671875,-1.5869140625,0.54931640625,1.220703125,-1.087646484375,24.6588134765625,-169.892578125
1760837561.4179273,-0.43505859375,-0.02587890625,0.9013671875,-1.5869140625,0.54931640625,1.220703125,-1.0986328125,24.6697998046875,-169.8760986328125
1760837561.4277263,-0.42822265625,-0.02197265625,0.9091796875,-0.9765625,0.732421875,1.15966796875,-1.1041259765625,24.6807861328125,-169.8541259765625
1760837561.4466326,-0.42822265625,-0.02197265625,0.9091796875,-0.9765625,0.732421875,1.15966796875,-1.109619140625,24.6917724609375,-169.837646484375
1760837561.4662194,-0.42236328125,-0.01171875,0.90625,-0.48828125,0.9765625,1.03759765625,-1.1151123046875,24.7027587890625,-169.8211669921875
1760837561.4771094,-0.42236328125,-0.01171875,0.90625,-0.48828125,0.9765625,1.03759765625,-1.1151123046875,24.7137451171875,-169.8101806640625
1760837561.4975295,-0.42431640625,-0.0126953125,0.916015625,-1.40380859375,1.28173828125,0.9765625,-1.12060546875,24.730224609375,-169.793701171875
1760837561.5148919,-0.42431640625,-0.0126953125,0.916015625,-1.40380859375,1.28173828125,0.9765625,-1.1260986328125,24.7467041015625,-169.78271484375
1760837561.5222652,-0.42578125,-0.01123046875,0.91162109375,-2.50244140625,1.40380859375,1.03759765625,-1.142578125,24.76318359375,-169.7662353515625
1760837561.5320842,-0.42578125,-0.01123046875,0.91162109375,-2.50244140625,1.40380859375,1.03759765625,-1.1590576171875,24.7796630859375,-169.7552490234375
1760837561.539623,-0.42138671875,-0.01708984375,0.90576171875,-3.0517578125,1.5869140625,1.15966796875,-1.1810302734375,24.796142578125,-169.73876953125
1760837561.5469437,-0.42138671875,-0.01708984375,0.90576171875,-3.0517578125,1.5869140625,1.15966796875,-1.20849609375,24.8126220703125,-169.7222900390625
1760837561.5633361,-0.41748046875,-0.0244140625,0.91015625,-2.25830078125,1.708984375,0.9765625,-1.2249755859375,24.8291015625,-169.705810546875
1760837561.583661,-0.41748046875,-0.0244140625,0.91015625,-2.25830078125,1.708984375,0.9765625,-1.2469482421875,24.85107421875,-169.69482421875
1760837561.5915966,-0.41552734375,-0.02783203125,0.91015625,-0.732421875,1.5869140625,0.54931640625,-1.2579345703125,24.8675537109375,-169.683837890625
1760837561.6098754,-0.41552734375,-0.02783203125,0.91015625,-0.732421875,1.5869140625,0.54931640625,-1.2579345703125,24.884033203125,-169.6783447265625
1760837561.6176674,-0.41650390625,-0.02001953125,0.9140625,0.18310546875,1.28173828125,0.1220703125,-1.263427734375,24.89501953125,-169.6728515625
1760837561.6270914,-0.41650390625,-0.02001953125,0.9140625,0.18310546875,1.28173828125,0.1220703125,-1.2579345703125,24.9114990234375,-169.6673583984375
1760837561.6336396,-0.42236328125,-0.009765625,0.91162109375,-0.6103515625,1.15966796875,0.0,-1.2579345703125,24.9224853515625,-169.6673583984375
1760837561.6433978,-0.42236328125,-0.009765625,0.91162109375,-0.6103515625,1.15966796875,0.0,-1.263427734375,24.9334716796875,-169.6673583984375
1760837561.6502259,-0.42041015625,-0.01220703125,0.90576171875,-1.28173828125,0.9765625,0.06103515625,-1.2744140625,24.9444580078125,-169.6673583984375
1760837561.6578956,-0.42041015625,-0.01220703125,0.90576171875,-1.28173828125,0.9765625,0.06103515625,-1.285400390625,24.949951171875,-169.6673583984375
1760837561.665422,-0.41650390625,-0.0205078125,0.91064453125,-1.28173828125,0.67138671875,-0.1220703125,-1.29638671875,24.9609375,-169.661865234375
1760837561.6721947,-0.41650390625,-0.0205078125,0.91064453125,-1.28173828125,0.67138671875,-0.1220703125,-1.307373046875,24.9664306640625,-169.661865234375
1760837561.6792543,-0.419921875,-0.02001953125,0.908203125,-0.18310546875,0.3662109375,-0.67138671875,-1.318359375,24.9664306640625,-169.6673583984375
1760837561.68641,-0.419921875,-0.02001953125,0.908203125,-0.18310546875,0.3662109375,-0.67138671875,-1.318359375,24.971923828125,-169.6728515625
1760837561.6934824,-0.42724609375,-0.0185546875,0.90869140625,0.79345703125,0.30517578125,-1.0986328125,-1.318359375,24.971923828125,-169.683837890625
1760837561.7038136,-0.42724609375,-0.0185546875,0.90869140625,0.79345703125,0.30517578125,-1.0986328125,-1.318359375,24.9774169921875,-169.69482421875
1760837561.7112467,-0.43603515625,-0.01953125,0.90478515625,-0.18310546875,0.42724609375,-1.0986328125,-1.318359375,24.9774169921875,-169.7003173828125
1760837561.7191927,-0.43603515625,-0.01953125,0.90478515625,-0.18310546875,0.42724609375,-1.0986328125,-1.3238525390625,24.98291015625,-169.7113037109375
1760837561.728168,-0.435546875,-0.0224609375,0.90380859375,-0.1220703125,0.67138671875,-0.9765625,-1.329345703125,24.9884033203125,-169.7222900390625
1760837561.7356274,-0.435546875,-0.0224609375,0.90380859375,-0.1220703125,0.67138671875,-0.9765625,-1.3348388671875,24.993896484375,-169.727783203125
1760837561.7439866,-0.42431640625,-0.02294921875,0.90185546875,0.8544921875,0.8544921875,-1.03759765625,-1.3348388671875,25.0048828125,-169.73876953125
1760837561.754061,-0.42431640625,-0.02294921875,0.90185546875,0.8544921875,0.8544921875,-1.03759765625,-1.329345703125,25.0103759765625,-169.749755859375
1760837561.7686996,-0.4267578125,-0.0205078125,0.90869140625,0.6103515625,0.8544921875,-1.28173828125,-1.329345703125,25.0213623046875,-169.7607421875
1760837561.778746,-0.4267578125,-0.0205078125,0.90869140625,0.6103515625,0.8544921875,-1.28173828125,-1.329345703125,25.0323486328125,-169.771728515625
1760837561.7860932,-0.41748046875,-0.02099609375,0.91162109375,-0.1220703125,0.48828125,-1.03759765625,-1.329345703125,25.037841796875,-169.78271484375
1760837561.792796,-0.41748046875,-0.02099609375,0.91162109375,-0.1220703125,0.48828125,-1.03759765625,-1.3348388671875,25.0433349609375,-169.793701171875
1760837561.8004978,-0.412109375,-0.01953125,0.9091796875,-0.18310546875,0.06103515625,-0.732421875,-1.34033203125,25.0433349609375,-169.7991943359375
1760837561.8148623,-0.412109375,-0.01953125,0.9091796875,-0.18310546875,0.06103515625,-0.732421875,-1.3458251953125,25.0433349609375,-169.8046875
1760837561.8233275,-0.40966796875,-0.0224609375,0.91357421875,-0.1220703125,-0.30517578125,-0.48828125,-1.351318359375,25.0433349609375,-169.8101806640625
1760837561.8302178,-0.40966796875,-0.0224609375,0.91357421875,-0.1220703125,-0.30517578125,-0.48828125,-1.351318359375,25.037841796875,-169.815673828125
1760837561.8374963,-0.4111328125,-0.02294921875,0.916015625,-0.6103515625,-0.732421875,-0.42724609375,-1.3568115234375,25.0323486328125,-169.8211669921875
1760837561.8448765,-0.4111328125,-0.02294921875,0.916015625,-0.6103515625,-0.732421875,-0.42724609375,-1.3677978515625,25.0213623046875,-169.82666015625
1760837561.8537755,-0.40966796875,-0.0224609375,0.91015625,-1.220703125,-1.03759765625,-0.30517578125,-1.373291015625,25.0103759765625,-169.8321533203125
1760837561.8625808,-0.40966796875,-0.0224609375,0.91015625,-1.220703125,-1.03759765625,-0.30517578125,-1.3897705078125,24.9993896484375,-169.837646484375
1760837561.871009,-0.41064453125,-0.02490234375,0.91015625,-1.3427734375,-1.46484375,-0.18310546875,-1.4007568359375,24.98291015625,-169.8431396484375
1760837561.8781729,-0.41064453125,-0.02490234375,0.91015625,-1.3427734375,-1.46484375,-0.18310546875,-1.417236328125,24.9664306640625,-169.8486328125
1760837561.887779,-0.41552734375,-0.0341796875,0.91162109375,0.54931640625,-1.77001953125,-0.3662109375,-1.4227294921875,24.949951171875,-169.8541259765625
1760837561.8954568,-0.41552734375,-0.0341796875,0.91162109375,0.54931640625,-1.77001953125,-0.3662109375,-1.417236328125,24.927978515625,-169.859619140625
1760837561.9031425,-0.41943359375,-0.029296875,0.91015625,1.77001953125,-1.77001953125,-0.54931640625,-1.40625,24.906005859375,-169.8651123046875
1760837561.9124086,-0.41943359375,-0.029296875,0.91015625,1.77001953125,-1.77001953125,-0.54931640625,-1.395263671875,24.8895263671875,-169.87060546875
1760837561.9207795,-0.42333984375,-0.02392578125,0.9091796875,1.953125,-1.708984375,-0.48828125,-1.3787841796875,24.8675537109375,-169.881591796875
1760837561.9298787,-0.42333984375,-0.02392578125,0.9091796875,1.953125,-1.708984375,-0.48828125,-1.3623046875,24.85107421875,-169.8870849609375
1760837561.9386551,-0.42724609375,-0.0234375,0.91015625,1.52587890625,-1.708984375,-0.244140625,-1.3458251953125,24.8291015625,-169.8870849609375
1760837561.9478223,-0.42724609375,-0.0234375,0.91015625,1.52587890625,-1.708984375,-0.244140625,-1.3348388671875,24.8126220703125,-169.892578125
1760837561.9556136,-0.43701171875,-0.017578125,0.90185546875,1.5869140625,-1.64794921875,0.0,-1.3238525390625,24.796142578125,-169.892578125
1760837561.9741921,-0.43701171875,-0.017578125,0.90185546875,1.5869140625,-1.64794921875,0.0,-1.307373046875,24.7796630859375,-169.892578125
1760837561.9824111,-0.4365234375,-0.01953125,0.90283203125,1.708984375,-1.46484375,0.18310546875,-1.2908935546875,24.7686767578125,-169.8870849609375
1760837561.9901125,-0.4365234375,-0.01953125,0.90283203125,1.708984375,-1.46484375,0.18310546875,-1.2744140625,24.752197265625,-169.881591796875
1760837561.997605,-0.42822265625,-0.0263671875,0.90478515625,2.38037109375,-1.28173828125,0.1220703125,-1.2469482421875,24.7412109375,-169.8760986328125
1760837562.007137,-0.42822265625,-0.0263671875,0.90478515625,2.38037109375,-1.28173828125,0.1220703125,-1.2249755859375,24.730224609375,-169.8760986328125
1760837562.017598,-0.4208984375,-0.03515625,0.9169921875,2.685546875,-1.28173828125,0.0,-1.2030029296875,24.71923828125,-169.87060546875
1760837562.0263157,-0.4208984375,-0.03515625,0.9169921875,2.685546875,-1.28173828125,0.0,-1.175537109375,24.708251953125,-169.8651123046875
1760837562.0357332,-0.42236328125,-0.01171875,0.9091796875,3.5400390625,-1.28173828125,0.06103515625,-1.142578125,24.697265625,-169.8651123046875
1760837562.044206,-0.42236328125,-0.01171875,0.9091796875,3.5400390625,-1.28173828125,0.06103515625,-1.109619140625,24.686279296875,-169.859619140625
1760837562.0526617,-0.42529296875,-0.001953125,0.9072265625,2.50244140625,-1.28173828125,0.244140625,-1.0821533203125,24.6807861328125,-169.8486328125
1760837562.0626528,-0.42529296875,-0.001953125,0.9072265625,2.50244140625,-1.28173828125,0.244140625,-1.0601806640625,24.6697998046875,-169.8431396484375
1760837562.0693092,-0.421875,-0.01611328125,0.912109375,1.46484375,-1.3427734375,0.30517578125,-1.043701171875,24.6588134765625,-169.837646484375
1760837562.0784466,-0.421875,-0.01611328125,0.912109375,1.46484375,-1.3427734375,0.30517578125,-1.0272216796875,24.642333984375,-169.82666015625
1760837562.0860686,-0.41357421875,-0.02099609375,0.91064453125,2.197265625,-1.28173828125,0.30517578125,-1.0052490234375,24.63134765625,-169.8211669921875
1760837562.0944495,-0.41357421875,-0.02099609375,0.91064453125,2.197265625,-1.28173828125,0.30517578125,-0.9832763671875,24.620361328125,-169.815673828125
1760837562.1090915,-0.41015625,-0.0185546875,0.912109375,1.708984375,-1.0986328125,0.244140625,-0.966796875,24.6148681640625,-169.8101806640625
1760837562.1187944,-0.41015625,-0.0185546875,0.912109375,1.708984375,-1.0986328125,0.244140625,-0.9503173828125,24.6038818359375,-169.8046875
1760837562.1277475,-0.41845703125,-0.00537109375,0.9150390625,0.42724609375,-0.79345703125,0.3662109375,-0.94482421875,24.598388671875,-169.7991943359375
1760837562.1357243,-0.41845703125,-0.00537109375,0.9150390625,0.42724609375,-0.79345703125,0.3662109375,-0.9393310546875,24.58740234375,-169.793701171875
1760837562.1452346,-0.421875,-0.00390625,0.91845703125,-0.48828125,-0.48828125,0.54931640625,-0.94482421875,24.58740234375,-169.7882080078125
1760837562.1535783,-0.421875,-0.00390625,0.91845703125,-0.48828125,-0.48828125,0.54931640625,-0.94482421875,24.5819091796875,-169.7772216796875
1760837562.1716743,-0.41357421875,-0.01416015625,0.91796875,-0.9765625,-0.18310546875,0.6103515625,-0.9503173828125,24.5819091796875,-169.771728515625
1760837562.181593,-0.41357421875,-0.01416015625,0.91796875,-0.9765625,-0.18310546875,0.6103515625,-0.955810546875,24.576416015625,-169.7607421875
1760837562.1888866,-0.41064453125,-0.02392578125,0.90673828125,-0.06103515625,0.18310546875,0.42724609375,-0.955810546875,24.5819091796875,-169.7552490234375
1760837562.1983051,-0.41064453125,-0.02392578125,0.90673828125,-0.06103515625,0.18310546875,0.42724609375,-0.955810546875,24.5819091796875,-169.749755859375
1760837562.2048957,-0.4130859375,-0.02587890625,0.9150390625,1.3427734375,0.48828125,0.18310546875,-0.9393310546875,24.58740234375,-169.7442626953125
1760837562.221177,-0.4130859375,-0.02587890625,0.9150390625,1.3427734375,0.48828125,0.18310546875,-0.9283447265625,24.5928955078125,-169.7442626953125
1760837562.2280927,-0.41552734375,-0.02197265625,0.92138671875,2.3193359375,0.6103515625,0.06103515625,-0.9063720703125,24.598388671875,-169.73876953125
1760837562.2363665,-0.41552734375,-0.02197265625,0.92138671875,2.3193359375,0.6103515625,0.06103515625,-0.8843994140625,24.6038818359375,-169.73876953125
1760837562.2432501,-0.41259765625,-0.00830078125,0.91552734375,2.74658203125,0.6103515625,0.18310546875,-0.85693359375,24.609375,-169.7332763671875
1760837562.250447,-0.41259765625,-0.00830078125,0.91552734375,2.74658203125,0.6103515625,0.18310546875,-0.8294677734375,24.6148681640625,-169.7332763671875
1760837562.2821448,-0.416015625,-0.00146484375,0.912109375,0.79345703125,0.732421875,0.54931640625,-0.8184814453125,24.620361328125,-169.727783203125
1760837562.2912295,-0.416015625,-0.00146484375,0.912109375,0.79345703125,0.732421875,0.54931640625,-0.81298828125,24.6258544921875,-169.7222900390625
1760837562.3040695,-0.41357421875,-0.0048828125,0.9111328125,-0.79345703125,0.67138671875,0.79345703125,-0.81298828125,24.63134765625,-169.7113037109375
1760837562.3135374,-0.41357421875,-0.0048828125,0.9111328125,-0.79345703125,0.67138671875,0.79345703125,-0.8184814453125,24.6368408203125,-169.7003173828125
1760837562.3409128,-0.419921875,-0.0126953125,0.90771484375,0.0,0.48828125,0.79345703125,-0.81298828125,24.642333984375,-169.69482421875
1760837562.3517632,-0.419921875,-0.0126953125,0.90771484375,0.0,0.48828125,0.79345703125,-0.81298828125,24.6478271484375,-169.683837890625
1760837562.3591018,-0.4189453125,-0.0205078125,0.90673828125,0.732421875,0.30517578125,0.48828125,-0.802001953125,24.6478271484375,-169.6783447265625
1760837562.3657432,-0.4189453125,-0.0205078125,0.90673828125,0.732421875,0.30517578125,0.48828125,-0.791015625,24.6478271484375,-169.6728515625
1760837562.372994,-0.4189453125,-0.0205078125,0.90673828125,1.28173828125,0.06103515625,0.42724609375,-0.780029296875,24.6478271484375,-169.6673583984375
1760837562.3793416,-0.42529296875,-0.01416015625,0.90771484375,1.28173828125,0.06103515625,0.42724609375,-0.7635498046875,24.6533203125,-169.661865234375
1760837562.392533,-0.42138671875,-0.01025390625,0.908203125,0.8544921875,-0.1220703125,0.6103515625,-0.7525634765625,24.6478271484375,-169.65087890625
1760837562.403416,-0.42138671875,-0.01025390625,0.908203125,0.8544921875,-0.1220703125,0.6103515625,-0.7415771484375,24.6478271484375,-169.639892578125
1760837562.4143882,-0.4228515625,-0.01171875,0.90283203125,1.28173828125,-0.48828125,0.6103515625,-0.7305908203125,24.6478271484375,-169.62890625
1760837562.4222891,-0.4228515625,-0.01171875,0.90283203125,1.28173828125,-0.48828125,0.6103515625,-0.714111328125,24.642333984375,-169.6234130859375
1760837562.4408548,-0.42822265625,-0.01318359375,0.8955078125,2.685546875,-0.732421875,0.48828125,-0.6866455078125,24.6368408203125,-169.6124267578125
1760837562.4540653,-0.42822265625,-0.01318359375,0.8955078125,2.685546875,-0.732421875,0.48828125,-0.6536865234375,24.63134765625,-169.6014404296875
1760837562.4617708,-0.42138671875,-0.0126953125,0.90966796875,2.99072265625,-0.8544921875,0.244140625,-0.626220703125,24.620361328125,-169.595947265625
1760837562.4734654,-0.42138671875,-0.0126953125,0.90966796875,2.99072265625,-0.8544921875,0.244140625,-0.5987548828125,24.6148681640625,-169.5904541015625
1760837562.4863746,-0.41796875,-0.0087890625,0.916015625,3.7841796875,-1.03759765625,0.1220703125,-0.560302734375,24.609375,-169.5849609375
1760837562.4936407,-0.41796875,-0.0087890625,0.916015625,3.7841796875,-1.03759765625,0.1220703125,-0.5218505859375,24.598388671875,-169.5849609375
1760837562.5040023,-0.41650390625,-0.00244140625,0.91259765625,2.99072265625,-0.9765625,0.06103515625,-0.494384765625,24.58740234375,-169.5794677734375
1760837562.5104482,-0.41650390625,-0.00244140625,0.91259765625,2.99072265625,-0.9765625,0.06103515625,-0.4669189453125,24.5819091796875,-169.5794677734375
1760837562.521104,-0.419921875,0.0,0.91015625,2.01416015625,-0.732421875,-0.1220703125,-0.4449462890625,24.576416015625,-169.573974609375
1760837562.5277429,-0.419921875,0.0,0.91015625,2.01416015625,-0.732421875,-0.1220703125,-0.428466796875,24.5709228515625,-169.573974609375
1760837562.5418463,-0.4169921875,-0.0107421875,0.91162109375,2.9296875,-0.48828125,-0.244140625,-0.4010009765625,24.5654296875,-169.573974609375
1760837562.551225,-0.4169921875,-0.0107421875,0.91162109375,2.9296875,-0.48828125,-0.244140625,-0.37353515625,24.5599365234375,-169.573974609375
1760837562.55807,-0.4248046875,-0.00048828125,0.919921875,2.99072265625,-0.48828125,-0.3662109375,-0.3460693359375,24.5599365234375,-169.573974609375
1760837562.5657508,-0.4248046875,-0.00048828125,0.919921875,2.99072265625,-0.48828125,-0.3662109375,-0.318603515625,24.554443359375,-169.5794677734375
1760837562.5818849,-0.42431640625,-0.00146484375,0.9140625,2.3193359375,-0.30517578125,-0.42724609375,-0.296630859375,24.554443359375,-169.5794677734375
1760837562.5893722,-0.42431640625,-0.00146484375,0.9140625,2.3193359375,-0.30517578125,-0.42724609375,-0.274658203125,24.5489501953125,-169.5849609375
1760837562.600802,-0.42431640625,-0.00439453125,0.9052734375,2.50244140625,-0.06103515625,-0.48828125,-0.252685546875,24.5489501953125,-169.5849609375
1760837562.6133387,-0.42431640625,-0.00439453125,0.9052734375,2.50244140625,-0.06103515625,-0.48828125,-0.230712890625,24.554443359375,-169.5904541015625
1760837562.6287181,-0.4306640625,-0.00341796875,0.90478515625,3.11279296875,0.1220703125,-0.54931640625,-0.2032470703125,24.554443359375,-169.5904541015625
1760837562.635637,-0.4306640625,-0.00341796875,0.90478515625,3.11279296875,0.1220703125,-0.54931640625,-0.17578125,24.5599365234375,-169.5904541015625
1760837562.6452682,-0.44287109375,0.01025390625,0.90869140625,2.5634765625,0.1220703125,-0.54931640625,-0.15380859375,24.5654296875,-169.595947265625
1760837562.652247,-0.44287109375,0.01025390625,0.90869140625,2.5634765625,0.1220703125,-0.54931640625,-0.1318359375,24.5654296875,-169.595947265625
1760837562.6608267,-0.4384765625,-0.00244140625,0.904296875,2.38037109375,0.0,-0.48828125,-0.10986328125,24.5709228515625,-169.595947265625
1760837562.6682298,-0.4384765625,-0.00244140625,0.904296875,2.38037109375,0.0,-0.48828125,-0.087890625,24.576416015625,-169.5904541015625
1760837562.6814692,-0.43310546875,-0.0078125,0.8984375,3.173828125,-0.1220703125,-0.67138671875,-0.0604248046875,24.576416015625,-169.595947265625
1760837562.7019749,-0.43310546875,-0.0078125,0.8984375,3.173828125,-0.1220703125,-0.67138671875,-0.032958984375,24.5819091796875,-169.595947265625
1760837562.711623,-0.43017578125,-0.00341796875,0.90283203125,4.21142578125,-0.18310546875,-0.6103515625,0.0,24.58740234375,-169.595947265625
1760837562.7259653,-0.43017578125,-0.00341796875,0.90283203125,4.21142578125,-0.18310546875,-0.6103515625,0.0384521484375,24.58740234375,-169.595947265625
1760837562.7358296,-0.43603515625,0.0205078125,0.91357421875,3.2958984375,-0.42724609375,-0.244140625,0.06591796875,24.58740234375,-169.595947265625
1760837562.7506878,-0.43603515625,0.0205078125,0.91357421875,3.2958984375,-0.42724609375,-0.244140625,0.098876953125,24.58740234375,-169.5904541015625
1760837562.7641118,-0.42578125,0.00927734375,0.91162109375,1.89208984375,-0.67138671875,-0.244140625,0.1153564453125,24.58740234375,-169.5849609375
1760837562.7707605,-0.42578125,0.00927734375,0.91162109375,1.89208984375,-0.67138671875,-0.244140625,0.1318359375,24.58740234375,-169.5794677734375
1760837562.78345,-0.42333984375,-0.00390625,0.900390625,2.86865234375,-0.67138671875,-0.91552734375,0.1593017578125,24.5819091796875,-169.5849609375
1760837562.7955883,-0.42333984375,-0.00390625,0.900390625,2.86865234375,-0.67138671875,-0.91552734375,0.1812744140625,24.5819091796875,-169.5904541015625
1760837562.80304,-0.4287109375,-0.0126953125,0.9033203125,6.53076171875,-0.3662109375,-1.8310546875,0.2362060546875,24.5819091796875,-169.6014404296875
1760837562.8161767,-0.4287109375,-0.0126953125,0.9033203125,6.53076171875,-0.3662109375,-1.8310546875,0.2911376953125,24.5819091796875,-169.617919921875
1760837562.8320491,-0.4306640625,0.00537109375,0.908203125,7.14111328125,-0.1220703125,-2.25830078125,0.3515625,24.58740234375,-169.6343994140625
1760837562.8389578,-0.4306640625,0.00537109375,0.908203125,7.14111328125,-0.1220703125,-2.25830078125,0.4119873046875,24.58740234375,-169.6563720703125
1760837562.8470378,-0.43017578125,0.0185546875,0.91064453125,7.01904296875,0.0,-2.13623046875,0.4669189453125,24.5928955078125,-169.6728515625
1760837562.8534606,-0.43017578125,0.0185546875,0.91064453125,7.01904296875,0.0,-2.13623046875,0.52734375,24.598388671875,-169.69482421875
1760837562.8603468,-0.41259765625,0.00244140625,0.91064453125,5.92041015625,0.18310546875,-2.01416015625,0.5767822265625,24.6038818359375,-169.7113037109375
1760837562.8683574,-0.41259765625,0.00244140625,0.91064453125,5.92041015625,0.18310546875,-2.01416015625,0.6207275390625,24.609375,-169.727783203125
1760837562.8757296,-0.41064453125,0.0126953125,0.91455078125,5.55419921875,0.1220703125,-1.953125,0.6646728515625,24.6148681640625,-169.749755859375
1760837562.883691,-0.41064453125,0.0126953125,0.91455078125,5.55419921875,0.1220703125,-1.953125,0.7086181640625,24.6148681640625,-169.7662353515625
1760837562.8902948,-0.40771484375,0.0234375,0.9130859375,4.2724609375,0.0,-1.708984375,0.7415771484375,24.620361328125,-169.78271484375
1760837562.8983283,-0.40771484375,0.0234375,0.9130859375,4.2724609375,0.0,-1.708984375,0.7745361328125,24.620361328125,-169.7991943359375
1760837562.906284,-0.40185546875,0.01611328125,0.91064453125,1.8310546875,0.06103515625,-1.5869140625,0.7855224609375,24.620361328125,-169.815673828125
1760837562.914096,-0.40185546875,0.01611328125,0.91064453125,1.8310546875,0.06103515625,-1.5869140625,0.7965087890625,24.620361328125,-169.8321533203125
1760837562.92057,-0.408203125,0.00341796875,0.91552734375,2.44140625,0.06103515625,-1.52587890625,0.81298828125,24.6258544921875,-169.8541259765625
1760837562.927125,-0.408203125,0.00341796875,0.91552734375,2.44140625,0.06103515625,-1.52587890625,0.8294677734375,24.6258544921875,-169.87060546875
1760837562.934232,-0.41357421875,0.0146484375,0.9208984375,3.7841796875,-0.1220703125,-1.64794921875,0.85693359375,24.620361328125,-169.892578125
1760837562.9426785,-0.4150390625,0.02978515625,0.90625,1.77001953125,-0.1220703125,-1.5869140625,0.8734130859375,24.620361328125,-169.9090576171875
1760837562.951427,-0.4150390625,0.02978515625,0.90625,1.77001953125,-0.1220703125,-1.5869140625,0.8843994140625,24.620361328125,-169.9310302734375
1760837562.9606953,-0.42138671875,0.01318359375,0.91552734375,1.8310546875,-0.1220703125,-1.3427734375,0.8953857421875,24.6148681640625,-169.947509765625
1760837562.9673269,-0.42138671875,0.01318359375,0.91552734375,1.8310546875,-0.1220703125,-1.3427734375,0.9063720703125,24.6148681640625,-169.95849609375
1760837562.977619,-0.423828125,0.00830078125,0.91796875,3.11279296875,-0.1220703125,-1.40380859375,0.9228515625,24.6148681640625,-169.9749755859375
1760837562.9846723,-0.423828125,0.00830078125,0.91796875,3.11279296875,-0.1220703125,-1.40380859375,0.9503173828125,24.609375,-169.991455078125
1760837562.9928238,-0.4228515625,0.021484375,0.90234375,1.77001953125,0.0,-1.28173828125,0.966796875,24.609375,-170.0079345703125
1760837562.9991822,-0.4228515625,0.021484375,0.90234375,1.77001953125,0.0,-1.28173828125,0.977783203125,24.609375,-170.0244140625
1760837563.0056736,-0.419921875,0.0185546875,0.89306640625,0.30517578125,0.42724609375,-0.9765625,0.9832763671875,24.6148681640625,-170.035400390625
1760837563.0138676,-0.419921875,0.0185546875,0.89306640625,0.30517578125,0.42724609375,-0.9765625,0.977783203125,24.620361328125,-170.04638671875
1760837563.021496,-0.421875,0.02294921875,0.9248046875,0.30517578125,0.54931640625,-0.67138671875,0.977783203125,24.6258544921875,-170.0518798828125
1760837563.0280755,-0.421875,0.02294921875,0.9248046875,0.30517578125,0.54931640625,-0.67138671875,0.977783203125,24.63134765625,-170.0628662109375
1760837563.0344746,-0.4140625,0.0146484375,0.92578125,-0.48828125,0.3662109375,-0.54931640625,0.977783203125,24.6368408203125,-170.068359375
1760837563.0420053,-0.4140625,0.0146484375,0.92578125,-0.48828125,0.3662109375,-0.54931640625,0.966796875,24.642333984375,-170.0738525390625
1760837563.0497596,-0.4130859375,0.02587890625,0.89306640625,-1.03759765625,0.54931640625,-0.42724609375,0.9613037109375,24.642333984375,-170.079345703125
1760837563.0580413,-0.4130859375,0.02587890625,0.89306640625,-1.03759765625,0.54931640625,-0.42724609375,0.9503173828125,24.6478271484375,-170.09033203125
1760837563.0647411,-0.41357421875,0.01416015625,0.919921875,-0.3662109375,0.6103515625,-0.30517578125,0.9393310546875,24.6533203125,-170.09033203125
1760837563.0722954,-0.41357421875,0.01416015625,0.919921875,-0.3662109375,0.6103515625,-0.30517578125,0.933837890625,24.664306640625,-170.0958251953125
1760837563.0795116,-0.41796875,0.0009765625,0.9208984375,0.3662109375,0.6103515625,-0.3662109375,0.933837890625,24.6697998046875,-170.101318359375
1760837563.0948095,-0.41796875,0.0009765625,0.9208984375,0.3662109375,0.6103515625,-0.3662109375,0.9393310546875,24.6697998046875,-170.1068115234375
1760837563.1014316,-0.4208984375,0.009765625,0.9013671875,0.67138671875,0.91552734375,-0.30517578125,0.9393310546875,24.6807861328125,-170.1123046875
1760837563.1085153,-0.4208984375,0.009765625,0.9013671875,0.67138671875,0.91552734375,-0.30517578125,0.94482421875,24.686279296875,-170.1177978515625
1760837563.1150928,-0.42138671875,0.01611328125,0.90966796875,0.48828125,1.15966796875,-0.30517578125,0.9503173828125,24.697265625,-170.123291015625
1760837563.136691,-0.42138671875,0.01611328125,0.90966796875,0.48828125,1.15966796875,-0.30517578125,0.9503173828125,24.708251953125,-170.1287841796875
1760837563.1433003,-0.41796875,0.02294921875,0.9130859375,0.91552734375,1.03759765625,-0.1220703125,0.955810546875,24.71923828125,-170.13427734375
1760837563.1503444,-0.41796875,0.02294921875,0.9130859375,0.91552734375,1.03759765625,-0.1220703125,0.966796875,24.730224609375,-170.1397705078125
1760837563.158506,-0.421875,0.025390625,0.91015625,-0.54931640625,0.91552734375,0.06103515625,0.966796875,24.7412109375,-170.1397705078125
1760837563.172994,-0.421875,0.025390625,0.91015625,-0.54931640625,0.91552734375,0.06103515625,0.966796875,24.7467041015625,-170.1397705078125
1760837563.1801596,-0.4208984375,0.013671875,0.91064453125,-1.28173828125,0.79345703125,0.18310546875,0.955810546875,24.7576904296875,-170.1397705078125
1760837563.1865578,-0.4208984375,0.013671875,0.91064453125,-1.28173828125,0.79345703125,0.18310546875,0.94482421875,24.76318359375,-170.1397705078125
1760837563.1928773,-0.42138671875,0.0078125,0.91259765625,0.0,0.6103515625,0.1220703125,0.9393310546875,24.7686767578125,-170.1397705078125
1760837563.2071233,-0.42138671875,0.0078125,0.91259765625,0.0,0.6103515625,0.1220703125,0.9393310546875,24.774169921875,-170.1397705078125
1760837563.2157323,-0.42138671875,0.0224609375,0.9033203125,-0.18310546875,0.54931640625,0.0,0.9393310546875,24.7796630859375,-170.1397705078125
1760837563.2239394,-0.42138671875,0.0224609375,0.9033203125,-0.18310546875,0.54931640625,0.0,0.9393310546875,24.78515625,-170.1397705078125
1760837563.2315779,-0.42578125,0.0224609375,0.90380859375,-0.48828125,0.48828125,-0.1220703125,0.933837890625,24.7906494140625,-170.145263671875
1760837563.2403512,-0.42578125,0.0224609375,0.90380859375,-0.48828125,0.48828125,-0.1220703125,0.933837890625,24.796142578125,-170.145263671875
1760837563.255093,-0.42578125,0.0146484375,0.91259765625,-0.244140625,0.3662109375,-0.244140625,0.9283447265625,24.8016357421875,-170.1507568359375
1760837563.2615926,-0.42578125,0.0146484375,0.91259765625,-0.244140625,0.3662109375,-0.244140625,0.9228515625,24.80712890625,-170.15625
1760837563.2684848,-0.42578125,0.0126953125,0.91015625,0.6103515625,0.0,-0.42724609375,0.9283447265625,24.80712890625,-170.1617431640625
1760837563.2843907,-0.42578125,0.0126953125,0.91015625,0.6103515625,0.0,-0.42724609375,0.933837890625,24.80712890625,-170.167236328125
1760837563.2918978,-0.421875,0.0166015625,0.89599609375,1.0986328125,-0.1220703125,-0.54931640625,0.9393310546875,24.80712890625,-170.17822265625
1760837563.298589,-0.421875,0.0166015625,0.89599609375,1.0986328125,-0.1220703125,-0.54931640625,0.94482421875,24.80712890625,-170.1837158203125
1760837563.3063867,-0.42333984375,0.02734375,0.90869140625,0.1220703125,-0.1220703125,-0.732421875,0.9503173828125,24.80712890625,-170.1947021484375
1760837563.3130014,-0.42333984375,0.02734375,0.90869140625,0.1220703125,-0.1220703125,-0.732421875,0.9503173828125,24.80712890625,-170.2056884765625
1760837563.3210511,-0.42529296875,0.0126953125,0.919921875,0.48828125,-0.1220703125,-0.9765625,0.9503173828125,24.80712890625,-170.2166748046875
1760837563.333403,-0.42529296875,0.0126953125,0.919921875,0.48828125,-0.1220703125,-0.9765625,0.9503173828125,24.80712890625,-170.2276611328125
1760837563.3412728,-0.419921875,0.01025390625,0.90869140625,1.40380859375,-0.1220703125,-1.3427734375,0.955810546875,24.80712890625,-170.2386474609375
1760837563.3481407,-0.419921875,0.01025390625,0.90869140625,1.40380859375,-0.1220703125,-1.3427734375,0.966796875,24.80712890625,-170.255126953125
1760837563.3560326,-0.42578125,0.02197265625,0.90576171875,1.40380859375,-0.1220703125,-1.3427734375,0.9722900390625,24.80712890625,-170.2716064453125
1760837563.3729346,-0.42578125,0.02197265625,0.90576171875,1.40380859375,-0.1220703125,-1.3427734375,0.9832763671875,24.80712890625,-170.2880859375
1760837563.380529,-0.423828125,0.02587890625,0.908203125,0.0,0.0,-1.15966796875,0.9832763671875,24.80712890625,-170.3045654296875
1760837563.3880286,-0.423828125,0.02587890625,0.908203125,0.0,0.0,-1.15966796875,0.977783203125,24.80712890625,-170.321044921875
1760837563.395229,-0.42919921875,0.0224609375,0.9150390625,0.244140625,0.06103515625,-0.9765625,0.977783203125,24.8126220703125,-170.33203125
1760837563.4020143,-0.42919921875,0.0224609375,0.9150390625,0.244140625,0.06103515625,-0.9765625,0.9722900390625,24.8126220703125,-170.343017578125
1760837563.4096916,-0.43017578125,0.017578125,0.908203125,-0.06103515625,0.06103515625,-0.9765625,0.9722900390625,24.8126220703125,-170.35400390625
1760837563.4330173,-0.43017578125,0.017578125,0.908203125,-0.06103515625,0.06103515625,-0.9765625,0.966796875,24.818115234375,-170.364990234375
1760837563.4411778,-0.427734375,0.0146484375,0.90478515625,-0.30517578125,0.244140625,-0.8544921875,0.966796875,24.818115234375,-170.3704833984375
1760837563.4575112,-0.427734375,0.0146484375,0.90478515625,-0.30517578125,0.244140625,-0.8544921875,0.9613037109375,24.8236083984375,-170.3814697265625
1760837563.4642954,-0.427734375,0.02001953125,0.90576171875,-0.6103515625,0.30517578125,-0.67138671875,0.9503173828125,24.8291015625,-170.386962890625
1760837563.4708521,-0.427734375,0.02001953125,0.90576171875,-0.6103515625,0.30517578125,-0.67138671875,0.94482421875,24.8345947265625,-170.3924560546875
1760837563.4778466,-0.4228515625,0.0078125,0.91064453125,-0.42724609375,0.3662109375,-0.54931640625,0.9393310546875,24.840087890625,-170.39794921875
1760837563.4846997,-0.4228515625,0.0078125,0.91064453125,-0.42724609375,0.3662109375,-0.54931640625,0.933837890625,24.8455810546875,-170.408935546875
1760837563.5035253,-0.41845703125,0.0087890625,0.9189453125,0.54931640625,0.42724609375,-0.42724609375,0.9283447265625,24.85107421875,-170.4144287109375
1760837563.510726,-0.41845703125,0.0087890625,0.9189453125,0.54931640625,0.42724609375,-0.42724609375,0.933837890625,24.8565673828125,-170.419921875
1760837563.5169873,-0.41650390625,0.021484375,0.91015625,0.0,0.6103515625,-0.30517578125,0.933837890625,24.862060546875,-170.4254150390625
1760837563.5240896,-0.41650390625,0.021484375,0.91015625,0.0,0.6103515625,-0.30517578125,0.933837890625,24.8675537109375,-170.4364013671875
1760837563.5311134,-0.4189453125,0.017578125,0.90625,-0.9765625,0.6103515625,0.0,0.9283447265625,24.873046875,-170.44189453125
1760837563.5433362,-0.4189453125,0.017578125,0.90625,-0.9765625,0.6103515625,0.0,0.9228515625,24.8785400390625,-170.44189453125
1760837563.5496998,-0.4189453125,0.017578125,0.90625,-2.13623046875,0.54931640625,0.18310546875,0.9063720703125,24.884033203125,-170.4473876953125
1760837563.556527,-0.4189453125,0.02001953125,0.91455078125,-2.13623046875,0.54931640625,0.18310546875,0.8843994140625,24.8895263671875,-170.452880859375
1760837563.5625408,-0.41357421875,0.01318359375,0.91259765625,-2.38037109375,0.42724609375,0.3662109375,0.867919921875,24.89501953125,-170.452880859375
1760837563.56982,-0.41357421875,0.01318359375,0.91259765625,-2.38037109375,0.42724609375,0.3662109375,0.845947265625,24.9005126953125,-170.452880859375
1760837563.581457,-0.41064453125,0.00048828125,0.91650390625,-1.220703125,0.42724609375,0.48828125,0.8294677734375,24.9005126953125,-170.452880859375
1760837563.5882785,-0.41064453125,0.00048828125,0.91650390625,-1.220703125,0.42724609375,0.48828125,0.823974609375,24.906005859375,-170.452880859375
1760837563.5946064,-0.41552734375,0.01025390625,0.90478515625,-0.18310546875,0.42724609375,0.30517578125,0.8184814453125,24.906005859375,-170.4583740234375
1760837563.6016917,-0.41552734375,0.01025390625,0.90478515625,-0.18310546875,0.42724609375,0.30517578125,0.8184814453125,24.9114990234375,-170.4583740234375
1760837563.615194,-0.4228515625,0.01611328125,0.90966796875,0.06103515625,0.30517578125,0.0,0.8184814453125,24.9114990234375,-170.4638671875
1760837563.6229663,-0.4228515625,0.01611328125,0.90966796875,0.06103515625,0.30517578125,0.0,0.8184814453125,24.9114990234375,-170.4693603515625
1760837563.6294158,-0.4228515625,0.0166015625,0.91015625,0.244140625,0.0,-0.18310546875,0.8184814453125,24.9114990234375,-170.474853515625
1760837563.636304,-0.4228515625,0.0166015625,0.91015625,0.244140625,0.0,-0.18310546875,0.8184814453125,24.9114990234375,-170.4803466796875
1760837563.6427615,-0.41796875,0.0166015625,0.91015625,0.1220703125,-0.244140625,-0.3662109375,0.8184814453125,24.9114990234375,-170.4913330078125
1760837563.649701,-0.41796875,0.0166015625,0.91015625,0.1220703125,-0.244140625,-0.3662109375,0.8184814453125,24.906005859375,-170.496826171875
1760837563.6565192,-0.42041015625,0.013671875,0.90771484375,0.6103515625,-0.48828125,-0.54931640625,0.823974609375,24.9005126953125,-170.5078125
1760837563.6643858,-0.42041015625,0.013671875,0.90771484375,0.6103515625,-0.48828125,-0.54931640625,0.8294677734375,24.89501953125,-170.518798828125
1760837563.670773,-0.4228515625,0.015625,0.90771484375,0.8544921875,-0.54931640625,-0.8544921875,0.8294677734375,24.8895263671875,-170.52978515625
1760837563.6778975,-0.4228515625,0.015625,0.90771484375,0.8544921875,-0.54931640625,-0.8544921875,0.8349609375,24.884033203125,-170.5462646484375
1760837563.6844227,-0.4248046875,0.021484375,0.912109375,0.0,-0.67138671875,-1.15966796875,0.8349609375,24.8785400390625,-170.5572509765625
1760837563.691503,-0.4248046875,0.021484375,0.912109375,0.0,-0.67138671875,-1.15966796875,0.8294677734375,24.873046875,-170.57373046875
1760837563.698279,-0.43017578125,0.0146484375,0.904296875,0.54931640625,-0.79345703125,-1.28173828125,0.8294677734375,24.862060546875,-170.5902099609375
1760837563.704456,-0.43017578125,0.0146484375,0.904296875,0.54931640625,-0.79345703125,-1.28173828125,0.8294677734375,24.8565673828125,-170.606689453125
1760837563.7106175,-0.42578125,0.01318359375,0.9072265625,0.79345703125,-0.91552734375,-1.28173828125,0.8294677734375,24.8455810546875,-170.6231689453125
1760837563.717942,-0.42578125,0.01318359375,0.9072265625,0.79345703125,-0.91552734375,-1.28173828125,0.8349609375,24.840087890625,-170.6396484375
1760837563.7242537,-0.4287109375,0.01171875,0.90673828125,1.03759765625,-0.91552734375,-1.15966796875,0.8404541015625,24.8291015625,-170.6561279296875
1760837563.7313035,-0.4287109375,0.01171875,0.90673828125,1.03759765625,-0.91552734375,-1.15966796875,0.845947265625,24.8236083984375,-170.672607421875
1760837563.7383263,-0.4267578125,0.01220703125,0.90234375,1.03759765625,-0.8544921875,-0.91552734375,0.8514404296875,24.818115234375,-170.68359375
1760837563.744806,-0.4267578125,0.01220703125,0.90234375,1.03759765625,-0.8544921875,-0.91552734375,0.85693359375,24.80712890625,-170.694580078125
1760837563.7536378,-0.423828125,0.01171875,0.89990234375,0.18310546875,-0.79345703125,-0.67138671875,0.85693359375,24.8016357421875,-170.70556640625
1760837563.760913,-0.423828125,0.01171875,0.89990234375,0.18310546875,-0.79345703125,-0.67138671875,0.85693359375,24.796142578125,-170.7110595703125
1760837563.7927616,-0.4169921875,0.0146484375,0.91650390625,0.42724609375,-0.91552734375,-0.48828125,0.8624267578125,24.7906494140625,-170.7220458984375
1760837563.8057842,-0.4169921875,0.0146484375,0.91650390625,0.42724609375,-0.91552734375,-0.48828125,0.8624267578125,24.7796630859375,-170.7275390625
1760837563.8257852,-0.4189453125,0.01953125,0.91845703125,-0.18310546875,-0.91552734375,-0.30517578125,0.85693359375,24.774169921875,-170.7330322265625
1760837563.8329372,-0.4189453125,0.01953125,0.91845703125,-0.18310546875,-0.91552734375,-0.30517578125,0.85693359375,24.76318359375,-170.738525390625
1760837563.8402085,-0.4130859375,0.01220703125,0.91064453125,-0.9765625,-0.732421875,-0.06103515625,0.845947265625,24.7576904296875,-170.738525390625
1760837563.8613,-0.4130859375,0.01220703125,0.91064453125,-0.9765625,-0.732421875,-0.06103515625,0.8349609375,24.752197265625,-170.7440185546875
1760837563.871097,-0.4208984375,0.00341796875,0.91748046875,-0.48828125,-0.6103515625,0.18310546875,0.8349609375,24.7467041015625,-170.7440185546875
1760837563.878214,-0.4208984375,0.00341796875,0.91748046875,-0.48828125,-0.6103515625,0.18310546875,0.8294677734375,24.7412109375,-170.7440185546875
1760837563.884948,-0.41796875,0.01318359375,0.9052734375,-0.42724609375,-0.3662109375,0.3662109375,0.823974609375,24.7357177734375,-170.7440185546875
1760837563.8931239,-0.41796875,0.01318359375,0.9052734375,-0.42724609375,-0.3662109375,0.3662109375,0.823974609375,24.730224609375,-170.7440185546875
1760837563.908374,-0.42919921875,0.01904296875,0.91455078125,-0.8544921875,-0.1220703125,0.6103515625,0.8184814453125,24.730224609375,-170.738525390625
1760837563.9193435,-0.42919921875,0.01904296875,0.91455078125,-0.8544921875,-0.1220703125,0.6103515625,0.81298828125,24.730224609375,-170.7330322265625
1760837563.9270716,-0.42333984375,0.01318359375,0.9130859375,-0.48828125,0.0,0.79345703125,0.81298828125,24.730224609375,-170.7275390625
1760837563.9330919,-0.42333984375,0.01318359375,0.9130859375,-0.48828125,0.0,0.79345703125,0.8074951171875,24.730224609375,-170.7220458984375
1760837563.9399288,-0.42138671875,0.01220703125,0.9111328125,-0.18310546875,0.0,0.8544921875,0.81298828125,24.7357177734375,-170.7110595703125
1760837563.9590409,-0.42138671875,0.01220703125,0.9111328125,-0.18310546875,0.0,0.8544921875,0.81298828125,24.7357177734375,-170.70556640625
1760837563.9657097,-0.41650390625,0.01806640625,0.90625,-0.48828125,-0.06103515625,0.8544921875,0.81298828125,24.7357177734375,-170.7000732421875
1760837563.9753098,-0.41650390625,0.01806640625,0.90625,-0.48828125,-0.06103515625,0.8544921875,0.81298828125,24.7357177734375,-170.6890869140625
1760837563.98392,-0.4169921875,0.0087890625,0.9140625,0.0,-0.30517578125,0.6103515625,0.8184814453125,24.730224609375,-170.6890869140625
1760837563.990203,-0.4169921875,0.0087890625,0.9140625,0.0,-0.30517578125,0.6103515625,0.8184814453125,24.7247314453125,-170.68359375
1760837564.0036612,-0.41455078125,0.0078125,0.908203125,-0.48828125,-0.3662109375,0.244140625,0.81298828125,24.7247314453125,-170.68359375
1760837564.01132,-0.41455078125,0.0078125,0.908203125,-0.48828125,-0.3662109375,0.244140625,0.81298828125,24.71923828125,-170.68359375
1760837564.0226178,-0.421875,0.01953125,0.90576171875,-0.06103515625,-0.48828125,0.244140625,0.81298828125,24.7137451171875,-170.68359375
1760837564.0296266,-0.421875,0.01953125,0.90576171875,-0.06103515625,-0.48828125,0.244140625,0.81298828125,24.708251953125,-170.68359375
1760837564.0362375,-0.4150390625,0.01611328125,0.9169921875,-0.1220703125,-0.79345703125,0.6103515625,0.81298828125,24.7027587890625,-170.68359375
1760837564.0483558,-0.4150390625,0.01611328125,0.9169921875,-0.1220703125,-0.79345703125,0.6103515625,0.8184814453125,24.697265625,-170.6781005859375
1760837564.0548227,-0.4111328125,0.0107421875,0.91064453125,-1.3427734375,-0.8544921875,0.91552734375,0.8074951171875,24.686279296875,-170.672607421875
1760837564.064611,-0.4111328125,0.0107421875,0.91064453125,-1.3427734375,-0.8544921875,0.91552734375,0.7965087890625,24.67529296875,-170.6671142578125
1760837564.0740142,-0.41015625,0.0087890625,0.91259765625,-1.5869140625,-0.67138671875,1.220703125,0.7855224609375,24.6697998046875,-170.6561279296875
1760837564.0802615,-0.41015625,0.0087890625,0.91259765625,-1.5869140625,-0.67138671875,1.220703125,0.780029296875,24.664306640625,-170.6451416015625
1760837564.0882766,-0.41650390625,0.0146484375,0.916015625,-2.13623046875,-0.67138671875,1.3427734375,0.7635498046875,24.6533203125,-170.6341552734375
1760837564.1009111,-0.41650390625,0.0146484375,0.916015625,-2.13623046875,-0.67138671875,1.3427734375,0.7470703125,24.6478271484375,-170.6231689453125
1760837564.1151972,-0.3994140625,0.01025390625,0.912109375,-1.15966796875,-0.732421875,1.28173828125,0.7415771484375,24.6368408203125,-170.6121826171875
1760837564.1272836,-0.3994140625,0.01025390625,0.912109375,-1.15966796875,-0.732421875,1.28173828125,0.736083984375,24.63134765625,-170.6011962890625
1760837564.1340036,-0.39990234375,0.0048828125,0.9306640625,-0.9765625,-0.8544921875,1.15966796875,0.7305908203125,24.620361328125,-170.595703125
1760837564.148862,-0.39990234375,0.0048828125,0.9306640625,-0.9765625,-0.8544921875,1.15966796875,0.72509765625,24.609375,-170.5902099609375
1760837564.1567533,-0.3974609375,0.013671875,0.923828125,-0.9765625,-1.03759765625,0.9765625,0.7196044921875,24.5928955078125,-170.584716796875
1760837564.1674967,-0.3974609375,0.013671875,0.923828125,-0.9765625,-1.03759765625,0.9765625,0.714111328125,24.5819091796875,-170.5792236328125
1760837564.1737385,-0.3984375,0.0146484375,0.91552734375,-1.5869140625,-0.9765625,0.9765625,0.703125,24.5654296875,-170.5792236328125
1760837564.1813312,-0.3984375,0.0146484375,0.91552734375,-1.5869140625,-0.9765625,0.9765625,0.692138671875,24.554443359375,-170.57373046875
1760837564.1876082,-0.40966796875,0.0107421875,0.91845703125,-1.77001953125,-1.0986328125,0.79345703125,0.68115234375,24.5379638671875,-170.57373046875
1760837564.1942878,-0.40966796875,0.0107421875,0.91845703125,-1.77001953125,-1.0986328125,0.79345703125,0.6646728515625,24.521484375,-170.5682373046875
1760837564.200963,-0.41064453125,0.009765625,0.91259765625,-0.79345703125,-1.46484375,0.8544921875,0.6646728515625,24.5050048828125,-170.5682373046875
1760837564.2076366,-0.41064453125,0.009765625,0.91259765625,-0.79345703125,-1.46484375,0.8544921875,0.6591796875,24.488525390625,-170.562744140625
1760837564.2171757,-0.41064453125,0.00537109375,0.91357421875,-0.30517578125,-1.708984375,0.91552734375,0.6591796875,24.466552734375,-170.5572509765625
1760837564.223463,-0.41064453125,0.00537109375,0.91357421875,-0.30517578125,-1.708984375,0.91552734375,0.6591796875,24.444580078125,-170.5517578125
1760837564.2340403,-0.41259765625,0.0087890625,0.912109375,0.18310546875,-1.8310546875,1.03759765625,0.670166015625,24.4281005859375,-170.5462646484375
1760837564.2404225,-0.41259765625,0.0087890625,0.912109375,0.18310546875,-1.8310546875,1.03759765625,0.6756591796875,24.4061279296875,-170.540771484375
1760837564.250737,-0.42041015625,0.0107421875,0.9130859375,0.54931640625,-1.89208984375,1.0986328125,0.68115234375,24.3841552734375,-170.5352783203125
1760837564.2582324,-0.42041015625,0.0107421875,0.9130859375,0.54931640625,-1.89208984375,1.0986328125,0.692138671875,24.3621826171875,-170.5242919921875
1760837564.2666936,-0.41845703125,0.00732421875,0.91015625,0.67138671875,-1.953125,1.15966796875,0.703125,24.345703125,-170.5133056640625
1760837564.28379,-0.41845703125,0.00732421875,0.91015625,0.67138671875,-1.953125,1.15966796875,0.714111328125,24.32373046875,-170.5023193359375
1760837564.2972775,-0.42138671875,0.0087890625,0.90869140625,2.0751953125,-1.89208984375,1.220703125,0.7415771484375,24.3072509765625,-170.4913330078125
1760837564.3149388,-0.42138671875,0.0087890625,0.90869140625,2.0751953125,-1.89208984375,1.220703125,0.76904296875,24.2852783203125,-170.4803466796875
1760837564.3254168,-0.421875,0.02099609375,0.91748046875,2.3193359375,-1.89208984375,1.3427734375,0.7965087890625,24.268798828125,-170.4693603515625
1760837564.3342338,-0.421875,0.02099609375,0.91748046875,2.3193359375,-1.89208984375,1.3427734375,0.823974609375,24.2523193359375,-170.452880859375
1760837564.3409452,-0.4326171875,0.02490234375,0.89697265625,2.01416015625,-1.64794921875,1.5869140625,0.8514404296875,24.23583984375,-170.4364013671875
1760837564.3565578,-0.4326171875,0.02490234375,0.89697265625,2.01416015625,-1.64794921875,1.5869140625,0.87890625,24.2193603515625,-170.4144287109375
1760837564.3639061,-0.43603515625,0.01025390625,0.8984375,1.03759765625,-1.3427734375,2.0751953125,0.8953857421875,24.2138671875,-170.386962890625
1760837564.3721144,-0.43603515625,0.01025390625,0.8984375,1.03759765625,-1.3427734375,2.0751953125,0.9173583984375,24.202880859375,-170.3594970703125
1760837564.3789804,-0.4482421875,0.01025390625,0.9052734375,1.15966796875,-1.220703125,2.3193359375,0.9393310546875,24.19189453125,-170.33203125
1760837564.3868275,-0.4482421875,0.01025390625,0.9052734375,1.15966796875,-1.220703125,2.3193359375,0.955810546875,24.1864013671875,-170.299072265625
1760837564.4027612,-0.431640625,0.015625,0.90478515625,0.79345703125,-0.91552734375,2.50244140625,0.977783203125,24.180908203125,-170.26611328125
1760837564.411919,-0.431640625,0.015625,0.90478515625,0.79345703125,-0.91552734375,2.50244140625,0.9942626953125,24.180908203125,-170.233154296875
1760837564.422168,-0.43798828125,0.02294921875,0.89453125,-0.30517578125,-0.54931640625,2.38037109375,0.999755859375,24.180908203125,-170.2001953125
1760837564.4332876,-0.43798828125,0.02294921875,0.89453125,-0.30517578125,-0.54931640625,2.38037109375,1.0107421875,24.180908203125,-170.167236328125
1760837564.4420385,-0.4248046875,0.015625,0.91650390625,-0.244140625,-0.42724609375,2.197265625,1.0162353515625,24.1864013671875,-170.13427734375
1760837564.4512002,-0.4248046875,0.015625,0.91650390625,-0.244140625,-0.42724609375,2.197265625,1.021728515625,24.1864013671875,-170.101318359375
1760837564.460055,-0.42333984375,0.017578125,0.91357421875,-1.03759765625,-0.48828125,1.953125,1.021728515625,24.1864013671875,-170.0738525390625
1760837564.4830658,-0.42333984375,0.017578125,0.91357421875,-1.03759765625,-0.48828125,1.953125,1.0162353515625,24.1864013671875,-170.0408935546875
1760837564.4896173,-0.42333984375,0.017578125,0.91357421875,-1.3427734375,-0.30517578125,1.64794921875,1.0107421875,24.19189453125,-170.0189208984375
1760837564.4969773,-0.42724609375,0.02294921875,0.90380859375,-1.3427734375,-0.30517578125,1.64794921875,1.0052490234375,24.1973876953125,-169.991455078125
1760837564.5114412,-0.419921875,0.017578125,0.912109375,-1.46484375,0.06103515625,1.46484375,0.999755859375,24.202880859375,-169.9639892578125
1760837564.51909,-0.419921875,0.017578125,0.912109375,-1.46484375,0.06103515625,1.46484375,0.98876953125,24.2083740234375,-169.9420166015625
1760837564.5276093,-0.42333984375,0.02294921875,0.91455078125,-1.89208984375,0.48828125,1.15966796875,0.977783203125,24.2193603515625,-169.9200439453125
1760837564.5346472,-0.42333984375,0.02294921875,0.91455078125,-1.89208984375,0.48828125,1.15966796875,0.966796875,24.224853515625,-169.8980712890625
1760837564.5432563,-0.43115234375,0.02001953125,0.90576171875,-2.38037109375,0.6103515625,0.9765625,0.94482421875,24.23583984375,-169.881591796875
1760837564.557698,-0.43115234375,0.02001953125,0.90576171875,-2.38037109375,0.6103515625,0.9765625,0.9283447265625,24.246826171875,-169.859619140625
1760837564.5654402,-0.423828125,0.01123046875,0.90576171875,-0.9765625,0.6103515625,0.79345703125,0.9228515625,24.2633056640625,-169.8431396484375
1760837564.5730917,-0.423828125,0.01123046875,0.90576171875,-0.9765625,0.6103515625,0.79345703125,0.9173583984375,24.2742919921875,-169.8321533203125
1760837564.5810032,-0.42822265625,0.01123046875,0.90771484375,-0.3662109375,0.42724609375,0.3662109375,0.9173583984375,24.27978515625,-169.815673828125
1760837564.5880759,-0.42822265625,0.01123046875,0.90771484375,-0.3662109375,0.42724609375,0.3662109375,0.9173583984375,24.290771484375,-169.8046875
1760837564.5960793,-0.4189453125,0.0205078125,0.89990234375,0.1220703125,0.244140625,0.18310546875,0.9173583984375,24.2962646484375,-169.7991943359375
1760837564.609928,-0.4189453125,0.0205078125,0.89990234375,0.1220703125,0.244140625,0.18310546875,0.9228515625,24.3072509765625,-169.7882080078125
1760837564.6173632,-0.42138671875,0.01611328125,0.91552734375,0.6103515625,0.0,-0.06103515625,0.9283447265625,24.312744140625,-169.78271484375
1760837564.6243536,-0.42138671875,0.01611328125,0.91552734375,0.6103515625,0.0,-0.06103515625,0.933837890625,24.312744140625,-169.7772216796875
1760837564.6311355,-0.4208984375,0.02099609375,0.91357421875,0.79345703125,-0.3662109375,-0.3662109375,0.94482421875,24.312744140625,-169.7772216796875
1760837564.6449962,-0.4208984375,0.02099609375,0.91357421875,0.79345703125,-0.3662109375,-0.3662109375,0.9503173828125,24.3182373046875,-169.771728515625
1760837564.658102,-0.412109375,0.01611328125,0.908203125,1.0986328125,-0.48828125,-0.6103515625,0.955810546875,24.312744140625,-169.7772216796875
1760837564.666322,-0.412109375,0.01611328125,0.908203125,1.0986328125,-0.48828125,-0.6103515625,0.966796875,24.312744140625,-169.7772216796875
1760837564.6730025,-0.408203125,0.017578125,0.91357421875,1.0986328125,-0.54931640625,-0.8544921875,0.9722900390625,24.312744140625,-169.78271484375
1760837564.680611,-0.408203125,0.017578125,0.91357421875,1.0986328125,-0.54931640625,-0.8544921875,0.9832763671875,24.3072509765625,-169.7882080078125
1760837564.694594,-0.40283203125,0.0166015625,0.91845703125,0.732421875,-0.67138671875,-1.0986328125,0.9832763671875,24.3017578125,-169.7991943359375
1760837564.702537,-0.40283203125,0.0166015625,0.91845703125,0.732421875,-0.67138671875,-1.0986328125,0.98876953125,24.2962646484375,-169.8101806640625
1760837564.7097316,-0.40625,0.01513671875,0.91796875,0.79345703125,-0.732421875,-1.220703125,0.98876953125,24.290771484375,-169.8211669921875
1760837564.7180698,-0.40625,0.01513671875,0.91796875,0.79345703125,-0.732421875,-1.220703125,0.9942626953125,24.2852783203125,-169.8321533203125
1760837564.725568,-0.4111328125,0.0244140625,0.908203125,0.30517578125,-0.54931640625,-1.28173828125,0.9942626953125,24.27978515625,-169.8431396484375
1760837564.7413428,-0.41064453125,0.0283203125,0.91650390625,-1.03759765625,-0.3662109375,-1.220703125,0.9832763671875,24.27978515625,-169.8541259765625
1760837564.7500267,-0.41064453125,0.0283203125,0.91650390625,-1.03759765625,-0.3662109375,-1.220703125,0.966796875,24.2742919921875,-169.87060546875
1760837564.7566106,-0.40771484375,0.0205078125,0.92431640625,-2.197265625,-0.48828125,-1.0986328125,0.9503173828125,24.2742919921875,-169.881591796875
1760837564.7654111,-0.40771484375,0.0205078125,0.92431640625,-2.197265625,-0.48828125,-1.0986328125,0.9228515625,24.268798828125,-169.892578125
1760837564.7754111,-0.408203125,0.015625,0.91162109375,-2.50244140625,-0.54931640625,-1.03759765625,0.8953857421875,24.2633056640625,-169.8980712890625
1760837564.7857113,-0.408203125,0.015625,0.91162109375,-2.50244140625,-0.54931640625,-1.03759765625,0.867919921875,24.2578125,-169.9090576171875
1760837564.8065543,-0.4091796875,0.005859375,0.916015625,-1.953125,-0.48828125,-1.15966796875,0.845947265625,24.2523193359375,-169.9200439453125
1760837564.8157227,-0.4091796875,0.005859375,0.916015625,-1.953125,-0.48828125,-1.15966796875,0.823974609375,24.246826171875,-169.9310302734375
1760837564.823704,-0.41796875,0.0107421875,0.9150390625,-1.5869140625,-0.54931640625,-1.28173828125,0.802001953125,24.2413330078125,-169.947509765625
1760837564.831921,-0.41796875,0.0107421875,0.9150390625,-1.5869140625,-0.54931640625,-1.28173828125,0.780029296875,24.23583984375,-169.95849609375
1760837564.8406603,-0.41796875,0.01123046875,0.9091796875,-1.0986328125,-0.732421875,-1.15966796875,0.7635498046875,24.2303466796875,-169.969482421875
1760837564.8548717,-0.41796875,0.01123046875,0.9091796875,-1.0986328125,-0.732421875,-1.15966796875,0.7470703125,24.224853515625,-169.98046875
1760837564.8732321,-0.4169921875,0.00830078125,0.91552734375,-0.6103515625,-0.8544921875,-1.03759765625,0.736083984375,24.2138671875,-169.991455078125
1760837564.8806329,-0.4169921875,0.00830078125,0.91552734375,-0.6103515625,-0.8544921875,-1.03759765625,0.72509765625,24.2083740234375,-170.00244140625
1760837564.8872375,-0.4140625,0.0146484375,0.9052734375,-0.3662109375,-0.732421875,-0.9765625,0.714111328125,24.202880859375,-170.013427734375
1760837564.8949754,-0.4140625,0.0146484375,0.9052734375,-0.3662109375,-0.732421875,-0.9765625,0.7086181640625,24.1973876953125,-170.0189208984375
1760837564.901919,-0.4150390625,0.0107421875,0.91455078125,-0.48828125,-0.54931640625,-1.03759765625,0.6976318359375,24.19189453125,-170.0299072265625
1760837564.9197922,-0.4150390625,0.0107421875,0.91455078125,-0.48828125,-0.54931640625,-1.03759765625,0.692138671875,24.1864013671875,-170.035400390625
1760837564.9324775,-0.41552734375,0.00439453125,0.91650390625,-0.8544921875,-0.42724609375,-0.91552734375,0.68115234375,24.180908203125,-170.04638671875
1760837564.9406793,-0.41552734375,0.00439453125,0.91650390625,-0.8544921875,-0.42724609375,-0.91552734375,0.670166015625,24.180908203125,-170.0518798828125
1760837564.9483151,-0.4169921875,0.005859375,0.91162109375,-0.91552734375,-0.3662109375,-0.6103515625,0.6591796875,24.1754150390625,-170.057373046875
1760837564.9566495,-0.4169921875,0.005859375,0.91162109375,-0.91552734375,-0.3662109375,-0.6103515625,0.6427001953125,24.1754150390625,-170.0628662109375
1760837564.9639697,-0.4208984375,0.01171875,0.9140625,-0.9765625,-0.3662109375,-0.18310546875,0.6317138671875,24.1754150390625,-170.0628662109375
1760837564.9781146,-0.4208984375,0.01171875,0.9140625,-0.9765625,-0.3662109375,-0.18310546875,0.626220703125,24.169921875,-170.0628662109375
1760837564.9869814,-0.4208984375,0.01171875,0.9140625,-1.15966796875,-0.18310546875,0.06103515625,0.615234375,24.169921875,-170.057373046875
1760837564.994306,-0.41650390625,0.00439453125,0.90966796875,-1.15966796875,-0.18310546875,0.06103515625,0.604248046875,24.169921875,-170.0518798828125
1760837565.0023441,-0.419921875,0.00830078125,0.91552734375,-1.0986328125,0.06103515625,0.30517578125,0.59326171875,24.169921875,-170.04638671875
1760837565.0101793,-0.419921875,0.00830078125,0.91552734375,-1.0986328125,0.06103515625,0.30517578125,0.582275390625,24.1754150390625,-170.0408935546875
1760837565.0236783,-0.41796875,0.00732421875,0.9169921875,-0.9765625,0.30517578125,0.6103515625,0.5712890625,24.180908203125,-170.0299072265625
1760837565.0307376,-0.41796875,0.00732421875,0.9169921875,-0.9765625,0.30517578125,0.6103515625,0.5657958984375,24.1864013671875,-170.0189208984375
1760837565.0387876,-0.41162109375,-0.0009765625,0.91796875,-1.52587890625,0.42724609375,1.0986328125,0.560302734375,24.19189453125,-170.0079345703125
1760837565.0464625,-0.41162109375,-0.0009765625,0.91796875,-1.52587890625,0.42724609375,1.0986328125,0.54931640625,24.1973876953125,-169.9969482421875
1760837565.056556,-0.41455078125,0.0009765625,0.91259765625,-1.3427734375,0.3662109375,1.52587890625,0.538330078125,24.202880859375,-169.98046875
1760837565.0724597,-0.41455078125,0.0009765625,0.91259765625,-1.3427734375,0.3662109375,1.52587890625,0.5328369140625,24.2083740234375,-169.95849609375
1760837565.0803099,-0.41259765625,0.009765625,0.91064453125,-0.67138671875,0.30517578125,1.77001953125,0.52734375,24.2083740234375,-169.9365234375
1760837565.087887,-0.41259765625,0.009765625,0.91064453125,-0.67138671875,0.30517578125,1.77001953125,0.52734375,24.2138671875,-169.9200439453125
1760837565.097111,-0.41064453125,0.013671875,0.91748046875,-0.732421875,0.30517578125,1.953125,0.52734375,24.2193603515625,-169.8980712890625
1760837565.1227171,-0.41064453125,0.013671875,0.91748046875,-0.732421875,0.30517578125,1.953125,0.52734375,24.224853515625,-169.87060546875
1760837565.1363988,-0.40576171875,0.0048828125,0.9130859375,-0.91552734375,0.42724609375,1.953125,0.52734375,24.224853515625,-169.8486328125
1760837565.1439624,-0.40576171875,0.0048828125,0.9130859375,-0.91552734375,0.42724609375,1.953125,0.52734375,24.2303466796875,-169.82666015625
1760837565.1508167,-0.4072265625,0.00341796875,0.92041015625,-0.06103515625,0.48828125,1.89208984375,0.5328369140625,24.23583984375,-169.8046875
1760837565.1686673,-0.4072265625,0.00341796875,0.92041015625,-0.06103515625,0.48828125,1.89208984375,0.538330078125,24.2413330078125,-169.78271484375
1760837565.183794,-0.41259765625,0.0078125,0.9140625,-0.8544921875,0.48828125,1.8310546875,0.5438232421875,24.246826171875,-169.7662353515625
1760837565.193599,-0.41259765625,0.0078125,0.9140625,-0.8544921875,0.48828125,1.8310546875,0.5438232421875,24.2523193359375,-169.7442626953125
1760837565.2073305,-0.40673828125,0.01123046875,0.9111328125,-1.03759765625,0.6103515625,2.13623046875,0.538330078125,24.2578125,-169.7222900390625
1760837565.224731,-0.40673828125,0.01123046875,0.9111328125,-1.03759765625,0.6103515625,2.13623046875,0.538330078125,24.2633056640625,-169.7003173828125
1760837565.2386036,-0.41650390625,0.0068359375,0.92724609375,-0.54931640625,0.8544921875,1.953125,0.538330078125,24.268798828125,-169.6783447265625
1760837565.248026,-0.41650390625,0.0068359375,0.92724609375,-0.54931640625,0.8544921875,1.953125,0.5438232421875,24.2742919921875,-169.6563720703125
1760837565.267786,-0.41650390625,0.0068359375,0.92724609375,-0.9765625,0.9765625,1.46484375,0.5438232421875,24.2852783203125,-169.639892578125
1760837565.2763038,-0.40185546875,0.01708984375,0.90625,-0.9765625,0.9765625,1.46484375,0.538330078125,24.290771484375,-169.6234130859375
1760837565.2837312,-0.38916015625,0.0166015625,0.91455078125,0.0,0.6103515625,1.15966796875,0.5438232421875,24.3017578125,-169.6124267578125
1760837565.2907896,-0.38916015625,0.0166015625,0.91455078125,0.0,0.6103515625,1.15966796875,0.54931640625,24.3017578125,-169.6014404296875
1760837565.3049817,-0.3828125,0.0048828125,0.92822265625,-2.44140625,-0.42724609375,0.91552734375,0.538330078125,24.3017578125,-169.595947265625
1760837565.312751,-0.3828125,0.0048828125,0.92822265625,-2.44140625,-0.42724609375,0.91552734375,0.5218505859375,24.2962646484375,-169.5904541015625
1760837565.319742,-0.39453125,0.0107421875,0.91015625,-1.28173828125,-1.8310546875,1.03759765625,0.50537109375,24.27978515625,-169.5794677734375
1760837565.3261564,-0.39453125,0.0107421875,0.91015625,-1.28173828125,-1.8310546875,1.03759765625,0.4998779296875,24.2578125,-169.573974609375
1760837565.3322809,-0.3876953125,-0.00390625,0.91162109375,0.3662109375,-2.9296875,0.8544921875,0.4998779296875,24.2303466796875,-169.5684814453125
1760837565.3394015,-0.3876953125,-0.00390625,0.91162109375,0.3662109375,-2.9296875,0.8544921875,0.50537109375,24.1973876953125,-169.56298828125
1760837565.3558407,-0.37890625,0.01708984375,0.92919921875,-1.77001953125,-3.41796875,0.30517578125,0.4998779296875,24.158935546875,-169.56298828125
1760837565.363938,-0.37890625,0.01708984375,0.92919921875,-1.77001953125,-3.41796875,0.30517578125,0.4833984375,24.1204833984375,-169.5684814453125
1760837565.3706334,-0.37744140625,0.02197265625,0.93017578125,-2.38037109375,-3.60107421875,-0.06103515625,0.4669189453125,24.08203125,-169.573974609375
1760837565.3787875,-0.37744140625,0.02197265625,0.93017578125,-2.38037109375,-3.60107421875,-0.06103515625,0.4449462890625,24.0380859375,-169.5794677734375
1760837565.40238,-0.38623046875,0.02392578125,0.91943359375,-3.11279296875,-3.41796875,-0.79345703125,0.41748046875,23.9996337890625,-169.5904541015625
1760837565.4216356,-0.38623046875,0.02392578125,0.91943359375,-3.11279296875,-3.41796875,-0.79345703125,0.384521484375,23.961181640625,-169.6014404296875
1760837565.4290962,-0.396484375,0.01318359375,0.92822265625,-3.7841796875,-3.47900390625,-1.77001953125,0.3460693359375,23.917236328125,-169.6234130859375
1760837565.448009,-0.396484375,0.01318359375,0.92822265625,-3.7841796875,-3.47900390625,-1.77001953125,0.3021240234375,23.8787841796875,-169.6453857421875
1760837565.4560883,-0.40625,-0.00341796875,0.92578125,-5.18798828125,-3.2958984375,-2.5634765625,0.252685546875,23.84033203125,-169.6728515625
1760837565.4646397,-0.40625,-0.00341796875,0.92578125,-5.18798828125,-3.2958984375,-2.5634765625,0.1922607421875,23.8018798828125,-169.7003173828125
1760837565.471807,-0.41259765625,0.01025390625,0.9052734375,-2.99072265625,-2.8076171875,-2.86865234375,0.142822265625,23.7689208984375,-169.7332763671875
1760837565.480197,-0.41259765625,0.01025390625,0.9052734375,-2.99072265625,-2.8076171875,-2.86865234375,0.1043701171875,23.7359619140625,-169.7607421875
1760837565.488706,-0.41650390625,0.00732421875,0.92041015625,-1.46484375,-2.74658203125,-3.0517578125,0.0714111328125,23.70849609375,-169.793701171875
1760837565.4970577,-0.41650390625,0.00732421875,0.92041015625,-1.46484375,-2.74658203125,-3.0517578125,0.0439453125,23.6810302734375,-169.8211669921875
1760837565.5084083,-0.4248046875,0.00439453125,0.9208984375,-1.5869140625,-2.8076171875,-3.60107421875,0.02197265625,23.653564453125,-169.8541259765625
1760837565.5172923,-0.4248046875,0.00439453125,0.9208984375,-1.5869140625,-2.8076171875,-3.60107421875,-0.0054931640625,23.6260986328125,-169.8870849609375
1760837565.5247068,-0.427734375,-0.01025390625,0.90478515625,-1.46484375,-2.50244140625,-3.96728515625,-0.032958984375,23.5986328125,-169.925537109375
1760837565.5322459,-0.427734375,-0.01025390625,0.90478515625,-1.46484375,-2.50244140625,-3.96728515625,-0.0604248046875,23.57666015625,-169.95849609375
1760837565.5391622,-0.43310546875,-0.0166015625,0.900390625,-0.732421875,-1.89208984375,-3.60107421875,-0.087890625,23.5601806640625,-169.991455078125
1760837565.5465462,-0.43310546875,-0.0166015625,0.900390625,-0.732421875,-1.89208984375,-3.60107421875,-0.10986328125,23.543701171875,-170.0244140625
1760837565.5535192,-0.44140625,-0.00439453125,0.9033203125,0.79345703125,-1.5869140625,-2.685546875,-0.120849609375,23.53271484375,-170.04638671875
1760837565.560142,-0.44140625,-0.00439453125,0.9033203125,0.79345703125,-1.5869140625,-2.685546875,-0.120849609375,23.521728515625,-170.068359375
1760837565.5681894,-0.41845703125,-0.00830078125,0.904296875,0.30517578125,-1.3427734375,-2.01416015625,-0.1263427734375,23.5162353515625,-170.079345703125
1760837565.581938,-0.41845703125,-0.00830078125,0.904296875,0.30517578125,-1.3427734375,-2.01416015625,-0.1318359375,23.5052490234375,-170.09033203125
1760837565.5896149,-0.40576171875,-0.01953125,0.92333984375,0.06103515625,-1.40380859375,-1.8310546875,-0.1373291015625,23.499755859375,-170.101318359375
1760837565.5967636,-0.40576171875,-0.01953125,0.92333984375,0.06103515625,-1.40380859375,-1.8310546875,-0.1483154296875,23.4942626953125,-170.1123046875
1760837565.6046073,-0.3984375,-0.00341796875,0.92529296875,0.8544921875,-0.8544921875,-1.64794921875,-0.1483154296875,23.48876953125,-170.1177978515625
1760837565.6135862,-0.3984375,-0.00341796875,0.92529296875,0.8544921875,-0.8544921875,-1.64794921875,-0.1483154296875,23.4832763671875,-170.1287841796875
1760837565.628045,-0.40234375,-0.001953125,0.92236328125,0.54931640625,-0.244140625,-1.5869140625,-0.1483154296875,23.4832763671875,-170.1397705078125
1760837565.6370077,-0.40234375,-0.001953125,0.92236328125,0.54931640625,-0.244140625,-1.5869140625,-0.15380859375,23.48876953125,-170.145263671875
1760837565.6439092,-0.40576171875,-0.0009765625,0.921875,0.3662109375,0.18310546875,-1.46484375,-0.15380859375,23.48876953125,-170.15625
1760837565.652397,-0.40576171875,-0.0009765625,0.921875,0.3662109375,0.18310546875,-1.46484375,-0.1593017578125,23.4942626953125,-170.167236328125
1760837565.6682138,-0.39892578125,-0.00341796875,0.916015625,-0.30517578125,0.6103515625,-1.3427734375,-0.164794921875,23.5052490234375,-170.1727294921875
1760837565.6759787,-0.39892578125,-0.00341796875,0.916015625,-0.30517578125,0.6103515625,-1.3427734375,-0.17578125,23.5107421875,-170.1837158203125
1760837565.6827657,-0.396484375,-0.0068359375,0.9287109375,-0.18310546875,0.67138671875,-1.220703125,-0.1812744140625,23.521728515625,-170.189208984375
1760837565.6899965,-0.396484375,-0.0068359375,0.9287109375,-0.18310546875,0.67138671875,-1.220703125,-0.1922607421875,23.5272216796875,-170.1947021484375
1760837565.6980832,-0.39501953125,-0.00048828125,0.9228515625,-1.52587890625,0.732421875,-0.9765625,-0.2032470703125,23.5382080078125,-170.2056884765625
1760837565.7181938,-0.39501953125,-0.00048828125,0.9228515625,-1.52587890625,0.732421875,-0.9765625,-0.2252197265625,23.5491943359375,-170.211181640625
1760837565.733527,-0.4013671875,0.00390625,0.91259765625,-2.8076171875,0.732421875,-0.6103515625,-0.2471923828125,23.5546875,-170.2166748046875
1760837565.7616005,-0.4013671875,0.00390625,0.91259765625,-2.8076171875,0.732421875,-0.6103515625,-0.2801513671875,23.565673828125,-170.2166748046875
1760837565.7684891,-0.4072265625,-0.0048828125,0.919921875,-2.74658203125,0.732421875,-0.48828125,-0.3076171875,23.5711669921875,-170.2166748046875
1760837565.7773063,-0.4072265625,-0.0048828125,0.919921875,-2.74658203125,0.732421875,-0.48828125,-0.3350830078125,23.5821533203125,-170.2166748046875
1760837565.7928233,-0.40966796875,-0.01025390625,0.9189453125,-2.99072265625,0.732421875,-0.6103515625,-0.3680419921875,23.587646484375,-170.22216796875
1760837565.8014429,-0.40966796875,-0.01025390625,0.9189453125,-2.99072265625,0.732421875,-0.6103515625,-0.4010009765625,23.5986328125,-170.22216796875
1760837565.8084147,-0.41748046875,-0.00390625,0.91650390625,-2.50244140625,0.732421875,-0.42724609375,-0.4229736328125,23.6041259765625,-170.22216796875
1760837565.8155575,-0.41748046875,-0.00390625,0.91650390625,-2.50244140625,0.732421875,-0.42724609375,-0.450439453125,23.6151123046875,-170.22216796875
1760837565.8228188,-0.4169921875,-0.01025390625,0.91064453125,-2.38037109375,0.732421875,-0.18310546875,-0.472412109375,23.6260986328125,-170.22216796875
1760837565.837806,-0.4169921875,-0.01025390625,0.91064453125,-2.38037109375,0.732421875,-0.18310546875,-0.4998779296875,23.631591796875,-170.2166748046875
1760837565.844966,-0.41357421875,-0.01953125,0.9111328125,-1.8310546875,0.8544921875,-0.1220703125,-0.516357421875,23.642578125,-170.2166748046875
1760837565.8518095,-0.41357421875,-0.01953125,0.9111328125,-1.8310546875,0.8544921875,-0.1220703125,-0.5328369140625,23.653564453125,-170.211181640625
1760837565.859717,-0.41455078125,-0.0146484375,0.9130859375,-0.48828125,0.91552734375,0.0,-0.538330078125,23.6700439453125,-170.2056884765625
1760837565.8750591,-0.41455078125,-0.0146484375,0.9130859375,-0.48828125,0.91552734375,0.0,-0.5438232421875,23.6810302734375,-170.2001953125
1760837565.8975525,-0.4248046875,-0.00927734375,0.91748046875,0.0,0.91552734375,-0.06103515625,-0.5438232421875,23.6920166015625,-170.2001953125
1760837565.9048293,-0.4248046875,-0.00927734375,0.91748046875,0.0,0.91552734375,-0.06103515625,-0.5438232421875,23.7030029296875,-170.1947021484375
1760837565.9139729,-0.4296875,-0.01123046875,0.90087890625,0.30517578125,1.0986328125,-0.18310546875,-0.5438232421875,23.719482421875,-170.189208984375
1760837565.921057,-0.4296875,-0.01123046875,0.90087890625,0.30517578125,1.0986328125,-0.18310546875,-0.5438232421875,23.7359619140625,-170.1837158203125
1760837565.9326766,-0.4140625,-0.02099609375,0.91259765625,0.732421875,1.40380859375,-0.1220703125,-0.538330078125,23.75244140625,-170.17822265625
1760837565.9390953,-0.4140625,-0.02099609375,0.91259765625,0.732421875,1.40380859375,-0.1220703125,-0.5328369140625,23.7744140625,-170.17822265625
1760837565.9605849,-0.41015625,-0.01806640625,0.919921875,1.03759765625,1.28173828125,-0.1220703125,-0.5218505859375,23.7908935546875,-170.1727294921875
1760837565.9780836,-0.41015625,-0.01806640625,0.919921875,1.03759765625,1.28173828125,-0.1220703125,-0.516357421875,23.807373046875,-170.1727294921875
1760837565.9924252,-0.40966796875,0.0,0.9111328125,0.54931640625,1.03759765625,-0.18310546875,-0.5108642578125,23.818359375,-170.167236328125
1760837566.0150888,-0.40966796875,0.0,0.9111328125,0.54931640625,1.03759765625,-0.18310546875,-0.50537109375,23.8348388671875,-170.167236328125
1760837566.0220087,-0.419921875,0.0009765625,0.9091796875,0.30517578125,1.0986328125,-0.42724609375,-0.50537109375,23.8458251953125,-170.167236328125
1760837566.0386605,-0.419921875,0.0009765625,0.9091796875,0.30517578125,1.0986328125,-0.42724609375,-0.50537109375,23.8623046875,-170.167236328125
1760837566.0512795,-0.4169921875,-0.0107421875,0.9140625,-0.54931640625,1.40380859375,-0.732421875,-0.516357421875,23.8787841796875,-170.167236328125
1760837566.0620708,-0.4169921875,-0.0107421875,0.9140625,-0.54931640625,1.40380859375,-0.732421875,-0.5218505859375,23.895263671875,-170.1727294921875
1760837566.0687542,-0.41357421875,-0.009765625,0.90966796875,-0.06103515625,1.52587890625,-0.79345703125,-0.52734375,23.917236328125,-170.17822265625
1760837566.0876527,-0.41357421875,-0.009765625,0.90966796875,-0.06103515625,1.52587890625,-0.79345703125,-0.5328369140625,23.9337158203125,-170.17822265625
1760837566.0983024,-0.408203125,-0.0048828125,0.9169921875,-0.6103515625,1.52587890625,-0.67138671875,-0.5438232421875,23.9501953125,-170.1837158203125
1760837566.1206276,-0.408203125,-0.0048828125,0.9169921875,-0.6103515625,1.52587890625,-0.67138671875,-0.54931640625,23.9666748046875,-170.189208984375
1760837566.1271257,-0.39990234375,-0.01025390625,0.919921875,-0.9765625,1.220703125,-0.48828125,-0.560302734375,23.983154296875,-170.189208984375
1760837566.1341214,-0.39990234375,-0.01025390625,0.919921875,-0.9765625,1.220703125,-0.48828125,-0.5712890625,23.994140625,-170.189208984375
1760837566.1569817,-0.3984375,-0.015625,0.91650390625,-0.79345703125,0.8544921875,-0.54931640625,-0.582275390625,24.005126953125,-170.1947021484375
1760837566.1703253,-0.3984375,-0.015625,0.91650390625,-0.79345703125,0.8544921875,-0.54931640625,-0.59326171875,24.01611328125,-170.2001953125
1760837566.182874,-0.4013671875,-0.0068359375,0.91455078125,-0.67138671875,0.48828125,-0.67138671875,-0.604248046875,24.0216064453125,-170.2056884765625
1760837566.198386,-0.4013671875,-0.0068359375,0.91455078125,-0.67138671875,0.48828125,-0.67138671875,-0.615234375,24.027099609375,-170.211181640625
1760837566.2069585,-0.4033203125,-0.009765625,0.9208984375,-1.5869140625,0.42724609375,-0.79345703125,-0.6317138671875,24.027099609375,-170.2166748046875
1760837566.219502,-0.4033203125,-0.009765625,0.9208984375,-1.5869140625,0.42724609375,-0.79345703125,-0.6536865234375,24.0325927734375,-170.2276611328125
1760837566.227645,-0.40625,-0.01611328125,0.91455078125,-1.708984375,0.244140625,-0.54931640625,-0.670166015625,24.0325927734375,-170.233154296875
1760837566.2354913,-0.40625,-0.01611328125,0.91455078125,-1.708984375,0.244140625,-0.54931640625,-0.692138671875,24.0380859375,-170.2386474609375
1760837566.248752,-0.41259765625,-0.01220703125,0.912109375,-0.9765625,-0.06103515625,-0.42724609375,-0.703125,24.0325927734375,-170.244140625
1760837566.2590663,-0.41259765625,-0.01220703125,0.912109375,-0.9765625,-0.06103515625,-0.42724609375,-0.714111328125,24.0325927734375,-170.2496337890625
1760837566.2667892,-0.412109375,-0.01806640625,0.91748046875,-0.18310546875,-0.244140625,-0.54931640625,-0.7196044921875,24.0325927734375,-170.2606201171875
1760837566.2763488,-0.412109375,-0.01806640625,0.91748046875,-0.18310546875,-0.244140625,-0.54931640625,-0.72509765625,24.027099609375,-170.26611328125
1760837566.284594,-0.41455078125,-0.01416015625,0.91162109375,-0.54931640625,-0.3662109375,-0.42724609375,-0.7305908203125,24.027099609375,-170.26611328125
1760837566.2974608,-0.41455078125,-0.01416015625,0.91162109375,-0.54931640625,-0.3662109375,-0.42724609375,-0.736083984375,24.0216064453125,-170.2716064453125
1760837566.3187685,-0.41796875,-0.0068359375,0.90771484375,-0.91552734375,-0.3662109375,-0.1220703125,-0.7470703125,24.0216064453125,-170.2716064453125
1760837566.3266745,-0.41796875,-0.0068359375,0.90771484375,-0.91552734375,-0.3662109375,-0.1220703125,-0.758056640625,24.01611328125,-170.2716064453125
