timestamp,acc_x,acc_y,acc_z,gyro_x,gyro_y,gyro_z,angle_x,angle_y,angle_z
1758786555.3142428,0.0,0.0,0.0,0.0,0.0,0.0,2.8619384765625,42.8851318359375,-132.6104736328125
1758786555.3261297,-0.6982421875,0.068359375,0.814453125,0.0,1.89208984375,-7.2021484375,2.7960205078125,42.9290771484375,-132.6708984375
1758786555.3357453,-0.69970703125,0.02978515625,0.7802734375,5.37109375,0.79345703125,-6.28662109375,2.7960205078125,42.9620361328125,-132.725830078125
1758786555.3450456,-0.69970703125,0.02978515625,0.7802734375,5.37109375,0.79345703125,-6.28662109375,2.7960205078125,42.989501953125,-132.78076171875
1758786555.3563175,-0.67236328125,0.03076171875,0.732421875,2.99072265625,-0.18310546875,-6.40869140625,2.7685546875,43.00048828125,-132.8411865234375
1758786555.3673594,-0.67236328125,0.03076171875,0.732421875,2.99072265625,-0.18310546875,-6.40869140625,2.7410888671875,43.0169677734375,-132.901611328125
1758786555.3766875,-0.6513671875,0.05029296875,0.68994140625,5.615234375,-0.48828125,-6.591796875,2.735595703125,43.0224609375,-132.967529296875
1758786555.3855846,-0.6513671875,0.05029296875,0.68994140625,5.615234375,-0.48828125,-6.591796875,2.735595703125,43.033447265625,-133.0279541015625
1758786555.3938003,-0.6376953125,0.0478515625,0.6962890625,8.60595703125,-0.54931640625,-6.8359375,2.7630615234375,43.0389404296875,-133.099365234375
1758786555.4037814,-0.6376953125,0.0478515625,0.6962890625,8.60595703125,-0.54931640625,-6.8359375,2.7850341796875,43.04443359375,-133.165283203125
1758786555.413738,-0.6484375,0.0478515625,0.72216796875,6.16455078125,-0.67138671875,-7.01904296875,2.7850341796875,43.04443359375,-133.2366943359375
1758786555.423907,-0.6484375,0.0478515625,0.72216796875,6.16455078125,-0.67138671875,-7.01904296875,2.7850341796875,43.0499267578125,-133.30810546875
1758786555.4333494,-0.6865234375,0.04931640625,0.7412109375,5.9814453125,-1.3427734375,-7.38525390625,2.779541015625,43.04443359375,-133.385009765625
1758786555.443399,-0.6865234375,0.04931640625,0.7412109375,5.9814453125,-1.3427734375,-7.38525390625,2.7740478515625,43.0389404296875,-133.4619140625
1758786555.4534004,-0.6875,0.0478515625,0.73291015625,8.60595703125,-1.52587890625,-7.6904296875,2.7960205078125,43.0279541015625,-133.5443115234375
1758786555.4637294,-0.6875,0.0478515625,0.73291015625,8.60595703125,-1.52587890625,-7.6904296875,2.8125,43.0224609375,-133.626708984375
1758786555.4734433,-0.68994140625,0.06396484375,0.71337890625,6.16455078125,-0.79345703125,-8.30078125,2.801513671875,43.0224609375,-133.714599609375
1758786555.4836104,-0.68994140625,0.06396484375,0.71337890625,6.16455078125,-0.79345703125,-8.30078125,2.79052734375,43.0224609375,-133.7969970703125
1758786555.4934502,-0.70947265625,0.078125,0.72412109375,2.3193359375,0.0,-8.544921875,2.7410888671875,43.0279541015625,-133.8848876953125
1758786555.5039089,-0.70947265625,0.078125,0.72412109375,2.3193359375,0.0,-8.544921875,2.6971435546875,43.0389404296875,-133.9727783203125
1758786555.513453,-0.74072265625,0.0703125,0.72314453125,2.25830078125,0.3662109375,-8.72802734375,2.647705078125,43.0499267578125,-134.0606689453125
1758786555.523471,-0.74072265625,0.0703125,0.72314453125,2.25830078125,0.3662109375,-8.72802734375,2.5982666015625,43.0609130859375,-134.14306640625
1758786555.5334878,-0.73583984375,0.05517578125,0.72021484375,2.74658203125,0.18310546875,-8.97216796875,2.5543212890625,43.077392578125,-134.23095703125
1758786555.543486,-0.73583984375,0.05517578125,0.72021484375,2.74658203125,0.18310546875,-8.97216796875,2.5103759765625,43.08837890625,-134.31884765625
1758786555.5535066,-0.70703125,0.0478515625,0.69580078125,3.0517578125,0.1220703125,-9.1552734375,2.4664306640625,43.1048583984375,-134.4122314453125
1758786555.5635135,-0.70703125,0.0478515625,0.69580078125,3.0517578125,0.1220703125,-9.1552734375,2.4224853515625,43.1158447265625,-134.5001220703125
1758786555.5735488,-0.6806640625,0.0390625,0.703125,2.25830078125,-0.30517578125,-8.85009765625,2.373046875,43.1268310546875,-134.5880126953125
1758786555.5835688,-0.6806640625,0.0390625,0.703125,2.25830078125,-0.30517578125,-8.85009765625,2.3236083984375,43.1378173828125,-134.6759033203125
1758786555.5935888,-0.65869140625,0.0419921875,0.72705078125,-5.55419921875,-1.15966796875,-7.8125,2.2027587890625,43.13232421875,-134.7528076171875
1758786555.6036026,-0.65869140625,0.0419921875,0.72705078125,-5.55419921875,-1.15966796875,-7.8125,2.08740234375,43.13232421875,-134.8297119140625
1758786555.613583,-0.62451171875,0.0361328125,0.76171875,-4.39453125,-2.38037109375,-7.38525390625,1.9830322265625,43.1158447265625,-134.901123046875
1758786555.6235979,-0.62451171875,0.0361328125,0.76171875,-4.39453125,-2.38037109375,-7.38525390625,1.8841552734375,43.0938720703125,-134.9725341796875
1758786555.6336005,-0.60791015625,0.0,0.7470703125,0.6103515625,-3.11279296875,-6.591796875,1.834716796875,43.06640625,-135.0384521484375
1758786555.6436226,-0.60791015625,0.0,0.7470703125,0.6103515625,-3.11279296875,-6.591796875,1.7852783203125,43.033447265625,-135.1043701171875
1758786555.6536245,-0.6064453125,0.00244140625,0.78759765625,-2.44140625,-4.57763671875,-6.34765625,1.7083740234375,42.9840087890625,-135.17578125
1758786555.6636398,-0.6064453125,0.00244140625,0.78759765625,-2.44140625,-4.57763671875,-6.34765625,1.6314697265625,42.9290771484375,-135.2471923828125
1758786555.6736526,-0.6162109375,0.01318359375,0.7998046875,0.244140625,-5.0048828125,-6.4697265625,1.5765380859375,42.8741455078125,-135.3240966796875
1758786555.6836677,-0.6162109375,0.01318359375,0.7998046875,0.244140625,-5.0048828125,-6.4697265625,1.5216064453125,42.813720703125,-135.4010009765625
1758786555.693675,-0.60791015625,-0.0087890625,0.82568359375,8.1787109375,-5.06591796875,-7.568359375,1.5325927734375,42.7532958984375,-135.494384765625
1758786555.7037573,-0.60791015625,-0.0087890625,0.82568359375,8.1787109375,-5.06591796875,-7.568359375,1.549072265625,42.6873779296875,-135.59326171875
1758786555.7136931,-0.595703125,-0.0107421875,0.83056640625,18.00537109375,-2.44140625,-9.33837890625,1.636962890625,42.64892578125,-135.714111328125
1758786555.7237358,-0.595703125,-0.0107421875,0.83056640625,18.00537109375,-2.44140625,-9.33837890625,1.7303466796875,42.60498046875,-135.8404541015625
1758786555.7337313,-0.57861328125,0.03125,0.82470703125,23.01025390625,-0.18310546875,-10.8642578125,1.856689453125,42.5830078125,-135.98876953125
1758786555.7437317,-0.57861328125,0.03125,0.82470703125,23.01025390625,-0.18310546875,-10.8642578125,1.9830322265625,42.56103515625,-136.1370849609375
1758786555.7537355,-0.58447265625,0.0791015625,0.8310546875,20.99609375,2.01416015625,-11.77978515625,2.0819091796875,42.56103515625,-136.29638671875
1758786555.763763,-0.58447265625,0.0791015625,0.8310546875,20.99609375,2.01416015625,-11.77978515625,2.186279296875,42.5555419921875,-136.4556884765625
1758786555.7737818,-0.609375,0.08349609375,0.83056640625,20.20263671875,2.8076171875,-12.63427734375,2.274169921875,42.56103515625,-136.6259765625
1758786555.783797,-0.609375,0.08349609375,0.83056640625,20.20263671875,2.8076171875,-12.63427734375,2.362060546875,42.56103515625,-136.790771484375
1758786555.7938073,-0.63427734375,0.087890625,0.83740234375,19.4091796875,2.5634765625,-13.61083984375,2.43896484375,42.56103515625,-136.9720458984375
1758786555.8038619,-0.63427734375,0.087890625,0.83740234375,19.4091796875,2.5634765625,-13.61083984375,2.5103759765625,42.56103515625,-137.1478271484375
1758786555.813994,-0.61767578125,0.0830078125,0.794921875,11.53564453125,2.0751953125,-14.404296875,2.5048828125,42.5555419921875,-137.3345947265625
1758786555.8239803,-0.61767578125,0.0830078125,0.794921875,11.53564453125,2.0751953125,-14.404296875,2.4993896484375,42.5555419921875,-137.5213623046875
1758786555.8348567,-0.62646484375,0.0830078125,0.765625,7.2021484375,1.15966796875,-14.404296875,2.449951171875,42.5445556640625,-137.7081298828125
1758786555.8444884,-0.62646484375,0.0830078125,0.765625,7.2021484375,1.15966796875,-14.404296875,2.4005126953125,42.5335693359375,-137.889404296875
1758786555.853944,-0.63330078125,0.056640625,0.74853515625,-0.1220703125,0.3662109375,-13.916015625,2.28515625,42.5115966796875,-138.065185546875
1758786555.8641047,-0.63330078125,0.056640625,0.74853515625,-0.1220703125,0.3662109375,-13.916015625,2.1697998046875,42.4951171875,-138.2354736328125
1758786555.8739672,-0.65966796875,0.05517578125,0.77099609375,-7.2021484375,-0.3662109375,-13.5498046875,1.988525390625,42.47314453125,-138.40576171875
1758786555.8841326,-0.65966796875,0.05517578125,0.77099609375,-7.2021484375,-0.3662109375,-13.5498046875,1.8072509765625,42.451171875,-138.570556640625
1758786555.8939645,-0.6904296875,0.03857421875,0.7900390625,-7.9345703125,-1.5869140625,-13.427734375,1.6204833984375,42.418212890625,-138.7298583984375
1758786555.904171,-0.6904296875,0.03857421875,0.7900390625,-7.9345703125,-1.5869140625,-13.427734375,1.439208984375,42.38525390625,-138.8946533203125
1758786555.913965,-0.68017578125,0.048828125,0.7646484375,-6.28662109375,-2.86865234375,-12.939453125,1.2744140625,42.34130859375,-139.0484619140625
1758786555.9242165,-0.68017578125,0.048828125,0.7646484375,-6.28662109375,-2.86865234375,-12.939453125,1.109619140625,42.29736328125,-139.19677734375
1758786555.9341066,-0.62890625,0.01025390625,0.73291015625,-3.47900390625,-3.5400390625,-13.24462890625,0.9722900390625,42.2479248046875,-139.3505859375
1758786555.9442127,-0.62890625,0.01025390625,0.73291015625,-3.47900390625,-3.5400390625,-13.24462890625,0.8294677734375,42.2039794921875,-139.5098876953125
1758786555.954027,-0.59765625,-0.009765625,0.69189453125,-12.6953125,-3.173828125,-12.939453125,0.604248046875,42.1600341796875,-139.658203125
1758786555.9647288,-0.59765625,-0.009765625,0.69189453125,-12.6953125,-3.173828125,-12.939453125,0.37353515625,42.1160888671875,-139.81201171875
1758786555.9743977,-0.607421875,0.005859375,0.71875,-17.51708984375,-2.3193359375,-13.5498046875,0.0933837890625,42.07763671875,-139.9713134765625
1758786555.9842281,-0.607421875,0.005859375,0.71875,-17.51708984375,-2.3193359375,-13.5498046875,-0.186767578125,42.044677734375,-140.130615234375
1758786555.9941492,-0.64599609375,0.0,0.7099609375,-16.41845703125,-1.708984375,-13.916015625,-0.46142578125,42.0172119140625,-140.2899169921875
1758786556.0042772,-0.64599609375,0.0,0.7099609375,-16.41845703125,-1.708984375,-13.916015625,-0.7305908203125,41.98974609375,-140.44921875
1758786556.0146904,-0.68115234375,0.0068359375,0.7548828125,-16.41845703125,-1.52587890625,-14.6484375,-1.0107421875,41.9622802734375,-140.6195068359375
1758786556.0243616,-0.68115234375,0.0068359375,0.7548828125,-16.41845703125,-1.52587890625,-14.6484375,-1.2908935546875,41.9403076171875,-140.7843017578125
1758786556.0341556,-0.705078125,-0.0185546875,0.73876953125,-8.1787109375,-1.28173828125,-16.4794921875,-1.4996337890625,41.9183349609375,-140.9710693359375
1758786556.0442426,-0.705078125,-0.0185546875,0.73876953125,-8.1787109375,-1.28173828125,-16.4794921875,-1.7138671875,41.8963623046875,-141.1578369140625
1758786556.054151,-0.72265625,-0.04736328125,0.76123046875,1.953125,-0.1220703125,-18.06640625,-1.8402099609375,41.8853759765625,-141.3665771484375
1758786556.064739,-0.72265625,-0.04736328125,0.76123046875,1.953125,-0.1220703125,-18.06640625,-1.966552734375,41.8798828125,-141.580810546875
1758786556.074449,-0.75830078125,-0.03564453125,0.771484375,8.30078125,1.3427734375,-19.22607421875,-2.0489501953125,41.8853759765625,-141.8060302734375
1758786556.0843232,-0.75830078125,-0.03564453125,0.771484375,8.30078125,1.3427734375,-19.22607421875,-2.1258544921875,41.8963623046875,-142.03125
1758786556.0942879,-0.78125,-0.0029296875,0.783203125,15.07568359375,2.44140625,-21.30126953125,-2.1533203125,41.912841796875,-142.2784423828125
1758786556.1045263,-0.78125,-0.0029296875,0.783203125,15.07568359375,2.44140625,-21.30126953125,-2.186279296875,41.934814453125,-142.5311279296875
1758786556.115044,-0.775390625,-0.01220703125,0.7763671875,23.49853515625,3.0517578125,-22.76611328125,-2.1478271484375,41.9622802734375,-142.80029296875
1758786556.1243842,-0.775390625,-0.01220703125,0.7763671875,23.49853515625,3.0517578125,-22.76611328125,-2.109375,41.9952392578125,-143.0694580078125
1758786556.1351976,-0.69482421875,-0.02880859375,0.7099609375,16.11328125,3.47900390625,-23.25439453125,-2.1478271484375,42.0281982421875,-143.3441162109375
1758786556.1443627,-0.69482421875,-0.02880859375,0.7099609375,16.11328125,3.47900390625,-23.25439453125,-2.1917724609375,42.0611572265625,-143.6187744140625
1758786556.1543052,-0.62060546875,-0.0478515625,0.712890625,16.05224609375,4.45556640625,-23.13232421875,-2.2357177734375,42.1051025390625,-143.89892578125
1758786556.1649172,-0.62060546875,-0.0478515625,0.712890625,16.05224609375,4.45556640625,-23.13232421875,-2.2796630859375,42.1490478515625,-144.1790771484375
1758786556.1745691,-0.587890625,-0.0712890625,0.75341796875,30.94482421875,3.7841796875,-23.49853515625,-2.1807861328125,42.176513671875,-144.4647216796875
1758786556.1846159,-0.5546875,-0.10107421875,0.7734375,39.12353515625,3.173828125,-22.76611328125,-2.0379638671875,42.2039794921875,-144.755859375
1758786556.195002,-0.5546875,-0.10107421875,0.7734375,39.12353515625,3.173828125,-22.76611328125,-1.856689453125,42.2259521484375,-145.0469970703125
1758786556.204954,-0.5498046875,-0.06640625,0.7783203125,28.86962890625,1.15966796875,-21.97265625,-1.7303466796875,42.2314453125,-145.338134765625
1758786556.2151682,-0.5498046875,-0.06640625,0.7783203125,28.86962890625,1.15966796875,-21.97265625,-1.64794921875,42.2259521484375,-145.623779296875
1758786556.2245786,-0.56884765625,-0.02880859375,0.8173828125,12.63427734375,-0.79345703125,-21.05712890625,-1.64794921875,42.20947265625,-145.909423828125
1758786556.2355065,-0.56884765625,-0.02880859375,0.8173828125,12.63427734375,-0.79345703125,-21.05712890625,-1.7193603515625,42.176513671875,-146.1895751953125
1758786556.2451127,-0.5908203125,-0.048828125,0.7646484375,9.3994140625,-2.50244140625,-20.3857421875,-1.8072509765625,42.132568359375,-146.4697265625
1758786556.2551308,-0.5908203125,-0.048828125,0.7646484375,9.3994140625,-2.50244140625,-20.3857421875,-1.9061279296875,42.0831298828125,-146.7388916015625
1758786556.2646081,-0.619140625,-0.087890625,0.72509765625,20.5078125,-3.90625,-20.44677734375,-1.944580078125,42.0281982421875,-147.0135498046875
1758786556.2755089,-0.619140625,-0.087890625,0.72509765625,20.5078125,-3.90625,-20.44677734375,-1.93359375,41.9622802734375,-147.2882080078125
1758786556.2854419,-0.71337890625,-0.06396484375,0.71923828125,37.29248046875,-3.60107421875,-20.93505859375,-1.8402099609375,41.90185546875,-147.5628662109375
1758786556.2950013,-0.71337890625,-0.06396484375,0.71923828125,37.29248046875,-3.60107421875,-20.93505859375,-1.669921875,41.846923828125,-147.843017578125
1758786556.304704,-0.83642578125,-0.0166015625,0.73095703125,32.65380859375,-3.173828125,-20.99609375,-1.5216064453125,41.7974853515625,-148.1231689453125
1758786556.31562,-0.83642578125,-0.0166015625,0.73095703125,32.65380859375,-3.173828125,-20.99609375,-1.395263671875,41.759033203125,-148.392333984375
1758786556.3250906,-0.8779296875,0.02392578125,0.77978515625,22.15576171875,-2.9296875,-20.81298828125,-1.318359375,41.72607421875,-148.6614990234375
1758786556.3355148,-0.8779296875,0.02392578125,0.77978515625,22.15576171875,-2.9296875,-20.81298828125,-1.2908935546875,41.6986083984375,-148.919677734375
1758786556.3446424,-0.87353515625,-0.00927734375,0.8154296875,21.6064453125,-4.21142578125,-19.47021484375,-1.2579345703125,41.6656494140625,-149.161376953125
1758786556.3557558,-0.87353515625,-0.00927734375,0.8154296875,21.6064453125,-4.21142578125,-19.47021484375,-1.2249755859375,41.6326904296875,-149.3975830078125
1758786556.3646584,-0.7880859375,-0.03662109375,0.66845703125,16.66259765625,-4.2724609375,-19.22607421875,-1.20849609375,41.605224609375,-149.622802734375
1758786556.3752596,-0.7880859375,-0.03662109375,0.66845703125,16.66259765625,-4.2724609375,-19.22607421875,-1.219482421875,41.572265625,-149.8480224609375
1758786556.384975,-0.703125,-0.0283203125,0.69873046875,17.27294921875,-5.0048828125,-18.1884765625,-1.2249755859375,41.5447998046875,-150.062255859375
1758786556.3959734,-0.703125,-0.0283203125,0.69873046875,17.27294921875,-5.0048828125,-18.1884765625,-1.219482421875,41.5118408203125,-150.27099609375
1758786556.4047406,-0.66357421875,-0.0322265625,0.69091796875,17.76123046875,-4.08935546875,-16.66259765625,-1.2030029296875,41.484375,-150.46875
1758786556.4146035,-0.66357421875,-0.0322265625,0.69091796875,17.76123046875,-4.08935546875,-16.66259765625,-1.1810302734375,41.46240234375,-150.6610107421875
1758786556.4246395,-0.66455078125,-0.0478515625,0.68701171875,11.23046875,-5.0048828125,-15.869140625,-1.1865234375,41.4349365234375,-150.84228515625
1758786556.4351225,-0.66455078125,-0.0478515625,0.68701171875,11.23046875,-5.0048828125,-15.869140625,-1.2249755859375,41.396484375,-151.0235595703125
1758786556.4452589,-0.6357421875,-0.02490234375,0.68701171875,15.44189453125,-5.2490234375,-14.58740234375,-1.23046875,41.363525390625,-151.19384765625
1758786556.4547594,-0.6357421875,-0.02490234375,0.68701171875,15.44189453125,-5.2490234375,-14.58740234375,-1.2139892578125,41.3250732421875,-151.358642578125
1758786556.464721,-0.5908203125,-0.01025390625,0.712890625,13.97705078125,-5.37109375,-13.18359375,-1.197509765625,41.28662109375,-151.5179443359375
1758786556.4747665,-0.5908203125,-0.01025390625,0.712890625,13.97705078125,-5.37109375,-13.18359375,-1.1810302734375,41.2481689453125,-151.6607666015625
1758786556.485948,-0.58251953125,-0.01416015625,0.72900390625,13.427734375,-4.7607421875,-12.451171875,-1.1590576171875,41.209716796875,-151.8035888671875
1758786556.4949667,-0.58251953125,-0.01416015625,0.72900390625,13.427734375,-4.7607421875,-12.451171875,-1.142578125,41.165771484375,-151.9464111328125
1758786556.5047946,-0.5849609375,-0.0244140625,0.70849609375,18.1884765625,-3.96728515625,-12.5732421875,-1.0986328125,41.1328125,-152.0892333984375
1758786556.5147364,-0.5849609375,-0.0244140625,0.70849609375,18.1884765625,-3.96728515625,-12.5732421875,-1.03271484375,41.0943603515625,-152.2320556640625
1758786556.5247974,-0.5634765625,-0.0048828125,0.78955078125,20.3857421875,-3.662109375,-12.75634765625,-0.955810546875,41.0614013671875,-152.38037109375
1758786556.536475,-0.5634765625,-0.0048828125,0.78955078125,20.3857421875,-3.662109375,-12.75634765625,-0.867919921875,41.02294921875,-152.5286865234375
1758786556.5447795,-0.55126953125,0.0224609375,0.85400390625,15.2587890625,-2.62451171875,-12.3291015625,-0.802001953125,40.989990234375,-152.677001953125
1758786556.5549202,-0.55126953125,0.0224609375,0.85400390625,15.2587890625,-2.62451171875,-12.3291015625,-0.758056640625,40.95703125,-152.8253173828125
1758786556.5648756,-0.5537109375,0.041015625,0.85009765625,7.38525390625,-2.99072265625,-11.90185546875,-0.7525634765625,40.9130859375,-152.9736328125
1758786556.5755043,-0.5537109375,0.041015625,0.85009765625,7.38525390625,-2.99072265625,-11.90185546875,-0.780029296875,40.869140625,-153.116455078125
1758786556.5853949,-0.57958984375,0.0146484375,0.8193359375,3.0517578125,-3.11279296875,-11.23046875,-0.8184814453125,40.8197021484375,-153.25927734375
1758786556.5952013,-0.57958984375,0.0146484375,0.8193359375,3.0517578125,-3.11279296875,-11.23046875,-0.8843994140625,40.770263671875,-153.3966064453125
1758786556.6049533,-0.6513671875,-0.0283203125,0.81103515625,10.6201171875,-3.662109375,-12.02392578125,-0.9063720703125,40.71533203125,-153.5394287109375
1758786556.6156518,-0.6513671875,-0.0283203125,0.81103515625,10.6201171875,-3.662109375,-12.02392578125,-0.90087890625,40.660400390625,-153.6932373046875
1758786556.6249924,-0.67236328125,-0.076171875,0.8720703125,18.00537109375,-5.2490234375,-13.48876953125,-0.8624267578125,40.594482421875,-153.8525390625
1758786556.6380744,-0.67236328125,-0.076171875,0.8720703125,18.00537109375,-5.2490234375,-13.48876953125,-0.7965087890625,40.5230712890625,-154.0228271484375
1758786556.6452425,-0.6572265625,-0.1162109375,0.890625,16.29638671875,-6.16455078125,-14.0380859375,-0.7470703125,40.45166015625,-154.1986083984375
1758786556.6552093,-0.6572265625,-0.1162109375,0.890625,16.29638671875,-6.16455078125,-14.0380859375,-0.714111328125,40.3692626953125,-154.3853759765625
1758786556.6666856,-0.6552734375,-0.1259765625,0.8505859375,25.7568359375,-8.30078125,-14.34326171875,-0.63720703125,40.27587890625,-154.57763671875
1758786556.6752825,-0.6552734375,-0.1259765625,0.8505859375,25.7568359375,-8.30078125,-14.34326171875,-0.516357421875,40.177001953125,-154.775390625
1758786556.6859257,-0.625,-0.08447265625,0.8076171875,44.73876953125,-10.3759765625,-14.58740234375,-0.3076171875,40.067138671875,-154.9786376953125
1758786556.6951282,-0.625,-0.08447265625,0.8076171875,44.73876953125,-10.3759765625,-14.58740234375,-0.0054931640625,39.9517822265625,-155.181884765625
1758786556.7067103,-0.5576171875,0.0048828125,0.74853515625,44.0673828125,-11.23046875,-14.58740234375,0.28564453125,39.825439453125,-155.3851318359375
1758786556.716141,-0.5576171875,0.0048828125,0.74853515625,44.0673828125,-11.23046875,-14.58740234375,0.5767822265625,39.70458984375,-155.5938720703125
1758786556.7253976,-0.56298828125,0.029296875,0.7431640625,34.97314453125,-11.3525390625,-13.85498046875,0.8294677734375,39.5782470703125,-155.7916259765625
1758786556.7361813,-0.56298828125,0.029296875,0.7431640625,34.97314453125,-11.3525390625,-13.85498046875,1.043701171875,39.4573974609375,-155.9783935546875
1758786556.745721,-0.55322265625,0.0380859375,0.853515625,26.79443359375,-13.36669921875,-13.3056640625,1.2139892578125,39.320068359375,-156.1651611328125
1758786556.7558303,-0.55322265625,0.0380859375,0.853515625,26.79443359375,-13.36669921875,-13.3056640625,1.351318359375,39.17724609375,-156.3519287109375
1758786556.766305,-0.4697265625,0.02294921875,0.84619140625,25.5126953125,-13.671875,-13.24462890625,1.4886474609375,39.0289306640625,-156.533203125
1758786556.775266,-0.4697265625,0.02294921875,0.84619140625,25.5126953125,-13.671875,-13.24462890625,1.614990234375,38.8751220703125,-156.719970703125
1758786556.786005,-0.4296875,-0.0029296875,0.7802734375,32.89794921875,-13.7939453125,-13.3056640625,1.77978515625,38.7213134765625,-156.90673828125
1758786556.7958298,-0.4296875,-0.0029296875,0.7802734375,32.89794921875,-13.7939453125,-13.3056640625,1.9830322265625,38.56201171875,-157.0989990234375
1758786556.8066642,-0.39306640625,-0.0205078125,0.771484375,29.84619140625,-11.8408203125,-13.5498046875,2.1697998046875,38.4136962890625,-157.2967529296875
1758786556.8153355,-0.39306640625,-0.0205078125,0.771484375,29.84619140625,-11.8408203125,-13.5498046875,2.3345947265625,38.2708740234375,-157.5
1758786556.8257918,-0.43994140625,0.02880859375,0.80908203125,18.5546875,-9.58251953125,-13.73291015625,2.4444580078125,38.1390380859375,-157.708740234375
1758786556.8361683,-0.43994140625,0.02880859375,0.80908203125,18.5546875,-9.58251953125,-13.73291015625,2.4993896484375,38.0126953125,-157.91748046875
1758786556.8465598,-0.5068359375,0.0380859375,0.80126953125,30.57861328125,-8.30078125,-14.58740234375,2.6092529296875,37.8973388671875,-158.1317138671875
1758786556.8553348,-0.5068359375,0.0380859375,0.80126953125,30.57861328125,-8.30078125,-14.58740234375,2.7850341796875,37.7874755859375,-158.3514404296875
1758786556.865217,-0.4892578125,0.05029296875,0.80517578125,40.83251953125,-7.14111328125,-15.44189453125,3.0047607421875,37.68310546875,-158.5711669921875
1758786556.8753076,-0.4892578125,0.05029296875,0.80517578125,40.83251953125,-7.14111328125,-15.44189453125,3.27392578125,37.5897216796875,-158.79638671875
1758786556.887133,-0.556640625,0.05810546875,0.8828125,24.96337890625,-6.9580078125,-17.2119140625,3.4552001953125,37.496337890625,-159.0325927734375
1758786556.895402,-0.556640625,0.05810546875,0.8828125,24.96337890625,-6.9580078125,-17.2119140625,3.5540771484375,37.4029541015625,-159.27978515625
1758786556.9053242,-0.66357421875,0.10498046875,1.07958984375,-4.08935546875,-7.4462890625,-16.6015625,3.5101318359375,37.3095703125,-159.521484375
1758786556.9153366,-0.66357421875,0.10498046875,1.07958984375,-4.08935546875,-7.4462890625,-16.6015625,3.3343505859375,37.2161865234375,-159.752197265625
1758786556.9259086,-0.71630859375,0.06689453125,1.00048828125,0.42724609375,-10.55908203125,-15.80810546875,3.1805419921875,37.1063232421875,-159.9774169921875
1758786556.9355066,-0.71630859375,0.06689453125,1.00048828125,0.42724609375,-10.55908203125,-15.80810546875,3.0596923828125,36.97998046875,-160.191650390625
1758786556.9452908,-0.60205078125,-0.00439453125,0.84814453125,11.90185546875,-14.22119140625,-14.34326171875,2.999267578125,36.8426513671875,-160.400390625
1758786556.9557252,-0.60205078125,-0.00439453125,0.84814453125,11.90185546875,-14.22119140625,-14.34326171875,3.0047607421875,36.683349609375,-160.5926513671875
1758786556.9659877,-0.455078125,-0.0263671875,0.7919921875,11.90185546875,-13.12255859375,-14.83154296875,3.0047607421875,36.5350341796875,-160.7904052734375
1758786556.9755251,-0.455078125,-0.0263671875,0.7919921875,11.90185546875,-13.12255859375,-14.83154296875,2.999267578125,36.38671875,-160.99365234375
1758786556.9854403,-0.35888671875,-0.01904296875,0.53369140625,-0.54931640625,-11.29150390625,-16.11328125,2.9278564453125,36.2548828125,-161.2078857421875
1758786556.9958339,-0.35888671875,-0.01904296875,0.53369140625,-0.54931640625,-11.29150390625,-16.11328125,2.79052734375,36.1285400390625,-161.422119140625
1758786557.0061517,-0.32373046875,-0.0048828125,0.4267578125,5.18798828125,-6.04248046875,-17.2119140625,2.6751708984375,36.0296630859375,-161.6473388671875
1758786557.0155506,-0.32373046875,-0.0048828125,0.4267578125,5.18798828125,-6.04248046875,-17.2119140625,2.5927734375,35.9637451171875,-161.8670654296875
1758786557.0254703,-0.32958984375,-0.00634765625,0.34228515625,34.97314453125,0.9765625,-18.37158203125,2.6531982421875,35.9307861328125,-162.0977783203125
1758786557.0382838,-0.32958984375,-0.00634765625,0.34228515625,34.97314453125,0.9765625,-18.37158203125,2.8564453125,35.936279296875,-162.322998046875
1758786557.0461104,-0.40087890625,0.02978515625,0.380859375,55.7861328125,10.43701171875,-18.06640625,3.1640625,35.9967041015625,-162.542724609375
1758786557.055597,-0.40087890625,0.02978515625,0.380859375,55.7861328125,10.43701171875,-18.06640625,3.58154296875,36.1065673828125,-162.7569580078125
1758786557.0654182,-0.7138671875,0.22998046875,0.8515625,43.88427734375,14.16015625,-16.7236328125,3.944091796875,36.2384033203125,-162.94921875
1758786557.0756242,-0.7138671875,0.22998046875,0.8515625,43.88427734375,14.16015625,-16.7236328125,4.2626953125,36.397705078125,-163.1195068359375
1758786557.0862525,-1.705078125,0.27734375,2.22021484375,-43.3349609375,2.5634765625,-19.04296875,4.141845703125,36.49658203125,-163.3062744140625
1758786557.095716,-1.705078125,0.27734375,2.22021484375,-43.3349609375,2.5634765625,-19.04296875,3.58154296875,36.54052734375,-163.5040283203125
1758786557.1057024,-1.705078125,0.27734375,2.22021484375,-19.4091796875,-2.86865234375,-14.09912109375,3.153076171875,36.551513671875,-163.67431640625
1758786557.1159718,-1.2685546875,-0.13134765625,1.76904296875,-19.4091796875,-2.86865234375,-14.09912109375,2.8619384765625,36.529541015625,-163.828125
1758786557.126075,-0.8779296875,-0.099609375,0.7099609375,31.3720703125,-14.0380859375,-14.892578125,2.8070068359375,36.4581298828125,-163.992919921875
1758786557.1364224,-0.8779296875,-0.099609375,0.7099609375,31.3720703125,-14.0380859375,-14.892578125,2.999267578125,36.3372802734375,-164.1632080078125
1758786557.1456082,-0.638671875,-0.0849609375,0.677734375,46.875,-12.5732421875,-11.41357421875,3.2794189453125,36.2274169921875,-164.3115234375
1758786557.1562269,-0.638671875,-0.0849609375,0.677734375,46.875,-12.5732421875,-11.41357421875,3.6419677734375,36.1285400390625,-164.443359375
1758786557.1661515,-0.55078125,-0.052734375,0.455078125,42.48046875,-10.8642578125,-13.7939453125,3.966064453125,36.0406494140625,-164.586181640625
1758786557.1760628,-0.55078125,-0.052734375,0.455078125,42.48046875,-10.8642578125,-13.7939453125,4.2572021484375,35.96923828125,-164.7454833984375
1758786557.1856482,-0.51416015625,0.0712890625,0.5146484375,31.25,-9.6435546875,-12.63427734375,4.4989013671875,35.9033203125,-164.893798828125
1758786557.1964667,-0.51416015625,0.0712890625,0.5146484375,31.25,-9.6435546875,-12.63427734375,4.6856689453125,35.848388671875,-165.0311279296875
1758786557.2065833,-0.4892578125,0.07666015625,0.54931640625,25.93994140625,-7.50732421875,-12.20703125,4.8284912109375,35.8154296875,-165.157470703125
1758786557.2161255,-0.4892578125,0.07666015625,0.54931640625,25.93994140625,-7.50732421875,-12.20703125,4.9713134765625,35.782470703125,-165.2838134765625
1758786557.2261307,-0.52783203125,0.0498046875,0.5849609375,22.27783203125,-6.65283203125,-9.70458984375,5.09765625,35.760498046875,-165.3826904296875
1758786557.2364311,-0.52783203125,0.0498046875,0.5849609375,22.27783203125,-6.65283203125,-9.70458984375,5.2239990234375,35.7330322265625,-165.47607421875
1758786557.246287,-0.58935546875,0.03515625,0.658203125,18.73779296875,-6.34765625,-8.60595703125,5.3228759765625,35.7110595703125,-165.5584716796875
1758786557.256468,-0.58935546875,0.03515625,0.658203125,18.73779296875,-6.34765625,-8.60595703125,5.42724609375,35.694580078125,-165.6353759765625
1758786557.2657743,-0.603515625,0.02880859375,0.6572265625,-3.11279296875,-4.8828125,-7.8125,5.3118896484375,35.68359375,-165.706787109375
1758786557.2766078,-0.603515625,0.02880859375,0.6572265625,-3.11279296875,-4.8828125,-7.8125,5.2020263671875,35.6781005859375,-165.772705078125
1758786557.2864509,-0.60107421875,0.06591796875,0.6142578125,-16.17431640625,-2.13623046875,-9.3994140625,4.954833984375,35.7000732421875,-165.8551025390625
1758786557.2964666,-0.60107421875,0.06591796875,0.6142578125,-16.17431640625,-2.13623046875,-9.3994140625,4.713134765625,35.7275390625,-165.9320068359375
1758786557.305797,-0.61279296875,0.0654296875,0.63818359375,15.869140625,0.0,-10.92529296875,4.779052734375,35.771484375,-166.025390625
1758786557.3158317,-0.61279296875,0.0654296875,0.63818359375,15.869140625,0.0,-10.92529296875,4.844970703125,35.8209228515625,-166.1187744140625
1758786557.3265004,-0.6259765625,0.087890625,0.6640625,24.5361328125,2.01416015625,-12.451171875,4.9932861328125,35.892333984375,-166.22314453125
1758786557.335938,-0.6259765625,0.087890625,0.6640625,24.5361328125,2.01416015625,-12.451171875,5.1416015625,35.9637451171875,-166.3330078125
1758786557.3458083,-0.65966796875,0.115234375,0.7392578125,5.4931640625,2.3193359375,-13.18359375,5.0921630859375,36.03515625,-166.44287109375
1758786557.3559794,-0.65966796875,0.115234375,0.7392578125,5.4931640625,2.3193359375,-13.18359375,5.0482177734375,36.1065673828125,-166.552734375
1758786557.366502,-0.68994140625,0.18115234375,0.81689453125,0.244140625,1.28173828125,-14.16015625,4.9493408203125,36.1669921875,-166.673583984375
1758786557.375949,-0.68994140625,0.18115234375,0.81689453125,0.244140625,1.28173828125,-14.16015625,4.85595703125,36.2274169921875,-166.79443359375
1758786557.3858674,-0.70263671875,0.15966796875,0.84228515625,1.220703125,-0.67138671875,-13.61083984375,4.779052734375,36.265869140625,-166.9097900390625
1758786557.3960202,-0.70263671875,0.15966796875,0.84228515625,1.220703125,-0.67138671875,-13.61083984375,4.7021484375,36.298828125,-167.0196533203125
1758786557.4066417,-0.689453125,0.1611328125,0.87109375,-10.6201171875,-1.64794921875,-13.5498046875,4.515380859375,36.3262939453125,-167.135009765625
1758786557.4159746,-0.689453125,0.1611328125,0.87109375,-10.6201171875,-1.64794921875,-13.5498046875,4.3231201171875,36.3482666015625,-167.2503662109375
1758786557.4259846,-0.67822265625,0.11181640625,0.85693359375,-35.58349609375,-2.86865234375,-13.671875,3.88916015625,36.353759765625,-167.36572265625
1758786557.4361062,-0.67822265625,0.11181640625,0.85693359375,-35.58349609375,-2.86865234375,-13.671875,3.4552001953125,36.3592529296875,-167.4810791015625
1758786557.4466243,-0.65625,0.0419921875,0.8388671875,-32.8369140625,-3.662109375,-14.404296875,3.043212890625,36.353759765625,-167.6129150390625
1758786557.4562514,-0.65625,0.0419921875,0.8388671875,-32.8369140625,-3.662109375,-14.404296875,2.6312255859375,36.3427734375,-167.7392578125
1758786557.466044,-0.64892578125,-0.0146484375,0.794921875,0.1220703125,-4.5166015625,-15.93017578125,2.537841796875,36.3262939453125,-167.89306640625
1758786557.476167,-0.64892578125,-0.0146484375,0.794921875,0.1220703125,-4.5166015625,-15.93017578125,2.4334716796875,36.309814453125,-168.046875
1758786557.4860632,-0.5810546875,-0.0068359375,0.77001953125,20.69091796875,-5.0048828125,-17.88330078125,2.5213623046875,36.287841796875,-168.2281494140625
1758786557.4966161,-0.5810546875,-0.0068359375,0.77001953125,20.69091796875,-5.0048828125,-17.88330078125,2.6092529296875,36.265869140625,-168.4149169921875
1758786557.506133,-0.509765625,0.0146484375,0.7509765625,15.31982421875,-4.638671875,-19.10400390625,2.625732421875,36.243896484375,-168.6181640625
1758786557.5161395,-0.509765625,0.0146484375,0.7509765625,15.31982421875,-4.638671875,-19.10400390625,2.647705078125,36.221923828125,-168.826904296875
1758786557.5267007,-0.4931640625,0.03466796875,0.7724609375,3.35693359375,-4.08935546875,-19.53125,2.5433349609375,36.199951171875,-169.0411376953125
1758786557.536463,-0.4931640625,0.03466796875,0.7724609375,3.35693359375,-4.08935546875,-19.53125,2.43896484375,36.177978515625,-169.25537109375
1758786557.546331,-0.48583984375,0.041015625,0.80712890625,-0.48828125,-3.35693359375,-20.6298828125,2.2906494140625,36.156005859375,-169.4915771484375
1758786557.5562398,-0.48583984375,0.041015625,0.80712890625,-0.48828125,-3.35693359375,-20.6298828125,2.1368408203125,36.1285400390625,-169.727783203125
1758786557.567298,-0.4853515625,0.009765625,0.806640625,-0.244140625,-2.01416015625,-22.8271484375,1.9775390625,36.1175537109375,-169.991455078125
1758786557.5762527,-0.4853515625,0.009765625,0.806640625,-0.244140625,-2.01416015625,-22.8271484375,1.812744140625,36.10107421875,-170.2606201171875
1758786557.5866177,-0.46044921875,-0.044921875,0.70166015625,13.18359375,-0.6103515625,-24.59716796875,1.7742919921875,36.0955810546875,-170.5517578125
1758786557.5964983,-0.46044921875,-0.044921875,0.70166015625,13.18359375,-0.6103515625,-24.59716796875,1.724853515625,36.090087890625,-170.848388671875
1758786557.606751,-0.44091796875,-0.03515625,0.6357421875,17.578125,2.62451171875,-26.3671875,1.7083740234375,36.1175537109375,-171.1669921875
1758786557.6168005,-0.44091796875,-0.03515625,0.6357421875,17.578125,2.62451171875,-26.3671875,1.69189453125,36.14501953125,-171.485595703125
1758786557.626652,-0.513671875,0.01904296875,0.634765625,-1.15966796875,7.62939453125,-27.7099609375,1.47216796875,36.221923828125,-171.815185546875
1758786557.6368923,-0.513671875,0.01904296875,0.634765625,-1.15966796875,7.62939453125,-27.7099609375,1.2579345703125,36.3043212890625,-172.1502685546875
1758786557.6478353,-0.513671875,0.01904296875,0.634765625,-6.77490234375,11.29150390625,-28.076171875,0.98876953125,36.419677734375,-172.4798583984375
1758786557.6563666,-0.62646484375,0.0517578125,0.7177734375,-6.77490234375,11.29150390625,-28.076171875,0.7196044921875,36.5350341796875,-172.8094482421875
1758786557.6681683,-0.75244140625,0.10888671875,0.84375,6.77490234375,13.5498046875,-27.587890625,0.59326171875,36.6778564453125,-173.12255859375
1758786557.676451,-0.75244140625,0.10888671875,0.84375,6.77490234375,13.5498046875,-27.587890625,0.4669189453125,36.8206787109375,-173.4356689453125
1758786557.6868289,-0.82568359375,0.16943359375,1.00830078125,-4.5166015625,13.85498046875,-26.18408203125,0.2471923828125,36.968994140625,-173.7213134765625
1758786557.6966581,-0.82568359375,0.16943359375,1.00830078125,-4.5166015625,13.85498046875,-26.18408203125,0.0274658203125,37.1173095703125,-174.012451171875
1758786557.7079113,-0.8369140625,0.0869140625,1.01220703125,-34.60693359375,15.80810546875,-25.7568359375,-0.4779052734375,37.2821044921875,-174.2926025390625
1758786557.7168057,-0.8369140625,0.0869140625,1.01220703125,-34.60693359375,15.80810546875,-25.7568359375,-0.9942626953125,37.44140625,-174.57275390625
1758786557.72689,-0.73828125,-0.0458984375,0.93017578125,-32.40966796875,15.869140625,-24.47509765625,-1.4776611328125,37.6007080078125,-174.8419189453125
1758786557.7369924,-0.73828125,-0.0458984375,0.93017578125,-32.40966796875,15.869140625,-24.47509765625,-1.9610595703125,37.760009765625,-175.1220703125
1758786557.7479603,-0.669921875,-0.1748046875,0.83984375,-0.54931640625,17.333984375,-26.2451171875,-2.1533203125,37.9248046875,-175.4296875
1758786557.756479,-0.669921875,-0.1748046875,0.83984375,-0.54931640625,17.333984375,-26.2451171875,-2.35107421875,38.0950927734375,-175.748291015625
1758786557.7663333,-0.68505859375,-0.24853515625,0.7421875,23.5595703125,17.4560546875,-27.03857421875,-2.3236083984375,38.2598876953125,-176.077880859375
1758786557.7772903,-0.68505859375,-0.24853515625,0.7421875,23.5595703125,17.4560546875,-27.03857421875,-2.30712890625,38.43017578125,-176.41845703125
1758786557.7864466,-0.65087890625,-0.19140625,0.80517578125,46.142578125,16.78466796875,-29.23583984375,-2.0928955078125,38.5894775390625,-176.7919921875
1758786557.7967746,-0.65087890625,-0.19140625,0.80517578125,46.142578125,16.78466796875,-29.23583984375,-1.8896484375,38.748779296875,-177.1710205078125
1758786557.8064046,-0.58349609375,-0.09130859375,0.72119140625,44.00634765625,16.54052734375,-30.3955078125,-1.7138671875,38.902587890625,-177.5665283203125
1758786557.817033,-0.58349609375,-0.09130859375,0.72119140625,44.00634765625,16.54052734375,-30.3955078125,-1.549072265625,39.0618896484375,-177.967529296875
1758786557.8265269,-0.48046875,0.001953125,0.76953125,27.16064453125,14.404296875,-29.052734375,-1.5325927734375,39.1937255859375,-178.35205078125
1758786557.8364851,-0.48046875,0.001953125,0.76953125,27.16064453125,14.404296875,-29.052734375,-1.5216064453125,39.3255615234375,-178.736572265625
1758786557.846841,-0.47314453125,0.0087890625,0.73388671875,26.9775390625,14.2822265625,-27.9541015625,-1.4996337890625,39.4464111328125,-179.1156005859375
1758786557.857007,-0.47314453125,0.0087890625,0.73388671875,26.9775390625,14.2822265625,-27.9541015625,-1.4776611328125,39.5672607421875,-179.5001220703125
1758786557.8667407,-0.50830078125,-0.00732421875,0.7099609375,32.28759765625,11.3525390625,-26.30615234375,-1.38427734375,39.66064453125,-179.8626708984375
1758786557.8766766,-0.50830078125,-0.00732421875,0.7099609375,32.28759765625,11.3525390625,-26.30615234375,-1.2908935546875,39.74853515625,179.769287109375
1758786557.8865354,-0.490234375,-0.001953125,0.6953125,27.40478515625,9.21630859375,-24.96337890625,-1.2359619140625,39.8199462890625,179.4232177734375
1758786557.8979478,-0.490234375,-0.001953125,0.6953125,27.40478515625,9.21630859375,-24.96337890625,-1.1810302734375,39.8858642578125,179.0716552734375
1758786557.906743,-0.48681640625,-0.02001953125,0.662109375,19.04296875,8.30078125,-22.705078125,-1.1920166015625,39.9462890625,178.74755859375
1758786557.916647,-0.48681640625,-0.02001953125,0.662109375,19.04296875,8.30078125,-22.705078125,-1.2030029296875,40.001220703125,178.4234619140625
1758786557.9266183,-0.53564453125,0.00634765625,0.6904296875,13.97705078125,8.11767578125,-20.6298828125,-1.241455078125,40.05615234375,178.121337890625
1758786557.937129,-0.53564453125,0.00634765625,0.6904296875,13.97705078125,8.11767578125,-20.6298828125,-1.285400390625,40.1165771484375,177.82470703125
1758786557.9493244,-0.65478515625,0.0,0.7568359375,6.4697265625,8.056640625,-19.287109375,-1.38427734375,40.1715087890625,177.5445556640625
1758786557.9566422,-0.65478515625,0.0,0.7568359375,6.4697265625,8.056640625,-19.287109375,-1.4886474609375,40.23193359375,177.264404296875
1758786557.966546,-0.75634765625,-0.0234375,0.93017578125,13.12255859375,5.7373046875,-19.10400390625,-1.5216064453125,40.2703857421875,176.98974609375
1758786557.9767017,-0.75634765625,-0.0234375,0.93017578125,13.12255859375,5.7373046875,-19.10400390625,-1.5545654296875,40.308837890625,176.715087890625
1758786557.9871702,-0.720703125,-0.09326171875,0.85546875,20.6298828125,4.82177734375,-19.287109375,-1.5106201171875,40.3363037109375,176.4404296875
1758786557.997472,-0.720703125,-0.09326171875,0.85546875,20.6298828125,4.82177734375,-19.287109375,-1.4776611328125,40.3692626953125,176.1602783203125
1758786558.0066383,-0.62451171875,-0.10595703125,0.72216796875,7.32421875,4.08935546875,-20.01953125,-1.58203125,40.3912353515625,175.8746337890625
1758786558.017004,-0.62451171875,-0.10595703125,0.72216796875,7.32421875,4.08935546875,-20.01953125,-1.69189453125,40.418701171875,175.58349609375
1758786558.0268712,-0.6083984375,-0.0771484375,0.65087890625,6.28662109375,4.94384765625,-19.34814453125,-1.8072509765625,40.45166015625,175.3033447265625
1758786558.0382426,-0.6083984375,-0.0771484375,0.65087890625,6.28662109375,4.94384765625,-19.34814453125,-1.922607421875,40.4901123046875,175.0286865234375
1758786558.0472908,-0.58984375,-0.0693359375,0.7060546875,16.66259765625,4.7607421875,-19.83642578125,-1.9390869140625,40.5230712890625,174.7430419921875
1758786558.0571237,-0.58984375,-0.0693359375,0.7060546875,16.66259765625,4.7607421875,-19.83642578125,-1.9610595703125,40.5615234375,174.4573974609375
1758786558.0668466,-0.57080078125,-0.0263671875,0.69873046875,7.99560546875,4.7607421875,-18.98193359375,-2.054443359375,40.594482421875,174.1827392578125
1758786558.07833,-0.57080078125,-0.0263671875,0.69873046875,7.99560546875,4.7607421875,-18.98193359375,-2.1533203125,40.62744140625,173.9080810546875
1758786558.0868514,-0.58740234375,-0.015625,0.705078125,4.94384765625,5.43212890625,-17.76123046875,-2.2686767578125,40.67138671875,173.64990234375
1758786558.097674,-0.58740234375,-0.015625,0.705078125,4.94384765625,5.43212890625,-17.76123046875,-2.3785400390625,40.7098388671875,173.3917236328125
1758786558.1076374,-0.58740234375,-0.015625,0.705078125,6.9580078125,4.69970703125,-17.02880859375,-2.4664306640625,40.7427978515625,173.1390380859375
1758786558.1178932,-0.62890625,-0.0556640625,0.73193359375,6.9580078125,4.69970703125,-17.02880859375,-2.548828125,40.7757568359375,172.891845703125
1758786558.126768,-0.6982421875,-0.11572265625,0.79638671875,-1.52587890625,3.90625,-17.39501953125,-2.724609375,40.80322265625,172.63916015625
1758786558.1375058,-0.6982421875,-0.11572265625,0.79638671875,-1.52587890625,3.90625,-17.39501953125,-2.900390625,40.8251953125,172.386474609375
1758786558.1467881,-0.7529296875,-0.09326171875,0.90380859375,1.708984375,0.30517578125,-17.2119140625,-3.043212890625,40.814208984375,172.1337890625
1758786558.1585329,-0.7529296875,-0.09326171875,0.90380859375,1.708984375,0.30517578125,-17.2119140625,-3.18603515625,40.80322265625,171.881103515625
1758786558.1668231,-0.73828125,-0.02783203125,0.97021484375,11.474609375,-2.01416015625,-15.9912109375,-3.2135009765625,40.770263671875,171.6448974609375
1758786558.1773875,-0.73828125,-0.02783203125,0.97021484375,11.474609375,-2.01416015625,-15.9912109375,-3.240966796875,40.7318115234375,171.4141845703125
1758786558.1868544,-0.650390625,0.01416015625,0.91064453125,3.90625,-3.7841796875,-15.44189453125,-3.33984375,40.6768798828125,171.1834716796875
1758786558.198787,-0.650390625,0.01416015625,0.91064453125,3.90625,-3.7841796875,-15.44189453125,-3.427734375,40.616455078125,170.958251953125
1758786558.206847,-0.60888671875,0.025390625,0.810546875,-1.5869140625,-4.21142578125,-16.11328125,-3.5760498046875,40.550537109375,170.7220458984375
1758786558.216858,-0.51904296875,-0.068359375,0.68994140625,0.732421875,-3.662109375,-16.6015625,-3.71337890625,40.4901123046875,170.4803466796875
1758786558.2274523,-0.51904296875,-0.068359375,0.68994140625,0.732421875,-3.662109375,-16.6015625,-3.8397216796875,40.4296875,170.2386474609375
1758786558.2374754,-0.45849609375,-0.107421875,0.55615234375,7.62939453125,-2.74658203125,-17.51708984375,-3.93310546875,40.3692626953125,169.991455078125
1758786558.2469823,-0.45849609375,-0.107421875,0.55615234375,7.62939453125,-2.74658203125,-17.51708984375,-4.0045166015625,40.31982421875,169.7332763671875
1758786558.256953,-0.45556640625,-0.1005859375,0.5400390625,11.16943359375,-0.732421875,-17.88330078125,-4.0594482421875,40.27587890625,169.4696044921875
1758786558.267789,-0.45556640625,-0.1005859375,0.5400390625,11.16943359375,-0.732421875,-17.88330078125,-4.1033935546875,40.2484130859375,169.21142578125
1758786558.2769253,-0.51708984375,-0.0966796875,0.62158203125,10.986328125,0.9765625,-18.61572265625,-4.15283203125,40.2264404296875,168.9422607421875
1758786558.287022,-0.51708984375,-0.0966796875,0.62158203125,10.986328125,0.9765625,-18.61572265625,-4.207763671875,40.2099609375,168.6676025390625
1758786558.2970028,-0.70751953125,-0.06396484375,0.892578125,3.7841796875,0.0,-18.73779296875,-4.3011474609375,40.1934814453125,168.387451171875
1758786558.3080323,-0.70751953125,-0.06396484375,0.892578125,3.7841796875,0.0,-18.73779296875,-4.427490234375,40.1715087890625,168.11279296875
1758786558.3170643,-1.0244140625,-0.03662109375,1.27294921875,-3.90625,-6.65283203125,-19.53125,-4.5867919921875,40.1165771484375,167.838134765625
1758786558.3272038,-1.0244140625,-0.03662109375,1.27294921875,-3.90625,-6.65283203125,-19.53125,-4.7845458984375,40.023193359375,167.5689697265625
1758786558.3370972,-0.98681640625,-0.1015625,1.36474609375,7.2021484375,-15.0146484375,-20.263671875,-4.9273681640625,39.891357421875,167.2943115234375
1758786558.3477736,-0.98681640625,-0.1015625,1.36474609375,7.2021484375,-15.0146484375,-20.263671875,-5.0042724609375,39.715576171875,167.0196533203125
1758786558.3572283,-0.86083984375,-0.17138671875,0.95556640625,-18.1884765625,-17.02880859375,-18.5546875,-5.20751953125,39.52880859375,166.761474609375
1758786558.367271,-0.86083984375,-0.17138671875,0.95556640625,-18.1884765625,-17.02880859375,-18.5546875,-5.526123046875,39.3365478515625,166.5142822265625
1758786558.3770683,-0.6875,-0.0576171875,0.826171875,-19.1650390625,-17.02880859375,-17.822265625,-5.8447265625,39.144287109375,166.2835693359375
1758786558.3880517,-0.6875,-0.0576171875,0.826171875,-19.1650390625,-17.02880859375,-17.822265625,-6.1578369140625,38.9520263671875,166.058349609375
1758786558.3977246,-0.59423828125,-0.0771484375,0.6533203125,7.080078125,-11.04736328125,-17.15087890625,-6.339111328125,38.7982177734375,165.838623046875
1758786558.4072356,-0.59423828125,-0.0771484375,0.6533203125,7.080078125,-11.04736328125,-17.15087890625,-6.3885498046875,38.671875,165.618896484375
1758786558.417069,-0.5771484375,-0.08447265625,0.61572265625,17.39501953125,-8.30078125,-18.5546875,-6.39404296875,38.5565185546875,165.3936767578125
1758786558.4277368,-0.5771484375,-0.08447265625,0.61572265625,17.39501953125,-8.30078125,-18.5546875,-6.3555908203125,38.463134765625,165.157470703125
1758786558.4378233,-0.60595703125,-0.07861328125,0.68505859375,21.8505859375,-4.94384765625,-19.4091796875,-6.3006591796875,38.38623046875,164.9212646484375
1758786558.4477136,-0.60595703125,-0.07861328125,0.68505859375,21.8505859375,-4.94384765625,-19.4091796875,-6.2237548828125,38.3258056640625,164.6795654296875
1758786558.4572005,-0.58740234375,-0.08740234375,0.6962890625,8.23974609375,-1.64794921875,-20.44677734375,-6.229248046875,38.2818603515625,164.4268798828125
1758786558.4678235,-0.58740234375,-0.08740234375,0.6962890625,8.23974609375,-1.64794921875,-20.44677734375,-6.3006591796875,38.25439453125,164.1632080078125
1758786558.4779081,-0.5302734375,-0.11474609375,0.66064453125,6.9580078125,2.01416015625,-20.263671875,-6.383056640625,38.243408203125,163.905029296875
1758786558.487851,-0.5302734375,-0.11474609375,0.66064453125,6.9580078125,2.01416015625,-20.263671875,-6.4764404296875,38.2489013671875,163.641357421875
1758786558.4972382,-0.482421875,-0.17724609375,0.6083984375,30.94482421875,6.65283203125,-22.3388671875,-6.4599609375,38.2763671875,163.355712890625
1758786558.5081503,-0.482421875,-0.17724609375,0.6083984375,30.94482421875,6.65283203125,-22.3388671875,-6.339111328125,38.3258056640625,163.0535888671875
1758786558.517768,-0.46044921875,-0.1513671875,0.6572265625,46.20361328125,10.6201171875,-23.8037109375,-6.15234375,38.3917236328125,162.7349853515625
1758786558.527902,-0.46044921875,-0.1513671875,0.6572265625,46.20361328125,10.6201171875,-23.8037109375,-5.9051513671875,38.47412109375,162.39990234375
1758786558.539574,-0.458984375,-0.09765625,0.6826171875,41.3818359375,14.70947265625,-23.681640625,-5.6854248046875,38.5784912109375,162.0648193359375
1758786558.5483243,-0.458984375,-0.09765625,0.6826171875,41.3818359375,14.70947265625,-23.681640625,-5.4931640625,38.6993408203125,161.71875
1758786558.5578146,-0.5380859375,-0.095703125,0.8056640625,22.4609375,14.83154296875,-21.66748046875,-5.38330078125,38.8201904296875,161.378173828125
1758786558.5686226,-0.5380859375,-0.095703125,0.8056640625,22.4609375,14.83154296875,-21.66748046875,-5.3668212890625,38.935546875,161.048583984375
1758786558.5773218,-0.6884765625,-0.09619140625,0.8701171875,2.685546875,12.3291015625,-18.5546875,-5.4327392578125,39.0399169921875,160.740966796875
1758786558.5881767,-0.6884765625,-0.09619140625,0.8701171875,2.685546875,12.3291015625,-18.5546875,-5.5810546875,39.13330078125,160.4498291015625
1758786558.5977464,-0.8388671875,-0.03466796875,0.88623046875,-7.99560546875,6.89697265625,-16.11328125,-5.767822265625,39.2047119140625,160.1806640625
1758786558.6081004,-0.8388671875,-0.03466796875,0.88623046875,-7.99560546875,6.89697265625,-16.11328125,-5.9930419921875,39.2486572265625,159.9334716796875
1758786558.6173563,-0.8388671875,-0.03662109375,0.78173828125,-2.3193359375,2.197265625,-14.404296875,-6.17431640625,39.276123046875,159.708251953125
1758786558.6282027,-0.8388671875,-0.03662109375,0.78173828125,-2.3193359375,2.197265625,-14.404296875,-6.317138671875,39.287109375,159.49951171875
1758786558.6381538,-0.7216796875,-0.02685546875,0.79296875,-2.8076171875,0.48828125,-11.71875,-6.448974609375,39.2926025390625,159.312744140625
1758786558.648129,-0.7216796875,-0.02685546875,0.79296875,-2.8076171875,0.48828125,-11.71875,-6.5643310546875,39.2926025390625,159.14794921875
1758786558.6574538,-0.71337890625,-0.04541015625,0.6943359375,-7.4462890625,2.197265625,-9.82666015625,-6.6961669921875,39.3035888671875,158.994140625
1758786558.6675956,-0.71337890625,-0.04541015625,0.6943359375,-7.4462890625,2.197265625,-9.82666015625,-6.844482421875,39.3255615234375,158.8568115234375
1758786558.6784341,-0.75146484375,-0.1298828125,0.75634765625,-2.99072265625,1.28173828125,-8.4228515625,-6.9598388671875,39.342041015625,158.73046875
1758786558.6876392,-0.75146484375,-0.1298828125,0.75634765625,-2.99072265625,1.28173828125,-8.4228515625,-7.05322265625,39.364013671875,158.6151123046875
1758786558.69751,-0.77587890625,-0.1943359375,0.86474609375,10.19287109375,1.0986328125,-7.87353515625,-7.0751953125,39.3804931640625,158.499755859375
1758786558.7076159,-0.77587890625,-0.1943359375,0.86474609375,10.19287109375,1.0986328125,-7.87353515625,-7.0367431640625,39.39697265625,158.389892578125
1758786558.7181797,-0.7333984375,-0.22802734375,0.77880859375,8.48388671875,-0.3662109375,-7.9345703125,-7.0147705078125,39.407958984375,158.2745361328125
1758786558.7276213,-0.7333984375,-0.22802734375,0.77880859375,8.48388671875,-0.3662109375,-7.9345703125,-6.998291015625,39.407958984375,158.1646728515625
1758786558.7374926,-0.654296875,-0.22216796875,0.75439453125,8.97216796875,-2.50244140625,-7.87353515625,-6.9873046875,39.4024658203125,158.04931640625
1758786558.7476997,-0.654296875,-0.22216796875,0.75439453125,8.97216796875,-2.50244140625,-7.87353515625,-6.976318359375,39.385986328125,157.939453125
1758786558.7582405,-0.54296875,-0.1455078125,0.66015625,21.42333984375,-3.2958984375,-8.30078125,-6.910400390625,39.3585205078125,157.8240966796875
1758786558.7679193,-0.54296875,-0.1455078125,0.66015625,21.42333984375,-3.2958984375,-8.30078125,-6.778564453125,39.3310546875,157.7032470703125
1758786558.7776039,-0.46533203125,-0.09033203125,0.5654296875,11.474609375,-1.40380859375,-8.056640625,-6.70166015625,39.30908203125,157.576904296875
1758786558.7878225,-0.46533203125,-0.09033203125,0.5654296875,11.474609375,-1.40380859375,-8.056640625,-6.6741943359375,39.298095703125,157.4560546875
1758786558.7980402,-0.4560546875,-0.08203125,0.53857421875,-8.7890625,2.13623046875,-7.62939453125,-6.74560546875,39.3035888671875,157.3297119140625
1758786558.8077922,-0.4560546875,-0.08203125,0.53857421875,-8.7890625,2.13623046875,-7.62939453125,-6.92138671875,39.3255615234375,157.2088623046875
1758786558.8176405,-0.50439453125,-0.0849609375,0.56884765625,-4.08935546875,4.94384765625,-7.14111328125,-7.064208984375,39.3585205078125,157.08251953125
1758786558.827775,-0.50439453125,-0.0849609375,0.56884765625,-4.08935546875,4.94384765625,-7.14111328125,-7.18505859375,39.407958984375,156.961669921875
1758786558.8402762,-0.5703125,-0.10595703125,0.61279296875,11.16943359375,7.14111328125,-8.544921875,-7.2344970703125,39.4683837890625,156.829833984375
1758786558.8502986,-0.5703125,-0.10595703125,0.61279296875,11.16943359375,7.14111328125,-8.544921875,-7.218017578125,39.5343017578125,156.68701171875
1758786558.857751,-0.626953125,-0.11669921875,0.5947265625,21.484375,8.60595703125,-10.55908203125,-7.1575927734375,39.6112060546875,156.5277099609375
1758786558.867896,-0.626953125,-0.11669921875,0.5947265625,21.484375,8.60595703125,-10.55908203125,-7.05322265625,39.6990966796875,156.3629150390625
1758786558.878375,-0.63720703125,-0.1083984375,0.6025390625,26.67236328125,9.8876953125,-11.65771484375,-6.932373046875,39.79248046875,156.1871337890625
1758786558.8879366,-0.63720703125,-0.1083984375,0.6025390625,26.67236328125,9.8876953125,-11.65771484375,-6.78955078125,39.891357421875,156.005859375
1758786558.8979971,-0.6640625,-0.115234375,0.650390625,28.38134765625,11.90185546875,-12.87841796875,-6.6522216796875,40.001220703125,155.819091796875
1758786558.9079723,-0.6640625,-0.115234375,0.650390625,28.38134765625,11.90185546875,-12.87841796875,-6.50390625,40.1275634765625,155.6268310546875
1758786558.9184766,-0.744140625,-0.1318359375,0.740234375,40.6494140625,11.53564453125,-14.892578125,-6.3116455078125,40.242919921875,155.4180908203125
1758786558.9283528,-0.744140625,-0.1318359375,0.740234375,40.6494140625,11.53564453125,-14.892578125,-6.064453125,40.36376953125,155.1983642578125
1758786558.9382365,-0.87060546875,-0.07958984375,0.8427734375,49.31640625,8.85009765625,-16.2353515625,-5.77880859375,40.4681396484375,154.9676513671875
1758786558.9480476,-0.87060546875,-0.07958984375,0.8427734375,49.31640625,8.85009765625,-16.2353515625,-5.44921875,40.5615234375,154.7369384765625
1758786558.9596014,-0.93408203125,0.0,0.97265625,41.8701171875,4.0283203125,-17.39501953125,-5.16357421875,40.6329345703125,154.500732421875
1758786558.9680297,-0.93408203125,0.0,0.97265625,41.8701171875,4.0283203125,-17.39501953125,-4.910888671875,40.6768798828125,154.259033203125
1758786558.9782705,-0.92578125,0.01904296875,0.94873046875,15.31982421875,0.06103515625,-17.7001953125,-4.7900390625,40.704345703125,154.017333984375
1758786558.988025,-0.92578125,0.01904296875,0.94873046875,15.31982421875,0.06103515625,-17.7001953125,-4.7900390625,40.7098388671875,153.775634765625
1758786558.9998424,-0.8427734375,-0.03173828125,0.89697265625,-10.3759765625,-3.5400390625,-16.90673828125,-4.9163818359375,40.6988525390625,153.544921875
1758786559.0083582,-0.8427734375,-0.03173828125,0.89697265625,-10.3759765625,-3.5400390625,-16.90673828125,-5.1580810546875,40.67138671875,153.314208984375
1758786559.0183182,-0.7685546875,-0.10546875,0.69140625,-15.93017578125,-5.43212890625,-17.63916015625,-5.42724609375,40.62744140625,153.08349609375
1758786559.0280552,-0.7685546875,-0.10546875,0.69140625,-15.93017578125,-5.43212890625,-17.63916015625,-5.7293701171875,40.5780029296875,152.852783203125
1758786559.0393326,-0.68115234375,-0.1689453125,0.70947265625,17.578125,-6.9580078125,-18.4326171875,-5.86669921875,40.5230712890625,152.6165771484375
1758786559.048041,-0.68115234375,-0.1689453125,0.70947265625,17.578125,-6.9580078125,-18.4326171875,-5.8392333984375,40.462646484375,152.3748779296875
1758786559.0587363,-0.611328125,-0.14990234375,0.6376953125,28.01513671875,-6.04248046875,-20.1416015625,-5.77880859375,40.4022216796875,152.1221923828125
1758786559.0680616,-0.611328125,-0.14990234375,0.6376953125,28.01513671875,-6.04248046875,-20.1416015625,-5.6689453125,40.3472900390625,151.8585205078125
1758786559.0790985,-0.572265625,-0.1005859375,0.63427734375,19.95849609375,-4.08935546875,-21.728515625,-5.614013671875,40.2978515625,151.5838623046875
1758786559.0881498,-0.572265625,-0.1005859375,0.63427734375,19.95849609375,-4.08935546875,-21.728515625,-5.6085205078125,40.2593994140625,151.292724609375
1758786559.098566,-0.54541015625,-0.06982421875,0.625,17.2119140625,-1.5869140625,-23.13232421875,-5.6195068359375,40.2264404296875,150.9906005859375
1758786559.1083229,-0.54541015625,-0.06982421875,0.625,17.2119140625,-1.5869140625,-23.13232421875,-5.6524658203125,40.2099609375,150.677490234375
1758786559.118986,-0.56103515625,-0.048828125,0.666015625,13.7939453125,0.732421875,-24.658203125,-5.7073974609375,40.198974609375,150.347900390625
1758786559.1282253,-0.56103515625,-0.048828125,0.666015625,13.7939453125,0.732421875,-24.658203125,-5.7843017578125,40.198974609375,150.00732421875
1758786559.138058,-0.6357421875,-0.0078125,0.7109375,15.68603515625,3.5400390625,-25.390625,-5.855712890625,40.2154541015625,149.65576171875
1758786559.148198,-0.6357421875,-0.0078125,0.7109375,15.68603515625,3.5400390625,-25.390625,-5.9161376953125,40.2374267578125,149.2987060546875
1758786559.1584313,-0.6357421875,-0.0078125,0.7109375,19.287109375,5.55419921875,-27.2216796875,-5.965576171875,40.2703857421875,148.9251708984375
1758786559.168559,-0.7021484375,-0.02490234375,0.76416015625,19.287109375,5.55419921875,-27.2216796875,-6.0040283203125,40.308837890625,148.5406494140625
1758786559.1781502,-0.73779296875,-0.04345703125,0.73876953125,19.47021484375,7.50732421875,-28.3203125,-6.04248046875,40.3582763671875,148.1451416015625
1758786559.1882696,-0.73779296875,-0.04345703125,0.73876953125,19.47021484375,7.50732421875,-28.3203125,-6.08642578125,40.418701171875,147.7386474609375
1758786559.198208,-0.71826171875,-0.07421875,0.75537109375,11.53564453125,8.97216796875,-28.1982421875,-6.1688232421875,40.484619140625,147.337646484375
1758786559.2091238,-0.71826171875,-0.07421875,0.75537109375,11.53564453125,8.97216796875,-28.1982421875,-6.295166015625,40.5615234375,146.93115234375
1758786559.2182148,-0.7451171875,-0.09765625,0.73583984375,8.056640625,9.82666015625,-28.38134765625,-6.43798828125,40.638427734375,146.524658203125
1758786559.2283227,-0.7451171875,-0.09765625,0.73583984375,8.056640625,9.82666015625,-28.38134765625,-6.5972900390625,40.7208251953125,146.1126708984375
1758786559.238262,-0.8173828125,-0.06787109375,0.72119140625,20.263671875,8.6669921875,-28.86962890625,-6.6412353515625,40.792236328125,145.6951904296875
1758786559.2492764,-0.8173828125,-0.06787109375,0.72119140625,20.263671875,8.6669921875,-28.86962890625,-6.690673828125,40.8636474609375,145.2886962890625
1758786559.2585602,-0.8037109375,-0.068359375,0.71533203125,28.62548828125,9.033203125,-30.8837890625,-6.668701171875,40.9405517578125,144.8492431640625
1758786559.2683754,-0.8037109375,-0.068359375,0.71533203125,28.62548828125,9.033203125,-30.8837890625,-6.646728515625,41.0174560546875,144.415283203125
1758786559.2787843,-0.78125,-0.126953125,0.70458984375,13.427734375,11.65771484375,-29.96826171875,-6.778564453125,41.1273193359375,143.98681640625
1758786559.288445,-0.78125,-0.126953125,0.70458984375,13.427734375,11.65771484375,-29.96826171875,-6.910400390625,41.231689453125,143.5528564453125
1758786559.2982974,-0.818359375,-0.12451171875,0.783203125,-14.95361328125,14.22119140625,-28.86962890625,-7.3223876953125,41.363525390625,143.1298828125
1758786559.3087914,-0.818359375,-0.12451171875,0.783203125,-14.95361328125,14.22119140625,-28.86962890625,-7.734375,41.4898681640625,142.7069091796875
1758786559.318819,-0.8271484375,-0.1630859375,0.826171875,-14.09912109375,16.90673828125,-27.77099609375,-8.1353759765625,41.6436767578125,142.283935546875
1758786559.328587,-0.8271484375,-0.1630859375,0.826171875,-14.09912109375,16.90673828125,-27.77099609375,-8.536376953125,41.7919921875,141.8609619140625
1758786559.33835,-0.75927734375,-0.197265625,0.765625,16.357421875,16.4794921875,-28.4423828125,-8.6407470703125,41.934814453125,141.4215087890625
1758786559.349111,-0.75927734375,-0.197265625,0.765625,16.357421875,16.4794921875,-28.4423828125,-8.756103515625,42.0721435546875,140.9820556640625
1758786559.3596292,-0.6201171875,-0.18603515625,0.69287109375,37.04833984375,15.2587890625,-27.34375,-8.6517333984375,42.198486328125,140.548095703125
1758786559.3687673,-0.6201171875,-0.18603515625,0.69287109375,37.04833984375,15.2587890625,-27.34375,-8.558349609375,42.3248291015625,140.1141357421875
1758786559.3783832,-0.52294921875,-0.158203125,0.64697265625,33.26416015625,13.24462890625,-24.658203125,-8.4759521484375,42.42919921875,139.713134765625
1758786559.3895144,-0.52294921875,-0.158203125,0.64697265625,33.26416015625,13.24462890625,-24.658203125,-8.3935546875,42.5335693359375,139.3121337890625
1758786559.398929,-0.4873046875,-0.1357421875,0.62939453125,19.8974609375,11.29150390625,-21.91162109375,-8.4210205078125,42.615966796875,138.9385986328125
1758786559.4091725,-0.4873046875,-0.1357421875,0.62939453125,19.8974609375,11.29150390625,-21.91162109375,-8.4539794921875,42.69287109375,138.5650634765625
1758786559.4184875,-0.4873046875,-0.10107421875,0.6376953125,3.662109375,10.1318359375,-19.1650390625,-8.6187744140625,42.7642822265625,138.2244873046875
1758786559.4294875,-0.4873046875,-0.10107421875,0.6376953125,3.662109375,10.1318359375,-19.1650390625,-8.7835693359375,42.8302001953125,137.8839111328125
1758786559.4411535,-0.52685546875,-0.05419921875,0.68017578125,-9.3994140625,9.27734375,-15.68603515625,-9.0472412109375,42.890625,137.581787109375
1758786559.4499705,-0.52685546875,-0.05419921875,0.68017578125,-9.3994140625,9.27734375,-15.68603515625,-9.2999267578125,42.945556640625,137.2796630859375
1758786559.459088,-0.5966796875,-0.07763671875,0.783203125,-16.66259765625,8.23974609375,-13.73291015625,-9.6075439453125,42.989501953125,136.99951171875
1758786559.4698238,-0.5966796875,-0.07763671875,0.783203125,-16.66259765625,8.23974609375,-13.73291015625,-9.90966796875,43.033447265625,136.7138671875
1758786559.4791517,-0.69775390625,-0.0625,0.9326171875,-25.5126953125,6.40869140625,-12.51220703125,-10.2777099609375,43.055419921875,136.4447021484375
1758786559.4888494,-0.69775390625,-0.0625,0.9326171875,-25.5126953125,6.40869140625,-12.51220703125,-10.645751953125,43.0718994140625,136.1700439453125
1758786559.498511,-0.7490234375,-0.07080078125,0.93798828125,-26.18408203125,3.23486328125,-13.0615234375,-11.019287109375,43.055419921875,135.8953857421875
1758786559.5093524,-0.7490234375,-0.07080078125,0.93798828125,-26.18408203125,3.23486328125,-13.0615234375,-11.3818359375,43.033447265625,135.6207275390625
1758786559.5192215,-0.74609375,-0.16064453125,0.90869140625,-32.470703125,1.5869140625,-11.65771484375,-11.7938232421875,43.00048828125,135.362548828125
1758786559.5289605,-0.74609375,-0.16064453125,0.90869140625,-32.470703125,1.5869140625,-11.65771484375,-12.2003173828125,42.967529296875,135.10986328125
1758786559.5386536,-0.71826171875,-0.24365234375,0.79638671875,-30.45654296875,2.13623046875,-11.65771484375,-12.5958251953125,42.9400634765625,134.8516845703125
1758786559.5492585,-0.71826171875,-0.24365234375,0.79638671875,-30.45654296875,2.13623046875,-11.65771484375,-12.9913330078125,42.91259765625,134.5989990234375
1758786559.559103,-0.7041015625,-0.31640625,0.8115234375,-10.6201171875,1.89208984375,-11.77978515625,-13.194580078125,42.8851318359375,134.3463134765625
1758786559.5689154,-0.7041015625,-0.31640625,0.8115234375,-10.6201171875,1.89208984375,-11.77978515625,-13.4033203125,42.8521728515625,134.0936279296875
1758786559.5787773,-0.66552734375,-0.30126953125,0.744140625,5.615234375,2.5634765625,-13.0615234375,-13.4637451171875,42.8302001953125,133.8189697265625
1758786559.5894806,-0.66552734375,-0.30126953125,0.744140625,5.615234375,2.5634765625,-13.0615234375,-13.53515625,42.802734375,133.5498046875
1758786559.5987265,-0.59423828125,-0.267578125,0.72021484375,27.52685546875,1.220703125,-14.22119140625,-13.3978271484375,42.7642822265625,133.2696533203125
1758786559.6097035,-0.59423828125,-0.267578125,0.72021484375,27.52685546875,1.220703125,-14.22119140625,-13.2659912109375,42.725830078125,132.989501953125
1758786559.6189709,-0.51953125,-0.25048828125,0.70654296875,31.67724609375,2.3193359375,-15.13671875,-13.1011962890625,42.69287109375,132.69287109375
1758786559.629069,-0.51953125,-0.25048828125,0.70654296875,31.67724609375,2.3193359375,-15.13671875,-12.9473876953125,42.659912109375,132.396240234375
1758786559.6387923,-0.47509765625,-0.1376953125,0.7431640625,23.01025390625,1.03759765625,-15.13671875,-12.8759765625,42.6104736328125,132.099609375
1758786559.6493416,-0.47509765625,-0.1376953125,0.7431640625,23.01025390625,1.03759765625,-15.13671875,-12.799072265625,42.5555419921875,131.802978515625
1758786559.6589584,-0.4609375,-0.1171875,0.77099609375,23.37646484375,1.8310546875,-14.95361328125,-12.7166748046875,42.5115966796875,131.5008544921875
1758786559.6690588,-0.4609375,-0.1171875,0.77099609375,23.37646484375,1.8310546875,-14.95361328125,-12.63427734375,42.462158203125,131.19873046875
1758786559.6788347,-0.494140625,-0.1240234375,0.7041015625,9.27734375,0.30517578125,-15.07568359375,-12.689208984375,42.396240234375,130.8966064453125
1758786559.6896875,-0.494140625,-0.1240234375,0.7041015625,9.27734375,0.30517578125,-15.07568359375,-12.7386474609375,42.3248291015625,130.594482421875
1758786559.6988482,-0.5,-0.1103515625,0.7119140625,-4.8828125,-1.0986328125,-14.22119140625,-12.919921875,42.2479248046875,130.308837890625
1758786559.7092083,-0.5,-0.1103515625,0.7119140625,-4.8828125,-1.0986328125,-14.22119140625,-13.0902099609375,42.16552734375,130.0177001953125
1758786559.7188282,-0.51708984375,-0.0576171875,0.77783203125,-10.43701171875,-2.197265625,-11.8408203125,-13.29345703125,42.07763671875,129.7650146484375
1758786559.729344,-0.51708984375,-0.0576171875,0.77783203125,-10.43701171875,-2.197265625,-11.8408203125,-13.4912109375,41.98974609375,129.5123291015625
1758786559.7393537,-0.5673828125,-0.0380859375,0.78076171875,-4.94384765625,-2.685546875,-8.85009765625,-13.5955810546875,41.90185546875,129.298095703125
1758786559.7489092,-0.5673828125,-0.0380859375,0.78076171875,-4.94384765625,-2.685546875,-8.85009765625,-13.699951171875,41.81396484375,129.078369140625
1758786559.75898,-0.61669921875,-0.13427734375,0.8134765625,-7.568359375,-2.8076171875,-7.87353515625,-13.8153076171875,41.7315673828125,128.8751220703125
1758786559.7752337,-0.61669921875,-0.13427734375,0.8134765625,-7.568359375,-2.8076171875,-7.87353515625,-13.9306640625,41.6436767578125,128.671875
1758786559.7817616,-0.63916015625,-0.19384765625,0.853515625,-2.25830078125,-2.38037109375,-7.38525390625,-13.9910888671875,41.5667724609375,128.47412109375
1758786559.789048,-0.63916015625,-0.19384765625,0.853515625,-2.25830078125,-2.38037109375,-7.38525390625,-14.0570068359375,41.4898681640625,128.2818603515625
1758786559.7990317,-0.6943359375,-0.212890625,0.8466796875,17.63916015625,-4.57763671875,-7.9345703125,-13.919677734375,41.3909912109375,128.0841064453125
1758786559.8129325,-0.6943359375,-0.212890625,0.8466796875,17.63916015625,-4.57763671875,-7.9345703125,-13.787841796875,41.297607421875,127.891845703125
1758786559.8195882,-0.70654296875,-0.216796875,0.826171875,24.658203125,-6.16455078125,-7.75146484375,-13.5845947265625,41.1932373046875,127.7105712890625
1758786559.8290596,-0.70654296875,-0.216796875,0.826171875,24.658203125,-6.16455078125,-7.75146484375,-13.3868408203125,41.0888671875,127.529296875
1758786559.8392022,-0.7373046875,-0.3466796875,0.79638671875,6.16455078125,-8.1787109375,-9.09423828125,-13.38134765625,40.968017578125,127.342529296875
1758786559.8542933,-0.7373046875,-0.3466796875,0.79638671875,6.16455078125,-8.1787109375,-9.09423828125,-13.3868408203125,40.84716796875,127.15576171875
1758786559.8605428,-0.787109375,-0.263671875,0.775390625,0.91552734375,-9.3994140625,-8.97216796875,-13.4417724609375,40.7208251953125,126.9854736328125
1758786559.8691466,-0.787109375,-0.263671875,0.775390625,0.91552734375,-9.3994140625,-8.97216796875,-13.4967041015625,40.5999755859375,126.815185546875
1758786559.87976,-0.828125,-0.21435546875,0.81787109375,14.892578125,-10.43701171875,-7.32421875,-13.3978271484375,40.4736328125,126.67236328125
1758786559.8931446,-0.828125,-0.21435546875,0.81787109375,14.892578125,-10.43701171875,-7.32421875,-13.2989501953125,40.352783203125,126.5350341796875
1758786559.899435,-0.8115234375,-0.18798828125,0.9248046875,41.3818359375,-12.63427734375,-7.38525390625,-12.930908203125,40.2154541015625,126.4031982421875
1758786559.9092107,-0.8115234375,-0.18798828125,0.9248046875,41.3818359375,-12.63427734375,-7.38525390625,-12.5628662109375,40.078125,126.2713623046875
1758786559.9192798,-0.66259765625,-0.20361328125,0.8046875,20.08056640625,-10.6201171875,-8.9111328125,-12.425537109375,39.957275390625,126.112060546875
1758786559.9295557,-0.66259765625,-0.20361328125,0.8046875,20.08056640625,-10.6201171875,-8.9111328125,-12.2882080078125,39.83642578125,125.958251953125
1758786559.9391878,-0.52294921875,-0.13525390625,0.75,20.20263671875,-9.94873046875,-8.11767578125,-12.1453857421875,39.7210693359375,125.8099365234375
1758786559.949151,-0.52294921875,-0.13525390625,0.75,20.20263671875,-9.94873046875,-8.11767578125,-12.0025634765625,39.605712890625,125.66162109375
1758786559.9595804,-0.4765625,-0.17431640625,0.63134765625,14.5263671875,-6.77490234375,-8.30078125,-11.920166015625,39.517822265625,125.5023193359375
1758786559.9691267,-0.4765625,-0.17431640625,0.63134765625,14.5263671875,-6.77490234375,-8.30078125,-11.84326171875,39.429931640625,125.3485107421875
1758786559.9792,-0.50927734375,-0.2021484375,0.6318359375,31.92138671875,-4.150390625,-9.033203125,-11.6015625,39.3695068359375,125.1727294921875
1758786559.9893372,-0.50927734375,-0.2021484375,0.6318359375,31.92138671875,-4.150390625,-9.033203125,-11.3653564453125,39.3035888671875,125.00244140625
1758786559.999636,-0.5859375,-0.18408203125,0.61962890625,43.9453125,-3.47900390625,-9.21630859375,-11.019287109375,39.254150390625,124.82666015625
1758786560.009262,-0.5859375,-0.18408203125,0.61962890625,43.9453125,-3.47900390625,-9.21630859375,-10.6732177734375,39.19921875,124.6563720703125
1758786560.019296,-0.61572265625,-0.12158203125,0.6171875,23.49853515625,-3.23486328125,-10.3759765625,-10.535888671875,39.1552734375,124.47509765625
1758786560.0298216,-0.61572265625,-0.12158203125,0.6171875,23.49853515625,-3.23486328125,-10.3759765625,-10.404052734375,39.111328125,124.288330078125
1758786560.039344,-0.6396484375,-0.09912109375,0.6572265625,-1.708984375,-1.77001953125,-8.97216796875,-10.5084228515625,39.0838623046875,124.12353515625
1758786560.0492852,-0.6396484375,-0.09912109375,0.6572265625,-1.708984375,-1.77001953125,-8.97216796875,-10.6072998046875,39.0618896484375,123.958740234375
1758786560.0593247,-0.712890625,-0.1728515625,0.732421875,-10.25390625,1.52587890625,-8.11767578125,-10.7940673828125,39.0728759765625,123.7994384765625
1758786560.069608,-0.712890625,-0.1728515625,0.732421875,-10.25390625,1.52587890625,-8.11767578125,-10.975341796875,39.0838623046875,123.64013671875
1758786560.0798109,-0.814453125,-0.2666015625,0.93017578125,30.21240234375,3.35693359375,-10.009765625,-10.7720947265625,39.111328125,123.453369140625
1758786560.089295,-0.814453125,-0.2666015625,0.93017578125,30.21240234375,3.35693359375,-10.009765625,-10.56884765625,39.1387939453125,123.2666015625
1758786560.099392,-0.7392578125,-0.296875,0.927734375,53.64990234375,3.72314453125,-14.5263671875,-10.1788330078125,39.1607666015625,123.0194091796875
1758786560.109425,-0.7392578125,-0.296875,0.927734375,53.64990234375,3.72314453125,-14.5263671875,-9.7943115234375,39.1827392578125,122.7777099609375
1758786560.1198723,-0.5966796875,-0.19140625,0.81787109375,63.3544921875,2.44140625,-15.7470703125,-9.31640625,39.1827392578125,122.51953125
1758786560.1294599,-0.5966796875,-0.19140625,0.81787109375,63.3544921875,2.44140625,-15.7470703125,-8.8494873046875,39.188232421875,122.2613525390625
1758786560.1394858,-0.51123046875,-0.126953125,0.74658203125,33.447265625,1.953125,-16.11328125,-8.67919921875,39.1827392578125,121.9976806640625
1758786560.1494665,-0.51123046875,-0.126953125,0.74658203125,33.447265625,1.953125,-16.11328125,-8.5089111328125,39.17724609375,121.7340087890625
1758786560.1598663,-0.51123046875,-0.126953125,0.74658203125,13.3056640625,1.46484375,-14.22119140625,-8.5198974609375,39.166259765625,121.4923095703125
1758786560.1695037,-0.50244140625,-0.0986328125,0.73681640625,13.3056640625,1.46484375,-14.22119140625,-8.5308837890625,39.1552734375,121.2451171875
1758786560.1795459,-0.5263671875,-0.12109375,0.71728515625,53.77197265625,0.0,-13.61083984375,-8.1243896484375,39.1278076171875,121.0089111328125
1758786560.1894255,-0.5263671875,-0.12109375,0.71728515625,53.77197265625,0.0,-13.61083984375,-7.723388671875,39.100341796875,120.772705078125
1758786560.199852,-0.49169921875,-0.11865234375,0.6494140625,81.35986328125,-0.3662109375,-14.09912109375,-7.05322265625,39.0673828125,120.531005859375
1758786560.2094476,-0.49169921875,-0.11865234375,0.6494140625,81.35986328125,-0.3662109375,-14.09912109375,-6.3885498046875,39.0399169921875,120.289306640625
1758786560.2194612,-0.4638671875,-0.0908203125,0.63525390625,51.57470703125,2.197265625,-15.19775390625,-6.031494140625,39.0399169921875,120.0311279296875
1758786560.229539,-0.53076171875,-0.06689453125,0.69677734375,28.4423828125,4.150390625,-15.44189453125,-5.789794921875,39.04541015625,119.77294921875
1758786560.239902,-0.53076171875,-0.06689453125,0.69677734375,28.4423828125,4.150390625,-15.44189453125,-5.6634521484375,39.0618896484375,119.5037841796875
1758786560.2495475,-0.61376953125,-0.119140625,0.779296875,35.888671875,3.7841796875,-13.671875,-5.4931640625,39.078369140625,119.2510986328125
1758786560.2595668,-0.61376953125,-0.119140625,0.779296875,35.888671875,3.7841796875,-13.671875,-5.2789306640625,39.0948486328125,119.0093994140625
1758786560.2695868,-0.66162109375,-0.16748046875,0.8076171875,54.0771484375,2.3193359375,-13.3056640625,-4.9713134765625,39.1058349609375,118.773193359375
1758786560.2800791,-0.66162109375,-0.16748046875,0.8076171875,54.0771484375,2.3193359375,-13.3056640625,-4.5758056640625,39.1058349609375,118.54248046875
1758786560.2895865,-0.69091796875,-0.24267578125,0.69287109375,62.8662109375,1.0986328125,-14.892578125,-4.141845703125,39.111328125,118.3062744140625
1758786560.2996428,-0.69091796875,-0.24267578125,0.69287109375,62.8662109375,1.0986328125,-14.892578125,-3.680419921875,39.1058349609375,118.0645751953125
1758786560.309641,-0.69775390625,-0.22998046875,0.716796875,52.1240234375,-0.54931640625,-15.869140625,-3.284912109375,39.100341796875,117.8228759765625
1758786560.320024,-0.69775390625,-0.22998046875,0.716796875,52.1240234375,-0.54931640625,-15.869140625,-2.9498291015625,39.08935546875,117.5811767578125
1758786560.3296242,-0.72509765625,-0.16259765625,0.7548828125,53.3447265625,-1.64794921875,-17.63916015625,-2.6202392578125,39.078369140625,117.3284912109375
1758786560.3398354,-0.72509765625,-0.16259765625,0.7548828125,53.3447265625,-1.64794921875,-17.63916015625,-2.2906494140625,39.0618896484375,117.0703125
1758786560.3497598,-0.7421875,-0.15380859375,0.767578125,51.7578125,-1.77001953125,-18.6767578125,-1.9775390625,39.0509033203125,116.8011474609375
1758786560.3602922,-0.7421875,-0.15380859375,0.767578125,51.7578125,-1.77001953125,-18.6767578125,-1.6754150390625,39.0399169921875,116.531982421875
1758786560.3698258,-0.75830078125,-0.103515625,0.72900390625,48.52294921875,-1.708984375,-19.775390625,-1.3897705078125,39.0289306640625,116.25732421875
1758786560.379812,-0.75830078125,-0.103515625,0.72900390625,48.52294921875,-1.708984375,-19.775390625,-1.131591796875,39.0234375,115.982666015625
1758786560.38983,-0.80419921875,-0.04345703125,0.79345703125,55.96923828125,-3.23486328125,-20.44677734375,-0.8294677734375,39.0179443359375,115.697021484375
1758786560.400412,-0.80419921875,-0.04345703125,0.79345703125,55.96923828125,-3.23486328125,-20.44677734375,-0.494384765625,39.0069580078125,115.411376953125
1758786560.409745,-0.8203125,-0.10693359375,0.7900390625,49.8046875,-4.33349609375,-23.92578125,-0.2032470703125,38.990478515625,115.103759765625
1758786560.4197586,-0.8203125,-0.10693359375,0.7900390625,49.8046875,-4.33349609375,-23.92578125,0.0384521484375,38.9739990234375,114.7796630859375
1758786560.4300854,-0.71923828125,-0.0244140625,0.79052734375,30.8837890625,-4.82177734375,-23.193359375,0.19775390625,38.9520263671875,114.45556640625
1758786560.4398727,-0.71923828125,-0.0244140625,0.79052734375,30.8837890625,-4.82177734375,-23.193359375,0.2691650390625,38.935546875,114.136962890625
1758786560.4498575,-0.689453125,0.064453125,0.6943359375,32.2265625,-4.0283203125,-22.27783203125,0.3570556640625,38.9190673828125,113.8238525390625
1758786560.4598737,-0.689453125,0.064453125,0.6943359375,32.2265625,-4.0283203125,-22.27783203125,0.4559326171875,38.9080810546875,113.5107421875
1758786560.470184,-0.673828125,0.029296875,0.69384765625,26.611328125,-4.94384765625,-20.56884765625,0.5438232421875,38.8916015625,113.2086181640625
1758786560.4803877,-0.673828125,0.029296875,0.69384765625,26.611328125,-4.94384765625,-20.56884765625,0.615234375,38.8751220703125,112.91748046875
1758786560.489877,-0.61865234375,0.0166015625,0.78369140625,5.9814453125,-5.615234375,-19.287109375,0.5877685546875,38.8531494140625,112.6318359375
1758786560.4999282,-0.61865234375,0.0166015625,0.78369140625,5.9814453125,-5.615234375,-19.287109375,0.4669189453125,38.82568359375,112.3516845703125
1758786560.5101614,-0.5703125,0.02001953125,0.6728515625,-2.74658203125,-5.9814453125,-19.10400390625,0.3131103515625,38.792724609375,112.071533203125
1758786560.519943,-0.5703125,0.02001953125,0.6728515625,-2.74658203125,-5.9814453125,-19.10400390625,0.1153564453125,38.7542724609375,111.785888671875
1758786560.5298896,-0.5166015625,0.009765625,0.6181640625,8.1787109375,-6.28662109375,-18.24951171875,-0.0164794921875,38.7158203125,111.5057373046875
1758786560.5399246,-0.5166015625,0.009765625,0.6181640625,8.1787109375,-6.28662109375,-18.24951171875,-0.087890625,38.6773681640625,111.2310791015625
1758786560.550415,-0.48974609375,0.00927734375,0.6416015625,12.02392578125,-4.69970703125,-17.333984375,-0.1373291015625,38.638916015625,110.9619140625
1758786560.5600262,-0.48974609375,0.00927734375,0.6416015625,12.02392578125,-4.69970703125,-17.333984375,-0.164794921875,38.6114501953125,110.6982421875
1758786560.5700238,-0.51806640625,-0.0087890625,0.65185546875,8.23974609375,-2.5634765625,-17.88330078125,-0.208740234375,38.5894775390625,110.423583984375
1758786560.5800333,-0.51806640625,-0.0087890625,0.65185546875,8.23974609375,-2.5634765625,-17.88330078125,-0.274658203125,38.5784912109375,110.14892578125
1758786560.590241,-0.55126953125,-0.0498046875,0.6767578125,13.12255859375,-0.732421875,-19.95849609375,-0.3240966796875,38.572998046875,109.86328125
1758786560.60011,-0.55126953125,-0.0498046875,0.6767578125,13.12255859375,-0.732421875,-19.95849609375,-0.3570556640625,38.5784912109375,109.5611572265625
1758786560.6101608,-0.58544921875,-0.08056640625,0.75390625,17.15087890625,-0.79345703125,-21.78955078125,-0.384521484375,38.5784912109375,109.248046875
1758786560.6202393,-0.58544921875,-0.08056640625,0.75390625,17.15087890625,-0.79345703125,-21.78955078125,-0.3955078125,38.5784912109375,108.9239501953125
1758786560.6304975,-0.6123046875,-0.060546875,0.81640625,-0.3662109375,-1.5869140625,-22.94921875,-0.50537109375,38.572998046875,108.5943603515625
1758786560.6406784,-0.6123046875,-0.060546875,0.81640625,-0.3662109375,-1.5869140625,-22.94921875,-0.703125,38.56201171875,108.25927734375
1758786560.650164,-0.65966796875,-0.04833984375,0.841796875,-11.77978515625,-2.685546875,-23.4375,-0.9613037109375,38.5400390625,107.918701171875
1758786560.6601388,-0.65966796875,-0.04833984375,0.841796875,-11.77978515625,-2.685546875,-23.4375,-1.2744140625,38.5125732421875,107.5726318359375
1758786560.670384,-0.72998046875,-0.08984375,0.96728515625,2.197265625,-4.638671875,-25.0244140625,-1.527099609375,38.47412109375,107.2210693359375
1758786560.6801777,-0.72998046875,-0.08984375,0.96728515625,2.197265625,-4.638671875,-25.0244140625,-1.7138671875,38.4246826171875,106.8585205078125
1758786560.6901276,-0.78125,-0.0400390625,0.93994140625,5.06591796875,-5.43212890625,-25.634765625,-1.8841552734375,38.3697509765625,106.490478515625
1758786560.7001665,-0.78125,-0.0400390625,0.93994140625,5.06591796875,-5.43212890625,-25.634765625,-2.04345703125,38.309326171875,106.1224365234375
1758786560.7113311,-0.828125,0.0673828125,0.9619140625,0.54931640625,-5.67626953125,-25.7568359375,-2.2247314453125,38.2489013671875,105.7489013671875
1758786560.7213812,-0.828125,0.0673828125,0.9619140625,0.54931640625,-5.67626953125,-25.7568359375,-2.4169921875,38.1829833984375,105.369873046875
1758786560.7307417,-0.8076171875,0.0546875,0.9560546875,7.32421875,-4.08935546875,-27.4658203125,-2.581787109375,38.133544921875,104.9853515625
1758786560.7401888,-0.8076171875,0.0546875,0.9560546875,7.32421875,-4.08935546875,-27.4658203125,-2.7081298828125,38.0841064453125,104.578857421875
1758786560.7506478,-0.75830078125,0.07421875,0.875,19.287109375,-2.197265625,-28.6865234375,-2.779541015625,38.045654296875,104.1668701171875
1758786560.7601988,-0.75830078125,0.07421875,0.875,19.287109375,-2.197265625,-28.6865234375,-2.7960205078125,38.0181884765625,103.743896484375
1758786560.770198,-0.67529296875,0.01025390625,0.7578125,10.3759765625,2.62451171875,-30.6396484375,-2.8564453125,38.0181884765625,103.3099365234375
1758786560.7802577,-0.67529296875,0.01025390625,0.7578125,10.3759765625,2.62451171875,-30.6396484375,-2.9718017578125,38.0401611328125,102.85400390625
1758786560.790872,-0.63525390625,-0.0185546875,0.7001953125,2.50244140625,9.33837890625,-31.73828125,-3.1365966796875,38.089599609375,102.392578125
1758786560.8002887,-0.63525390625,-0.0185546875,0.7001953125,2.50244140625,9.33837890625,-31.73828125,-3.33984375,38.177490234375,101.920166015625
1758786560.810318,-0.64599609375,-0.056640625,0.62744140625,15.380859375,13.85498046875,-33.26416015625,-3.4881591796875,38.287353515625,101.436767578125
1758786560.8203952,-0.64599609375,-0.056640625,0.62744140625,15.380859375,13.85498046875,-33.26416015625,-3.5870361328125,38.419189453125,100.9423828125
1758786560.8304768,-0.59912109375,-0.06640625,0.619140625,15.380859375,18.310546875,-34.97314453125,-3.69140625,38.572998046875,100.4315185546875
1758786560.8404977,-0.59912109375,-0.06640625,0.619140625,15.380859375,18.310546875,-34.97314453125,-3.8067626953125,38.748779296875,99.90966796875
1758786560.8503547,-0.56494140625,-0.04443359375,0.69921875,20.99609375,21.1181640625,-34.5458984375,-3.900146484375,38.935546875,99.3878173828125
1758786560.8604012,-0.56494140625,-0.04443359375,0.69921875,20.99609375,21.1181640625,-34.5458984375,-3.966064453125,39.1387939453125,98.8604736328125
1758786560.8706708,-0.52197265625,-0.04150390625,0.71728515625,36.865234375,19.8974609375,-33.447265625,-3.955078125,39.3310546875,98.3441162109375
1758786560.8808095,-0.52197265625,-0.04150390625,0.71728515625,36.865234375,19.8974609375,-33.447265625,-3.8616943359375,39.5123291015625,97.833251953125
1758786560.8902845,-0.50244140625,-0.08642578125,0.646484375,41.3818359375,16.7236328125,-31.1279296875,-3.7353515625,39.6771240234375,97.3388671875
1758786560.9003532,-0.50244140625,-0.08642578125,0.646484375,41.3818359375,16.7236328125,-31.1279296875,-3.58154296875,39.825439453125,96.8609619140625
1758786560.9108522,-0.560546875,-0.10791015625,0.662109375,35.5224609375,12.3291015625,-28.50341796875,-3.4552001953125,39.9517822265625,96.3995361328125
1758786560.920389,-0.560546875,-0.10791015625,0.662109375,35.5224609375,12.3291015625,-28.50341796875,-3.3453369140625,40.05615234375,95.9600830078125
1758786560.9303215,-0.69775390625,-0.11474609375,0.8095703125,6.40869140625,7.99560546875,-24.71923828125,-3.372802734375,40.14404296875,95.548095703125
1758786560.9403481,-0.69775390625,-0.11474609375,0.8095703125,6.40869140625,7.99560546875,-24.71923828125,-3.526611328125,40.2044677734375,95.1580810546875
1758786560.950856,-0.82763671875,-0.068359375,0.85205078125,-21.05712890625,4.0283203125,-20.44677734375,-3.80126953125,40.25390625,94.801025390625
1758786560.9606776,-0.82763671875,-0.068359375,0.85205078125,-21.05712890625,4.0283203125,-20.44677734375,-4.1912841796875,40.2813720703125,94.471435546875
1758786560.9704285,-0.96630859375,-0.10009765625,0.810546875,-21.97265625,-0.8544921875,-16.41845703125,-4.5648193359375,40.286865234375,94.1693115234375
1758786560.9804697,-0.96630859375,-0.10009765625,0.810546875,-21.97265625,-0.8544921875,-16.41845703125,-4.921875,40.27587890625,93.8946533203125
1758786560.9908454,-0.9697265625,-0.1279296875,0.8935546875,-17.4560546875,-3.90625,-15.0146484375,-5.25146484375,40.2593994140625,93.6309814453125
1758786561.0004957,-0.9697265625,-0.1279296875,0.8935546875,-17.4560546875,-3.90625,-15.0146484375,-5.548095703125,40.220947265625,93.372802734375
1758786561.0104504,-0.88720703125,-0.17578125,0.71484375,-1.03759765625,-4.82177734375,-15.380859375,-5.7623291015625,40.18798828125,93.1201171875
1758786561.0204914,-0.88720703125,-0.17578125,0.71484375,-1.03759765625,-4.82177734375,-15.380859375,-5.899658203125,40.1495361328125,92.8619384765625
1758786561.03106,-0.78125,-0.1318359375,0.6103515625,0.8544921875,-4.8828125,-14.16015625,-6.0260009765625,40.1220703125,92.6092529296875
1758786561.0404582,-0.78125,-0.1318359375,0.6103515625,0.8544921875,-4.8828125,-14.16015625,-6.1358642578125,40.089111328125,92.3675537109375
1758786561.0505044,-0.677734375,-0.02734375,0.654296875,-1.89208984375,-3.2958984375,-12.3291015625,-6.251220703125,40.0726318359375,92.1368408203125
1758786561.0605934,-0.677734375,-0.02734375,0.654296875,-1.89208984375,-3.2958984375,-12.3291015625,-6.3720703125,40.067138671875,91.9171142578125
1758786561.0711339,-0.6318359375,-0.03955078125,0.65625,-8.30078125,-2.5634765625,-10.498046875,-6.514892578125,40.0616455078125,91.702880859375
1758786561.080666,-0.6318359375,-0.03955078125,0.65625,-8.30078125,-2.5634765625,-10.498046875,-6.6796875,40.05615234375,91.4996337890625
1758786561.0906427,-0.60400390625,-0.072265625,0.64208984375,-13.97705078125,-2.44140625,-9.033203125,-6.8609619140625,40.05615234375,91.3018798828125
1758786561.1010723,-0.60400390625,-0.072265625,0.64208984375,-13.97705078125,-2.44140625,-9.033203125,-7.064208984375,40.0506591796875,91.12060546875
1758786561.1109216,-0.5517578125,-0.03173828125,0.6806640625,-31.18896484375,-2.01416015625,-7.8125,-7.349853515625,40.0506591796875,90.9393310546875
1758786561.1206496,-0.5517578125,-0.03173828125,0.6806640625,-31.18896484375,-2.01416015625,-7.8125,-7.71240234375,40.045166015625,90.76904296875
1758786561.1306796,-0.478515625,0.015625,0.7158203125,-49.31640625,-1.220703125,-6.7138671875,-8.1573486328125,40.045166015625,90.5987548828125
1758786561.1410105,-0.478515625,0.015625,0.7158203125,-49.31640625,-1.220703125,-6.7138671875,-8.67919921875,40.0396728515625,90.439453125
1758786561.1511002,-0.45556640625,-0.001953125,0.71435546875,-44.677734375,0.0,-4.8828125,-9.1680908203125,40.0341796875,90.28564453125
1758786561.1606295,-0.45556640625,-0.001953125,0.71435546875,-44.677734375,0.0,-4.8828125,-9.6185302734375,40.0341796875,90.142822265625
1758786561.1706471,-0.47216796875,-0.0732421875,0.69580078125,-39.4287109375,0.79345703125,-3.90625,-10.04150390625,40.0286865234375,90.0054931640625
1758786561.1806667,-0.47216796875,-0.0732421875,0.69580078125,-39.4287109375,0.79345703125,-3.90625,-10.4315185546875,40.0286865234375,89.879150390625
1758786561.1910915,-0.49169921875,-0.13623046875,0.72216796875,-42.6025390625,1.28173828125,-3.60107421875,-10.83251953125,40.0286865234375,89.747314453125
1758786561.2010927,-0.49169921875,-0.13623046875,0.72216796875,-42.6025390625,1.28173828125,-3.60107421875,-11.2554931640625,40.023193359375,89.6209716796875
1758786561.210762,-0.50927734375,-0.15771484375,0.75,-33.50830078125,2.0751953125,-3.84521484375,-11.634521484375,40.023193359375,89.49462890625
1758786561.2207131,-0.50927734375,-0.15771484375,0.75,-33.50830078125,2.0751953125,-3.84521484375,-11.9696044921875,40.0177001953125,89.3682861328125
1758786561.2307966,-0.54150390625,-0.14990234375,0.7890625,-16.6015625,2.38037109375,-4.08935546875,-12.227783203125,40.0177001953125,89.2364501953125
1758786561.241552,-0.54150390625,-0.14990234375,0.7890625,-16.6015625,2.38037109375,-4.08935546875,-12.403564453125,40.01220703125,89.1046142578125
1758786561.25076,-0.58154296875,-0.197265625,0.896484375,-4.69970703125,1.708984375,-5.18798828125,-12.5244140625,40.001220703125,88.96728515625
1758786561.2608073,-0.58154296875,-0.197265625,0.896484375,-4.69970703125,1.708984375,-5.18798828125,-12.59033203125,39.9847412109375,88.824462890625
1758786561.2707868,-0.58740234375,-0.1787109375,0.91455078125,-2.197265625,0.244140625,-6.04248046875,-12.6397705078125,39.9462890625,88.681640625
1758786561.2810924,-0.58740234375,-0.1787109375,0.91455078125,-2.197265625,0.244140625,-6.04248046875,-12.6947021484375,39.9078369140625,88.5333251953125
1758786561.291349,-0.55224609375,-0.08203125,0.875,3.0517578125,-1.64794921875,-6.28662109375,-12.689208984375,39.847412109375,88.3905029296875
1758786561.3008122,-0.55224609375,-0.08203125,0.875,3.0517578125,-1.64794921875,-6.28662109375,-12.6837158203125,39.7869873046875,88.2476806640625
1758786561.3109066,-0.525390625,-0.05908203125,0.8388671875,5.2490234375,-2.197265625,-5.67626953125,-12.645263671875,39.7210693359375,88.1103515625
1758786561.3212917,-0.525390625,-0.05908203125,0.8388671875,5.2490234375,-2.197265625,-5.67626953125,-12.6068115234375,39.649658203125,87.978515625
1758786561.3309908,-0.56298828125,-0.1533203125,0.69580078125,9.27734375,-1.40380859375,-6.4697265625,-12.5408935546875,39.5892333984375,87.8302001953125
1758786561.3409765,-0.56298828125,-0.1533203125,0.69580078125,9.27734375,-1.40380859375,-6.4697265625,-12.4749755859375,39.5343017578125,87.6873779296875
1758786561.3510005,-0.54443359375,-0.17236328125,0.7841796875,22.52197265625,-2.5634765625,-6.53076171875,-12.2772216796875,39.462890625,87.5445556640625
1758786561.3612385,-0.54443359375,-0.17236328125,0.7841796875,22.52197265625,-2.5634765625,-6.53076171875,-12.0794677734375,39.39697265625,87.4017333984375
1758786561.3709538,-0.48876953125,-0.20361328125,0.794921875,18.5546875,-0.48828125,-7.2021484375,-11.942138671875,39.3475341796875,87.2479248046875
1758786561.3810132,-0.48876953125,-0.20361328125,0.794921875,18.5546875,-0.48828125,-7.2021484375,-11.8048095703125,39.298095703125,87.0941162109375
1758786561.3910272,-0.49072265625,-0.171875,0.63623046875,10.43701171875,0.0,-7.9345703125,-11.75537109375,39.2486572265625,86.934814453125
1758786561.4013698,-0.49072265625,-0.171875,0.63623046875,10.43701171875,0.0,-7.9345703125,-11.71142578125,39.2047119140625,86.77001953125
1758786561.4109666,-0.56640625,-0.18310546875,0.6982421875,28.25927734375,0.244140625,-8.7890625,-11.502685546875,39.166259765625,86.59423828125
1758786561.420983,-0.56640625,-0.18310546875,0.6982421875,28.25927734375,0.244140625,-8.7890625,-11.2939453125,39.122314453125,86.4239501953125
1758786561.4310665,-0.744140625,-0.3388671875,0.92724609375,21.42333984375,-2.38037109375,-12.14599609375,-11.1785888671875,39.056396484375,86.2152099609375
1758786561.4415905,-0.744140625,-0.3388671875,0.92724609375,21.42333984375,-2.38037109375,-12.14599609375,-11.07421875,38.990478515625,86.011962890625
1758786561.4510782,-0.7626953125,-0.3212890625,1.056640625,10.1318359375,-4.45556640625,-13.24462890625,-11.0906982421875,38.902587890625,85.7977294921875
1758786561.4610546,-0.7626953125,-0.3212890625,1.056640625,10.1318359375,-4.45556640625,-13.24462890625,-11.107177734375,38.814697265625,85.58349609375
1758786561.4715412,-0.82861328125,-0.224609375,1.15625,35.2783203125,-10.25390625,-13.97705078125,-10.8709716796875,38.6663818359375,85.3802490234375
1758786561.481101,-0.82861328125,-0.224609375,1.15625,35.2783203125,-10.25390625,-13.97705078125,-10.6292724609375,38.5235595703125,85.1715087890625
1758786561.49103,-0.87451171875,-0.22216796875,0.95654296875,45.34912109375,-11.41357421875,-14.404296875,-10.294189453125,38.3697509765625,84.9627685546875
1758786561.5010722,-0.87451171875,-0.22216796875,0.95654296875,45.34912109375,-11.41357421875,-14.404296875,-9.9591064453125,38.221435546875,84.7540283203125
1758786561.511574,-0.8115234375,-0.12451171875,0.79296875,30.029296875,-10.55908203125,-15.13671875,-9.7833251953125,38.089599609375,84.52880859375
1758786561.5211115,-0.8115234375,-0.12451171875,0.79296875,30.029296875,-10.55908203125,-15.13671875,-9.60205078125,37.9632568359375,84.3035888671875
1758786561.5311623,-0.783203125,-0.05078125,0.65234375,11.29150390625,-7.4462890625,-15.80810546875,-9.6185302734375,37.869873046875,84.0618896484375
1758786561.5411708,-0.783203125,-0.05078125,0.65234375,11.29150390625,-7.4462890625,-15.80810546875,-9.6240234375,37.7874755859375,83.814697265625
1758786561.5521297,-0.72509765625,-0.072265625,0.76025390625,24.658203125,-2.25830078125,-16.29638671875,-9.5086669921875,37.7545166015625,83.551025390625
1758786561.56129,-0.72509765625,-0.072265625,0.76025390625,24.658203125,-2.25830078125,-16.29638671875,-9.3878173828125,37.7215576171875,83.287353515625
1758786561.5712981,-0.5830078125,-0.10107421875,0.64306640625,20.5078125,1.220703125,-16.7236328125,-9.31640625,37.72705078125,83.0072021484375
1758786561.5814111,-0.5830078125,-0.10107421875,0.64306640625,20.5078125,1.220703125,-16.7236328125,-9.2449951171875,37.7325439453125,82.72705078125
1758786561.591243,-0.52783203125,-0.12109375,0.5908203125,20.81298828125,5.2490234375,-16.4794921875,-9.173583984375,37.781982421875,82.44140625
1758786561.6017172,-0.52783203125,-0.12109375,0.5908203125,20.81298828125,5.2490234375,-16.4794921875,-9.1021728515625,37.825927734375,82.15576171875
1758786561.6113882,-0.50244140625,-0.11181640625,0.572265625,31.1279296875,7.4462890625,-16.2353515625,-8.931884765625,37.891845703125,81.8701171875
1758786561.6214566,-0.50244140625,-0.11181640625,0.572265625,31.1279296875,7.4462890625,-16.2353515625,-8.7615966796875,37.957763671875,81.58447265625
1758786561.6320043,-0.5166015625,-0.10302734375,0.52978515625,39.00146484375,8.48388671875,-15.0146484375,-8.50341796875,38.0401611328125,81.309814453125
1758786561.6420066,-0.5166015625,-0.10302734375,0.52978515625,39.00146484375,8.48388671875,-15.0146484375,-8.250732421875,38.12255859375,81.03515625
1758786561.651384,-0.54443359375,-0.10791015625,0.52685546875,30.21240234375,9.765625,-13.73291015625,-8.0804443359375,38.221435546875,80.771484375
1758786561.661508,-0.54443359375,-0.10791015625,0.52685546875,30.21240234375,9.765625,-13.73291015625,-7.91015625,38.3258056640625,80.5133056640625
1758786561.6717153,-0.6005859375,-0.12939453125,0.58544921875,21.30126953125,9.6435546875,-13.0615234375,-7.822265625,38.4246826171875,80.255126953125
1758786561.6817763,-0.6005859375,-0.12939453125,0.58544921875,21.30126953125,9.6435546875,-13.0615234375,-7.7398681640625,38.529052734375,80.00244140625
1758786561.691348,-0.64404296875,-0.1494140625,0.73291015625,19.775390625,8.85009765625,-12.6953125,-7.66845703125,38.6279296875,79.749755859375
1758786561.7014022,-0.64404296875,-0.1494140625,0.73291015625,19.775390625,8.85009765625,-12.6953125,-7.5970458984375,38.7213134765625,79.5025634765625
1758786561.7113175,-0.7080078125,-0.1796875,0.82958984375,19.04296875,7.9345703125,-12.75634765625,-7.53662109375,38.8037109375,79.25537109375
1758786561.7217762,-0.7080078125,-0.1796875,0.82958984375,19.04296875,7.9345703125,-12.75634765625,-7.4761962890625,38.880615234375,79.0081787109375
1758786561.7319646,-0.89453125,-0.24365234375,0.9921875,20.93505859375,4.5166015625,-13.36669921875,-7.3992919921875,38.9300537109375,78.760986328125
1758786561.7414694,-0.89453125,-0.24365234375,0.9921875,20.93505859375,4.5166015625,-13.36669921875,-7.327880859375,38.9739990234375,78.5137939453125
1758786561.7518938,-1.0126953125,-0.2490234375,0.96826171875,18.06640625,2.50244140625,-14.22119140625,-7.2894287109375,39.00146484375,78.255615234375
1758786561.7614734,-1.0126953125,-0.2490234375,0.96826171875,18.06640625,2.50244140625,-14.22119140625,-7.2509765625,39.0289306640625,77.9974365234375
1758786561.771469,-0.9736328125,-0.21630859375,0.8310546875,3.84521484375,-1.3427734375,-15.19775390625,-7.36083984375,39.0234375,77.7337646484375
1758786561.781499,-0.9736328125,-0.21630859375,0.8310546875,3.84521484375,-1.3427734375,-15.19775390625,-7.470703125,39.0234375,77.4700927734375
1758786561.7919433,-0.8076171875,-0.1328125,0.96533203125,30.029296875,-4.5166015625,-14.7705078125,-7.3114013671875,38.9849853515625,77.2174072265625
1758786561.8014538,-0.8076171875,-0.1328125,0.96533203125,30.029296875,-4.5166015625,-14.7705078125,-7.152099609375,38.9520263671875,76.9647216796875
1758786561.811467,-0.6328125,-0.12109375,0.76708984375,42.90771484375,-4.94384765625,-13.427734375,-6.8499755859375,38.9080810546875,76.728515625
1758786561.8214564,-0.6328125,-0.12109375,0.76708984375,42.90771484375,-4.94384765625,-13.427734375,-6.5478515625,38.86962890625,76.4923095703125
1758786561.8317263,-0.486328125,-0.01513671875,0.56982421875,23.74267578125,-4.150390625,-11.90185546875,-6.4215087890625,38.836669921875,76.2725830078125
1758786561.841538,-0.486328125,-0.01513671875,0.56982421875,23.74267578125,-4.150390625,-11.90185546875,-6.295166015625,38.8037109375,76.058349609375
1758786561.8516185,-0.4482421875,-0.00732421875,0.60791015625,7.2021484375,-1.8310546875,-8.85009765625,-6.3116455078125,38.7982177734375,75.87158203125
1758786561.8616605,-0.4482421875,-0.00732421875,0.60791015625,7.2021484375,-1.8310546875,-8.85009765625,-6.317138671875,38.7872314453125,75.6903076171875
1758786561.8722212,-0.42578125,-0.0439453125,0.6318359375,-15.2587890625,0.732421875,-5.9814453125,-6.5313720703125,38.8037109375,75.5364990234375
1758786561.8816814,-0.42578125,-0.0439453125,0.6318359375,-15.2587890625,0.732421875,-5.9814453125,-6.734619140625,38.8092041015625,75.38818359375
1758786561.8916526,-0.4599609375,-0.0830078125,0.61767578125,-20.08056640625,2.0751953125,-3.72314453125,-6.976318359375,38.836669921875,75.267333984375
1758786561.9016533,-0.4599609375,-0.0830078125,0.61767578125,-20.08056640625,2.0751953125,-3.72314453125,-7.2125244140625,38.858642578125,75.146484375
1758786561.9121714,-0.5126953125,-0.10693359375,0.66845703125,-3.11279296875,3.11279296875,-2.99072265625,-7.27294921875,38.8861083984375,75.0311279296875
1758786561.9216447,-0.5126953125,-0.10693359375,0.66845703125,-3.11279296875,3.11279296875,-2.99072265625,-7.3333740234375,38.9190673828125,74.915771484375
1758786561.931627,-0.57763671875,-0.12841796875,0.79345703125,-4.7607421875,3.90625,-3.47900390625,-7.415771484375,38.9520263671875,74.794921875
1758786561.9416077,-0.57763671875,-0.12841796875,0.79345703125,-4.7607421875,3.90625,-3.47900390625,-7.503662109375,38.9849853515625,74.6795654296875
1758786561.9521625,-0.615234375,-0.10400390625,0.87451171875,-17.08984375,3.173828125,-4.0283203125,-7.71240234375,39.0069580078125,74.55322265625
1758786561.9619143,-0.615234375,-0.10400390625,0.87451171875,-17.08984375,3.173828125,-4.0283203125,-7.921142578125,39.0289306640625,74.432373046875
1758786561.9717307,-0.63720703125,-0.09814453125,0.857421875,-18.1884765625,2.5634765625,-4.8828125,-8.1463623046875,39.034423828125,74.300537109375
1758786561.9817452,-0.63720703125,-0.09814453125,0.857421875,-18.1884765625,2.5634765625,-4.8828125,-8.3660888671875,39.04541015625,74.168701171875
1758786561.9919872,-0.68798828125,-0.0869140625,0.88671875,-4.82177734375,0.1220703125,-5.79833984375,-8.45947265625,39.0289306640625,74.02587890625
1758786562.0022256,-0.68798828125,-0.0869140625,0.88671875,-4.82177734375,0.1220703125,-5.79833984375,-8.54736328125,39.012451171875,73.8885498046875
1758786562.0117524,-0.68115234375,-0.13818359375,0.90234375,13.671875,-1.15966796875,-8.544921875,-8.470458984375,38.9794921875,73.71826171875
1758786562.0217383,-0.68115234375,-0.13818359375,0.90234375,13.671875,-1.15966796875,-8.544921875,-8.3935546875,38.946533203125,73.54248046875
1758786562.0317717,-0.70751953125,-0.12451171875,0.9521484375,17.76123046875,-3.60107421875,-10.19287109375,-8.2891845703125,38.8861083984375,73.355712890625
1758786562.0422661,-0.70751953125,-0.12451171875,0.9521484375,17.76123046875,-3.60107421875,-10.19287109375,-8.1903076171875,38.82568359375,73.1744384765625
1758786562.05182,-0.68701171875,-0.1015625,0.833984375,16.66259765625,-5.2490234375,-12.51220703125,-8.1134033203125,38.7432861328125,72.960205078125
1758786562.0618432,-0.68701171875,-0.1015625,0.833984375,16.66259765625,-5.2490234375,-12.51220703125,-8.0364990234375,38.6663818359375,72.7459716796875
1758786562.0718942,-0.595703125,-0.09326171875,0.78271484375,17.27294921875,-7.62939453125,-14.16015625,-7.965087890625,38.5675048828125,72.520751953125
1758786562.0823054,-0.595703125,-0.09326171875,0.78271484375,17.27294921875,-7.62939453125,-14.16015625,-7.8936767578125,38.4686279296875,72.2955322265625
1758786562.091976,-0.521484375,-0.0595703125,0.78125,10.92529296875,-7.2021484375,-14.34326171875,-7.8826904296875,38.3697509765625,72.0648193359375
1758786562.1018968,-0.521484375,-0.0595703125,0.78125,10.92529296875,-7.2021484375,-14.34326171875,-7.8717041015625,38.265380859375,71.839599609375
1758786562.111988,-0.521484375,-0.0595703125,0.78125,-1.3427734375,-7.01904296875,-14.5263671875,-7.987060546875,38.16650390625,71.60888671875
1758786562.1224608,-0.52734375,-0.05224609375,0.783203125,-1.3427734375,-7.01904296875,-14.5263671875,-8.0914306640625,38.067626953125,71.3836669921875
1758786562.132018,-0.51171875,-0.0625,0.71044921875,-9.70458984375,-5.9814453125,-14.6484375,-8.28369140625,37.9742431640625,71.1529541015625
1758786562.1420927,-0.51171875,-0.0625,0.71044921875,-9.70458984375,-5.9814453125,-14.6484375,-8.4759521484375,37.8863525390625,70.9222412109375
1758786562.152033,-0.4990234375,-0.1083984375,0.64990234375,-10.25390625,-4.39453125,-15.869140625,-8.6846923828125,37.8094482421875,70.675048828125
1758786562.1627138,-0.4990234375,-0.1083984375,0.64990234375,-10.25390625,-4.39453125,-15.869140625,-8.887939453125,37.7325439453125,70.4278564453125
1758786562.1722476,-0.48583984375,-0.12890625,0.60888671875,-4.33349609375,-0.91552734375,-16.66259765625,-9.0472412109375,37.6885986328125,70.1641845703125
1758786562.182059,-0.48583984375,-0.12890625,0.60888671875,-4.33349609375,-0.91552734375,-16.66259765625,-9.20654296875,37.6446533203125,69.9005126953125
1758786562.1920662,-0.509765625,-0.1123046875,0.599609375,-2.38037109375,3.72314453125,-17.39501953125,-9.3548583984375,37.650146484375,69.620361328125
1758786562.2024527,-0.509765625,-0.1123046875,0.599609375,-2.38037109375,3.72314453125,-17.39501953125,-9.5086669921875,37.650146484375,69.3402099609375
1758786562.2121258,-0.615234375,-0.1318359375,0.69970703125,5.92041015625,7.62939453125,-18.37158203125,-9.591064453125,37.694091796875,69.0380859375
1758786562.2220051,-0.615234375,-0.1318359375,0.69970703125,5.92041015625,7.62939453125,-18.37158203125,-9.6734619140625,37.738037109375,68.73046875
1758786562.2321868,-0.7197265625,-0.193359375,0.92822265625,27.4658203125,7.62939453125,-20.08056640625,-9.55810546875,37.781982421875,68.4063720703125
1758786562.242384,-0.7197265625,-0.193359375,0.92822265625,27.4658203125,7.62939453125,-20.08056640625,-9.4427490234375,37.825927734375,68.082275390625
1758786562.2523906,-0.791015625,-0.20458984375,1.06494140625,38.0859375,5.4931640625,-21.97265625,-9.239501953125,37.8424072265625,67.74169921875
1758786562.2620258,-0.791015625,-0.20458984375,1.06494140625,38.0859375,5.4931640625,-21.97265625,-9.0362548828125,37.85888671875,67.401123046875
1758786562.272057,-0.80078125,-0.134765625,1.0419921875,31.3720703125,3.72314453125,-21.3623046875,-8.8934326171875,37.85888671875,67.071533203125
1758786562.282655,-0.72119140625,-0.10791015625,0.8271484375,7.26318359375,4.150390625,-22.0947265625,-8.8714599609375,37.85888671875,66.7364501953125
1758786562.2923117,-0.72119140625,-0.10791015625,0.8271484375,7.26318359375,4.150390625,-22.0947265625,-8.975830078125,37.8643798828125,66.4013671875
1758786562.302113,-0.640625,-0.111328125,0.650390625,5.67626953125,7.26318359375,-21.484375,-9.085693359375,37.891845703125,66.060791015625
1758786562.3121803,-0.640625,-0.111328125,0.650390625,5.67626953125,7.26318359375,-21.484375,-9.2010498046875,37.9302978515625,65.7147216796875
1758786562.3221283,-0.58740234375,-0.11767578125,0.63818359375,28.74755859375,10.80322265625,-21.30126953125,-9.2010498046875,37.9962158203125,65.3741455078125
1758786562.3327303,-0.58740234375,-0.11767578125,0.63818359375,28.74755859375,10.80322265625,-21.30126953125,-9.0911865234375,38.0731201171875,65.0225830078125
1758786562.3421676,-0.56787109375,-0.09765625,0.6474609375,52.06298828125,11.53564453125,-22.216796875,-8.8714599609375,38.1610107421875,64.66552734375
1758786562.3521607,-0.56787109375,-0.09765625,0.6474609375,52.06298828125,11.53564453125,-22.216796875,-8.5418701171875,38.2489013671875,64.302978515625
1758786562.3621993,-0.533203125,-0.0556640625,0.6923828125,59.38720703125,9.70458984375,-22.03369140625,-8.1683349609375,38.331298828125,63.9404296875
1758786562.3727145,-0.533203125,-0.0556640625,0.6923828125,59.38720703125,9.70458984375,-22.03369140625,-7.7618408203125,38.4027099609375,63.5833740234375
1758786562.3822515,-0.5283203125,-0.05517578125,0.67138671875,33.26416015625,7.14111328125,-19.8974609375,-7.4761962890625,38.463134765625,63.2427978515625
1758786562.3922808,-0.5283203125,-0.05517578125,0.67138671875,33.26416015625,7.14111328125,-19.8974609375,-7.3114013671875,38.5125732421875,62.918701171875
1758786562.402803,-0.578125,-0.03125,0.67724609375,-8.30078125,5.06591796875,-16.17431640625,-7.3388671875,38.5565185546875,62.6220703125
1758786562.412697,-0.578125,-0.03125,0.67724609375,-8.30078125,5.06591796875,-16.17431640625,-7.5531005859375,38.5894775390625,62.347412109375
1758786562.4223158,-0.71630859375,-0.07958984375,0.74365234375,-29.78515625,2.44140625,-12.8173828125,-7.855224609375,38.6114501953125,62.0947265625
1758786562.4323916,-0.71630859375,-0.07958984375,0.74365234375,-29.78515625,2.44140625,-12.8173828125,-8.2452392578125,38.6279296875,61.864013671875
1758786562.4427795,-0.85009765625,-0.1513671875,0.8193359375,-32.3486328125,-1.03759765625,-10.19287109375,-8.6407470703125,38.6279296875,61.6497802734375
1758786562.4529984,-0.85009765625,-0.1513671875,0.8193359375,-32.3486328125,-1.03759765625,-10.19287109375,-9.03076171875,38.6114501953125,61.4520263671875
1758786562.4622917,-0.98291015625,-0.37939453125,0.9296875,-35.7666015625,-4.21142578125,-10.498046875,-9.437255859375,38.5894775390625,61.2542724609375
1758786562.4723988,-0.98291015625,-0.37939453125,0.9296875,-35.7666015625,-4.21142578125,-10.498046875,-9.8712158203125,38.551025390625,61.0565185546875
1758786562.4823694,-0.9638671875,-0.3623046875,0.88623046875,-39.48974609375,-6.40869140625,-10.92529296875,-10.3216552734375,38.5015869140625,60.8587646484375
1758786562.492657,-0.9638671875,-0.3623046875,0.88623046875,-39.48974609375,-6.40869140625,-10.92529296875,-10.799560546875,38.4466552734375,60.655517578125
1758786562.5023644,-0.82958984375,-0.251953125,0.79638671875,-11.41357421875,-8.6669921875,-10.25390625,-11.1346435546875,38.3807373046875,60.457763671875
1758786562.512407,-0.82958984375,-0.251953125,0.79638671875,-11.41357421875,-8.6669921875,-10.25390625,-11.326904296875,38.309326171875,60.27099609375
1758786562.5223823,-0.73046875,-0.12744140625,0.75048828125,-0.91552734375,-10.1318359375,-9.33837890625,-11.458740234375,38.232421875,60.084228515625
1758786562.5328014,-0.73046875,-0.12744140625,0.75048828125,-0.91552734375,-10.1318359375,-9.33837890625,-11.5301513671875,38.14453125,59.908447265625
1758786562.5423892,-0.6484375,-0.0751953125,0.70166015625,-18.98193359375,-9.58251953125,-7.8125,-11.6839599609375,38.0621337890625,59.74365234375
1758786562.5524619,-0.6484375,-0.0751953125,0.70166015625,-18.98193359375,-9.58251953125,-7.8125,-11.920166015625,37.9852294921875,59.578857421875
1758786562.5627813,-0.57763671875,-0.0517578125,0.60546875,-42.1142578125,-7.9345703125,-5.06591796875,-12.249755859375,37.9193115234375,59.43603515625
1758786562.5727758,-0.57763671875,-0.0517578125,0.60546875,-42.1142578125,-7.9345703125,-5.06591796875,-12.6837158203125,37.8643798828125,59.30419921875
1758786562.5824435,-0.55517578125,-0.09765625,0.6337890625,-45.59326171875,-6.04248046875,-2.38037109375,-13.1231689453125,37.8204345703125,59.1888427734375
1758786562.592469,-0.55517578125,-0.09765625,0.6337890625,-45.59326171875,-6.04248046875,-2.38037109375,-13.568115234375,37.7874755859375,59.08447265625
1758786562.603004,-0.56787109375,-0.1455078125,0.73779296875,-36.56005859375,-3.0517578125,-0.06103515625,-13.95263671875,37.7655029296875,58.9910888671875
1758786562.6125376,-0.56787109375,-0.1455078125,0.73779296875,-36.56005859375,-3.0517578125,-0.06103515625,-14.2877197265625,37.7655029296875,58.9141845703125
1758786562.6226196,-0.5673828125,-0.1728515625,0.70556640625,-36.865234375,-1.40380859375,1.15966796875,-14.622802734375,37.7655029296875,58.8372802734375
1758786562.6326208,-0.5673828125,-0.1728515625,0.70556640625,-36.865234375,-1.40380859375,1.15966796875,-14.9578857421875,37.7764892578125,58.7713623046875
1758786562.6431062,-0.498046875,-0.15234375,0.681640625,-56.640625,-0.79345703125,3.7841796875,-15.3753662109375,37.7874755859375,58.721923828125
1758786562.6526315,-0.498046875,-0.15234375,0.681640625,-56.640625,-0.79345703125,3.7841796875,-15.88623046875,37.803955078125,58.6834716796875
1758786562.6626678,-0.443359375,-0.1455078125,0.67236328125,-62.07275390625,0.9765625,7.14111328125,-16.4080810546875,37.8314208984375,58.6724853515625
1758786562.6726506,-0.443359375,-0.1455078125,0.67236328125,-62.07275390625,0.9765625,7.14111328125,-16.9464111328125,37.869873046875,58.6724853515625
1758786562.6831443,-0.4462890625,-0.15966796875,0.67138671875,-59.38720703125,2.62451171875,9.765625,-17.4627685546875,37.9193115234375,58.6944580078125
1758786562.692915,-0.4462890625,-0.15966796875,0.67138671875,-59.38720703125,2.62451171875,9.765625,-17.95166015625,37.96875,58.7274169921875
1758786562.7025511,-0.51318359375,-0.1962890625,0.69921875,-36.865234375,3.41796875,11.5966796875,-18.3251953125,38.0291748046875,58.7713623046875
1758786562.7125952,-0.51318359375,-0.1962890625,0.69921875,-36.865234375,3.41796875,11.5966796875,-18.577880859375,38.0950927734375,58.8262939453125
1758786562.7225685,-0.541015625,-0.21142578125,0.748046875,-36.07177734375,2.50244140625,11.8408203125,-18.83056640625,38.155517578125,58.88671875
1758786562.7332063,-0.541015625,-0.21142578125,0.748046875,-36.07177734375,2.50244140625,11.8408203125,-19.072265625,38.2049560546875,58.9471435546875
1758786562.742646,-0.5302734375,-0.2373046875,0.71630859375,-61.21826171875,1.5869140625,12.87841796875,-19.4403076171875,38.25439453125,59.0185546875
1758786562.752683,-0.5302734375,-0.2373046875,0.71630859375,-61.21826171875,1.5869140625,12.87841796875,-19.9237060546875,38.3038330078125,59.1009521484375
1758786562.7631705,-0.51953125,-0.2529296875,0.69677734375,-84.77783203125,1.52587890625,13.916015625,-20.5224609375,38.353271484375,59.1888427734375
1758786562.77283,-0.51953125,-0.2529296875,0.69677734375,-84.77783203125,1.52587890625,13.916015625,-21.236572265625,38.4027099609375,59.2822265625
1758786562.782684,-0.59912109375,-0.37939453125,0.767578125,-58.53271484375,2.01416015625,12.3291015625,-21.8243408203125,38.4521484375,59.3646240234375
1758786562.7930815,-0.59912109375,-0.37939453125,0.767578125,-58.53271484375,2.01416015625,12.3291015625,-22.2967529296875,38.5015869140625,59.43603515625
1758786562.8026981,-0.63818359375,-0.3447265625,0.8115234375,-28.38134765625,0.3662109375,10.68115234375,-22.620849609375,38.5400390625,59.501953125
1758786562.813129,-0.63818359375,-0.3447265625,0.8115234375,-28.38134765625,0.3662109375,10.68115234375,-22.8021240234375,38.5675048828125,59.5623779296875
1758786562.8227348,-0.65966796875,-0.26025390625,0.828125,-28.99169921875,-1.3427734375,9.765625,-22.9888916015625,38.583984375,59.622802734375
1758786562.8328223,-0.65966796875,-0.26025390625,0.828125,-28.99169921875,-1.3427734375,9.765625,-23.1756591796875,38.594970703125,59.6832275390625
1758786562.8433392,-0.6357421875,-0.20849609375,0.88525390625,-42.236328125,-2.197265625,10.986328125,-23.4228515625,38.60595703125,59.7491455078125
1758786562.8529544,-0.6357421875,-0.20849609375,0.88525390625,-42.236328125,-2.197265625,10.986328125,-23.7249755859375,38.6114501953125,59.8260498046875
1758786562.8628604,-0.666015625,-0.2236328125,0.8740234375,-47.7294921875,-3.2958984375,11.53564453125,-24.0435791015625,38.616943359375,59.9139404296875
1758786562.872915,-0.666015625,-0.2236328125,0.8740234375,-47.7294921875,-3.2958984375,11.53564453125,-24.3841552734375,38.616943359375,60.0018310546875
1758786562.8833146,-0.65966796875,-0.27734375,0.9013671875,-31.005859375,-4.69970703125,10.25390625,-24.6368408203125,38.60595703125,60.0897216796875
1758786562.8929434,-0.65966796875,-0.27734375,0.9013671875,-31.005859375,-4.69970703125,10.25390625,-24.8126220703125,38.583984375,60.172119140625
1758786562.9029045,-0.65966796875,-0.27734375,0.9013671875,-11.3525390625,-4.5166015625,10.80322265625,-24.884033203125,38.5675048828125,60.260009765625
1758786562.91286,-0.6240234375,-0.33447265625,0.794921875,-11.3525390625,-4.5166015625,10.80322265625,-24.862060546875,38.5565185546875,60.347900390625
1758786562.923276,-0.56884765625,-0.29150390625,0.6494140625,-15.93017578125,-2.86865234375,9.46044921875,-24.873046875,38.5455322265625,60.4248046875
1758786562.9328926,-0.56884765625,-0.29150390625,0.6494140625,-15.93017578125,-2.86865234375,9.46044921875,-24.9169921875,38.5455322265625,60.49072265625
1758786562.9428546,-0.646484375,-0.255859375,0.65869140625,-13.48876953125,-1.0986328125,8.97216796875,-24.9609375,38.551025390625,60.545654296875
1758786562.952905,-0.646484375,-0.255859375,0.65869140625,-13.48876953125,-1.0986328125,8.97216796875,-24.9884033203125,38.5675048828125,60.589599609375
1758786562.9633832,-0.80126953125,-0.18603515625,0.818359375,4.150390625,0.9765625,10.43701171875,-24.9334716796875,38.6004638671875,60.6390380859375
1758786562.9729633,-0.80126953125,-0.18603515625,0.818359375,4.150390625,0.9765625,10.43701171875,-24.7796630859375,38.64990234375,60.6829833984375
1758786562.9829314,-0.85595703125,-0.392578125,0.857421875,-9.6435546875,-0.9765625,7.14111328125,-24.708251953125,38.682861328125,60.7159423828125
1758786562.9930155,-0.85595703125,-0.392578125,0.857421875,-9.6435546875,-0.9765625,7.14111328125,-24.7137451171875,38.704833984375,60.732421875
1758786563.0034776,-0.80419921875,-0.4462890625,0.75341796875,-47.30224609375,-1.3427734375,6.40869140625,-24.9114990234375,38.726806640625,60.7489013671875
1758786563.0130303,-0.80419921875,-0.4462890625,0.75341796875,-47.30224609375,-1.3427734375,6.40869140625,-25.3070068359375,38.7432861328125,60.75439453125
1758786563.0229664,-0.73046875,-0.34814453125,0.62451171875,-39.9169921875,-2.25830078125,7.2021484375,-25.6640625,38.7652587890625,60.7708740234375
1758786563.0330548,-0.73046875,-0.34814453125,0.62451171875,-39.9169921875,-2.25830078125,7.2021484375,-25.982666015625,38.7872314453125,60.7928466796875
1758786563.0439215,-0.59130859375,-0.365234375,0.7080078125,11.23046875,-0.3662109375,7.4462890625,-26.048583984375,38.8201904296875,60.809326171875
1758786563.053129,-0.59130859375,-0.365234375,0.7080078125,11.23046875,-0.3662109375,7.4462890625,-25.86181640625,38.858642578125,60.8203125
1758786563.0630515,-0.5166015625,-0.27099609375,0.65869140625,28.9306640625,1.708984375,9.70458984375,-25.587158203125,38.9080810546875,60.8477783203125
1758786563.0731153,-0.5166015625,-0.27099609375,0.65869140625,28.9306640625,1.708984375,9.70458984375,-25.224609375,38.9739990234375,60.8807373046875
1758786563.083072,-0.56494140625,-0.20361328125,0.71630859375,-14.892578125,2.0751953125,11.65771484375,-25.07080078125,39.0399169921875,60.93017578125
1758786563.0934398,-0.56494140625,-0.20361328125,0.71630859375,-14.892578125,2.0751953125,11.65771484375,-25.125732421875,39.1058349609375,60.9906005859375
1758786563.1031568,-0.66064453125,-0.2470703125,0.72265625,-58.41064453125,1.52587890625,13.24462890625,-25.3839111328125,39.17724609375,61.0565185546875
1758786563.1132717,-0.66064453125,-0.2470703125,0.72265625,-58.41064453125,1.52587890625,13.24462890625,-25.8563232421875,39.2486572265625,61.138916015625
1758786563.1236742,-0.71923828125,-0.35791015625,0.6240234375,-60.97412109375,0.48828125,14.46533203125,-26.3232421875,39.320068359375,61.226806640625
1758786563.1331758,-0.71923828125,-0.35791015625,0.6240234375,-60.97412109375,0.48828125,14.46533203125,-26.806640625,39.3914794921875,61.3201904296875
1758786563.1431537,-0.72314453125,-0.41015625,0.62744140625,-4.39453125,-2.13623046875,13.48876953125,-27.00439453125,39.451904296875,61.41357421875
1758786563.1531827,-0.72314453125,-0.41015625,0.62744140625,-4.39453125,-2.13623046875,13.48876953125,-26.9219970703125,39.5013427734375,61.512451171875
1758786563.1636562,-0.65625,-0.41845703125,0.64208984375,2.3193359375,-3.11279296875,14.892578125,-26.806640625,39.5562744140625,61.6168212890625
1758786563.1731734,-0.65625,-0.41845703125,0.64208984375,2.3193359375,-3.11279296875,14.892578125,-26.65283203125,39.605712890625,61.7376708984375
1758786563.1831868,-0.6064453125,-0.349609375,0.5078125,-50.10986328125,-1.40380859375,13.85498046875,-26.773681640625,39.6551513671875,61.85302734375
1758786563.1931646,-0.6064453125,-0.349609375,0.5078125,-50.10986328125,-1.40380859375,13.85498046875,-27.169189453125,39.7210693359375,61.951904296875
1758786563.2037477,-0.6650390625,-0.25390625,0.4990234375,-77.63671875,1.3427734375,14.0380859375,-27.7020263671875,39.7979736328125,62.039794921875
1758786563.2131891,-0.6650390625,-0.25390625,0.4990234375,-77.63671875,1.3427734375,14.0380859375,-28.3721923828125,39.891357421875,62.1221923828125
1758786563.2232118,-0.8359375,-0.28662109375,0.5,-18.12744140625,1.708984375,12.75634765625,-28.751220703125,39.990234375,62.1881103515625
