timestamp,acc_x,acc_y,acc_z,gyro_x,gyro_y,gyro_z,angle_x,angle_y,angle_z
1758786200.933171,0.0,0.0,0.0,0.0,0.0,0.0,27.7679443359375,37.8204345703125,86.68212890625
1758786200.943551,-0.60791015625,0.37060546875,0.697265625,-0.1220703125,-0.732421875,-0.8544921875,27.762451171875,37.81494140625,86.6656494140625
1758786200.9537792,-0.60791015625,0.37060546875,0.697265625,-0.1220703125,-0.732421875,-0.8544921875,27.75146484375,37.81494140625,86.649169921875
1758786200.9649992,-0.60693359375,0.36767578125,0.70361328125,0.244140625,-0.79345703125,-0.8544921875,27.7459716796875,37.8094482421875,86.63818359375
1758786200.9748242,-0.60693359375,0.36767578125,0.70361328125,0.244140625,-0.79345703125,-0.8544921875,27.740478515625,37.803955078125,86.6217041015625
1758786200.986395,-0.603515625,0.37353515625,0.69970703125,0.6103515625,-0.91552734375,-1.03759765625,27.740478515625,37.7984619140625,86.605224609375
1758786200.9957967,-0.603515625,0.37353515625,0.69970703125,0.6103515625,-0.91552734375,-1.03759765625,27.7349853515625,37.79296875,86.5887451171875
1758786201.0043504,-0.6044921875,0.3740234375,0.70361328125,-0.54931640625,-0.8544921875,-0.91552734375,27.7239990234375,37.7874755859375,86.572265625
1758786201.0136302,-0.6044921875,0.3740234375,0.70361328125,-0.54931640625,-0.8544921875,-0.91552734375,27.70751953125,37.7874755859375,86.5557861328125
1758786201.0233653,-0.6044921875,0.3662109375,0.70751953125,-0.6103515625,-0.8544921875,-0.91552734375,27.696533203125,37.781982421875,86.5447998046875
1758786201.0326111,-0.6044921875,0.3662109375,0.70751953125,-0.6103515625,-0.8544921875,-0.91552734375,27.6800537109375,37.7764892578125,86.5283203125
1758786201.0426004,-0.603515625,0.3671875,0.70263671875,0.0,-0.91552734375,-0.9765625,27.6690673828125,37.77099609375,86.517333984375
1758786201.052703,-0.603515625,0.3671875,0.70263671875,0.0,-0.91552734375,-0.9765625,27.66357421875,37.760009765625,86.5008544921875
1758786201.062606,-0.59765625,0.376953125,0.70166015625,-0.6103515625,-0.8544921875,-1.03759765625,27.6470947265625,37.760009765625,86.4898681640625
1758786201.072768,-0.59765625,0.376953125,0.70166015625,-0.6103515625,-0.8544921875,-1.03759765625,27.630615234375,37.7545166015625,86.473388671875
1758786201.0826383,-0.5771484375,0.37255859375,0.71337890625,-2.9296875,-0.54931640625,-0.91552734375,27.59765625,37.7490234375,86.46240234375
1758786201.0926948,-0.5771484375,0.37255859375,0.71337890625,-2.9296875,-0.54931640625,-0.91552734375,27.5592041015625,37.7435302734375,86.4459228515625
1758786201.1029391,-0.56640625,0.36865234375,0.736328125,-2.62451171875,-0.06103515625,-1.15966796875,27.5262451171875,37.7435302734375,86.4349365234375
1758786201.1132588,-0.56640625,0.36865234375,0.736328125,-2.62451171875,-0.06103515625,-1.15966796875,27.4932861328125,37.738037109375,86.4239501953125
1758786201.1227298,-0.56103515625,0.361328125,0.74755859375,-0.1220703125,0.3662109375,-1.40380859375,27.4822998046875,37.7435302734375,86.4129638671875
1758786201.1327436,-0.56103515625,0.361328125,0.74755859375,-0.1220703125,0.3662109375,-1.40380859375,27.4713134765625,37.7435302734375,86.396484375
1758786201.1427658,-0.5390625,0.35791015625,0.74560546875,-1.52587890625,0.0,-1.15966796875,27.4493408203125,37.7325439453125,86.385498046875
1758786201.15326,-0.5390625,0.35791015625,0.74560546875,-1.52587890625,0.0,-1.15966796875,27.421875,37.72705078125,86.37451171875
1758786201.1627927,-0.49853515625,0.37158203125,0.75146484375,-2.3193359375,-0.1220703125,-1.220703125,27.3834228515625,37.716064453125,86.3580322265625
1758786201.1727905,-0.49853515625,0.37158203125,0.75146484375,-2.3193359375,-0.1220703125,-1.220703125,27.3504638671875,37.705078125,86.3470458984375
1758786201.1828446,-0.5126953125,0.369140625,0.7861328125,-5.55419921875,-0.244140625,-1.220703125,27.2845458984375,37.6885986328125,86.3360595703125
1758786201.1928086,-0.5126953125,0.369140625,0.7861328125,-5.55419921875,-0.244140625,-1.220703125,27.213134765625,37.6666259765625,86.319580078125
1758786201.2031562,-0.533203125,0.3544921875,0.8076171875,-1.52587890625,-0.9765625,-1.708984375,27.1746826171875,37.6446533203125,86.297607421875
1758786201.2128131,-0.533203125,0.3544921875,0.8076171875,-1.52587890625,-0.9765625,-1.708984375,27.1417236328125,37.6171875,86.2811279296875
1758786201.2231028,-0.50048828125,0.34033203125,0.7763671875,1.220703125,-1.8310546875,-1.8310546875,27.125244140625,37.584228515625,86.253662109375
1758786201.2327995,-0.50048828125,0.34033203125,0.7763671875,1.220703125,-1.8310546875,-1.8310546875,27.1087646484375,37.5457763671875,86.2261962890625
1758786201.2429235,-0.5166015625,0.34765625,0.78271484375,-4.08935546875,-3.0517578125,-0.42724609375,27.0428466796875,37.4908447265625,86.209716796875
1758786201.252804,-0.5166015625,0.34765625,0.78271484375,-4.08935546875,-3.0517578125,-0.42724609375,26.9769287109375,37.4359130859375,86.1932373046875
1758786201.26296,-0.54541015625,0.36669921875,0.7919921875,-4.45556640625,-3.35693359375,-0.244140625,26.9110107421875,37.3809814453125,86.1767578125
1758786201.2728257,-0.54541015625,0.36669921875,0.7919921875,-4.45556640625,-3.35693359375,-0.244140625,26.8450927734375,37.320556640625,86.1602783203125
1758786201.2832184,-0.56640625,0.3505859375,0.76904296875,-1.15966796875,-4.21142578125,-0.67138671875,26.8011474609375,37.2601318359375,86.1383056640625
1758786201.292864,-0.56640625,0.3505859375,0.76904296875,-1.15966796875,-4.21142578125,-0.67138671875,26.7626953125,37.1942138671875,86.11083984375
1758786201.303042,-0.57373046875,0.328125,0.76171875,-1.3427734375,-4.33349609375,-1.28173828125,26.7132568359375,37.1392822265625,86.077880859375
1758786201.3128715,-0.57373046875,0.328125,0.76171875,-1.3427734375,-4.33349609375,-1.28173828125,26.663818359375,37.078857421875,86.044921875
1758786201.323061,-0.59228515625,0.34033203125,0.70654296875,2.44140625,-4.5166015625,-1.28173828125,26.65283203125,37.02392578125,86.011962890625
1758786201.3328965,-0.59228515625,0.34033203125,0.70654296875,2.44140625,-4.5166015625,-1.28173828125,26.641845703125,36.968994140625,85.97900390625
1758786201.343055,-0.62890625,0.3544921875,0.71142578125,-1.953125,-4.2724609375,-0.79345703125,26.597900390625,36.9140625,85.9515380859375
1758786201.3529253,-0.62890625,0.3544921875,0.71142578125,-1.953125,-4.2724609375,-0.79345703125,26.5484619140625,36.8701171875,85.924072265625
1758786201.363066,-0.638671875,0.3818359375,0.69140625,-9.033203125,-3.96728515625,-0.244140625,26.4385986328125,36.8206787109375,85.902099609375
1758786201.37295,-0.638671875,0.3818359375,0.69140625,-9.033203125,-3.96728515625,-0.244140625,26.3287353515625,36.7767333984375,85.880126953125
1758786201.3833697,-0.62939453125,0.3876953125,0.6494140625,-8.9111328125,-3.47900390625,0.0,26.224365234375,36.7437744140625,85.858154296875
1758786201.3929358,-0.62939453125,0.3876953125,0.6494140625,-8.9111328125,-3.47900390625,0.0,26.1309814453125,36.705322265625,85.836181640625
1758786201.403365,-0.61474609375,0.37841796875,0.64892578125,-9.58251953125,-2.86865234375,0.6103515625,26.0321044921875,36.6778564453125,85.8251953125
1758786201.4130132,-0.61474609375,0.37841796875,0.64892578125,-9.58251953125,-2.86865234375,0.6103515625,25.938720703125,36.650390625,85.8087158203125
1758786201.4243512,-0.6201171875,0.3798828125,0.6640625,-13.671875,-1.64794921875,1.5869140625,25.81787109375,36.62841796875,85.814208984375
1758786201.4331372,-0.6201171875,0.3798828125,0.6640625,-13.671875,-1.64794921875,1.5869140625,25.697021484375,36.6119384765625,85.814208984375
1758786201.443621,-0.64599609375,0.365234375,0.66943359375,-18.310546875,-0.91552734375,1.8310546875,25.5377197265625,36.6009521484375,85.8197021484375
1758786201.4531379,-0.64599609375,0.365234375,0.66943359375,-18.310546875,-0.91552734375,1.8310546875,25.37841796875,36.5899658203125,85.8306884765625
1758786201.463613,-0.65087890625,0.33740234375,0.7783203125,-13.36669921875,-0.91552734375,1.953125,25.2685546875,36.5789794921875,85.836181640625
1758786201.4731493,-0.65087890625,0.33740234375,0.7783203125,-13.36669921875,-0.91552734375,1.953125,25.15869140625,36.573486328125,85.84716796875
1758786201.48393,-0.63916015625,0.32421875,0.755859375,-13.97705078125,-1.40380859375,2.62451171875,25.0433349609375,36.5570068359375,85.858154296875
1758786201.4931812,-0.63916015625,0.32421875,0.755859375,-13.97705078125,-1.40380859375,2.62451171875,24.9224853515625,36.54052734375,85.8746337890625
1758786201.5032716,-0.6162109375,0.35205078125,0.7392578125,-15.2587890625,-1.40380859375,2.86865234375,24.796142578125,36.5185546875,85.89111328125
1758786201.5132606,-0.6162109375,0.35205078125,0.7392578125,-15.2587890625,-1.40380859375,2.86865234375,24.664306640625,36.5020751953125,85.9075927734375
1758786201.5235622,-0.60498046875,0.35302734375,0.71533203125,-16.11328125,-1.5869140625,3.0517578125,24.532470703125,36.4801025390625,85.924072265625
1758786201.5334444,-0.60498046875,0.35302734375,0.71533203125,-16.11328125,-1.5869140625,3.0517578125,24.3951416015625,36.463623046875,85.946044921875
1758786201.5433393,-0.59423828125,0.3466796875,0.72412109375,-16.29638671875,-1.03759765625,3.23486328125,24.2633056640625,36.4471435546875,85.968017578125
1758786201.5534096,-0.59423828125,0.3466796875,0.72412109375,-16.29638671875,-1.03759765625,3.23486328125,24.1259765625,36.4251708984375,85.989990234375
1758786201.5632777,-0.587890625,0.3388671875,0.7294921875,-19.8974609375,-1.220703125,3.2958984375,23.961181640625,36.40869140625,86.011962890625
1758786201.577169,-0.587890625,0.3388671875,0.7294921875,-19.8974609375,-1.220703125,3.2958984375,23.7908935546875,36.38671875,86.033935546875
1758786201.5836515,-0.58056640625,0.31982421875,0.7548828125,-14.70947265625,-0.732421875,2.9296875,23.675537109375,36.375732421875,86.055908203125
1758786201.593267,-0.58056640625,0.31982421875,0.7548828125,-14.70947265625,-0.732421875,2.9296875,23.5546875,36.3592529296875,86.077880859375
1758786201.6033137,-0.56494140625,0.27880859375,0.77783203125,-10.68115234375,-0.67138671875,2.86865234375,23.4722900390625,36.3427734375,86.099853515625
1758786201.6137962,-0.56494140625,0.27880859375,0.77783203125,-10.68115234375,-0.67138671875,2.86865234375,23.389892578125,36.3262939453125,86.121826171875
1758786201.623355,-0.57861328125,0.29638671875,0.78125,-11.41357421875,-0.9765625,3.173828125,23.2965087890625,36.3043212890625,86.1492919921875
1758786201.63327,-0.57861328125,0.29638671875,0.78125,-11.41357421875,-0.9765625,3.173828125,23.2086181640625,36.2823486328125,86.1767578125
1758786201.6433263,-0.5712890625,0.3115234375,0.78369140625,-8.30078125,-1.220703125,2.86865234375,23.1427001953125,36.2548828125,86.1932373046875
1758786201.6541162,-0.5712890625,0.3115234375,0.78369140625,-8.30078125,-1.220703125,2.86865234375,23.0767822265625,36.2274169921875,86.2152099609375
1758786201.6633942,-0.55419921875,0.31689453125,0.7431640625,-3.96728515625,-1.64794921875,2.62451171875,23.04931640625,36.199951171875,86.2371826171875
1758786201.6733823,-0.55419921875,0.31689453125,0.7431640625,-3.96728515625,-1.64794921875,2.62451171875,23.0218505859375,36.1724853515625,86.253662109375
1758786201.6842132,-0.54150390625,0.3154296875,0.73779296875,-4.638671875,-1.46484375,2.99072265625,22.994384765625,36.1395263671875,86.275634765625
1758786201.693512,-0.54150390625,0.3154296875,0.73779296875,-4.638671875,-1.46484375,2.99072265625,22.9669189453125,36.112060546875,86.297607421875
1758786201.703581,-0.53369140625,0.318359375,0.736328125,-8.7890625,-1.40380859375,2.8076171875,22.8955078125,36.0791015625,86.3140869140625
1758786201.7134876,-0.53369140625,0.318359375,0.736328125,-8.7890625,-1.40380859375,2.8076171875,22.8240966796875,36.0516357421875,86.3360595703125
1758786201.7240252,-0.53369140625,0.318359375,0.736328125,-6.4697265625,-1.03759765625,2.3193359375,22.774658203125,36.024169921875,86.3525390625
1758786201.7343817,-0.5126953125,0.29150390625,0.76953125,1.46484375,-0.8544921875,2.13623046875,22.763671875,35.9967041015625,86.363525390625
1758786201.7434688,-0.5126953125,0.29150390625,0.76953125,1.46484375,-0.8544921875,2.13623046875,22.78564453125,35.9747314453125,86.3800048828125
1758786201.7542603,-0.5009765625,0.28369140625,0.77685546875,8.1787109375,-0.48828125,1.40380859375,22.8460693359375,35.947265625,86.396484375
1758786201.7639358,-0.5009765625,0.28369140625,0.77685546875,8.1787109375,-0.48828125,1.40380859375,22.928466796875,35.92529296875,86.407470703125
1758786201.773826,-0.51953125,0.30126953125,0.7978515625,4.33349609375,-0.79345703125,1.8310546875,22.994384765625,35.8978271484375,86.4239501953125
1758786201.7837622,-0.51953125,0.30126953125,0.7978515625,4.33349609375,-0.79345703125,1.8310546875,23.0438232421875,35.870361328125,86.4404296875
1758786201.7945447,-0.53369140625,0.33984375,0.7646484375,0.6103515625,-0.42724609375,1.40380859375,23.0712890625,35.8428955078125,86.4569091796875
1758786201.8042471,-0.53369140625,0.33984375,0.7646484375,0.6103515625,-0.42724609375,1.40380859375,23.0767822265625,35.8154296875,86.4678955078125
1758786201.8138344,-0.52099609375,0.32861328125,0.7255859375,1.5869140625,-0.42724609375,1.03759765625,23.09326171875,35.79345703125,86.4788818359375
1758786201.823657,-0.52099609375,0.32861328125,0.7255859375,1.5869140625,-0.42724609375,1.03759765625,23.1097412109375,35.7659912109375,86.4898681640625
1758786201.834803,-0.58349609375,0.31201171875,0.6806640625,2.13623046875,0.48828125,0.67138671875,23.1317138671875,35.74951171875,86.495361328125
1758786201.8435602,-0.58349609375,0.31201171875,0.6806640625,2.13623046875,0.48828125,0.67138671875,23.1591796875,35.738525390625,86.50634765625
1758786201.8542268,-0.60546875,0.31982421875,0.72314453125,0.91552734375,0.67138671875,0.244140625,23.1756591796875,35.7330322265625,86.5118408203125
1758786201.8640118,-0.60546875,0.31982421875,0.72314453125,0.91552734375,0.67138671875,0.244140625,23.1866455078125,35.7275390625,86.5118408203125
1758786201.8741307,-0.681640625,0.34619140625,0.75244140625,-3.47900390625,1.46484375,1.15966796875,23.18115234375,35.7275390625,86.5228271484375
1758786201.8838303,-0.681640625,0.34619140625,0.75244140625,-3.47900390625,1.46484375,1.15966796875,23.1591796875,35.738525390625,86.5338134765625
1758786201.894379,-0.72607421875,0.36279296875,0.81201171875,-12.63427734375,0.42724609375,3.0517578125,23.0987548828125,35.738525390625,86.561279296875
1758786201.9042866,-0.72607421875,0.36279296875,0.81201171875,-12.63427734375,0.42724609375,3.0517578125,22.994384765625,35.7330322265625,86.5887451171875
1758786201.9142118,-0.71484375,0.3681640625,0.73095703125,-16.7236328125,-0.1220703125,4.150390625,22.8790283203125,35.7220458984375,86.627197265625
1758786201.9238434,-0.71484375,0.3681640625,0.73095703125,-16.7236328125,-0.1220703125,4.150390625,22.7471923828125,35.7110595703125,86.6656494140625
1758786201.9345844,-0.68310546875,0.3134765625,0.64697265625,-22.15576171875,-0.54931640625,4.39453125,22.587890625,35.70556640625,86.7041015625
1758786201.9437323,-0.68310546875,0.3134765625,0.64697265625,-22.15576171875,-0.54931640625,4.39453125,22.4066162109375,35.694580078125,86.737060546875
1758786201.954376,-0.6630859375,0.29052734375,0.61083984375,-19.34814453125,-0.30517578125,4.45556640625,22.236328125,35.6890869140625,86.7755126953125
1758786201.9641128,-0.6630859375,0.29052734375,0.61083984375,-19.34814453125,-0.30517578125,4.45556640625,22.0880126953125,35.694580078125,86.81396484375
1758786201.9741242,-0.65869140625,0.2783203125,0.6279296875,-13.61083984375,1.03759765625,4.69970703125,21.97265625,35.7000732421875,86.8524169921875
1758786201.9840143,-0.65869140625,0.2783203125,0.6279296875,-13.61083984375,1.03759765625,4.69970703125,21.884765625,35.716552734375,86.90185546875
1758786201.9941247,-0.66845703125,0.31201171875,0.69140625,-12.02392578125,1.28173828125,5.2490234375,21.807861328125,35.738525390625,86.94580078125
1758786202.0042005,-0.66845703125,0.31201171875,0.69140625,-12.02392578125,1.28173828125,5.2490234375,21.741943359375,35.7550048828125,87.000732421875
1758786202.0137923,-0.65283203125,0.30322265625,0.7490234375,-11.474609375,1.708984375,5.43212890625,21.6815185546875,35.7769775390625,87.0501708984375
1758786202.023908,-0.65283203125,0.30322265625,0.7490234375,-11.474609375,1.708984375,5.43212890625,21.6265869140625,35.7989501953125,87.1051025390625
1758786202.0338137,-0.6484375,0.2900390625,0.74169921875,-8.60595703125,1.15966796875,5.859375,21.5771484375,35.8209228515625,87.16552734375
1758786202.043775,-0.6484375,0.2900390625,0.74169921875,-8.60595703125,1.15966796875,5.859375,21.5496826171875,35.8319091796875,87.2259521484375
1758786202.0539656,-0.6474609375,0.271484375,0.7470703125,-3.72314453125,1.28173828125,6.28662109375,21.544189453125,35.848388671875,87.286376953125
1758786202.0641975,-0.6474609375,0.271484375,0.7470703125,-3.72314453125,1.28173828125,6.28662109375,21.5606689453125,35.859375,87.352294921875
1758786202.0740564,-0.64501953125,0.27587890625,0.72509765625,-2.86865234375,0.732421875,6.65283203125,21.5826416015625,35.870361328125,87.4237060546875
1758786202.0840418,-0.64501953125,0.27587890625,0.72509765625,-2.86865234375,0.732421875,6.65283203125,21.6046142578125,35.8758544921875,87.4896240234375
1758786202.0938232,-0.63232421875,0.29150390625,0.71142578125,-0.732421875,1.28173828125,7.01904296875,21.64306640625,35.88134765625,87.5665283203125
1758786202.104639,-0.63232421875,0.29150390625,0.71142578125,-0.732421875,1.28173828125,7.01904296875,21.68701171875,35.892333984375,87.6434326171875
1758786202.1140916,-0.61279296875,0.31005859375,0.70068359375,0.1220703125,1.220703125,6.89697265625,21.741943359375,35.9033203125,87.7203369140625
1758786202.1238954,-0.61279296875,0.31005859375,0.70068359375,0.1220703125,1.220703125,6.89697265625,21.796875,35.9088134765625,87.7972412109375
1758786202.1338403,-0.615234375,0.31591796875,0.71630859375,-1.64794921875,2.25830078125,6.8359375,21.8463134765625,35.9197998046875,87.8741455078125
1758786202.1442912,-0.615234375,0.31591796875,0.71630859375,-1.64794921875,2.25830078125,6.8359375,21.884765625,35.936279296875,87.95654296875
1758786202.1544027,-0.6064453125,0.302734375,0.74267578125,-1.40380859375,2.685546875,6.53076171875,21.9287109375,35.958251953125,88.033447265625
1758786202.164041,-0.6064453125,0.302734375,0.74267578125,-1.40380859375,2.685546875,6.53076171875,21.97265625,35.9747314453125,88.1158447265625
1758786202.1742227,-0.56591796875,0.294921875,0.7578125,6.8359375,3.23486328125,5.43212890625,22.049560546875,35.9967041015625,88.1982421875
1758786202.1846592,-0.56591796875,0.294921875,0.7578125,6.8359375,3.23486328125,5.43212890625,22.1649169921875,36.0186767578125,88.275146484375
1758786202.1940029,-0.55712890625,0.2998046875,0.7802734375,7.99560546875,3.47900390625,4.8828125,22.2857666015625,36.046142578125,88.3465576171875
1758786202.2044992,-0.55712890625,0.2998046875,0.7802734375,7.99560546875,3.47900390625,4.8828125,22.4066162109375,36.068115234375,88.41796875
1758786202.2142682,-0.5791015625,0.3369140625,0.7939453125,5.18798828125,3.90625,4.5166015625,22.5164794921875,36.090087890625,88.494873046875
1758786202.2250228,-0.5791015625,0.3369140625,0.7939453125,5.18798828125,3.90625,4.5166015625,22.6043701171875,36.112060546875,88.5662841796875
1758786202.2340333,-0.58349609375,0.3203125,0.775390625,3.23486328125,4.150390625,4.5166015625,22.686767578125,36.134033203125,88.6376953125
1758786202.2444255,-0.58349609375,0.3203125,0.775390625,3.23486328125,4.150390625,4.5166015625,22.7581787109375,36.1614990234375,88.7091064453125
1758786202.2551591,-0.56298828125,0.31298828125,0.7490234375,-0.54931640625,4.08935546875,4.57763671875,22.8131103515625,36.177978515625,88.7860107421875
1758786202.2643623,-0.56298828125,0.31298828125,0.7490234375,-0.54931640625,4.08935546875,4.57763671875,22.8460693359375,36.199951171875,88.8629150390625
1758786202.2740464,-0.55859375,0.314453125,0.7451171875,-0.79345703125,3.72314453125,4.33349609375,22.8790283203125,36.2164306640625,88.934326171875
1758786202.2846732,-0.55859375,0.314453125,0.7451171875,-0.79345703125,3.72314453125,4.33349609375,22.906494140625,36.23291015625,89.01123046875
1758786202.2943861,-0.56201171875,0.326171875,0.7607421875,1.8310546875,3.2958984375,3.84521484375,22.950439453125,36.243896484375,89.0771484375
1758786202.3048842,-0.56201171875,0.326171875,0.7607421875,1.8310546875,3.2958984375,3.84521484375,22.9998779296875,36.2548828125,89.14306640625
1758786202.3140779,-0.55859375,0.3291015625,0.76220703125,0.9765625,3.173828125,3.72314453125,23.04931640625,36.265869140625,89.2034912109375
1758786202.3269532,-0.55859375,0.3291015625,0.76220703125,0.9765625,3.173828125,3.72314453125,23.0877685546875,36.27685546875,89.2694091796875
1758786202.3349936,-0.56787109375,0.32861328125,0.76953125,-3.47900390625,2.8076171875,3.7841796875,23.1097412109375,36.2823486328125,89.329833984375
1758786202.3446321,-0.56787109375,0.32861328125,0.76953125,-3.47900390625,2.8076171875,3.7841796875,23.104248046875,36.2823486328125,89.395751953125
1758786202.354557,-0.59033203125,0.3203125,0.79638671875,-3.7841796875,1.8310546875,3.41796875,23.0987548828125,36.2823486328125,89.4561767578125
1758786202.3648427,-0.59033203125,0.3203125,0.79638671875,-3.7841796875,1.8310546875,3.41796875,23.0877685546875,36.27685546875,89.5111083984375
1758786202.374658,-0.5546875,0.3173828125,0.75732421875,-2.99072265625,1.15966796875,2.86865234375,23.0767822265625,36.2713623046875,89.560546875
1758786202.3849957,-0.5546875,0.3173828125,0.75732421875,-2.99072265625,1.15966796875,2.86865234375,23.0657958984375,36.2603759765625,89.6044921875
1758786202.394284,-0.54150390625,0.3291015625,0.75927734375,-4.8828125,0.8544921875,2.5634765625,23.04931640625,36.2548828125,89.6484375
1758786202.406207,-0.54150390625,0.3291015625,0.75927734375,-4.8828125,0.8544921875,2.5634765625,23.016357421875,36.2384033203125,89.6923828125
1758786202.414817,-0.54736328125,0.34033203125,0.77099609375,-5.9814453125,0.6103515625,1.52587890625,22.9779052734375,36.2274169921875,89.7198486328125
1758786202.4243436,-0.54736328125,0.34033203125,0.77099609375,-5.9814453125,0.6103515625,1.52587890625,22.928466796875,36.2164306640625,89.747314453125
1758786202.434805,-0.546875,0.32763671875,0.79345703125,-3.35693359375,0.30517578125,0.42724609375,22.8900146484375,36.2054443359375,89.7637939453125
1758786202.4443166,-0.546875,0.32763671875,0.79345703125,-3.35693359375,0.30517578125,0.42724609375,22.862548828125,36.1944580078125,89.7747802734375
1758786202.4543262,-0.5458984375,0.31201171875,0.80224609375,-0.8544921875,0.18310546875,-0.06103515625,22.840576171875,36.177978515625,89.7857666015625
1758786202.4643822,-0.5458984375,0.31201171875,0.80224609375,-0.8544921875,0.18310546875,-0.06103515625,22.8350830078125,36.1669921875,89.791259765625
1758786202.4746993,-0.5400390625,0.30126953125,0.81005859375,1.64794921875,-0.1220703125,-0.48828125,22.8350830078125,36.1505126953125,89.7967529296875
1758786202.4844956,-0.5400390625,0.30126953125,0.81005859375,1.64794921875,-0.1220703125,-0.48828125,22.8460693359375,36.134033203125,89.7967529296875
1758786202.494306,-0.53662109375,0.31884765625,0.80078125,3.35693359375,-0.732421875,-1.15966796875,22.8570556640625,36.1175537109375,89.791259765625
1758786202.5047133,-0.53662109375,0.31884765625,0.80078125,3.35693359375,-0.732421875,-1.15966796875,22.8790283203125,36.0955810546875,89.7857666015625
1758786202.514343,-0.51171875,0.33935546875,0.78857421875,1.89208984375,-0.8544921875,-1.28173828125,22.8900146484375,36.0791015625,89.7747802734375
1758786202.5243158,-0.51171875,0.33935546875,0.78857421875,1.89208984375,-0.8544921875,-1.28173828125,22.8955078125,36.0516357421875,89.7637939453125
1758786202.5346954,-0.4990234375,0.33154296875,0.8056640625,-3.11279296875,-0.9765625,-1.3427734375,22.87353515625,36.0296630859375,89.7528076171875
1758786202.5448103,-0.4990234375,0.33154296875,0.8056640625,-3.11279296875,-0.9765625,-1.3427734375,22.8240966796875,36.002197265625,89.7418212890625
1758786202.5543923,-0.5009765625,0.32470703125,0.826171875,-3.60107421875,-1.28173828125,-1.46484375,22.7801513671875,35.9747314453125,89.7308349609375
1758786202.5643728,-0.5009765625,0.32470703125,0.826171875,-3.60107421875,-1.28173828125,-1.46484375,22.7252197265625,35.9417724609375,89.71435546875
1758786202.5749154,-0.4892578125,0.32763671875,0.8427734375,-7.01904296875,-1.52587890625,-1.220703125,22.65380859375,35.9088134765625,89.703369140625
1758786202.5846062,-0.4892578125,0.32763671875,0.8427734375,-7.01904296875,-1.52587890625,-1.220703125,22.5714111328125,35.870361328125,89.6923828125
1758786202.594404,-0.48681640625,0.3212890625,0.822265625,-9.70458984375,-1.40380859375,-0.91552734375,22.4725341796875,35.8319091796875,89.681396484375
1758786202.6043894,-0.48681640625,0.3212890625,0.822265625,-9.70458984375,-1.40380859375,-0.91552734375,22.3626708984375,35.79345703125,89.67041015625
1758786202.614916,-0.51318359375,0.3046875,0.7724609375,-9.94873046875,-1.46484375,-1.40380859375,22.2528076171875,35.7550048828125,89.659423828125
1758786202.6250455,-0.51318359375,0.3046875,0.7724609375,-9.94873046875,-1.46484375,-1.40380859375,22.137451171875,35.716552734375,89.6484375
1758786202.6346772,-0.48193359375,0.29296875,0.78369140625,-8.7890625,-1.46484375,-1.52587890625,22.027587890625,35.6781005859375,89.6319580078125
1758786202.6448302,-0.48193359375,0.29296875,0.78369140625,-8.7890625,-1.46484375,-1.52587890625,21.9232177734375,35.6396484375,89.615478515625
1758786202.6550288,-0.48291015625,0.30859375,0.77197265625,-6.04248046875,-1.5869140625,-1.28173828125,21.8353271484375,35.6011962890625,89.6044921875
1758786202.6645398,-0.48291015625,0.30859375,0.77197265625,-6.04248046875,-1.5869140625,-1.28173828125,21.763916015625,35.562744140625,89.5880126953125
1758786202.6749754,-0.505859375,0.2978515625,0.81396484375,-6.89697265625,-1.40380859375,-2.0751953125,21.6815185546875,35.5242919921875,89.571533203125
1758786202.6851234,-0.505859375,0.2978515625,0.81396484375,-6.89697265625,-1.40380859375,-2.0751953125,21.5936279296875,35.48583984375,89.549560546875
1758786202.6952908,-0.56494140625,0.275390625,0.83154296875,-2.197265625,-1.953125,-2.74658203125,21.5277099609375,35.452880859375,89.5220947265625
1758786202.704511,-0.56494140625,0.275390625,0.83154296875,-2.197265625,-1.953125,-2.74658203125,21.478271484375,35.4144287109375,89.49462890625
1758786202.7150424,-0.61083984375,0.228515625,0.81591796875,4.638671875,-2.9296875,-2.9296875,21.4617919921875,35.3759765625,89.4561767578125
1758786202.724991,-0.61083984375,0.228515625,0.81591796875,4.638671875,-2.9296875,-2.9296875,21.4727783203125,35.3375244140625,89.417724609375
1758786202.7353485,-0.64111328125,0.2548828125,0.78564453125,11.41357421875,-3.47900390625,-3.0517578125,21.5167236328125,35.299072265625,89.3792724609375
1758786202.7446015,-0.64111328125,0.2548828125,0.78564453125,11.41357421875,-3.47900390625,-3.0517578125,21.588134765625,35.2606201171875,89.3408203125
1758786202.7550688,-0.619140625,0.30419921875,0.70849609375,8.1787109375,-4.08935546875,-3.23486328125,21.64306640625,35.2276611328125,89.3023681640625
1758786202.76509,-0.619140625,0.30419921875,0.70849609375,8.1787109375,-4.08935546875,-3.23486328125,21.6815185546875,35.189208984375,89.2584228515625
1758786202.7753694,-0.59130859375,0.333984375,0.80322265625,1.28173828125,-3.7841796875,-3.5400390625,21.68701171875,35.1617431640625,89.208984375
1758786202.7847097,-0.59130859375,0.333984375,0.80322265625,1.28173828125,-3.7841796875,-3.5400390625,21.6595458984375,35.13427734375,89.1595458984375
1758786202.7951615,-0.5458984375,0.33447265625,0.79443359375,-5.859375,-3.35693359375,-3.662109375,21.566162109375,35.1068115234375,89.1156005859375
1758786202.805155,-0.5458984375,0.33447265625,0.79443359375,-5.859375,-3.35693359375,-3.662109375,21.46728515625,35.0848388671875,89.0606689453125
1758786202.8151658,-0.51708984375,0.2939453125,0.7890625,-7.9345703125,-2.50244140625,-4.2724609375,21.3519287109375,35.068359375,89.01123046875
1758786202.8246439,-0.51708984375,0.2939453125,0.7890625,-7.9345703125,-2.50244140625,-4.2724609375,21.236572265625,35.04638671875,88.956298828125
1758786202.8352487,-0.52783203125,0.25634765625,0.79296875,-4.33349609375,-2.25830078125,-4.638671875,21.1541748046875,35.035400390625,88.9013671875
1758786202.8447826,-0.52783203125,0.25634765625,0.79296875,-4.33349609375,-2.25830078125,-4.638671875,21.07177734375,35.0189208984375,88.846435546875
1758786202.855313,-0.4736328125,0.2548828125,0.80224609375,1.46484375,-1.8310546875,-4.69970703125,21.0443115234375,35.0079345703125,88.79150390625
1758786202.8647864,-0.4736328125,0.2548828125,0.80224609375,1.46484375,-1.8310546875,-4.69970703125,21.016845703125,34.991455078125,88.736572265625
1758786202.8759747,-0.5009765625,0.2333984375,0.7958984375,14.22119140625,-1.52587890625,-6.28662109375,21.104736328125,34.9859619140625,88.670654296875
1758786202.8854806,-0.5009765625,0.2333984375,0.7958984375,14.22119140625,-1.52587890625,-6.28662109375,21.192626953125,34.9749755859375,88.604736328125
1758786202.8949585,-0.4951171875,0.2041015625,0.85693359375,22.705078125,-1.77001953125,-6.591796875,21.357421875,34.9639892578125,88.5333251953125
1758786202.9048615,-0.4951171875,0.2041015625,0.85693359375,22.705078125,-1.77001953125,-6.591796875,21.5167236328125,34.9530029296875,88.4619140625
1758786202.91546,-0.466796875,0.22509765625,0.884765625,30.09033203125,-1.8310546875,-6.8359375,21.741943359375,34.9420166015625,88.39599609375
1758786202.9253528,-0.466796875,0.22509765625,0.884765625,30.09033203125,-1.8310546875,-6.8359375,21.9671630859375,34.925537109375,88.3245849609375
1758786202.9349837,-0.40087890625,0.224609375,0.68994140625,30.517578125,-0.8544921875,-7.6904296875,22.1923828125,34.9200439453125,88.253173828125
1758786202.944977,-0.40087890625,0.224609375,0.68994140625,30.517578125,-0.8544921875,-7.6904296875,22.4176025390625,34.91455078125,88.17626953125
1758786202.9552317,-0.39013671875,0.2333984375,0.59130859375,18.4326171875,0.6103515625,-8.9111328125,22.5164794921875,34.925537109375,88.0938720703125
1758786202.964886,-0.39013671875,0.2333984375,0.59130859375,18.4326171875,0.6103515625,-8.9111328125,22.6153564453125,34.9420166015625,88.011474609375
1758786202.9749234,-0.43798828125,0.28515625,0.62744140625,23.5595703125,3.23486328125,-9.33837890625,22.774658203125,34.98046875,87.9400634765625
1758786202.9853728,-0.43798828125,0.28515625,0.62744140625,23.5595703125,3.23486328125,-9.33837890625,22.9339599609375,35.0244140625,87.8631591796875
1758786202.9953842,-0.5390625,0.2939453125,0.6484375,34.423828125,4.69970703125,-10.07080078125,23.203125,35.0848388671875,87.7862548828125
1758786203.0048978,-0.5390625,0.2939453125,0.6484375,34.423828125,4.69970703125,-10.07080078125,23.477783203125,35.145263671875,87.7093505859375
1758786203.0149202,-0.62158203125,0.25732421875,0.80810546875,28.62548828125,3.96728515625,-10.7421875,23.6810302734375,35.211181640625,87.6214599609375
1758786203.025335,-0.62158203125,0.25732421875,0.80810546875,28.62548828125,3.96728515625,-10.7421875,23.88427734375,35.277099609375,87.5335693359375
1758786203.035048,-0.7265625,0.38623046875,0.890625,7.38525390625,2.25830078125,-8.7890625,23.88427734375,35.321044921875,87.4566650390625
1758786203.044909,-0.7265625,0.38623046875,0.890625,7.38525390625,2.25830078125,-8.7890625,23.88427734375,35.364990234375,87.38525390625
1758786203.0549555,-0.71728515625,0.52392578125,0.91748046875,-13.97705078125,0.244140625,-6.34765625,23.6920166015625,35.386962890625,87.3248291015625
1758786203.0655718,-0.71728515625,0.52392578125,0.91748046875,-13.97705078125,0.244140625,-6.34765625,23.499755859375,35.4034423828125,87.2589111328125
1758786203.0749931,-0.6533203125,0.48681640625,0.82568359375,-35.58349609375,-2.74658203125,-3.662109375,23.115234375,35.386962890625,87.20947265625
1758786203.0850604,-0.6533203125,0.48681640625,0.82568359375,-35.58349609375,-2.74658203125,-3.662109375,22.7362060546875,35.364990234375,87.154541015625
1758786203.0950701,-0.5654296875,0.36572265625,0.6669921875,-40.0390625,-2.3193359375,-2.8076171875,22.3187255859375,35.3485107421875,87.110595703125
1758786203.1054616,-0.5654296875,0.36572265625,0.6669921875,-40.0390625,-2.3193359375,-2.8076171875,21.9122314453125,35.33203125,87.066650390625
1758786203.1150894,-0.541015625,0.29150390625,0.6142578125,-40.10009765625,-1.5869140625,-2.50244140625,21.51123046875,35.3265380859375,87.022705078125
1758786203.1251385,-0.541015625,0.29150390625,0.6142578125,-40.10009765625,-1.5869140625,-2.50244140625,21.1102294921875,35.3155517578125,86.9842529296875
1758786203.1354861,-0.5703125,0.25,0.64990234375,-30.029296875,0.67138671875,-2.99072265625,20.819091796875,35.3375244140625,86.94580078125
1758786203.1452897,-0.5703125,0.25,0.64990234375,-30.029296875,0.67138671875,-2.99072265625,20.5224609375,35.35400390625,86.90185546875
1758786203.1551876,-0.599609375,0.2314453125,0.6357421875,-18.798828125,2.685546875,-2.9296875,20.3411865234375,35.39794921875,86.8743896484375
1758786203.1655002,-0.599609375,0.2314453125,0.6357421875,-18.798828125,2.685546875,-2.9296875,20.159912109375,35.4364013671875,86.8414306640625
1758786203.1758199,-0.64453125,0.25048828125,0.63916015625,-14.95361328125,4.150390625,-2.8076171875,20.0225830078125,35.496826171875,86.8194580078125
1758786203.1857398,-0.64453125,0.25048828125,0.63916015625,-14.95361328125,4.150390625,-2.8076171875,19.88525390625,35.562744140625,86.7919921875
1758786203.195193,-0.69921875,0.29638671875,0.69921875,-15.68603515625,5.31005859375,-3.173828125,19.742431640625,35.6396484375,86.77001953125
1758786203.2055254,-0.69921875,0.29638671875,0.69921875,-15.68603515625,5.31005859375,-3.173828125,19.599609375,35.716552734375,86.7425537109375
1758786203.216142,-0.74951171875,0.35693359375,0.8056640625,-17.9443359375,4.08935546875,-2.50244140625,19.434814453125,35.782470703125,86.715087890625
1758786203.2264495,-0.74951171875,0.35693359375,0.8056640625,-17.9443359375,4.08935546875,-2.50244140625,19.27001953125,35.848388671875,86.6876220703125
1758786203.2352016,-0.8271484375,0.359375,0.8828125,-17.9443359375,3.5400390625,-1.46484375,19.1162109375,35.9088134765625,86.671142578125
1758786203.246123,-0.8271484375,0.359375,0.8828125,-17.9443359375,3.5400390625,-1.46484375,18.9569091796875,35.96923828125,86.6546630859375
1758786203.2556949,-0.7626953125,0.28515625,0.78466796875,-14.46533203125,-0.3662109375,-1.0986328125,18.83056640625,35.9912109375,86.627197265625
1758786203.2658937,-0.7626953125,0.28515625,0.78466796875,-14.46533203125,-0.3662109375,-1.0986328125,18.69873046875,36.01318359375,86.59423828125
1758786203.2756593,-0.6650390625,0.19482421875,0.77099609375,-17.08984375,-0.48828125,-0.67138671875,18.544921875,36.0406494140625,86.5667724609375
1758786203.2863514,-0.6650390625,0.19482421875,0.77099609375,-17.08984375,-0.48828125,-0.67138671875,18.3856201171875,36.0626220703125,86.5447998046875
1758786203.2952302,-0.58154296875,0.21240234375,0.68212890625,-22.8271484375,-1.0986328125,-0.732421875,18.1658935546875,36.0736083984375,86.517333984375
1758786203.3063977,-0.58154296875,0.21240234375,0.68212890625,-22.8271484375,-1.0986328125,-0.732421875,17.940673828125,36.090087890625,86.4898681640625
1758786203.3160665,-0.60205078125,0.24658203125,0.57763671875,-27.28271484375,0.0,-0.244140625,17.6824951171875,36.1175537109375,86.473388671875
1758786203.3258903,-0.60205078125,0.24658203125,0.57763671875,-27.28271484375,0.0,-0.244140625,17.4298095703125,36.14501953125,86.4569091796875
1758786203.3353436,-0.6123046875,0.24560546875,0.60986328125,-15.56396484375,0.732421875,-0.6103515625,17.29248046875,36.177978515625,86.4349365234375
1758786203.3453324,-0.6123046875,0.24560546875,0.60986328125,-15.56396484375,0.732421875,-0.6103515625,17.1551513671875,36.2164306640625,86.4129638671875
1758786203.3553362,-0.6044921875,0.20166015625,0.66259765625,4.8828125,1.89208984375,-0.79345703125,17.2265625,36.265869140625,86.3909912109375
1758786203.3669684,-0.6044921875,0.20166015625,0.66259765625,4.8828125,1.89208984375,-0.79345703125,17.29248046875,36.3153076171875,86.3690185546875
1758786203.3754277,-0.6171875,0.21826171875,0.69921875,12.75634765625,2.99072265625,-1.5869140625,17.4298095703125,36.375732421875,86.3470458984375
1758786203.3854272,-0.6171875,0.21826171875,0.69921875,12.75634765625,2.99072265625,-1.5869140625,17.567138671875,36.4361572265625,86.3250732421875
1758786203.3954787,-0.6328125,0.24462890625,0.8447265625,11.16943359375,2.685546875,-2.86865234375,17.677001953125,36.4910888671875,86.28662109375
1758786203.4058886,-0.6328125,0.24462890625,0.8447265625,11.16943359375,2.685546875,-2.86865234375,17.7813720703125,36.5460205078125,86.253662109375
1758786203.4155815,-0.619140625,0.29150390625,0.88916015625,7.9345703125,1.64794921875,-3.23486328125,17.8472900390625,36.5899658203125,86.209716796875
1758786203.4254436,-0.619140625,0.29150390625,0.88916015625,7.9345703125,1.64794921875,-3.23486328125,17.9132080078125,36.62841796875,86.1712646484375
1758786203.4356875,-0.564453125,0.2705078125,0.79345703125,4.7607421875,0.732421875,-3.72314453125,17.940673828125,36.6558837890625,86.121826171875
1758786203.4458096,-0.564453125,0.2705078125,0.79345703125,4.7607421875,0.732421875,-3.72314453125,17.9736328125,36.6778564453125,86.0723876953125
1758786203.455489,-0.51806640625,0.244140625,0.72314453125,2.13623046875,0.48828125,-3.662109375,17.9736328125,36.6998291015625,86.02294921875
1758786203.46567,-0.51806640625,0.244140625,0.72314453125,2.13623046875,0.48828125,-3.662109375,17.9736328125,36.7218017578125,85.9735107421875
1758786203.4759305,-0.53369140625,0.22900390625,0.71728515625,7.99560546875,1.15966796875,-4.57763671875,18.028564453125,36.7437744140625,85.9185791015625
1758786203.4857714,-0.53369140625,0.22900390625,0.71728515625,7.99560546875,1.15966796875,-4.57763671875,18.08349609375,36.771240234375,85.858154296875
1758786203.495517,-0.53564453125,0.212890625,0.7353515625,13.24462890625,1.52587890625,-5.7373046875,18.1768798828125,36.80419921875,85.792236328125
1758786203.5055032,-0.53564453125,0.212890625,0.7353515625,13.24462890625,1.52587890625,-5.7373046875,18.2757568359375,36.8316650390625,85.726318359375
1758786203.5164936,-0.5791015625,0.2373046875,0.75048828125,12.3291015625,1.708984375,-5.92041015625,18.358154296875,36.8646240234375,85.660400390625
1758786203.525711,-0.5791015625,0.2373046875,0.75048828125,12.3291015625,1.708984375,-5.92041015625,18.4405517578125,36.8975830078125,85.594482421875
1758786203.535708,-0.61474609375,0.2265625,0.80810546875,10.7421875,1.15966796875,-6.4697265625,18.5009765625,36.925048828125,85.5230712890625
1758786203.5455267,-0.61474609375,0.2265625,0.80810546875,10.7421875,1.15966796875,-6.4697265625,18.555908203125,36.9525146484375,85.4461669921875
1758786203.5562792,-0.64990234375,0.19287109375,0.79638671875,13.427734375,0.06103515625,-6.89697265625,18.6328125,36.9744873046875,85.36376953125
1758786203.5660174,-0.64990234375,0.19287109375,0.79638671875,13.427734375,0.06103515625,-6.89697265625,18.709716796875,36.9964599609375,85.286865234375
1758786203.5756435,-0.6455078125,0.16455078125,0.73046875,10.31494140625,-0.732421875,-7.01904296875,18.7481689453125,37.012939453125,85.198974609375
1758786203.5857084,-0.6455078125,0.16455078125,0.73046875,10.31494140625,-0.732421875,-7.01904296875,18.7811279296875,37.0294189453125,85.1165771484375
1758786203.5963838,-0.6875,0.201171875,0.6884765625,9.70458984375,-1.28173828125,-6.7138671875,18.8140869140625,37.0458984375,85.0341796875
1758786203.6056511,-0.6875,0.201171875,0.6884765625,9.70458984375,-1.28173828125,-6.7138671875,18.841552734375,37.0623779296875,84.9517822265625
1758786203.6163824,-0.66748046875,0.25048828125,0.6962890625,18.6767578125,-1.953125,-5.9814453125,18.9678955078125,37.078857421875,84.8748779296875
1758786203.6259537,-0.66748046875,0.25048828125,0.6962890625,18.6767578125,-1.953125,-5.9814453125,19.09423828125,37.08984375,84.7979736328125
1758786203.6367733,-0.69873046875,0.3017578125,0.7119140625,23.01025390625,-1.953125,-5.2490234375,19.27001953125,37.1063232421875,84.7210693359375
1758786203.645711,-0.69873046875,0.3017578125,0.7119140625,23.01025390625,-1.953125,-5.2490234375,19.44580078125,37.1173095703125,84.649658203125
1758786203.6560528,-0.6962890625,0.32861328125,0.71142578125,12.20703125,-1.8310546875,-4.08935546875,19.5281982421875,37.1337890625,84.5892333984375
1758786203.6667612,-0.6962890625,0.32861328125,0.71142578125,12.20703125,-1.8310546875,-4.08935546875,19.6160888671875,37.1502685546875,84.52880859375
1758786203.676727,-0.69189453125,0.32080078125,0.73828125,1.8310546875,-1.46484375,-2.74658203125,19.610595703125,37.1612548828125,84.4793701171875
1758786203.6858547,-0.69189453125,0.32080078125,0.73828125,1.8310546875,-1.46484375,-2.74658203125,19.6051025390625,37.177734375,84.429931640625
1758786203.6961668,-0.677734375,0.2890625,0.72021484375,-3.84521484375,-1.40380859375,-2.01416015625,19.5556640625,37.188720703125,84.3914794921875
1758786203.7062774,-0.677734375,0.2890625,0.72021484375,-3.84521484375,-1.40380859375,-2.01416015625,19.500732421875,37.2052001953125,84.3475341796875
1758786203.7165124,-0.6455078125,0.2841796875,0.71875,-5.31005859375,-1.220703125,-1.5869140625,19.4403076171875,37.2161865234375,84.30908203125
1758786203.725793,-0.6455078125,0.2841796875,0.71875,-5.31005859375,-1.220703125,-1.5869140625,19.3798828125,37.2271728515625,84.276123046875
1758786203.7363467,-0.64794921875,0.2822265625,0.712890625,-6.65283203125,-1.15966796875,-0.9765625,19.31396484375,37.2381591796875,84.2431640625
1758786203.7462568,-0.64794921875,0.2822265625,0.712890625,-6.65283203125,-1.15966796875,-0.9765625,19.248046875,37.2491455078125,84.210205078125
1758786203.7563345,-0.64453125,0.275390625,0.72314453125,-8.11767578125,-1.15966796875,-0.54931640625,19.1656494140625,37.2601318359375,84.188232421875
1758786203.7662861,-0.64453125,0.275390625,0.72314453125,-8.11767578125,-1.15966796875,-0.54931640625,19.0887451171875,37.265625,84.1607666015625
1758786203.7768106,-0.64453125,0.275390625,0.72314453125,-12.3291015625,-0.67138671875,-0.244140625,18.973388671875,37.2821044921875,84.1387939453125
1758786203.7861722,-0.64111328125,0.27294921875,0.71337890625,-12.3291015625,-0.67138671875,-0.244140625,18.8580322265625,37.2930908203125,84.122314453125
1758786203.7963758,-0.6201171875,0.2841796875,0.708984375,-12.51220703125,-0.91552734375,-0.1220703125,18.74267578125,37.298583984375,84.100341796875
1758786203.8062775,-0.6201171875,0.2841796875,0.708984375,-12.51220703125,-0.91552734375,-0.1220703125,18.6328125,37.3095703125,84.0838623046875
1758786203.8166914,-0.6298828125,0.27490234375,0.72119140625,-11.71875,-0.42724609375,0.0,18.5284423828125,37.320556640625,84.0673828125
1758786203.8259013,-0.62255859375,0.251953125,0.76513671875,-15.9912109375,-0.79345703125,-0.244140625,18.402099609375,37.33154296875,84.04541015625
1758786203.8402252,-0.62255859375,0.251953125,0.76513671875,-15.9912109375,-0.79345703125,-0.244140625,18.2537841796875,37.3370361328125,84.0234375
1758786203.848211,-0.63916015625,0.2265625,0.78125,-15.31982421875,-0.8544921875,0.244140625,18.10546875,37.342529296875,84.0069580078125
1758786203.8560169,-0.63916015625,0.2265625,0.78125,-15.31982421875,-0.8544921875,0.244140625,17.962646484375,37.342529296875,83.9959716796875
1758786203.8667848,-0.64208984375,0.220703125,0.7890625,-15.80810546875,-1.708984375,0.67138671875,17.81982421875,37.342529296875,83.9849853515625
1758786203.8763704,-0.64208984375,0.220703125,0.7890625,-15.80810546875,-1.708984375,0.67138671875,17.6715087890625,37.33154296875,83.9739990234375
1758786203.886077,-0.61669921875,0.21630859375,0.7744140625,-10.986328125,-1.953125,0.54931640625,17.545166015625,37.3260498046875,83.95751953125
1758786203.896161,-0.61669921875,0.21630859375,0.7744140625,-10.986328125,-1.953125,0.54931640625,17.4407958984375,37.3150634765625,83.946533203125
1758786203.9060812,-0.6171875,0.2041015625,0.78173828125,-3.41796875,-2.3193359375,0.732421875,17.3748779296875,37.298583984375,83.935546875
1758786203.9165757,-0.6171875,0.2041015625,0.78173828125,-3.41796875,-2.3193359375,0.732421875,17.3419189453125,37.2821044921875,83.9300537109375
1758786203.926014,-0.62646484375,0.21728515625,0.7734375,-2.13623046875,-2.9296875,1.3427734375,17.3199462890625,37.2601318359375,83.924560546875
1758786203.9365914,-0.62646484375,0.21728515625,0.7734375,-2.13623046875,-2.9296875,1.3427734375,17.2979736328125,37.2381591796875,83.9190673828125
1758786203.946205,-0.60400390625,0.2333984375,0.78857421875,-4.0283203125,-3.7841796875,1.77001953125,17.2705078125,37.2052001953125,83.9190673828125
1758786203.95602,-0.60400390625,0.2333984375,0.78857421875,-4.0283203125,-3.7841796875,1.77001953125,17.237548828125,37.1722412109375,83.91357421875
1758786203.9660404,-0.5869140625,0.22998046875,0.748046875,3.84521484375,-3.90625,2.01416015625,17.237548828125,37.1337890625,83.91357421875
1758786203.9765012,-0.5869140625,0.22998046875,0.748046875,3.84521484375,-3.90625,2.01416015625,17.281494140625,37.0953369140625,83.91357421875
1758786203.986199,-0.55078125,0.2177734375,0.73583984375,8.056640625,-3.72314453125,2.01416015625,17.347412109375,37.056884765625,83.91357421875
1758786203.9960635,-0.55078125,0.2177734375,0.73583984375,8.056640625,-3.72314453125,2.01416015625,17.4298095703125,37.0184326171875,83.91357421875
1758786204.0066128,-0.560546875,0.22900390625,0.75146484375,3.5400390625,-3.60107421875,2.197265625,17.490234375,36.97998046875,83.9190673828125
1758786204.016109,-0.560546875,0.22900390625,0.75146484375,3.5400390625,-3.60107421875,2.197265625,17.5341796875,36.9415283203125,83.9190673828125
1758786204.026079,-0.5654296875,0.24560546875,0.77099609375,3.90625,-2.99072265625,2.3193359375,17.5726318359375,36.903076171875,83.9300537109375
1758786204.0361152,-0.5654296875,0.24560546875,0.77099609375,3.90625,-2.99072265625,2.3193359375,17.6220703125,36.8701171875,83.935546875
1758786204.0465539,-0.564453125,0.2392578125,0.7705078125,4.638671875,-2.86865234375,2.685546875,17.6715087890625,36.8316650390625,83.946533203125
1758786204.0561204,-0.564453125,0.2392578125,0.7705078125,4.638671875,-2.86865234375,2.685546875,17.7264404296875,36.793212890625,83.95751953125
1758786204.0662305,-0.60107421875,0.2626953125,0.7861328125,1.953125,-2.62451171875,3.5400390625,17.7703857421875,36.7547607421875,83.9794921875
1758786204.0765665,-0.60107421875,0.2626953125,0.7861328125,1.953125,-2.62451171875,3.5400390625,17.808837890625,36.71630859375,84.0069580078125
1758786204.087004,-0.62646484375,0.25732421875,0.78662109375,0.67138671875,-3.2958984375,4.08935546875,17.8363037109375,36.6778564453125,84.0289306640625
1758786204.0963042,-0.62646484375,0.25732421875,0.78662109375,0.67138671875,-3.2958984375,4.08935546875,17.86376953125,36.62841796875,84.0618896484375
1758786204.1066039,-0.626953125,0.2421875,0.78564453125,3.5400390625,-4.33349609375,4.82177734375,17.9022216796875,36.5789794921875,84.08935546875
1758786204.1164155,-0.626953125,0.2421875,0.78564453125,3.5400390625,-4.33349609375,4.82177734375,17.962646484375,36.5240478515625,84.122314453125
1758786204.1273222,-0.64208984375,0.208984375,0.78173828125,11.71875,-4.57763671875,4.8828125,18.0560302734375,36.4691162109375,84.1552734375
1758786204.136323,-0.64208984375,0.208984375,0.78173828125,11.71875,-4.57763671875,4.8828125,18.193359375,36.40869140625,84.188232421875
1758786204.1466954,-0.6376953125,0.19140625,0.775390625,12.6953125,-4.94384765625,5.0048828125,18.3306884765625,36.353759765625,84.22119140625
1758786204.1568253,-0.6376953125,0.19140625,0.775390625,12.6953125,-4.94384765625,5.0048828125,18.468017578125,36.298828125,84.254150390625
1758786204.1665235,-0.6142578125,0.224609375,0.75390625,8.85009765625,-5.2490234375,4.8828125,18.5888671875,36.2384033203125,84.287109375
1758786204.1762493,-0.6142578125,0.224609375,0.75390625,8.85009765625,-5.2490234375,4.8828125,18.6822509765625,36.177978515625,84.320068359375
1758786204.1875691,-0.5537109375,0.26416015625,0.7236328125,10.986328125,-5.615234375,4.33349609375,18.78662109375,36.123046875,84.3475341796875
1758786204.1966503,-0.5537109375,0.26416015625,0.7236328125,10.986328125,-5.615234375,4.33349609375,18.9019775390625,36.0626220703125,84.3695068359375
1758786204.206775,-0.4970703125,0.2802734375,0.73828125,10.3759765625,-5.126953125,4.39453125,19.017333984375,36.002197265625,84.39697265625
1758786204.216545,-0.4970703125,0.2802734375,0.73828125,10.3759765625,-5.126953125,4.39453125,19.127197265625,35.9417724609375,84.4189453125
1758786204.226806,-0.4716796875,0.29296875,0.79443359375,6.65283203125,-4.638671875,4.39453125,19.22607421875,35.8868408203125,84.44091796875
1758786204.2362719,-0.4716796875,0.29296875,0.79443359375,6.65283203125,-4.638671875,4.39453125,19.302978515625,35.8209228515625,84.4683837890625
1758786204.2468638,-0.529296875,0.2666015625,0.79296875,9.46044921875,-3.72314453125,3.2958984375,19.390869140625,35.7659912109375,84.4903564453125
1758786204.2566814,-0.529296875,0.2666015625,0.79296875,9.46044921875,-3.72314453125,3.2958984375,19.4952392578125,35.7110595703125,84.5068359375
1758786204.266852,-0.529296875,0.2666015625,0.79296875,10.8642578125,-5.06591796875,2.74658203125,19.599609375,35.6561279296875,84.517822265625
1758786204.2763116,-0.51513671875,0.2373046875,0.89453125,10.8642578125,-5.06591796875,2.74658203125,19.698486328125,35.584716796875,84.52880859375
1758786204.287285,-0.52099609375,0.23388671875,0.8857421875,12.39013671875,-5.9814453125,1.8310546875,19.808349609375,35.5133056640625,84.52880859375
1758786204.2967422,-0.52099609375,0.23388671875,0.8857421875,12.39013671875,-5.9814453125,1.8310546875,19.9127197265625,35.4364013671875,84.5233154296875
1758786204.3064153,-0.455078125,0.244140625,0.84814453125,17.578125,-7.14111328125,1.52587890625,20.0390625,35.3485107421875,84.517822265625
1758786204.3164198,-0.455078125,0.244140625,0.84814453125,17.578125,-7.14111328125,1.52587890625,20.1873779296875,35.2606201171875,84.5068359375
1758786204.3269308,-0.4609375,0.255859375,0.861328125,32.77587890625,-6.89697265625,0.30517578125,20.4071044921875,35.167236328125,84.4903564453125
1758786204.3371127,-0.4609375,0.255859375,0.861328125,32.77587890625,-6.89697265625,0.30517578125,20.6982421875,35.079345703125,84.462890625
1758786204.3464427,-0.498046875,0.22802734375,0.7998046875,41.44287109375,-5.43212890625,-1.220703125,21.0223388671875,34.9969482421875,84.4354248046875
1758786204.3564134,-0.498046875,0.22802734375,0.7998046875,41.44287109375,-5.43212890625,-1.220703125,21.3848876953125,34.925537109375,84.407958984375
1758786204.3664405,-0.52001953125,0.248046875,0.79638671875,44.189453125,-4.33349609375,-2.62451171875,21.7584228515625,34.8651123046875,84.3695068359375
1758786204.376801,-0.52001953125,0.248046875,0.79638671875,44.189453125,-4.33349609375,-2.62451171875,22.1429443359375,34.8101806640625,84.3310546875
1758786204.386366,-0.521484375,0.31298828125,0.76025390625,40.283203125,-2.50244140625,-3.41796875,22.5,34.7662353515625,84.287109375
1758786204.3963697,-0.521484375,0.31298828125,0.76025390625,40.283203125,-2.50244140625,-3.41796875,22.8460693359375,34.73876953125,84.2431640625
1758786204.4066377,-0.50634765625,0.37353515625,0.70947265625,26.55029296875,-0.91552734375,-3.7841796875,23.1207275390625,34.716796875,84.2047119140625
1758786204.4168637,-0.50634765625,0.37353515625,0.70947265625,26.55029296875,-0.91552734375,-3.7841796875,23.3294677734375,34.7003173828125,84.1607666015625
1758786204.426923,-0.50830078125,0.3896484375,0.7080078125,15.56396484375,0.8544921875,-4.2724609375,23.4942626953125,34.7003173828125,84.1168212890625
1758786204.436551,-0.50830078125,0.3896484375,0.7080078125,15.56396484375,0.8544921875,-4.2724609375,23.6041259765625,34.705810546875,84.0728759765625
1758786204.446922,-0.54296875,0.4111328125,0.7041015625,0.6103515625,1.40380859375,-3.96728515625,23.6480712890625,34.7113037109375,84.034423828125
1758786204.4566717,-0.54296875,0.4111328125,0.7041015625,0.6103515625,1.40380859375,-3.96728515625,23.6260986328125,34.727783203125,83.990478515625
1758786204.4665227,-0.56201171875,0.37548828125,0.73095703125,-19.4091796875,2.3193359375,-3.173828125,23.5107421875,34.7442626953125,83.9520263671875
1758786204.4765153,-0.56201171875,0.37548828125,0.73095703125,-19.4091796875,2.3193359375,-3.173828125,23.302001953125,34.7607421875,83.924560546875
1758786204.4872708,-0.5576171875,0.3251953125,0.73046875,-27.52685546875,1.8310546875,-3.0517578125,23.060302734375,34.7772216796875,83.8861083984375
1758786204.4966974,-0.5576171875,0.3251953125,0.73046875,-27.52685546875,1.8310546875,-3.0517578125,22.774658203125,34.7991943359375,83.8531494140625
1758786204.506524,-0.5859375,0.2998046875,0.74365234375,-24.2919921875,2.25830078125,-1.5869140625,22.510986328125,34.815673828125,83.82568359375
1758786204.5169017,-0.5859375,0.2998046875,0.74365234375,-24.2919921875,2.25830078125,-1.5869140625,22.269287109375,34.8321533203125,83.8092041015625
1758786204.5268755,-0.61669921875,0.2822265625,0.7685546875,-9.521484375,2.13623046875,-1.953125,22.1044921875,34.8541259765625,83.7872314453125
1758786204.5372298,-0.61669921875,0.2822265625,0.7685546875,-9.521484375,2.13623046875,-1.953125,22.005615234375,34.8760986328125,83.7652587890625
1758786204.5465932,-0.6142578125,0.26611328125,0.7578125,15.07568359375,1.40380859375,-2.25830078125,22.027587890625,34.892578125,83.73779296875
1758786204.5570004,-0.6142578125,0.26611328125,0.7578125,15.07568359375,1.40380859375,-2.25830078125,22.17041015625,34.91455078125,83.7103271484375
1758786204.5669744,-0.63330078125,0.27783203125,0.75439453125,32.40966796875,0.6103515625,-0.79345703125,22.401123046875,34.9310302734375,83.682861328125
1758786204.5769715,-0.63330078125,0.27783203125,0.75439453125,32.40966796875,0.6103515625,-0.79345703125,22.7142333984375,34.9420166015625,83.6663818359375
1758786204.5865872,-0.65673828125,0.30029296875,0.80078125,33.02001953125,0.6103515625,0.0,23.038330078125,34.9530029296875,83.6553955078125
1758786204.5974534,-0.65673828125,0.30029296875,0.80078125,33.02001953125,0.6103515625,0.0,23.35693359375,34.9639892578125,83.64990234375
1758786204.6070905,-0.66650390625,0.3427734375,0.78466796875,26.4892578125,-0.91552734375,1.15966796875,23.6480712890625,34.9639892578125,83.6444091796875
1758786204.61697,-0.66650390625,0.3427734375,0.78466796875,26.4892578125,-0.91552734375,1.15966796875,23.90625,34.95849609375,83.6444091796875
1758786204.6267455,-0.62646484375,0.38134765625,0.75390625,19.1650390625,-1.46484375,1.77001953125,24.1259765625,34.947509765625,83.6444091796875
1758786204.6376615,-0.62646484375,0.38134765625,0.75390625,19.1650390625,-1.46484375,1.77001953125,24.3182373046875,34.9365234375,83.6444091796875
1758786204.6467087,-0.59521484375,0.35986328125,0.68994140625,13.916015625,-1.40380859375,2.3193359375,24.4830322265625,34.925537109375,83.6444091796875
1758786204.6571584,-0.59521484375,0.35986328125,0.68994140625,13.916015625,-1.40380859375,2.3193359375,24.6258544921875,34.91455078125,83.64990234375
1758786204.6666944,-0.57763671875,0.35498046875,0.65771484375,8.1787109375,-0.48828125,3.35693359375,24.7467041015625,34.903564453125,83.6663818359375
1758786204.6777022,-0.57763671875,0.35498046875,0.65771484375,8.1787109375,-0.48828125,3.35693359375,24.8455810546875,34.892578125,83.682861328125
1758786204.6869314,-0.56787109375,0.34033203125,0.6337890625,1.52587890625,0.42724609375,3.90625,24.9114990234375,34.892578125,83.7103271484375
1758786204.6971936,-0.56787109375,0.34033203125,0.6337890625,1.52587890625,0.42724609375,3.90625,24.9554443359375,34.892578125,83.73779296875
1758786204.7067192,-0.60302734375,0.3720703125,0.67431640625,-2.9296875,1.15966796875,4.39453125,24.9774169921875,34.892578125,83.770751953125
1758786204.7178142,-0.60302734375,0.3720703125,0.67431640625,-2.9296875,1.15966796875,4.39453125,24.98291015625,34.8980712890625,83.8037109375
1758786204.7267642,-0.60302734375,0.3720703125,0.67431640625,-8.36181640625,0.67138671875,3.662109375,24.9609375,34.903564453125,83.8311767578125
1758786204.736729,-0.59375,0.396484375,0.7275390625,-8.36181640625,0.67138671875,3.662109375,24.9114990234375,34.9090576171875,83.8531494140625
1758786204.7469957,-0.59326171875,0.41455078125,0.75390625,-11.5966796875,0.48828125,3.23486328125,24.8455810546875,34.9090576171875,83.8751220703125
1758786204.7572463,-0.59326171875,0.41455078125,0.75390625,-11.5966796875,0.48828125,3.23486328125,24.76318359375,34.9090576171875,83.8861083984375
1758786204.766804,-0.595703125,0.40869140625,0.76416015625,-13.12255859375,0.1220703125,3.2958984375,24.67529296875,34.9090576171875,83.902587890625
1758786204.776926,-0.595703125,0.40869140625,0.76416015625,-13.12255859375,0.1220703125,3.2958984375,24.576416015625,34.903564453125,83.91357421875
1758786204.7875283,-0.59423828125,0.359375,0.7734375,-19.47021484375,0.6103515625,3.5400390625,24.45556640625,34.8980712890625,83.9300537109375
1758786204.7968953,-0.59423828125,0.359375,0.7734375,-19.47021484375,0.6103515625,3.5400390625,24.2962646484375,34.8980712890625,83.946533203125
1758786204.8068786,-0.548828125,0.31494140625,0.77001953125,-22.76611328125,0.18310546875,2.9296875,24.1259765625,34.892578125,83.95751953125
1758786204.8173356,-0.548828125,0.31494140625,0.77001953125,-22.76611328125,0.18310546875,2.9296875,23.92822265625,34.881591796875,83.9630126953125
1758786204.827157,-0.552734375,0.29638671875,0.79931640625,-13.97705078125,0.3662109375,1.89208984375,23.7744140625,34.881591796875,83.968505859375
1758786204.8369482,-0.552734375,0.29638671875,0.79931640625,-13.97705078125,0.3662109375,1.89208984375,23.653564453125,34.8760986328125,83.968505859375
1758786204.847199,-0.5263671875,0.2724609375,0.794921875,0.54931640625,0.67138671875,0.91552734375,23.6041259765625,34.8760986328125,83.9630126953125
1758786204.8573284,-0.5263671875,0.2724609375,0.794921875,0.54931640625,0.67138671875,0.91552734375,23.62060546875,34.8760986328125,83.95751953125
1758786204.8670444,-0.49609375,0.24853515625,0.76953125,11.8408203125,1.28173828125,-0.48828125,23.6865234375,34.881591796875,83.946533203125
1758786204.8772535,-0.49609375,0.24853515625,0.76953125,11.8408203125,1.28173828125,-0.48828125,23.8018798828125,34.892578125,83.924560546875
1758786204.887542,-0.49462890625,0.27392578125,0.75927734375,18.06640625,1.64794921875,-1.89208984375,23.939208984375,34.903564453125,83.902587890625
1758786204.896904,-0.49462890625,0.27392578125,0.75927734375,18.06640625,1.64794921875,-1.89208984375,24.0985107421875,34.9200439453125,83.86962890625
1758786204.9069495,-0.53564453125,0.32470703125,0.78271484375,14.2822265625,2.3193359375,-2.685546875,24.2193603515625,34.9420166015625,83.836669921875
1758786204.9169197,-0.53564453125,0.32470703125,0.78271484375,14.2822265625,2.3193359375,-2.685546875,24.3402099609375,34.969482421875,83.7982177734375
1758786204.927935,-0.55712890625,0.37646484375,0.775390625,13.73291015625,1.953125,-2.99072265625,24.4500732421875,34.9859619140625,83.759765625
1758786204.9369526,-0.55712890625,0.37646484375,0.775390625,13.73291015625,1.953125,-2.99072265625,24.5654296875,35.0079345703125,83.7158203125
1758786204.9469962,-0.55078125,0.37158203125,0.68701171875,11.71875,2.685546875,-3.11279296875,24.664306640625,35.035400390625,83.671875
1758786204.9573555,-0.55078125,0.37158203125,0.68701171875,11.71875,2.685546875,-3.11279296875,24.76318359375,35.0628662109375,83.6279296875
1758786204.967677,-0.59521484375,0.392578125,0.6923828125,7.568359375,2.3193359375,-2.86865234375,24.8236083984375,35.09033203125,83.583984375
1758786204.977208,-0.59521484375,0.392578125,0.6923828125,7.568359375,2.3193359375,-2.86865234375,24.8895263671875,35.1177978515625,83.5345458984375
1758786204.9875503,-0.66552734375,0.45166015625,0.779296875,4.39453125,2.44140625,-1.8310546875,24.927978515625,35.145263671875,83.49609375
1758786204.9974442,-0.66552734375,0.45166015625,0.779296875,4.39453125,2.44140625,-1.8310546875,24.971923828125,35.1727294921875,83.4576416015625
1758786205.0079403,-0.6689453125,0.44287109375,0.7978515625,-3.23486328125,1.40380859375,-1.220703125,24.9444580078125,35.1837158203125,83.419189453125
1758786205.0171328,-0.6689453125,0.44287109375,0.7978515625,-3.23486328125,1.40380859375,-1.220703125,24.9169921875,35.2001953125,83.375244140625
1758786205.0286798,-0.6708984375,0.3876953125,0.7158203125,-17.15087890625,0.732421875,-0.42724609375,24.7576904296875,35.211181640625,83.3367919921875
1758786205.0375104,-0.6708984375,0.3876953125,0.7158203125,-17.15087890625,0.732421875,-0.42724609375,24.598388671875,35.22216796875,83.29833984375
1758786205.0476217,-0.662109375,0.3427734375,0.6806640625,-22.94921875,0.732421875,0.0,24.3896484375,35.233154296875,83.265380859375
1758786205.057199,-0.662109375,0.3427734375,0.6806640625,-22.94921875,0.732421875,0.0,24.1754150390625,35.2496337890625,83.2269287109375
1758786205.0676343,-0.6533203125,0.32080078125,0.62109375,-15.5029296875,1.28173828125,0.42724609375,24.049072265625,35.2716064453125,83.1939697265625
1758786205.078215,-0.6533203125,0.32080078125,0.62109375,-15.5029296875,1.28173828125,0.42724609375,23.917236328125,35.2935791015625,83.1610107421875
1758786205.0878077,-0.64892578125,0.31591796875,0.6083984375,-12.02392578125,1.3427734375,0.3662109375,23.8238525390625,35.321044921875,83.12255859375
1758786205.097248,-0.64892578125,0.31591796875,0.6083984375,-12.02392578125,1.3427734375,0.3662109375,23.73046875,35.35400390625,83.0841064453125
1758786205.1080394,-0.6328125,0.33447265625,0.67626953125,-11.23046875,2.685546875,0.3662109375,23.6480712890625,35.3924560546875,83.0511474609375
1758786205.1176026,-0.6328125,0.33447265625,0.67626953125,-11.23046875,2.685546875,0.3662109375,23.5711669921875,35.4364013671875,83.0126953125
1758786205.1278343,-0.62109375,0.3291015625,0.6689453125,-7.6904296875,2.62451171875,0.30517578125,23.521728515625,35.4803466796875,82.979736328125
1758786205.1372037,-0.62109375,0.3291015625,0.6689453125,-7.6904296875,2.62451171875,0.30517578125,23.477783203125,35.5242919921875,82.9412841796875
1758786205.1485302,-0.63671875,0.3125,0.76171875,-10.25390625,2.50244140625,0.48828125,23.4063720703125,35.5682373046875,82.90283203125
1758786205.1576478,-0.63671875,0.3125,0.76171875,-10.25390625,2.50244140625,0.48828125,23.3294677734375,35.606689453125,82.869873046875
1758786205.1678226,-0.66943359375,0.3154296875,0.771484375,-16.78466796875,2.25830078125,0.67138671875,23.1866455078125,35.6451416015625,82.8369140625
1758786205.177517,-0.66943359375,0.3154296875,0.771484375,-16.78466796875,2.25830078125,0.67138671875,23.0438232421875,35.6781005859375,82.803955078125
1758786205.187954,-0.6416015625,0.32763671875,0.7509765625,-13.671875,1.40380859375,0.8544921875,22.9339599609375,35.7110595703125,82.7655029296875
1758786205.19769,-0.6416015625,0.32763671875,0.7509765625,-13.671875,1.40380859375,0.8544921875,22.818603515625,35.7330322265625,82.72705078125
1758786205.2073286,-0.6083984375,0.30419921875,0.67333984375,-9.09423828125,1.15966796875,0.18310546875,22.7471923828125,35.760498046875,82.68310546875
1758786205.2172859,-0.6083984375,0.30419921875,0.67333984375,-9.09423828125,1.15966796875,0.18310546875,22.67578125,35.7879638671875,82.63916015625
1758786205.2276843,-0.6162109375,0.306640625,0.70361328125,-6.9580078125,1.220703125,0.1220703125,22.6263427734375,35.8209228515625,82.5897216796875
1758786205.2376754,-0.6162109375,0.306640625,0.70361328125,-6.9580078125,1.220703125,0.1220703125,22.5714111328125,35.848388671875,82.540283203125
1758786205.247339,-0.6103515625,0.31982421875,0.7080078125,-4.0283203125,1.5869140625,0.0,22.5494384765625,35.8758544921875,82.496337890625
1758786205.2573435,-0.6103515625,0.31982421875,0.7080078125,-4.0283203125,1.5869140625,0.0,22.5274658203125,35.9088134765625,82.4468994140625
1758786205.267905,-0.6103515625,0.31982421875,0.7080078125,-5.37109375,1.52587890625,0.18310546875,22.4945068359375,35.936279296875,82.4029541015625
1758786205.2779272,-0.5927734375,0.330078125,0.7265625,-5.37109375,1.52587890625,0.18310546875,22.4560546875,35.9637451171875,82.353515625
1758786205.2873907,-0.576171875,0.33740234375,0.748046875,-3.41796875,1.77001953125,0.30517578125,22.445068359375,35.9912109375,82.3095703125
1758786205.2974284,-0.576171875,0.33740234375,0.748046875,-3.41796875,1.77001953125,0.30517578125,22.4285888671875,36.0186767578125,82.265625
1758786205.3076105,-0.59619140625,0.3115234375,0.71728515625,-1.28173828125,2.38037109375,0.6103515625,22.4395751953125,36.046142578125,82.232666015625
1758786205.3174365,-0.59619140625,0.3115234375,0.71728515625,-1.28173828125,2.38037109375,0.6103515625,22.4505615234375,36.0736083984375,82.1942138671875
1758786205.3286731,-0.6083984375,0.318359375,0.75927734375,-3.7841796875,0.8544921875,1.03759765625,22.43408203125,36.0845947265625,82.15576171875
1758786205.3375916,-0.6083984375,0.318359375,0.75927734375,-3.7841796875,0.8544921875,1.03759765625,22.412109375,36.0955810546875,82.1173095703125
1758786205.3476992,-0.580078125,0.31494140625,0.79541015625,-4.82177734375,1.03759765625,1.0986328125,22.3846435546875,36.112060546875,82.0843505859375
1758786205.3574598,-0.580078125,0.31494140625,0.79541015625,-4.82177734375,1.03759765625,1.0986328125,22.357177734375,36.1175537109375,82.0513916015625
1758786205.3674846,-0.56005859375,0.32763671875,0.76708984375,-10.009765625,-0.18310546875,1.46484375,22.269287109375,36.112060546875,82.012939453125
1758786205.3779924,-0.56005859375,0.32763671875,0.76708984375,-10.009765625,-0.18310546875,1.46484375,22.1868896484375,36.1065673828125,81.97998046875
1758786205.3881664,-0.5439453125,0.34130859375,0.78515625,-10.009765625,-0.3662109375,1.40380859375,22.1044921875,36.0955810546875,81.9415283203125
1758786205.3974824,-0.5439453125,0.34130859375,0.78515625,-10.009765625,-0.3662109375,1.40380859375,22.0220947265625,36.0845947265625,81.903076171875
1758786205.407501,-0.529296875,0.337890625,0.7880859375,-10.498046875,-0.79345703125,1.708984375,21.9342041015625,36.068115234375,81.8701171875
1758786205.4174833,-0.529296875,0.337890625,0.7880859375,-10.498046875,-0.79345703125,1.708984375,21.8463134765625,36.046142578125,81.8316650390625
1758786205.4287295,-0.48828125,0.30615234375,0.7939453125,-11.5966796875,-0.67138671875,1.46484375,21.7474365234375,36.024169921875,81.7987060546875
1758786205.4375086,-0.48828125,0.30615234375,0.7939453125,-11.5966796875,-0.67138671875,1.46484375,21.6485595703125,36.002197265625,81.7657470703125
1758786205.447557,-0.46533203125,0.271484375,0.79345703125,-9.033203125,0.06103515625,1.0986328125,21.566162109375,35.980224609375,81.727294921875
1758786205.4586422,-0.46533203125,0.271484375,0.79345703125,-9.033203125,0.06103515625,1.0986328125,21.4892578125,35.9637451171875,81.6943359375
1758786205.4676316,-0.462890625,0.27685546875,0.82373046875,-1.708984375,0.244140625,-0.30517578125,21.4727783203125,35.947265625,81.6448974609375
1758786205.4783015,-0.462890625,0.27685546875,0.82373046875,-1.708984375,0.244140625,-0.30517578125,21.4508056640625,35.92529296875,81.595458984375
1758786205.4877622,-0.4423828125,0.2919921875,0.85546875,5.06591796875,0.79345703125,-1.52587890625,21.4892578125,35.914306640625,81.54052734375
1758786205.4985185,-0.4423828125,0.2919921875,0.85546875,5.06591796875,0.79345703125,-1.52587890625,21.5277099609375,35.8978271484375,81.485595703125
1758786205.5076618,-0.45947265625,0.28369140625,0.83837890625,5.06591796875,1.220703125,-2.99072265625,21.55517578125,35.892333984375,81.4141845703125
1758786205.5180428,-0.45947265625,0.28369140625,0.83837890625,5.06591796875,1.220703125,-2.99072265625,21.5826416015625,35.88134765625,81.3482666015625
1758786205.5287576,-0.4736328125,0.294921875,0.802734375,-0.9765625,2.01416015625,-4.5166015625,21.5386962890625,35.88134765625,81.265869140625
1758786205.538263,-0.4736328125,0.294921875,0.802734375,-0.9765625,2.01416015625,-4.5166015625,21.4947509765625,35.88134765625,81.177978515625
1758786205.547721,-0.49072265625,0.30517578125,0.73876953125,1.52587890625,3.11279296875,-6.103515625,21.46728515625,35.8978271484375,81.0791015625
1758786205.5580175,-0.49072265625,0.30517578125,0.73876953125,1.52587890625,3.11279296875,-6.103515625,21.4453125,35.9197998046875,80.980224609375
1758786205.5680435,-0.556640625,0.3232421875,0.79443359375,-4.638671875,3.41796875,-7.01904296875,21.3519287109375,35.9417724609375,80.8648681640625
1758786205.5782268,-0.556640625,0.3232421875,0.79443359375,-4.638671875,3.41796875,-7.01904296875,21.2640380859375,35.96923828125,80.7550048828125
1758786205.5878723,-0.63818359375,0.32421875,0.89404296875,-12.3291015625,2.50244140625,-7.38525390625,21.09375,35.9912109375,80.628662109375
1758786205.5991745,-0.63818359375,0.32421875,0.89404296875,-12.3291015625,2.50244140625,-7.38525390625,20.9234619140625,36.01318359375,80.5078125
1758786205.6080287,-0.662109375,0.28564453125,0.9345703125,-17.333984375,0.48828125,-7.080078125,20.7037353515625,36.0186767578125,80.3759765625
1758786205.6184025,-0.662109375,0.28564453125,0.9345703125,-17.333984375,0.48828125,-7.080078125,20.478515625,36.024169921875,80.2496337890625
1758786205.6281486,-0.61328125,0.24755859375,0.8056640625,-18.12744140625,-0.3662109375,-5.92041015625,20.247802734375,36.0186767578125,80.1287841796875
1758786205.638316,-0.61328125,0.24755859375,0.8056640625,-18.12744140625,-0.3662109375,-5.92041015625,20.0225830078125,36.01318359375,80.0079345703125
1758786205.6478078,-0.568359375,0.25927734375,0.68603515625,-7.568359375,-0.30517578125,-6.103515625,19.9017333984375,36.01318359375,79.881591796875
1758786205.6583157,-0.568359375,0.25927734375,0.68603515625,-7.568359375,-0.30517578125,-6.103515625,19.7808837890625,36.0186767578125,79.7552490234375
1758786205.668356,-0.55224609375,0.29052734375,0.6650390625,12.8173828125,1.52587890625,-7.14111328125,19.86328125,36.046142578125,79.617919921875
1758786205.677796,-0.55224609375,0.29052734375,0.6650390625,12.8173828125,1.52587890625,-7.14111328125,19.9456787109375,36.0736083984375,79.4805908203125
1758786205.6878161,-0.5849609375,0.26220703125,0.62841796875,22.216796875,3.23486328125,-8.48388671875,20.1214599609375,36.123046875,79.3377685546875
1758786205.6978226,-0.5849609375,0.26220703125,0.62841796875,22.216796875,3.23486328125,-8.48388671875,20.291748046875,36.177978515625,79.1839599609375
1758786205.7083683,-0.61669921875,0.27001953125,0.701171875,16.845703125,4.150390625,-8.6669921875,20.41259765625,36.243896484375,79.03564453125
1758786205.7178924,-0.61669921875,0.27001953125,0.701171875,16.845703125,4.150390625,-8.6669921875,20.533447265625,36.309814453125,78.8873291015625
1758786205.7278676,-0.61669921875,0.27001953125,0.701171875,10.31494140625,4.2724609375,-7.50732421875,20.599365234375,36.375732421875,78.75
1758786205.737939,-0.6162109375,0.306640625,0.72216796875,10.31494140625,4.2724609375,-7.50732421875,20.665283203125,36.441650390625,78.6126708984375
1758786205.7482653,-0.59912109375,0.31689453125,0.783203125,7.01904296875,3.96728515625,-6.8359375,20.7037353515625,36.5020751953125,78.486328125
1758786205.7579546,-0.59912109375,0.31689453125,0.783203125,7.01904296875,3.96728515625,-6.8359375,20.7366943359375,36.5625,78.3544921875
1758786205.7681034,-0.6220703125,0.30615234375,0.7802734375,-4.39453125,3.0517578125,-5.9814453125,20.665283203125,36.6064453125,78.2281494140625
1758786205.778343,-0.6220703125,0.30615234375,0.7802734375,-4.39453125,3.0517578125,-5.9814453125,20.5938720703125,36.6558837890625,78.1072998046875
1758786205.788057,-0.6259765625,0.31103515625,0.80224609375,-12.51220703125,2.5634765625,-4.21142578125,20.4510498046875,36.6888427734375,77.9974365234375
1758786205.7979903,-0.6259765625,0.31103515625,0.80224609375,-12.51220703125,2.5634765625,-4.21142578125,20.3082275390625,36.727294921875,77.89306640625
1758786205.80809,-0.6220703125,0.267578125,0.7646484375,-12.75634765625,2.50244140625,-3.173828125,20.1708984375,36.76025390625,77.794189453125
1758786205.8183904,-0.6220703125,0.267578125,0.7646484375,-12.75634765625,2.50244140625,-3.173828125,20.028076171875,36.7877197265625,77.6953125
1758786205.8280697,-0.63134765625,0.228515625,0.7607421875,-19.53125,1.220703125,-2.44140625,19.8248291015625,36.8096923828125,77.6019287109375
1758786205.8381088,-0.63134765625,0.228515625,0.7607421875,-19.53125,1.220703125,-2.44140625,19.62158203125,36.826171875,77.508544921875
1758786205.8482997,-0.63623046875,0.2265625,0.7646484375,-20.751953125,1.77001953125,-2.50244140625,19.40185546875,36.8536376953125,77.4151611328125
1758786205.858034,-0.63623046875,0.2265625,0.7646484375,-20.751953125,1.77001953125,-2.50244140625,19.18212890625,36.881103515625,77.32177734375
1758786205.86809,-0.61328125,0.22119140625,0.7080078125,-9.033203125,2.44140625,-3.60107421875,19.0777587890625,36.9195556640625,77.222900390625
1758786205.8785877,-0.61328125,0.22119140625,0.7080078125,-9.033203125,2.44140625,-3.60107421875,18.9678955078125,36.9580078125,77.1185302734375
1758786205.8881195,-0.5947265625,0.21142578125,0.6865234375,2.74658203125,3.84521484375,-4.82177734375,18.9678955078125,37.012939453125,77.0086669921875
1758786205.8980656,-0.5947265625,0.21142578125,0.6865234375,2.74658203125,3.84521484375,-4.82177734375,18.973388671875,37.06787109375,76.8988037109375
1758786205.9083133,-0.59765625,0.24169921875,0.7158203125,6.7138671875,5.18798828125,-5.79833984375,19.0118408203125,37.144775390625,76.7779541015625
1758786205.918485,-0.59765625,0.24169921875,0.7158203125,6.7138671875,5.18798828125,-5.79833984375,19.05029296875,37.2161865234375,76.66259765625
1758786205.9290686,-0.62158203125,0.251953125,0.74560546875,14.5263671875,6.2255859375,-7.2021484375,19.1546630859375,37.3040771484375,76.5362548828125
1758786205.938071,-0.6259765625,0.248046875,0.76220703125,30.1513671875,6.4697265625,-8.11767578125,19.3359375,37.3919677734375,76.4044189453125
1758786205.9484773,-0.6259765625,0.248046875,0.76220703125,30.1513671875,6.4697265625,-8.11767578125,19.588623046875,37.4853515625,76.2725830078125
1758786205.9583683,-0.6240234375,0.21875,0.76318359375,37.53662109375,7.4462890625,-9.521484375,19.874267578125,37.584228515625,76.13525390625
1758786205.968543,-0.6240234375,0.21875,0.76318359375,37.53662109375,7.4462890625,-9.521484375,20.19287109375,37.6885986328125,75.992431640625
1758786205.978161,-0.62353515625,0.21728515625,0.74853515625,35.94970703125,7.6904296875,-8.1787109375,20.50048828125,37.79296875,75.860595703125
1758786205.9891028,-0.62353515625,0.21728515625,0.74853515625,35.94970703125,7.6904296875,-8.1787109375,20.80810546875,37.8973388671875,75.7452392578125
1758786205.9986033,-0.583984375,0.2607421875,0.76904296875,37.841796875,8.48388671875,-8.72802734375,21.11572265625,38.0072021484375,75.6243896484375
1758786206.0085485,-0.583984375,0.2607421875,0.76904296875,37.841796875,8.48388671875,-8.72802734375,21.434326171875,38.1170654296875,75.509033203125
1758786206.0183113,-0.57763671875,0.27978515625,0.72998046875,37.841796875,8.7890625,-9.27734375,21.7474365234375,38.2269287109375,75.399169921875
1758786206.0289524,-0.57763671875,0.27978515625,0.72998046875,37.841796875,8.7890625,-9.27734375,22.0660400390625,38.34228515625,75.2838134765625
1758786206.0387177,-0.5751953125,0.29345703125,0.71923828125,30.8837890625,8.72802734375,-9.1552734375,22.34619140625,38.4521484375,75.1739501953125
1758786206.048932,-0.5751953125,0.29345703125,0.71923828125,30.8837890625,8.72802734375,-9.1552734375,22.587890625,38.56201171875,75.0640869140625
1758786206.0584886,-0.578125,0.31005859375,0.6787109375,21.484375,8.60595703125,-8.30078125,22.7911376953125,38.671875,74.959716796875
1758786206.0689862,-0.578125,0.31005859375,0.6787109375,21.484375,8.60595703125,-8.30078125,22.950439453125,38.7762451171875,74.86083984375
1758786206.078392,-0.60791015625,0.341796875,0.7021484375,4.39453125,7.568359375,-6.9580078125,23.0328369140625,38.86962890625,74.77294921875
1758786206.0890324,-0.60791015625,0.341796875,0.7021484375,4.39453125,7.568359375,-6.9580078125,23.038330078125,38.95751953125,74.68505859375
1758786206.0989122,-0.6318359375,0.388671875,0.73876953125,-15.56396484375,6.28662109375,-5.126953125,22.9449462890625,39.0399169921875,74.608154296875
1758786206.1089575,-0.6318359375,0.388671875,0.73876953125,-15.56396484375,6.28662109375,-5.126953125,22.7691650390625,39.1058349609375,74.5367431640625
1758786206.1183178,-0.6494140625,0.35791015625,0.65087890625,-26.30615234375,5.615234375,-4.0283203125,22.5439453125,39.1717529296875,74.4708251953125
1758786206.1293879,-0.6494140625,0.35791015625,0.65087890625,-26.30615234375,5.615234375,-4.0283203125,22.269287109375,39.232177734375,74.4049072265625
1758786206.1385167,-0.6826171875,0.30810546875,0.66552734375,-35.70556640625,4.08935546875,-2.5634765625,21.961669921875,39.2816162109375,74.344482421875
1758786206.1483746,-0.6826171875,0.30810546875,0.66552734375,-35.70556640625,4.08935546875,-2.5634765625,21.610107421875,39.3255615234375,74.2840576171875
1758786206.1583974,-0.77294921875,0.314453125,0.69384765625,-37.53662109375,3.173828125,-1.52587890625,21.2530517578125,39.364013671875,74.2291259765625
1758786206.168727,-0.77294921875,0.314453125,0.69384765625,-37.53662109375,3.173828125,-1.52587890625,20.8905029296875,39.4024658203125,74.1741943359375
1758786206.1783652,-0.80322265625,0.29638671875,0.720703125,-29.296875,1.3427734375,0.0,20.577392578125,39.429931640625,74.1192626953125
1758786206.1883585,-0.80322265625,0.29638671875,0.720703125,-29.296875,1.3427734375,0.0,20.3082275390625,39.451904296875,74.06982421875
1758786206.1984344,-0.79345703125,0.23583984375,0.74609375,-29.84619140625,-1.220703125,1.220703125,20.0390625,39.462890625,74.02587890625
1758786206.2088203,-0.79345703125,0.23583984375,0.74609375,-29.84619140625,-1.220703125,1.220703125,19.7698974609375,39.4573974609375,73.9764404296875
1758786206.2184796,-0.73779296875,0.16650390625,0.64013671875,-31.005859375,-2.01416015625,2.197265625,19.48974609375,39.4573974609375,73.93798828125
1758786206.228652,-0.73779296875,0.16650390625,0.64013671875,-31.005859375,-2.01416015625,2.197265625,19.2095947265625,39.451904296875,73.8995361328125
1758786206.2384794,-0.69384765625,0.16064453125,0.54345703125,-24.96337890625,-2.50244140625,1.15966796875,18.951416015625,39.4464111328125,73.85009765625
1758786206.2488997,-0.69384765625,0.16064453125,0.54345703125,-24.96337890625,-2.50244140625,1.15966796875,18.7152099609375,39.4464111328125,73.795166015625
1758786206.2587874,-0.69873046875,0.20947265625,0.5810546875,-9.3994140625,-0.42724609375,-0.67138671875,18.555908203125,39.462890625,73.7347412109375
1758786206.268584,-0.69873046875,0.20947265625,0.5810546875,-9.3994140625,-0.42724609375,-0.67138671875,18.4735107421875,39.4903564453125,73.663330078125
1758786206.278605,-0.7236328125,0.27685546875,0.60009765625,2.99072265625,1.220703125,-2.0751953125,18.446044921875,39.5343017578125,73.58642578125
1758786206.2903829,-0.7236328125,0.27685546875,0.60009765625,2.99072265625,1.220703125,-2.0751953125,18.4844970703125,39.5892333984375,73.5040283203125
1758786206.2990365,-0.72509765625,0.310546875,0.67431640625,10.8642578125,2.13623046875,-2.9296875,18.555908203125,39.6441650390625,73.4161376953125
1758786206.3085763,-0.72509765625,0.310546875,0.67431640625,10.8642578125,2.13623046875,-2.9296875,18.6712646484375,39.7100830078125,73.3282470703125
1758786206.3186266,-0.68896484375,0.28271484375,0.66259765625,7.568359375,2.99072265625,-2.8076171875,18.7701416015625,39.7760009765625,73.2403564453125
1758786206.328957,-0.68896484375,0.28271484375,0.66259765625,7.568359375,2.99072265625,-2.8076171875,18.8525390625,39.8419189453125,73.157958984375
1758786206.3391047,-0.66259765625,0.27294921875,0.63818359375,-4.08935546875,2.3193359375,-2.44140625,18.8800048828125,39.9078369140625,73.0810546875
1758786206.3485813,-0.66259765625,0.27294921875,0.63818359375,-4.08935546875,2.3193359375,-2.44140625,18.8470458984375,39.96826171875,73.004150390625
1758786206.3586373,-0.67333984375,0.2587890625,0.72607421875,-10.19287109375,1.8310546875,-2.01416015625,18.78662109375,40.0177001953125,72.92724609375
1758786206.3689425,-0.67333984375,0.2587890625,0.72607421875,-10.19287109375,1.8310546875,-2.01416015625,18.6932373046875,40.067138671875,72.861328125
1758786206.378928,-0.66748046875,0.2392578125,0.73095703125,-7.14111328125,0.1220703125,-1.46484375,18.6163330078125,40.1055908203125,72.79541015625
1758786206.3889618,-0.66748046875,0.2392578125,0.73095703125,-7.14111328125,0.1220703125,-1.46484375,18.5504150390625,40.133056640625,72.7294921875
1758786206.3990984,-0.62060546875,0.2080078125,0.74560546875,-1.15966796875,-1.220703125,-1.52587890625,18.511962890625,40.155029296875,72.66357421875
1758786206.4089167,-0.62060546875,0.2080078125,0.74560546875,-1.15966796875,-1.220703125,-1.52587890625,18.4954833984375,40.1605224609375,72.59765625
1758786206.4191647,-0.6044921875,0.2138671875,0.7568359375,5.37109375,-1.89208984375,-2.197265625,18.5064697265625,40.166015625,72.53173828125
1758786206.4286494,-0.6044921875,0.2138671875,0.7568359375,5.37109375,-1.89208984375,-2.197265625,18.544921875,40.166015625,72.4603271484375
1758786206.439539,-0.5869140625,0.2421875,0.78271484375,6.9580078125,-2.197265625,-2.44140625,18.5888671875,40.166015625,72.388916015625
1758786206.4491308,-0.5869140625,0.2421875,0.78271484375,6.9580078125,-2.197265625,-2.44140625,18.6328125,40.155029296875,72.3175048828125
1758786206.45906,-0.55224609375,0.2548828125,0.80078125,6.591796875,-2.8076171875,-3.0517578125,18.6712646484375,40.14404296875,72.24609375
1758786206.4687352,-0.55224609375,0.2548828125,0.80078125,6.591796875,-2.8076171875,-3.0517578125,18.7042236328125,40.1220703125,72.169189453125
1758786206.4798863,-0.5234375,0.24267578125,0.845703125,12.5732421875,-4.08935546875,-4.150390625,18.7591552734375,40.0946044921875,72.09228515625
1758786206.489388,-0.5234375,0.24267578125,0.845703125,12.5732421875,-4.08935546875,-4.150390625,18.8360595703125,40.0616455078125,72.00439453125
1758786206.4992626,-0.51708984375,0.22998046875,0.85107421875,21.8505859375,-4.82177734375,-5.2490234375,18.9569091796875,40.0177001953125,71.9110107421875
1758786206.5088499,-0.51708984375,0.22998046875,0.85107421875,21.8505859375,-4.82177734375,-5.2490234375,19.1107177734375,39.96826171875,71.8121337890625
1758786206.5197477,-0.49853515625,0.24609375,0.86865234375,20.56884765625,-5.7373046875,-5.67626953125,19.2535400390625,39.913330078125,71.707763671875
1758786206.5288594,-0.49853515625,0.24609375,0.86865234375,20.56884765625,-5.7373046875,-5.67626953125,19.3853759765625,39.8529052734375,71.6033935546875
1758786206.5395684,-0.47802734375,0.263671875,0.85009765625,14.95361328125,-5.43212890625,-5.859375,19.4842529296875,39.7869873046875,71.5045166015625
1758786206.5492716,-0.47802734375,0.263671875,0.85009765625,14.95361328125,-5.43212890625,-5.859375,19.5556640625,39.7210693359375,71.4056396484375
1758786206.5595782,-0.5263671875,0.27099609375,0.8037109375,16.6015625,-5.615234375,-6.28662109375,19.6380615234375,39.6551513671875,71.3067626953125
1758786206.5688503,-0.5263671875,0.27099609375,0.8037109375,16.6015625,-5.615234375,-6.28662109375,19.7259521484375,39.583740234375,71.202392578125
1758786206.5795898,-0.57080078125,0.30419921875,0.7919921875,12.451171875,-5.9814453125,-5.18798828125,19.7918701171875,39.5123291015625,71.1090087890625
1758786206.589952,-0.57080078125,0.30419921875,0.7919921875,12.451171875,-5.9814453125,-5.18798828125,19.8468017578125,39.44091796875,71.0211181640625
1758786206.6000526,-0.611328125,0.3505859375,0.8310546875,-1.220703125,-7.080078125,-2.99072265625,19.8468017578125,39.35302734375,70.938720703125
1758786206.608907,-0.611328125,0.3505859375,0.8310546875,-1.220703125,-7.080078125,-2.99072265625,19.7808837890625,39.26513671875,70.872802734375
1758786206.6189513,-0.615234375,0.3125,0.75341796875,-11.1083984375,-6.103515625,-1.15966796875,19.6820068359375,39.17724609375,70.81787109375
1758786206.6292076,-0.615234375,0.3125,0.75341796875,-11.1083984375,-6.103515625,-1.15966796875,19.544677734375,39.08935546875,70.7794189453125
1758786206.6393352,-0.60986328125,0.22900390625,0.72900390625,-17.76123046875,-7.50732421875,-0.06103515625,19.3798828125,39.00146484375,70.7354736328125
1758786206.6489134,-0.60986328125,0.22900390625,0.72900390625,-17.76123046875,-7.50732421875,-0.06103515625,19.18212890625,38.9080810546875,70.7025146484375
1758786206.6592991,-0.60888671875,0.2001953125,0.78076171875,-17.4560546875,-6.4697265625,0.244140625,18.9898681640625,38.814697265625,70.6695556640625
1758786206.669325,-0.60888671875,0.2001953125,0.78076171875,-17.4560546875,-6.4697265625,0.244140625,18.797607421875,38.7322998046875,70.6365966796875
1758786206.6789377,-0.595703125,0.17578125,0.7216796875,-12.63427734375,-6.53076171875,0.244140625,18.6328125,38.64990234375,70.609130859375
1758786206.689861,-0.595703125,0.17578125,0.7216796875,-12.63427734375,-6.53076171875,0.244140625,18.4844970703125,38.572998046875,70.5816650390625
1758786206.6989655,-0.5927734375,0.1943359375,0.6728515625,-4.0283203125,-5.37109375,0.244140625,18.3856201171875,38.5015869140625,70.5596923828125
1758786206.7090614,-0.5927734375,0.1943359375,0.6728515625,-4.0283203125,-5.37109375,0.244140625,18.3251953125,38.4356689453125,70.5322265625
1758786206.7190542,-0.60546875,0.2294921875,0.71728515625,4.69970703125,-5.4931640625,0.0,18.3087158203125,38.375244140625,70.51025390625
1758786206.7294178,-0.60546875,0.2294921875,0.71728515625,4.69970703125,-5.4931640625,0.0,18.336181640625,38.3148193359375,70.4827880859375
1758786206.7396452,-0.623046875,0.267578125,0.81298828125,4.5166015625,-5.37109375,1.220703125,18.369140625,38.25439453125,70.4608154296875
1758786206.749078,-0.623046875,0.267578125,0.81298828125,4.5166015625,-5.37109375,1.220703125,18.4075927734375,38.1939697265625,70.4498291015625
1758786206.7591488,-0.58349609375,0.25732421875,0.708984375,-1.15966796875,-4.82177734375,2.01416015625,18.4185791015625,38.133544921875,70.4388427734375
1758786206.7695599,-0.58349609375,0.25732421875,0.708984375,-1.15966796875,-4.82177734375,2.01416015625,18.402099609375,38.0731201171875,70.4388427734375
1758786206.7790594,-0.59228515625,0.2099609375,0.7783203125,4.82177734375,-4.638671875,2.8076171875,18.424072265625,38.0126953125,70.4388427734375
1758786206.7896123,-0.59228515625,0.2099609375,0.7783203125,4.82177734375,-4.638671875,2.8076171875,18.47900390625,37.957763671875,70.4498291015625
1758786206.7993617,-0.6298828125,0.13525390625,0.81591796875,22.64404296875,-5.0048828125,2.01416015625,18.6163330078125,37.8973388671875,70.455322265625
1758786206.8095376,-0.6298828125,0.13525390625,0.81591796875,22.64404296875,-5.0048828125,2.01416015625,18.83056640625,37.8369140625,70.4608154296875
1758786206.819083,-0.63525390625,0.10302734375,0.798828125,28.076171875,-5.67626953125,1.0986328125,19.061279296875,37.7764892578125,70.455322265625
1758786206.8297405,-0.63525390625,0.10302734375,0.798828125,28.076171875,-5.67626953125,1.0986328125,19.3084716796875,37.716064453125,70.4443359375
1758786206.8400583,-0.5986328125,0.15185546875,0.736328125,10.8642578125,-5.31005859375,0.732421875,19.4622802734375,37.6611328125,70.4388427734375
1758786206.8502245,-0.5986328125,0.15185546875,0.736328125,10.8642578125,-5.31005859375,0.732421875,19.53369140625,37.606201171875,70.433349609375
1758786206.859228,-0.57568359375,0.23828125,0.66259765625,-5.7373046875,-4.08935546875,0.9765625,19.5172119140625,37.5567626953125,70.433349609375
1758786206.8696053,-0.57568359375,0.23828125,0.66259765625,-5.7373046875,-4.08935546875,0.9765625,19.4293212890625,37.518310546875,70.433349609375
1758786206.8796809,-0.62109375,0.31396484375,0.689453125,-15.5029296875,-3.35693359375,2.0751953125,19.2974853515625,37.4798583984375,70.4388427734375
1758786206.8904681,-0.62109375,0.31396484375,0.689453125,-15.5029296875,-3.35693359375,2.0751953125,19.127197265625,37.4468994140625,70.455322265625
1758786206.8992198,-0.65234375,0.3369140625,0.79052734375,-12.63427734375,-3.5400390625,3.11279296875,18.984375,37.408447265625,70.4718017578125
1758786206.9097779,-0.65234375,0.3369140625,0.79052734375,-12.63427734375,-3.5400390625,3.11279296875,18.863525390625,37.3699951171875,70.4937744140625
1758786206.919854,-0.638671875,0.32421875,0.7705078125,4.69970703125,-3.96728515625,4.33349609375,18.8360595703125,37.3260498046875,70.521240234375
1758786206.92962,-0.638671875,0.32421875,0.7705078125,4.69970703125,-3.96728515625,4.33349609375,18.9019775390625,37.276611328125,70.5596923828125
1758786206.9399114,-0.560546875,0.26953125,0.7421875,20.8740234375,-4.39453125,4.82177734375,19.0557861328125,37.2271728515625,70.5926513671875
1758786206.9504058,-0.560546875,0.26953125,0.7421875,20.8740234375,-4.39453125,4.82177734375,19.2864990234375,37.1722412109375,70.631103515625
1758786206.95941,-0.51318359375,0.21435546875,0.640625,13.7939453125,-3.47900390625,4.21142578125,19.478759765625,37.122802734375,70.6695556640625
1758786206.9699168,-0.51318359375,0.21435546875,0.640625,13.7939453125,-3.47900390625,4.21142578125,19.632568359375,37.078857421875,70.7080078125
1758786206.9794075,-0.49365234375,0.228515625,0.64697265625,6.34765625,-1.64794921875,3.72314453125,19.75341796875,37.0404052734375,70.740966796875
1758786206.991095,-0.49365234375,0.228515625,0.64697265625,6.34765625,-1.64794921875,3.72314453125,19.830322265625,37.0184326171875,70.784912109375
1758786206.9994035,-0.55517578125,0.30615234375,0.6416015625,20.08056640625,-0.1220703125,3.47900390625,20.0555419921875,37.001953125,70.8233642578125
1758786207.0100582,-0.55517578125,0.30615234375,0.6416015625,20.08056640625,-0.1220703125,3.47900390625,20.28076171875,36.990966796875,70.8673095703125
1758786207.019356,-0.646484375,0.31298828125,0.71435546875,40.71044921875,0.0,2.44140625,20.7037353515625,36.990966796875,70.894775390625
1758786207.030654,-0.646484375,0.31298828125,0.71435546875,40.71044921875,0.0,2.44140625,21.126708984375,36.9854736328125,70.927734375
1758786207.039353,-0.65283203125,0.28857421875,0.77197265625,41.80908203125,-0.1220703125,2.685546875,21.55517578125,36.97998046875,70.960693359375
1758786207.049454,-0.65283203125,0.28857421875,0.77197265625,41.80908203125,-0.1220703125,2.685546875,21.9891357421875,36.9744873046875,70.99365234375
1758786207.0598562,-0.65380859375,0.302734375,0.78662109375,23.62060546875,-0.9765625,2.25830078125,22.225341796875,36.9635009765625,71.0211181640625
1758786207.0694711,-0.65380859375,0.302734375,0.78662109375,23.62060546875,-0.9765625,2.25830078125,22.467041015625,36.947021484375,71.0540771484375
1758786207.0794725,-0.67431640625,0.32568359375,0.72119140625,-4.21142578125,-0.244140625,2.62451171875,22.43408203125,36.9415283203125,71.0870361328125
1758786207.0894551,-0.67431640625,0.32568359375,0.72119140625,-4.21142578125,-0.244140625,2.62451171875,22.4066162109375,36.9415283203125,71.12548828125
1758786207.0999155,-0.73583984375,0.38232421875,0.71044921875,-19.775390625,0.244140625,3.47900390625,22.2308349609375,36.9415283203125,71.1749267578125
1758786207.1094284,-0.73583984375,0.38232421875,0.71044921875,-19.775390625,0.244140625,3.47900390625,22.060546875,36.9415283203125,71.2188720703125
1758786207.1200166,-0.7666015625,0.38037109375,0.73193359375,-11.77978515625,1.03759765625,3.662109375,21.9781494140625,36.9525146484375,71.2738037109375
1758786207.1303923,-0.7666015625,0.38037109375,0.73193359375,-11.77978515625,1.03759765625,3.662109375,21.895751953125,36.968994140625,71.3232421875
1758786207.135789,-0.7666015625,0.38037109375,0.73193359375,-11.77978515625,1.03759765625,3.662109375,-176.6326904296875,-66.1212158203125,78.9971923828125
1758786207.139455,-0.77880859375,0.3896484375,0.6884765625,0.91552734375,1.8310546875,5.0048828125,21.961669921875,36.9854736328125,71.38916015625
1758786207.1494994,-0.77880859375,0.3896484375,0.6884765625,0.91552734375,1.8310546875,5.0048828125,22.0220947265625,37.0074462890625,71.455078125
1758786207.1599517,-0.7548828125,0.33251953125,0.638671875,7.14111328125,1.953125,5.615234375,22.1539306640625,37.0294189453125,71.5264892578125
1758786207.169555,-0.7548828125,0.33251953125,0.638671875,7.14111328125,1.953125,5.615234375,22.291259765625,37.056884765625,71.597900390625
1758786207.1795568,-0.7412109375,0.2724609375,0.67333984375,3.41796875,2.50244140625,6.103515625,22.39013671875,37.0843505859375,71.6748046875
1758786207.1895368,-0.7412109375,0.2724609375,0.67333984375,3.41796875,2.50244140625,6.103515625,22.489013671875,37.1173095703125,71.7572021484375
1758786207.1999922,-0.71875,0.26416015625,0.61083984375,-0.30517578125,3.0517578125,6.4697265625,22.5494384765625,37.15576171875,71.8450927734375
1758786207.209601,-0.71875,0.26416015625,0.61083984375,-0.30517578125,3.0517578125,6.4697265625,22.60986328125,37.1942138671875,71.9329833984375
1758786207.2195723,-0.73828125,0.27978515625,0.6171875,5.0048828125,2.86865234375,7.080078125,22.730712890625,37.232666015625,72.0263671875
1758786207.2295518,-0.73828125,0.27978515625,0.6171875,5.0048828125,2.86865234375,7.080078125,22.8460693359375,37.276611328125,72.125244140625
1758786207.2398152,-0.71826171875,0.2939453125,0.64697265625,14.0380859375,2.86865234375,7.38525390625,23.0548095703125,37.3150634765625,72.22412109375
1758786207.249956,-0.71826171875,0.2939453125,0.64697265625,14.0380859375,2.86865234375,7.38525390625,23.2635498046875,37.353515625,72.322998046875
1758786207.2595856,-0.68310546875,0.3193359375,0.6259765625,13.00048828125,2.9296875,8.11767578125,23.466796875,37.3919677734375,72.432861328125
1758786207.2696202,-0.68310546875,0.3193359375,0.6259765625,13.00048828125,2.9296875,8.11767578125,23.6700439453125,37.4249267578125,72.5482177734375
1758786207.2799091,-0.6552734375,0.34033203125,0.64892578125,5.67626953125,3.11279296875,9.09423828125,23.807373046875,37.4578857421875,72.674560546875
1758786207.2899776,-0.6552734375,0.34033203125,0.64892578125,5.67626953125,3.11279296875,9.09423828125,23.9447021484375,37.4853515625,72.8009033203125
1758786207.2997253,-0.630859375,0.34521484375,0.689453125,1.77001953125,3.2958984375,9.46044921875,24.0435791015625,37.518310546875,72.9327392578125
1758786207.3096418,-0.630859375,0.34521484375,0.689453125,1.77001953125,3.2958984375,9.46044921875,24.14794921875,37.540283203125,73.0645751953125
1758786207.3204648,-0.59033203125,0.33203125,0.71875,5.55419921875,2.3193359375,8.97216796875,24.27978515625,37.5567626953125,73.19091796875
1758786207.330003,-0.59033203125,0.33203125,0.71875,5.55419921875,2.3193359375,8.97216796875,24.41162109375,37.5677490234375,73.3172607421875
1758786207.339995,-0.5498046875,0.31982421875,0.75537109375,14.2822265625,1.3427734375,8.11767578125,24.620361328125,37.5677490234375,73.4326171875
1758786207.3496487,-0.5498046875,0.31982421875,0.75537109375,14.2822265625,1.3427734375,8.11767578125,24.8236083984375,37.562255859375,73.5479736328125
1758786207.3609161,-0.5537109375,0.3251953125,0.783203125,20.01953125,0.1220703125,7.4462890625,25.0762939453125,37.5457763671875,73.65234375
1758786207.3697689,-0.5537109375,0.3251953125,0.783203125,20.01953125,0.1220703125,7.4462890625,25.323486328125,37.529296875,73.76220703125
1758786207.380077,-0.5576171875,0.35009765625,0.7919921875,20.263671875,-0.91552734375,7.38525390625,25.565185546875,37.4908447265625,73.8665771484375
1758786207.3897457,-0.5576171875,0.35009765625,0.7919921875,20.263671875,-0.91552734375,7.38525390625,25.8123779296875,37.4578857421875,73.9764404296875
1758786207.4008253,-0.53125,0.3583984375,0.77099609375,14.70947265625,-2.0751953125,7.8125,25.99365234375,37.4029541015625,74.080810546875
1758786207.4098153,-0.53125,0.3583984375,0.77099609375,14.70947265625,-2.0751953125,7.8125,26.180419921875,37.3480224609375,74.190673828125
1758786207.4200778,-0.51123046875,0.37353515625,0.783203125,7.6904296875,-3.173828125,7.080078125,26.2847900390625,37.2821044921875,74.28955078125
1758786207.4301617,-0.51123046875,0.37353515625,0.783203125,7.6904296875,-3.173828125,7.080078125,26.38916015625,37.210693359375,74.3829345703125
1758786207.4408133,-0.50830078125,0.37060546875,0.77099609375,13.24462890625,-3.47900390625,6.103515625,26.5374755859375,37.1392822265625,74.4708251953125
1758786207.4498143,-0.50830078125,0.37060546875,0.77099609375,13.24462890625,-3.47900390625,6.103515625,26.6912841796875,37.06787109375,74.55322265625
1758786207.4604762,-0.52685546875,0.35888671875,0.796875,11.04736328125,-4.39453125,4.82177734375,26.806640625,36.990966796875,74.619140625
1758786207.47013,-0.52685546875,0.35888671875,0.796875,11.04736328125,-4.39453125,4.82177734375,26.9219970703125,36.9140625,74.6905517578125
1758786207.4810832,-0.53466796875,0.39111328125,0.79296875,8.85009765625,-4.5166015625,3.35693359375,27.0098876953125,36.837158203125,74.739990234375
1758786207.489789,-0.53466796875,0.39111328125,0.79296875,8.85009765625,-4.5166015625,3.35693359375,27.09228515625,36.7657470703125,74.7894287109375
1758786207.5005894,-0.55517578125,0.41455078125,0.7568359375,11.1083984375,-4.5166015625,1.220703125,27.1856689453125,36.6998291015625,74.8223876953125
1758786207.5104911,-0.55517578125,0.41455078125,0.7568359375,11.1083984375,-4.5166015625,1.220703125,27.2845458984375,36.6339111328125,74.849853515625
1758786207.520462,-0.5810546875,0.416015625,0.72265625,8.23974609375,-5.06591796875,-0.1220703125,27.3394775390625,36.5679931640625,74.86083984375
1758786207.529874,-0.5810546875,0.416015625,0.72265625,8.23974609375,-5.06591796875,-0.1220703125,27.39990234375,36.507568359375,74.871826171875
1758786207.5398731,-0.59130859375,0.4072265625,0.6962890625,7.6904296875,-5.37109375,-0.6103515625,27.4493408203125,36.4471435546875,74.871826171875
1758786207.5503678,-0.59130859375,0.4072265625,0.6962890625,7.6904296875,-5.37109375,-0.6103515625,27.5042724609375,36.38671875,74.871826171875
1758786207.5599492,-0.60986328125,0.37939453125,0.65869140625,8.97216796875,-5.2490234375,-1.220703125,27.5701904296875,36.331787109375,74.8663330078125
1758786207.569892,-0.60986328125,0.37939453125,0.65869140625,8.97216796875,-5.2490234375,-1.220703125,27.630615234375,36.2823486328125,74.86083984375
1758786207.5799294,-0.623046875,0.35693359375,0.71484375,4.150390625,-5.37109375,-0.9765625,27.6470947265625,36.23291015625,74.8553466796875
1758786207.5904024,-0.623046875,0.35693359375,0.71484375,4.150390625,-5.37109375,-0.9765625,27.66357421875,36.18896484375,74.849853515625
1758786207.5999334,-0.63623046875,0.3984375,0.72216796875,-3.72314453125,-5.9814453125,-0.91552734375,27.6031494140625,36.134033203125,74.8443603515625
1758786207.6098976,-0.63623046875,0.3984375,0.72216796875,-3.72314453125,-5.9814453125,-0.91552734375,27.5372314453125,36.0845947265625,74.8388671875
1758786207.619972,-0.609375,0.4072265625,0.72314453125,-0.8544921875,-6.9580078125,-0.9765625,27.5042724609375,36.0296630859375,74.827880859375
1758786207.6304169,-0.609375,0.4072265625,0.72314453125,-0.8544921875,-6.9580078125,-0.9765625,27.4658203125,35.96923828125,74.8114013671875
1758786207.6399555,-0.57958984375,0.36865234375,0.68701171875,1.15966796875,-6.65283203125,-0.8544921875,27.454833984375,35.914306640625,74.8004150390625
1758786207.6500156,-0.57958984375,0.36865234375,0.68701171875,1.15966796875,-6.65283203125,-0.8544921875,27.44384765625,35.8648681640625,74.7894287109375
1758786207.6605644,-0.5732421875,0.3662109375,0.701171875,-2.13623046875,-6.77490234375,-0.6103515625,27.39990234375,35.8099365234375,74.783935546875
1758786207.6702101,-0.5732421875,0.3662109375,0.701171875,-2.13623046875,-6.77490234375,-0.6103515625,27.35595703125,35.7550048828125,74.7784423828125
1758786207.680088,-0.53955078125,0.37158203125,0.697265625,3.47900390625,-6.28662109375,-0.9765625,27.366943359375,35.7000732421875,74.7674560546875
1758786207.6901445,-0.53955078125,0.37158203125,0.697265625,3.47900390625,-6.28662109375,-0.9765625,27.3779296875,35.650634765625,74.761962890625
1758786207.7007542,-0.51123046875,0.37841796875,0.703125,5.67626953125,-6.103515625,-1.52587890625,27.4053955078125,35.606689453125,74.7454833984375
1758786207.7102926,-0.51123046875,0.37841796875,0.703125,5.67626953125,-6.103515625,-1.52587890625,27.4383544921875,35.5572509765625,74.7344970703125
1758786207.7201247,-0.52294921875,0.3828125,0.73779296875,8.23974609375,-5.37109375,-1.5869140625,27.498779296875,35.5133056640625,74.7235107421875
1758786207.7304115,-0.52294921875,0.3828125,0.73779296875,8.23974609375,-5.37109375,-1.5869140625,27.5537109375,35.4693603515625,74.718017578125
1758786207.740847,-0.552734375,0.3974609375,0.77099609375,7.568359375,-5.31005859375,-1.46484375,27.6031494140625,35.419921875,74.7125244140625
1758786207.7500691,-0.552734375,0.3974609375,0.77099609375,7.568359375,-5.31005859375,-1.46484375,27.6580810546875,35.3759765625,74.70703125
1758786207.760129,-0.55419921875,0.39501953125,0.77783203125,4.82177734375,-5.2490234375,-1.28173828125,27.6800537109375,35.3265380859375,74.7015380859375
1758786207.7709742,-0.55419921875,0.39501953125,0.77783203125,4.82177734375,-5.2490234375,-1.28173828125,27.7020263671875,35.277099609375,74.696044921875
1758786207.7801824,-0.53955078125,0.39306640625,0.7626953125,0.244140625,-5.2490234375,-1.708984375,27.674560546875,35.233154296875,74.6905517578125
1758786207.7911785,-0.53955078125,0.39306640625,0.7626953125,0.244140625,-5.2490234375,-1.708984375,27.652587890625,35.1837158203125,74.6795654296875
1758786207.800491,-0.54931640625,0.39404296875,0.72216796875,0.0,-4.33349609375,-2.01416015625,27.6251220703125,35.145263671875,74.674072265625
1758786207.8112972,-0.54931640625,0.39404296875,0.72216796875,0.0,-4.33349609375,-2.01416015625,27.59765625,35.1068115234375,74.6685791015625
1758786207.8202,-0.5654296875,0.39013671875,0.73486328125,-2.99072265625,-4.150390625,-1.89208984375,27.5482177734375,35.068359375,74.6685791015625
1758786207.8306978,-0.5654296875,0.39013671875,0.73486328125,-2.99072265625,-4.150390625,-1.89208984375,27.4932861328125,35.035400390625,74.6630859375
1758786207.8402398,-0.56298828125,0.38916015625,0.7509765625,-5.06591796875,-3.2958984375,-1.64794921875,27.4273681640625,35.00244140625,74.6630859375
1758786207.8511488,-0.56298828125,0.38916015625,0.7509765625,-5.06591796875,-3.2958984375,-1.64794921875,27.35595703125,34.9749755859375,74.6685791015625
1758786207.8602192,-0.5791015625,0.38232421875,0.7373046875,-6.04248046875,-3.41796875,-1.0986328125,27.279052734375,34.9420166015625,74.674072265625
1758786207.8709726,-0.5791015625,0.38232421875,0.7373046875,-6.04248046875,-3.41796875,-1.0986328125,27.2076416015625,34.9090576171875,74.6795654296875
1758786207.8806612,-0.57763671875,0.38916015625,0.7294921875,-7.38525390625,-3.2958984375,-1.03759765625,27.1197509765625,34.881591796875,74.6905517578125
1758786207.8906164,-0.57763671875,0.38916015625,0.7294921875,-7.38525390625,-3.2958984375,-1.03759765625,27.0318603515625,34.8541259765625,74.696044921875
1758786207.9007351,-0.55078125,0.37353515625,0.7099609375,-5.43212890625,-3.23486328125,-0.91552734375,26.9659423828125,34.8211669921875,74.70703125
1758786207.9113345,-0.55078125,0.37353515625,0.7099609375,-5.43212890625,-3.23486328125,-0.91552734375,26.9000244140625,34.793701171875,74.718017578125
1758786207.9204235,-0.52880859375,0.36865234375,0.71533203125,-2.25830078125,-2.38037109375,-1.03759765625,26.87255859375,34.7772216796875,74.72900390625
1758786207.9310117,-0.52880859375,0.36865234375,0.71533203125,-2.25830078125,-2.38037109375,-1.03759765625,26.839599609375,34.7552490234375,74.7454833984375
1758786207.9404745,-0.5458984375,0.36962890625,0.71630859375,1.46484375,-2.0751953125,-1.03759765625,26.8450927734375,34.73876953125,74.7564697265625
1758786207.9525194,-0.5458984375,0.36962890625,0.71630859375,1.46484375,-2.0751953125,-1.03759765625,26.8505859375,34.716796875,74.77294921875
1758786207.9603596,-0.5556640625,0.3740234375,0.73583984375,1.89208984375,-1.64794921875,-0.8544921875,26.8670654296875,34.705810546875,74.794921875
1758786207.9710116,-0.5556640625,0.3740234375,0.73583984375,1.89208984375,-1.64794921875,-0.8544921875,26.8780517578125,34.6893310546875,74.8114013671875
1758786207.9803941,-0.56201171875,0.37548828125,0.751953125,-1.15966796875,-1.3427734375,-0.54931640625,26.861572265625,34.6728515625,74.8333740234375
1758786207.9915977,-0.56201171875,0.37548828125,0.751953125,-1.15966796875,-1.3427734375,-0.54931640625,26.8450927734375,34.661865234375,74.86083984375
1758786208.0006971,-0.54150390625,0.3759765625,0.775390625,-3.0517578125,-2.01416015625,-1.15966796875,26.806640625,34.6453857421875,74.8773193359375
1758786208.0108016,-0.54150390625,0.3759765625,0.775390625,-3.0517578125,-2.01416015625,-1.15966796875,26.7626953125,34.6234130859375,74.893798828125
1758786208.0204232,-0.5380859375,0.38330078125,0.74755859375,0.42724609375,-1.8310546875,-1.89208984375,26.751708984375,34.6124267578125,74.8992919921875
1758786208.0306318,-0.5380859375,0.38330078125,0.74755859375,0.42724609375,-1.8310546875,-1.89208984375,26.74072265625,34.595947265625,74.9102783203125
1758786208.0404658,-0.5361328125,0.3681640625,0.77734375,2.3193359375,-1.953125,-2.25830078125,26.7462158203125,34.5849609375,74.915771484375
1758786208.0515738,-0.56298828125,0.35986328125,0.78515625,3.84521484375,-2.13623046875,-2.197265625,26.7572021484375,34.5684814453125,74.915771484375
1758786208.0604541,-0.56298828125,0.35986328125,0.78515625,3.84521484375,-2.13623046875,-2.197265625,26.773681640625,34.5465087890625,74.9212646484375
1758786208.070685,-0.546875,0.35107421875,0.76025390625,4.69970703125,-2.8076171875,-2.3193359375,26.795654296875,34.530029296875,74.9267578125
1758786208.080939,-0.546875,0.35107421875,0.76025390625,4.69970703125,-2.8076171875,-2.3193359375,26.8121337890625,34.508056640625,74.9212646484375
1758786208.0911274,-0.51806640625,0.3623046875,0.72021484375,-0.48828125,-2.8076171875,-2.9296875,26.806640625,34.486083984375,74.9212646484375
1758786208.100779,-0.51806640625,0.3623046875,0.72021484375,-0.48828125,-2.8076171875,-2.9296875,26.773681640625,34.464111328125,74.9102783203125
1758786208.1106513,-0.48876953125,0.3955078125,0.716796875,3.11279296875,-2.74658203125,-3.173828125,26.7572021484375,34.4476318359375,74.8992919921875
1758786208.1210086,-0.48876953125,0.3955078125,0.716796875,3.11279296875,-2.74658203125,-3.173828125,26.7572021484375,34.4256591796875,74.8883056640625
1758786208.1308722,-0.5078125,0.39453125,0.73681640625,6.34765625,-1.89208984375,-3.173828125,26.7791748046875,34.4091796875,74.8828125
1758786208.1406953,-0.5078125,0.39453125,0.73681640625,6.34765625,-1.89208984375,-3.173828125,26.817626953125,34.3927001953125,74.871826171875
1758786208.1513023,-0.5205078125,0.3896484375,0.71337890625,-3.96728515625,-1.8310546875,-2.5634765625,26.806640625,34.3817138671875,74.8663330078125
1758786208.1610906,-0.5205078125,0.3896484375,0.71337890625,-3.96728515625,-1.8310546875,-2.5634765625,26.751708984375,34.365234375,74.8663330078125
1758786208.170807,-0.54296875,0.3984375,0.7060546875,-13.48876953125,-1.46484375,-2.13623046875,26.6473388671875,34.3487548828125,74.8663330078125
1758786208.1807845,-0.54296875,0.3984375,0.7060546875,-13.48876953125,-1.46484375,-2.13623046875,26.5045166015625,34.332275390625,74.8663330078125
1758786208.1910965,-0.5751953125,0.40380859375,0.7158203125,-11.5966796875,-1.3427734375,-1.953125,26.3671875,34.3212890625,74.871826171875
1758786208.2010958,-0.5751953125,0.40380859375,0.7158203125,-11.5966796875,-1.3427734375,-1.953125,26.246337890625,34.310302734375,74.871826171875
1758786208.2107177,-0.5859375,0.3701171875,0.810546875,-3.90625,-1.708984375,-1.708984375,26.1639404296875,34.29931640625,74.8773193359375
1758786208.2211568,-0.5859375,0.3701171875,0.810546875,-3.90625,-1.708984375,-1.708984375,26.1199951171875,34.2828369140625,74.8773193359375
1758786208.2307005,-0.60546875,0.33935546875,0.81591796875,0.54931640625,-2.01416015625,-1.77001953125,26.092529296875,34.2718505859375,74.8828125
1758786208.240898,-0.60546875,0.33935546875,0.81591796875,0.54931640625,-2.01416015625,-1.77001953125,26.0870361328125,34.25537109375,74.8828125
1758786208.2512195,-0.58935546875,0.3203125,0.7880859375,-0.3662109375,-2.50244140625,-1.708984375,26.070556640625,34.2388916015625,74.8828125
1758786208.2620592,-0.58935546875,0.3203125,0.7880859375,-0.3662109375,-2.50244140625,-1.708984375,26.048583984375,34.2169189453125,74.8828125
1758786208.270798,-0.5693359375,0.345703125,0.7421875,1.52587890625,-2.62451171875,-2.01416015625,26.0321044921875,34.200439453125,74.8828125
1758786208.2810733,-0.5693359375,0.345703125,0.7421875,1.52587890625,-2.62451171875,-2.01416015625,26.026611328125,34.1839599609375,74.8773193359375
1758786208.2907877,-0.55029296875,0.359375,0.701171875,3.662109375,-2.197265625,-2.44140625,26.026611328125,34.1729736328125,74.871826171875
1758786208.302573,-0.55029296875,0.359375,0.701171875,3.662109375,-2.197265625,-2.44140625,26.03759765625,34.1619873046875,74.871826171875
1758786208.3108056,-0.54248046875,0.373046875,0.69140625,5.4931640625,-1.64794921875,-2.44140625,26.0650634765625,34.156494140625,74.8663330078125
1758786208.3211086,-0.54248046875,0.373046875,0.69140625,5.4931640625,-1.64794921875,-2.44140625,26.0980224609375,34.1510009765625,74.86083984375
1758786208.3312838,-0.54150390625,0.38134765625,0.71044921875,2.9296875,-0.67138671875,-2.685546875,26.1199951171875,34.1510009765625,74.86083984375
1758786208.341576,-0.54150390625,0.38134765625,0.71044921875,2.9296875,-0.67138671875,-2.685546875,26.136474609375,34.156494140625,74.8553466796875
1758786208.3513277,-0.54638671875,0.388671875,0.7265625,-0.06103515625,-0.1220703125,-3.173828125,26.1309814453125,34.16748046875,74.8553466796875
1758786208.3615859,-0.54638671875,0.388671875,0.7265625,-0.06103515625,-0.1220703125,-3.173828125,26.114501953125,34.178466796875,74.849853515625
1758786208.3713837,-0.5791015625,0.36474609375,0.75537109375,3.96728515625,0.48828125,-3.662109375,26.1199951171875,34.1949462890625,74.8443603515625
1758786208.3815606,-0.5791015625,0.36474609375,0.75537109375,3.96728515625,0.48828125,-3.662109375,26.1419677734375,34.2169189453125,74.8388671875
1758786208.3908508,-0.587890625,0.3232421875,0.783203125,9.3994140625,0.30517578125,-4.45556640625,26.19140625,34.2333984375,74.8223876953125
1758786208.4030228,-0.587890625,0.3232421875,0.783203125,9.3994140625,0.30517578125,-4.45556640625,26.25732421875,34.25537109375,74.805908203125
1758786208.411361,-0.591796875,0.31640625,0.7685546875,13.0615234375,0.0,-5.615234375,26.334228515625,34.2828369140625,74.783935546875
1758786208.4209023,-0.591796875,0.31640625,0.7685546875,13.0615234375,0.0,-5.615234375,26.4276123046875,34.3048095703125,74.7564697265625
1758786208.4312944,-0.59228515625,0.3564453125,0.75048828125,9.8876953125,-0.42724609375,-6.103515625,26.4935302734375,34.332275390625,74.7235107421875
1758786208.4408934,-0.59228515625,0.3564453125,0.75048828125,9.8876953125,-0.42724609375,-6.103515625,26.5484619140625,34.354248046875,74.68505859375
1758786208.4514537,-0.619140625,0.40380859375,0.720703125,2.99072265625,-0.30517578125,-6.28662109375,26.56494140625,34.3817138671875,74.6466064453125
1758786208.460965,-0.619140625,0.40380859375,0.720703125,2.99072265625,-0.30517578125,-6.28662109375,26.553955078125,34.4091796875,74.608154296875
1758786208.4713397,-0.61279296875,0.4228515625,0.70458984375,0.244140625,-0.79345703125,-6.16455078125,26.5264892578125,34.4366455078125,74.564208984375
1758786208.480955,-0.61279296875,0.4228515625,0.70458984375,0.244140625,-0.79345703125,-6.16455078125,26.488037109375,34.464111328125,74.520263671875
1758786208.4909506,-0.60205078125,0.3974609375,0.69970703125,-0.1220703125,-0.91552734375,-5.9814453125,26.4495849609375,34.4915771484375,74.476318359375
1758786208.5009406,-0.60205078125,0.3974609375,0.69970703125,-0.1220703125,-0.91552734375,-5.9814453125,26.4166259765625,34.5135498046875,74.432373046875
1758786208.5115163,-0.599609375,0.38427734375,0.70849609375,-3.11279296875,-0.91552734375,-5.43212890625,26.3671875,34.541015625,74.388427734375
1758786208.5209956,-0.599609375,0.38427734375,0.70849609375,-3.11279296875,-0.91552734375,-5.43212890625,26.3067626953125,34.56298828125,74.3499755859375
1758786208.5310285,-0.591796875,0.39013671875,0.7421875,-6.4697265625,-0.79345703125,-4.82177734375,26.2298583984375,34.5849609375,74.3115234375
1758786208.5410402,-0.591796875,0.39013671875,0.7421875,-6.4697265625,-0.79345703125,-4.82177734375,26.1419677734375,34.60693359375,74.278564453125
1758786208.5522804,-0.5869140625,0.39306640625,0.69775390625,-10.80322265625,-0.06103515625,-3.84521484375,26.03759765625,34.62890625,74.2510986328125
1758786208.5611215,-0.5869140625,0.39306640625,0.69775390625,-10.80322265625,-0.06103515625,-3.84521484375,25.916748046875,34.65087890625,74.2291259765625
1758786208.5711293,-0.56396484375,0.37939453125,0.66064453125,-13.00048828125,0.0,-3.47900390625,25.784912109375,34.6728515625,74.2071533203125
1758786208.5810535,-0.56396484375,0.37939453125,0.66064453125,-13.00048828125,0.0,-3.47900390625,25.6475830078125,34.7003173828125,74.1851806640625
1758786208.5915978,-0.55810546875,0.34716796875,0.7392578125,-9.1552734375,0.91552734375,-3.173828125,25.5377197265625,34.7222900390625,74.168701171875
1758786208.601067,-0.55810546875,0.34716796875,0.7392578125,-9.1552734375,0.91552734375,-3.173828125,25.4388427734375,34.7552490234375,74.15771484375
1758786208.611156,-0.5556640625,0.33837890625,0.76513671875,-6.16455078125,1.15966796875,-2.99072265625,25.3619384765625,34.78271484375,74.146728515625
1758786208.6210804,-0.5556640625,0.33837890625,0.76513671875,-6.16455078125,1.15966796875,-2.99072265625,25.2960205078125,34.8101806640625,74.1412353515625
1758786208.632229,-0.537109375,0.3525390625,0.7861328125,-5.79833984375,1.46484375,-3.11279296875,25.2301025390625,34.837646484375,74.1357421875
1758786208.6411476,-0.537109375,0.3525390625,0.7861328125,-5.79833984375,1.46484375,-3.11279296875,25.1641845703125,34.859619140625,74.1357421875
1758786208.651513,-0.52880859375,0.35888671875,0.8115234375,-6.2255859375,1.220703125,-3.5400390625,25.0982666015625,34.8870849609375,74.124755859375
1758786208.6611304,-0.52880859375,0.35888671875,0.8115234375,-6.2255859375,1.220703125,-3.5400390625,25.0213623046875,34.9090576171875,74.1192626953125
1758786208.6723418,-0.505859375,0.33984375,0.78369140625,-2.13623046875,0.79345703125,-4.0283203125,24.9664306640625,34.925537109375,74.1082763671875
1758786208.6811888,-0.505859375,0.33984375,0.78369140625,-2.13623046875,0.79345703125,-4.0283203125,24.9224853515625,34.9420166015625,74.091796875
1758786208.6915228,-0.49658203125,0.32470703125,0.74853515625,-3.2958984375,0.8544921875,-4.638671875,24.873046875,34.95849609375,74.0753173828125
1758786208.7011998,-0.49658203125,0.32470703125,0.74853515625,-3.2958984375,0.8544921875,-4.638671875,24.818115234375,34.9749755859375,74.058837890625
1758786208.712291,-0.52490234375,0.349609375,0.73681640625,-5.79833984375,1.46484375,-4.82177734375,24.7467041015625,34.991455078125,74.0423583984375
1758786208.721308,-0.52490234375,0.349609375,0.73681640625,-5.79833984375,1.46484375,-4.82177734375,24.6697998046875,35.013427734375,74.02587890625
1758786208.7316206,-0.52490234375,0.349609375,0.73681640625,-2.685546875,1.52587890625,-5.37109375,24.598388671875,35.035400390625,74.00390625
1758786208.7412984,-0.53369140625,0.3466796875,0.77685546875,-2.685546875,1.52587890625,-5.37109375,24.5489501953125,35.057373046875,73.9764404296875
1758786208.7522836,-0.5390625,0.3466796875,0.787109375,-2.38037109375,1.64794921875,-5.31005859375,24.4940185546875,35.0848388671875,73.9544677734375
1758786208.7612622,-0.5390625,0.3466796875,0.787109375,-2.38037109375,1.64794921875,-5.31005859375,24.444580078125,35.1068115234375,73.9324951171875
1758786208.7719069,-0.548828125,0.33642578125,0.74853515625,-0.48828125,1.89208984375,-5.55419921875,24.4061279296875,35.1287841796875,73.9105224609375
1758786208.7817435,-0.548828125,0.33642578125,0.74853515625,-0.48828125,1.89208984375,-5.55419921875,24.3731689453125,35.15625,73.883056640625
1758786208.7925513,-0.560546875,0.328125,0.7412109375,0.48828125,1.40380859375,-5.55419921875,24.3402099609375,35.17822265625,73.8555908203125
1758786208.80137,-0.560546875,0.328125,0.7412109375,0.48828125,1.40380859375,-5.55419921875,24.3182373046875,35.2001953125,73.828125
1758786208.8120284,-0.55908203125,0.32275390625,0.79052734375,4.08935546875,1.5869140625,-6.103515625,24.3072509765625,35.2276611328125,73.8006591796875
1758786208.8220353,-0.55908203125,0.32275390625,0.79052734375,4.08935546875,1.5869140625,-6.103515625,24.312744140625,35.255126953125,73.7677001953125
1758786208.8321855,-0.55078125,0.31201171875,0.79150390625,11.962890625,1.52587890625,-7.38525390625,24.356689453125,35.2825927734375,73.729248046875
1758786208.8413298,-0.55078125,0.31201171875,0.79150390625,11.962890625,1.52587890625,-7.38525390625,24.4281005859375,35.3155517578125,73.685302734375
1758786208.8514063,-0.52685546875,0.31201171875,0.748046875,18.5546875,1.8310546875,-7.9345703125,24.532470703125,35.3485107421875,73.6358642578125
1758786208.8618245,-0.52685546875,0.31201171875,0.748046875,18.5546875,1.8310546875,-7.9345703125,24.664306640625,35.386962890625,73.58642578125
1758786208.8718336,-0.5244140625,0.34423828125,0.76904296875,12.87841796875,2.74658203125,-8.36181640625,24.7686767578125,35.4254150390625,73.5369873046875
1758786208.8813436,-0.5244140625,0.34423828125,0.76904296875,12.87841796875,2.74658203125,-8.36181640625,24.8455810546875,35.4693603515625,73.487548828125
1758786208.8914328,-0.5283203125,0.38330078125,0.78515625,1.953125,3.23486328125,-7.9345703125,24.8675537109375,35.5133056640625,73.443603515625
1758786208.901955,-0.5283203125,0.38330078125,0.78515625,1.953125,3.23486328125,-7.9345703125,24.840087890625,35.562744140625,73.399658203125
1758786208.911629,-0.51904296875,0.380859375,0.7587890625,-3.90625,3.41796875,-8.48388671875,24.78515625,35.606689453125,73.3612060546875
1758786208.9218364,-0.51904296875,0.380859375,0.7587890625,-3.90625,3.41796875,-8.48388671875,24.697265625,35.6561279296875,73.311767578125
1758786208.9318407,-0.51025390625,0.3740234375,0.73095703125,-5.31005859375,4.08935546875,-8.60595703125,24.609375,35.70556640625,73.267822265625
1758786208.9419806,-0.51025390625,0.3740234375,0.73095703125,-5.31005859375,4.08935546875,-8.60595703125,24.5159912109375,35.7550048828125,73.2183837890625
1758786208.9515953,-0.4970703125,0.3408203125,0.73779296875,-10.31494140625,4.5166015625,-8.7890625,24.3951416015625,35.8099365234375,73.1744384765625
1758786208.9615583,-0.4970703125,0.3408203125,0.73779296875,-10.31494140625,4.5166015625,-8.7890625,24.2523193359375,35.8648681640625,73.125
1758786208.9720776,-0.49462890625,0.31298828125,0.71337890625,-11.77978515625,5.2490234375,-9.033203125,24.10400390625,35.92529296875,73.0810546875
1758786208.9816813,-0.49462890625,0.31298828125,0.71337890625,-11.77978515625,5.2490234375,-9.033203125,23.9501953125,35.9857177734375,73.0316162109375
1758786208.9916034,-0.5029296875,0.28662109375,0.68017578125,-2.62451171875,6.591796875,-9.58251953125,23.84033203125,36.05712890625,72.9876708984375
