timestamp,acc_x,acc_y,acc_z,gyro_x,gyro_y,gyro_z,angle_x,angle_y,angle_z
1760968498.7236817,0.36279296875,-0.08056640625,0.91455078125,4.7607421875,-0.6103515625,-0.42724609375,-4.3341064453125,-21.11572265625,-148.73291015625
1760968498.733699,0.3701171875,-0.06103515625,0.9345703125,2.13623046875,-0.54931640625,-0.18310546875,-4.3011474609375,-21.1212158203125,-148.721923828125
1760968498.7419353,0.3701171875,-0.06103515625,0.9345703125,2.13623046875,-0.54931640625,-0.18310546875,-4.2791748046875,-21.126708984375,-148.7054443359375
1760968498.7522311,0.3671875,-0.06787109375,0.9345703125,-0.30517578125,-0.6103515625,-0.06103515625,-4.273681640625,-21.1376953125,-148.6944580078125
1760968498.7638593,0.3671875,-0.06787109375,0.9345703125,-0.30517578125,-0.6103515625,-0.06103515625,-4.2791748046875,-21.1431884765625,-148.677978515625
1760968498.7747283,0.36474609375,-0.07373046875,0.93505859375,-0.6103515625,-0.54931640625,-0.18310546875,-4.28466796875,-21.1541748046875,-148.6614990234375
1760968498.785603,0.36474609375,-0.07373046875,0.93505859375,-0.6103515625,-0.54931640625,-0.18310546875,-4.2901611328125,-21.15966796875,-148.6505126953125
1760968498.7959177,0.37353515625,-0.07080078125,0.93408203125,-0.67138671875,-0.8544921875,-0.30517578125,-4.3011474609375,-21.170654296875,-148.634033203125
1760968498.8050838,0.37353515625,-0.07080078125,0.93408203125,-0.67138671875,-0.8544921875,-0.30517578125,-4.306640625,-21.1761474609375,-148.623046875
1760968498.8151731,0.373046875,-0.06689453125,0.94482421875,-1.953125,-0.9765625,-0.42724609375,-4.317626953125,-21.1871337890625,-148.612060546875
1760968498.8223906,0.373046875,-0.06689453125,0.94482421875,-1.953125,-0.9765625,-0.42724609375,-4.339599609375,-21.20361328125,-148.60107421875
1760968498.831029,0.373046875,-0.06689453125,0.94482421875,-2.3193359375,-0.9765625,-0.48828125,-4.361572265625,-21.214599609375,-148.590087890625
1760968498.8410807,0.36669921875,-0.07177734375,0.93798828125,-2.3193359375,-0.9765625,-0.48828125,-4.3780517578125,-21.2255859375,-148.5845947265625
1760968498.8510764,0.361328125,-0.07763671875,0.9072265625,-0.30517578125,-0.9765625,-0.54931640625,-4.39453125,-21.236572265625,-148.5736083984375
1760968498.8611515,0.361328125,-0.07763671875,0.9072265625,-0.30517578125,-0.9765625,-0.54931640625,-4.39453125,-21.24755859375,-148.568115234375
1760968498.871115,0.3623046875,-0.07470703125,0.90966796875,0.79345703125,-0.79345703125,-0.54931640625,-4.3890380859375,-21.258544921875,-148.55712890625
1760968498.8817596,0.3623046875,-0.07470703125,0.90966796875,0.79345703125,-0.79345703125,-0.54931640625,-4.383544921875,-21.26953125,-148.5516357421875
1760968498.8912365,0.37451171875,-0.07177734375,0.9443359375,1.3427734375,-0.67138671875,-0.6103515625,-4.3670654296875,-21.2750244140625,-148.546142578125
1760968498.9011374,0.37451171875,-0.07177734375,0.9443359375,1.3427734375,-0.67138671875,-0.6103515625,-4.3560791015625,-21.2860107421875,-148.53515625
1760968498.9110818,0.37548828125,-0.06884765625,0.94580078125,0.1220703125,-0.732421875,-0.54931640625,-4.3450927734375,-21.29150390625,-148.5296630859375
1760968498.9210947,0.37548828125,-0.06884765625,0.94580078125,0.1220703125,-0.732421875,-0.54931640625,-4.3450927734375,-21.302490234375,-148.524169921875
1760968498.9310966,0.37158203125,-0.07275390625,0.94482421875,-0.06103515625,-0.6103515625,-0.48828125,-4.3450927734375,-21.3134765625,-148.51318359375
1760968498.9411097,0.37158203125,-0.07275390625,0.94482421875,-0.06103515625,-0.6103515625,-0.48828125,-4.339599609375,-21.3189697265625,-148.5076904296875
1760968498.9511192,0.37255859375,-0.07763671875,0.94580078125,0.732421875,-0.54931640625,-0.42724609375,-4.339599609375,-21.324462890625,-148.4967041015625
1760968498.96114,0.37255859375,-0.07763671875,0.94580078125,0.732421875,-0.54931640625,-0.42724609375,-4.32861328125,-21.33544921875,-148.4857177734375
1760968498.9711366,0.3828125,-0.078125,0.96044921875,3.60107421875,-0.79345703125,-0.48828125,-4.306640625,-21.3409423828125,-148.480224609375
1760968498.9811492,0.3828125,-0.078125,0.96044921875,3.60107421875,-0.79345703125,-0.48828125,-4.2681884765625,-21.3519287109375,-148.46923828125
1760968498.9911835,0.38916015625,-0.076171875,0.9619140625,4.150390625,-1.0986328125,-0.42724609375,-4.229736328125,-21.3629150390625,-148.458251953125
1760968499.00117,0.38916015625,-0.076171875,0.9619140625,4.150390625,-1.0986328125,-0.42724609375,-4.1912841796875,-21.3739013671875,-148.4527587890625
1760968499.011179,0.388671875,-0.0673828125,0.98583984375,4.69970703125,-1.3427734375,-0.3662109375,-4.1473388671875,-21.390380859375,-148.4417724609375
1760968499.0212018,0.388671875,-0.0673828125,0.98583984375,4.69970703125,-1.3427734375,-0.3662109375,-4.1033935546875,-21.4013671875,-148.4307861328125
1760968499.0312057,0.39794921875,-0.06640625,1.00732421875,6.28662109375,-2.0751953125,-0.42724609375,-4.0484619140625,-21.42333984375,-148.4197998046875
1760968499.0412114,0.39794921875,-0.06640625,1.00732421875,6.28662109375,-2.0751953125,-0.42724609375,-3.988037109375,-21.4453125,-148.4088134765625
1760968499.0512156,0.40771484375,-0.07470703125,1.01708984375,6.34765625,-3.2958984375,-0.42724609375,-3.922119140625,-21.4727783203125,-148.3978271484375
1760968499.0612721,0.40771484375,-0.07470703125,1.01708984375,6.34765625,-3.2958984375,-0.42724609375,-3.8616943359375,-21.5057373046875,-148.3868408203125
1760968499.0713787,0.40576171875,-0.07080078125,0.98583984375,7.6904296875,-4.21142578125,-0.54931640625,-3.790283203125,-21.544189453125,-148.38134765625
1760968499.081329,0.40576171875,-0.07080078125,0.98583984375,7.6904296875,-4.21142578125,-0.54931640625,-3.7188720703125,-21.588134765625,-148.370361328125
1760968499.0913374,0.41650390625,-0.0458984375,1.0390625,12.26806640625,-5.4931640625,-0.9765625,-3.6199951171875,-21.6375732421875,-148.3648681640625
1760968499.101411,0.41650390625,-0.0458984375,1.0390625,12.26806640625,-5.4931640625,-0.9765625,-3.4991455078125,-21.6925048828125,-148.3648681640625
1760968499.1113548,0.42724609375,-0.044921875,1.080078125,16.11328125,-7.32421875,-1.3427734375,-3.3563232421875,-21.7584228515625,-148.359375
1760968499.1213892,0.42724609375,-0.044921875,1.080078125,16.11328125,-7.32421875,-1.3427734375,-3.1915283203125,-21.829833984375,-148.3538818359375
1760968499.131433,0.44287109375,-0.0654296875,1.076171875,10.07080078125,-9.33837890625,-1.3427734375,-3.0596923828125,-21.9122314453125,-148.348388671875
1760968499.1413107,0.44287109375,-0.0654296875,1.076171875,10.07080078125,-9.33837890625,-1.3427734375,-2.9608154296875,-22.005615234375,-148.348388671875
1760968499.1513152,0.4384765625,-0.076171875,1.0634765625,1.708984375,-11.16943359375,-1.46484375,-2.900390625,-22.1099853515625,-148.3428955078125
1760968499.1613443,0.4384765625,-0.076171875,1.0634765625,1.708984375,-11.16943359375,-1.46484375,-2.8839111328125,-22.2198486328125,-148.33740234375
1760968499.1713417,0.416015625,-0.06494140625,0.98291015625,1.8310546875,-12.75634765625,-1.953125,-2.867431640625,-22.335205078125,-148.33740234375
1760968499.1813614,0.416015625,-0.06494140625,0.98291015625,1.8310546875,-12.75634765625,-1.953125,-2.8509521484375,-22.4615478515625,-148.3428955078125
1760968499.1913693,0.40478515625,-0.05029296875,0.90869140625,5.43212890625,-13.671875,-2.44140625,-2.8125,-22.5933837890625,-148.348388671875
1760968499.2013786,0.40478515625,-0.05029296875,0.90869140625,5.43212890625,-13.671875,-2.44140625,-2.757568359375,-22.730712890625,-148.3538818359375
1760968499.2115178,0.38134765625,-0.03125,0.89453125,9.27734375,-14.09912109375,-2.5634765625,-2.6806640625,-22.8680419921875,-148.3648681640625
1760968499.2214391,0.38134765625,-0.03125,0.89453125,9.27734375,-14.09912109375,-2.5634765625,-2.5872802734375,-23.00537109375,-148.370361328125
1760968499.231423,0.35693359375,-0.04345703125,0.8154296875,7.62939453125,-13.0615234375,-2.197265625,-2.4993896484375,-23.1427001953125,-148.38134765625
1760968499.2414594,0.35693359375,-0.04345703125,0.8154296875,7.62939453125,-13.0615234375,-2.197265625,-2.4169921875,-23.26904296875,-148.38134765625
1760968499.2515419,0.326171875,-0.0400390625,0.6845703125,3.96728515625,-10.80322265625,-1.953125,-2.362060546875,-23.3843994140625,-148.3868408203125
1760968499.2615287,0.326171875,-0.0400390625,0.6845703125,3.96728515625,-10.80322265625,-1.953125,-2.318115234375,-23.48876953125,-148.392333984375
1760968499.2715456,0.27197265625,-0.0322265625,0.62939453125,7.87353515625,-6.40869140625,-1.77001953125,-2.2576904296875,-23.57666015625,-148.4033203125
1760968499.281603,0.27197265625,-0.0322265625,0.62939453125,7.87353515625,-6.40869140625,-1.77001953125,-2.1807861328125,-23.6370849609375,-148.4088134765625
1760968499.2915657,0.2734375,0.00244140625,0.69091796875,8.4228515625,-2.38037109375,-1.3427734375,-2.098388671875,-23.675537109375,-148.414306640625
1760968499.3015556,0.2734375,0.00244140625,0.69091796875,8.4228515625,-2.38037109375,-1.3427734375,-2.0159912109375,-23.697509765625,-148.4088134765625
1760968499.3116887,0.3447265625,0.01025390625,0.7578125,4.57763671875,0.42724609375,-1.0986328125,-1.9500732421875,-23.7030029296875,-148.4033203125
1760968499.3215973,0.3447265625,0.01025390625,0.7578125,4.57763671875,0.42724609375,-1.0986328125,-1.900634765625,-23.697509765625,-148.3978271484375
1760968499.3316035,0.41748046875,-0.0546875,0.92041015625,6.89697265625,0.79345703125,-1.28173828125,-1.8402099609375,-23.6865234375,-148.392333984375
1760968499.3416188,0.41748046875,-0.0546875,0.92041015625,6.89697265625,0.79345703125,-1.28173828125,-1.768798828125,-23.675537109375,-148.392333984375
1760968499.3516562,0.431640625,-0.0595703125,1.013671875,4.08935546875,1.28173828125,-0.9765625,-1.7138671875,-23.66455078125,-148.392333984375
1760968499.3619802,0.431640625,-0.0595703125,1.013671875,4.08935546875,1.28173828125,-0.9765625,-1.669921875,-23.653564453125,-148.392333984375
1760968499.3813806,0.42578125,0.0009765625,1.0107421875,-0.48828125,2.01416015625,-0.18310546875,-1.658935546875,-23.631591796875,-148.3868408203125
1760968499.3888953,0.42578125,0.0009765625,1.0107421875,-0.48828125,2.01416015625,-0.18310546875,-1.6644287109375,-23.609619140625,-148.3758544921875
1760968499.3951342,0.42578125,-0.00634765625,0.97705078125,-1.89208984375,1.77001953125,0.0,-1.6754150390625,-23.5931396484375,-148.359375
1760968499.4020534,0.42578125,-0.00634765625,0.97705078125,-1.89208984375,1.77001953125,0.0,-1.6973876953125,-23.5711669921875,-148.3428955078125
1760968499.411763,0.4130859375,-0.04052734375,0.9287109375,-3.5400390625,1.0986328125,0.0,-1.724853515625,-23.5546875,-148.3209228515625
1760968499.4255846,0.4130859375,-0.04052734375,0.9287109375,-3.5400390625,1.0986328125,0.0,-1.7578125,-23.543701171875,-148.3099365234375
1760968499.4320536,0.40625,-0.03173828125,0.87841796875,-2.3193359375,0.8544921875,-0.18310546875,-1.790771484375,-23.53271484375,-148.29345703125
1760968499.4417932,0.40625,-0.03173828125,0.87841796875,-2.3193359375,0.8544921875,-0.18310546875,-1.812744140625,-23.5272216796875,-148.282470703125
1760968499.4517922,0.39404296875,-0.02783203125,0.91259765625,-0.91552734375,0.9765625,-0.30517578125,-1.8292236328125,-23.5162353515625,-148.2769775390625
1760968499.4619424,0.39404296875,-0.02783203125,0.91259765625,-0.91552734375,0.9765625,-0.30517578125,-1.834716796875,-23.5107421875,-148.271484375
1760968499.4773164,0.3974609375,-0.01806640625,0.94091796875,0.0,0.732421875,-0.3662109375,-1.8402099609375,-23.499755859375,-148.2659912109375
1760968499.483592,0.3974609375,-0.01806640625,0.94091796875,0.0,0.732421875,-0.3662109375,-1.834716796875,-23.4942626953125,-148.2550048828125
1760968499.4919474,0.41015625,-0.01611328125,0.9111328125,-0.8544921875,0.54931640625,-0.3662109375,-1.834716796875,-23.48876953125,-148.2440185546875
1760968499.5022488,0.41015625,-0.01611328125,0.9111328125,-0.8544921875,0.54931640625,-0.3662109375,-1.8402099609375,-23.4832763671875,-148.238525390625
1760968499.5119112,0.41650390625,-0.0439453125,0.90966796875,0.9765625,0.0,-0.48828125,-1.8292236328125,-23.4832763671875,-148.2330322265625
1760968499.522248,0.41650390625,-0.0439453125,0.90966796875,0.9765625,0.0,-0.48828125,-1.8182373046875,-23.4832763671875,-148.2275390625
1760968499.5319602,0.40625,-0.033203125,0.94189453125,2.01416015625,0.0,-0.48828125,-1.7962646484375,-23.48876953125,-148.2220458984375
1760968499.5421731,0.40625,-0.033203125,0.94189453125,2.01416015625,0.0,-0.48828125,-1.7742919921875,-23.48876953125,-148.2220458984375
1760968499.5519004,0.4140625,-0.0224609375,0.9375,1.15966796875,-0.30517578125,-0.6103515625,-1.7578125,-23.4942626953125,-148.216552734375
1760968499.5621173,0.4140625,-0.0224609375,0.9375,1.15966796875,-0.30517578125,-0.6103515625,-1.746826171875,-23.499755859375,-148.216552734375
1760968499.5719688,0.4091796875,-0.0302734375,0.92529296875,2.01416015625,-0.67138671875,-0.6103515625,-1.724853515625,-23.5052490234375,-148.216552734375
1760968499.5819058,0.4091796875,-0.0302734375,0.92529296875,2.01416015625,-0.67138671875,-0.6103515625,-1.702880859375,-23.5162353515625,-148.2110595703125
1760968499.5923626,0.404296875,-0.03564453125,0.9140625,3.96728515625,-0.732421875,-0.48828125,-1.658935546875,-23.521728515625,-148.2110595703125
1760968499.6022913,0.404296875,-0.03564453125,0.9140625,3.96728515625,-0.732421875,-0.48828125,-1.6204833984375,-23.53271484375,-148.20556640625
1760968499.6126666,0.40185546875,-0.0283203125,0.90234375,4.39453125,-0.8544921875,-0.3662109375,-1.5765380859375,-23.543701171875,-148.2000732421875
1760968499.6220963,0.40185546875,-0.0283203125,0.90234375,4.39453125,-0.8544921875,-0.3662109375,-1.5325927734375,-23.5491943359375,-148.2000732421875
1760968499.6324449,0.4091796875,-0.02294921875,0.9228515625,3.662109375,-1.03759765625,-0.30517578125,-1.4996337890625,-23.565673828125,-148.194580078125
1760968499.6420975,0.4091796875,-0.02294921875,0.9228515625,3.662109375,-1.03759765625,-0.30517578125,-1.461181640625,-23.57666015625,-148.1890869140625
1760968499.6520998,0.41748046875,-0.02685546875,0.9609375,5.31005859375,-1.220703125,-0.3662109375,-1.40625,-23.587646484375,-148.18359375
1760968499.6620672,0.41748046875,-0.02685546875,0.9609375,5.31005859375,-1.220703125,-0.3662109375,-1.3568115234375,-23.6041259765625,-148.18359375
1760968499.673796,0.42236328125,-0.02880859375,0.93115234375,5.18798828125,-1.8310546875,-0.30517578125,-1.307373046875,-23.62060546875,-148.1781005859375
1760968499.6905026,0.42236328125,-0.02880859375,0.93115234375,5.18798828125,-1.8310546875,-0.30517578125,-1.2579345703125,-23.642578125,-148.1781005859375
1760968499.6978612,0.41259765625,-0.01904296875,0.92138671875,4.2724609375,-2.38037109375,0.0,-1.2139892578125,-23.66455078125,-148.172607421875
1760968499.70457,0.41259765625,-0.01904296875,0.92138671875,4.2724609375,-2.38037109375,0.0,-1.175537109375,-23.6920166015625,-148.1671142578125
1760968499.7126262,0.40771484375,-0.0244140625,0.92138671875,4.94384765625,-2.5634765625,0.1220703125,-1.131591796875,-23.719482421875,-148.1561279296875
1760968499.7244394,0.40771484375,-0.0244140625,0.92138671875,4.94384765625,-2.5634765625,0.1220703125,-1.087646484375,-23.7469482421875,-148.150634765625
1760968499.739308,0.40869140625,-0.01953125,0.9052734375,5.43212890625,-2.685546875,0.18310546875,-1.03271484375,-23.7744140625,-148.1451416015625
1760968499.7494617,0.40869140625,-0.01953125,0.9052734375,5.43212890625,-2.685546875,0.18310546875,-0.9832763671875,-23.8018798828125,-148.1341552734375
1760968499.757702,0.41357421875,-0.00146484375,0.92431640625,3.90625,-2.8076171875,0.18310546875,-0.9503173828125,-23.829345703125,-148.128662109375
1760968499.764115,0.41357421875,-0.00146484375,0.92431640625,3.90625,-2.8076171875,0.18310546875,-0.911865234375,-23.8568115234375,-148.1231689453125
1760968499.7727516,0.41259765625,-0.01123046875,0.9404296875,2.62451171875,-2.685546875,0.30517578125,-0.889892578125,-23.88427734375,-148.1121826171875
1760968499.7826524,0.41259765625,-0.01123046875,0.9404296875,2.62451171875,-2.685546875,0.30517578125,-0.867919921875,-23.9117431640625,-148.1011962890625
1760968499.7922804,0.41357421875,-0.02294921875,0.92236328125,3.5400390625,-3.0517578125,0.42724609375,-0.8349609375,-23.9447021484375,-148.084716796875
1760968499.8030214,0.41357421875,-0.02294921875,0.92236328125,3.5400390625,-3.0517578125,0.42724609375,-0.8074951171875,-23.97216796875,-148.07373046875
1760968499.8134928,0.40771484375,-0.01025390625,0.8828125,3.0517578125,-2.99072265625,0.42724609375,-0.780029296875,-24.005126953125,-148.062744140625
1760968499.826006,0.40771484375,-0.01025390625,0.8828125,3.0517578125,-2.99072265625,0.42724609375,-0.7525634765625,-24.0325927734375,-148.0517578125
1760968499.8338635,0.40771484375,-0.01025390625,0.8828125,2.99072265625,-2.62451171875,0.1220703125,-0.72509765625,-24.06005859375,-148.040771484375
1760968499.8431983,0.4130859375,0.01220703125,0.9130859375,2.99072265625,-2.62451171875,0.1220703125,-0.6976318359375,-24.0875244140625,-148.02978515625
1760968499.8529713,0.412109375,-0.0068359375,0.939453125,1.40380859375,-2.0751953125,0.06103515625,-0.6866455078125,-24.1094970703125,-148.018798828125
1760968499.8624506,0.412109375,-0.0068359375,0.939453125,1.40380859375,-2.0751953125,0.06103515625,-0.670166015625,-24.1314697265625,-148.0078125
1760968499.872447,0.40771484375,-0.0244140625,0.89990234375,-1.46484375,-1.8310546875,0.244140625,-0.6866455078125,-24.14794921875,-147.996826171875
1760968499.8846202,0.40771484375,-0.0244140625,0.89990234375,-1.46484375,-1.8310546875,0.244140625,-0.703125,-24.1644287109375,-147.98583984375
1760968499.8959439,0.40380859375,-0.01513671875,0.8896484375,0.0,-1.3427734375,0.3662109375,-0.7086181640625,-24.180908203125,-147.974853515625
1760968499.9070766,0.40380859375,-0.01513671875,0.8896484375,0.0,-1.3427734375,0.3662109375,-0.7086181640625,-24.19189453125,-147.9638671875
1760968499.9168131,0.41064453125,0.00390625,0.888671875,-0.79345703125,-1.03759765625,0.30517578125,-0.7196044921875,-24.202880859375,-147.952880859375
1760968499.9248147,0.41064453125,0.00390625,0.888671875,-0.79345703125,-1.03759765625,0.30517578125,-0.7305908203125,-24.2138671875,-147.94189453125
1760968499.9339848,0.404296875,-0.01171875,0.87353515625,-2.0751953125,-0.79345703125,0.244140625,-0.7525634765625,-24.224853515625,-147.930908203125
1760968499.9427686,0.404296875,-0.01171875,0.87353515625,-2.0751953125,-0.79345703125,0.244140625,-0.76904296875,-24.2303466796875,-147.9254150390625
1760968499.9531603,0.40673828125,-0.03125,0.90673828125,-0.732421875,-0.30517578125,0.42724609375,-0.780029296875,-24.23583984375,-147.9144287109375
1760968499.9806416,0.40673828125,-0.03125,0.90673828125,-0.732421875,-0.30517578125,0.42724609375,-0.791015625,-24.2413330078125,-147.9034423828125
1760968500.0036402,0.42333984375,-0.005859375,0.94873046875,-0.6103515625,-0.18310546875,0.79345703125,-0.802001953125,-24.2413330078125,-147.886962890625
1760968500.0099385,0.42333984375,-0.005859375,0.94873046875,-0.6103515625,-0.18310546875,0.79345703125,-0.81298828125,-24.2413330078125,-147.8704833984375
1760968500.029626,0.4248046875,-0.00390625,0.9326171875,0.0,-0.18310546875,0.8544921875,-0.81298828125,-24.246826171875,-147.85400390625
1760968500.036335,0.4248046875,-0.00390625,0.9326171875,0.0,-0.18310546875,0.8544921875,-0.8184814453125,-24.246826171875,-147.8375244140625
1760968500.0431871,0.41845703125,-0.01806640625,0.8916015625,-0.06103515625,-0.42724609375,0.79345703125,-0.8184814453125,-24.2523193359375,-147.821044921875
1760968500.0504959,0.41845703125,-0.01806640625,0.8916015625,-0.06103515625,-0.42724609375,0.79345703125,-0.823974609375,-24.2578125,-147.8045654296875
1760968500.0576024,0.419921875,-0.01123046875,0.9287109375,0.0,-0.30517578125,0.91552734375,-0.8294677734375,-24.2633056640625,-147.7880859375
1760968500.0646966,0.419921875,-0.01123046875,0.9287109375,0.0,-0.30517578125,0.91552734375,-0.8349609375,-24.2633056640625,-147.777099609375
1760968500.0728192,0.43115234375,-0.00048828125,0.990234375,-2.99072265625,-0.18310546875,1.220703125,-0.867919921875,-24.268798828125,-147.755126953125
1760968500.080511,0.43115234375,-0.00048828125,0.990234375,-2.99072265625,-0.18310546875,1.220703125,-0.90087890625,-24.268798828125,-147.733154296875
1760968500.087546,0.42333984375,-0.021484375,0.91552734375,-7.32421875,-0.30517578125,1.46484375,-0.977783203125,-24.2742919921875,-147.7056884765625
1760968500.0946026,0.42333984375,-0.021484375,0.91552734375,-7.32421875,-0.30517578125,1.46484375,-1.0546875,-24.2742919921875,-147.6837158203125
1760968500.101179,0.40869140625,-0.03515625,0.84375,-6.9580078125,-0.67138671875,1.46484375,-1.131591796875,-24.2852783203125,-147.6617431640625
1760968500.108656,0.40869140625,-0.03515625,0.84375,-6.9580078125,-0.67138671875,1.46484375,-1.20849609375,-24.290771484375,-147.6397705078125
1760968500.1172266,0.400390625,-0.02099609375,0.8857421875,-1.03759765625,-0.54931640625,1.15966796875,-1.219482421875,-24.2962646484375,-147.623291015625
1760968500.1243868,0.400390625,-0.02099609375,0.8857421875,-1.03759765625,-0.54931640625,1.15966796875,-1.2359619140625,-24.3072509765625,-147.601318359375
1760968500.132971,0.4248046875,-0.009765625,0.95703125,0.0,-0.3662109375,1.0986328125,-1.241455078125,-24.312744140625,-147.5848388671875
1760968500.143176,0.4248046875,-0.009765625,0.95703125,0.0,-0.3662109375,1.0986328125,-1.241455078125,-24.312744140625,-147.568359375
1760968500.1566908,0.431640625,-0.0263671875,0.94873046875,-0.244140625,-0.67138671875,0.9765625,-1.25244140625,-24.32373046875,-147.5518798828125
1760968500.1634266,0.431640625,-0.0263671875,0.94873046875,-0.244140625,-0.67138671875,0.9765625,-1.2579345703125,-24.3292236328125,-147.5299072265625
1760968500.173335,0.41796875,-0.0185546875,0.89453125,-1.40380859375,-0.6103515625,0.8544921875,-1.2744140625,-24.334716796875,-147.5189208984375
1760968500.1863275,0.41796875,-0.0185546875,0.89453125,-1.40380859375,-0.6103515625,0.8544921875,-1.2908935546875,-24.3402099609375,-147.50244140625
1760968500.2039163,0.4091796875,-0.01123046875,0.9130859375,0.48828125,-0.1220703125,0.67138671875,-1.285400390625,-24.345703125,-147.491455078125
1760968500.2105389,0.4091796875,-0.01123046875,0.9130859375,0.48828125,-0.1220703125,0.67138671875,-1.285400390625,-24.345703125,-147.4749755859375
1760968500.2312963,0.41796875,-0.03125,0.91943359375,1.03759765625,-0.18310546875,0.54931640625,-1.2744140625,-24.3511962890625,-147.4639892578125
1760968500.2385073,0.41796875,-0.03125,0.91943359375,1.03759765625,-0.18310546875,0.54931640625,-1.2689208984375,-24.3511962890625,-147.4530029296875
1760968500.2458937,0.4189453125,-0.0205078125,0.89501953125,1.64794921875,-0.54931640625,0.42724609375,-1.25244140625,-24.356689453125,-147.4420166015625
1760968500.2556992,0.4189453125,-0.0205078125,0.89501953125,1.64794921875,-0.54931640625,0.42724609375,-1.2359619140625,-24.3621826171875,-147.4310302734375
1760968500.262989,0.42578125,-0.01171875,0.93896484375,2.197265625,-0.48828125,0.3662109375,-1.2139892578125,-24.3731689453125,-147.4200439453125
1760968500.28117,0.42578125,-0.01171875,0.93896484375,2.197265625,-0.48828125,0.3662109375,-1.197509765625,-24.378662109375,-147.4090576171875
1760968500.304251,0.42724609375,-0.02099609375,0.927734375,2.13623046875,-0.48828125,0.42724609375,-1.175537109375,-24.3841552734375,-147.3980712890625
1760968500.3131278,0.42724609375,-0.02099609375,0.927734375,2.13623046875,-0.48828125,0.42724609375,-1.1590576171875,-24.3896484375,-147.3870849609375
1760968500.3203068,0.4228515625,-0.02783203125,0.93408203125,2.13623046875,-0.54931640625,0.42724609375,-1.1370849609375,-24.3951416015625,-147.3760986328125
1760968500.3411238,0.4228515625,-0.02783203125,0.93408203125,2.13623046875,-0.54931640625,0.42724609375,-1.12060546875,-24.400634765625,-147.3651123046875
1760968500.3601685,0.4189453125,-0.01806640625,0.92138671875,1.40380859375,-0.6103515625,0.30517578125,-1.109619140625,-24.4061279296875,-147.3541259765625
1760968500.3694956,0.4189453125,-0.01806640625,0.92138671875,1.40380859375,-0.6103515625,0.30517578125,-1.0931396484375,-24.41162109375,-147.3486328125
1760968500.3857195,0.42724609375,-0.013671875,0.9072265625,1.3427734375,-0.91552734375,0.3662109375,-1.0821533203125,-24.422607421875,-147.337646484375
1760968500.392753,0.42724609375,-0.013671875,0.9072265625,1.3427734375,-0.91552734375,0.3662109375,-1.0711669921875,-24.43359375,-147.32666015625
1760968500.4080343,0.4189453125,-0.0244140625,0.8974609375,-0.244140625,-1.03759765625,0.54931640625,-1.07666015625,-24.444580078125,-147.315673828125
1760968500.4150517,0.4189453125,-0.0244140625,0.8974609375,-0.244140625,-1.03759765625,0.54931640625,-1.087646484375,-24.45556640625,-147.3101806640625
1760968500.4229205,0.41845703125,-0.01416015625,0.93701171875,0.79345703125,-0.9765625,0.48828125,-1.0821533203125,-24.466552734375,-147.2991943359375
1760968500.429447,0.41845703125,-0.01416015625,0.93701171875,0.79345703125,-0.9765625,0.48828125,-1.07666015625,-24.4775390625,-147.2882080078125
1760968500.4392357,0.42919921875,-0.01513671875,0.93212890625,0.42724609375,-1.15966796875,0.30517578125,-1.0711669921875,-24.4940185546875,-147.28271484375
1760968500.4455895,0.42919921875,-0.01513671875,0.93212890625,0.42724609375,-1.15966796875,0.30517578125,-1.0711669921875,-24.5050048828125,-147.271728515625
1760968500.4598207,0.4306640625,-0.0146484375,0.916015625,-0.48828125,-1.52587890625,0.30517578125,-1.07666015625,-24.521484375,-147.2662353515625
1760968500.4688592,0.4306640625,-0.0146484375,0.916015625,-0.48828125,-1.52587890625,0.30517578125,-1.0821533203125,-24.5379638671875,-147.2607421875
1760968500.4778848,0.44091796875,-0.02197265625,0.96533203125,0.6103515625,-1.953125,0.18310546875,-1.07666015625,-24.554443359375,-147.2552490234375
1760968500.4859173,0.44091796875,-0.025390625,0.95361328125,0.18310546875,-2.50244140625,0.0,-1.07666015625,-24.5819091796875,-147.249755859375
1760968500.508281,0.44091796875,-0.025390625,0.95361328125,0.18310546875,-2.50244140625,0.0,-1.07666015625,-24.6038818359375,-147.2442626953125
1760968500.519805,0.4345703125,-0.0205078125,0.92041015625,0.6103515625,-3.35693359375,-0.06103515625,-1.0711669921875,-24.6368408203125,-147.23876953125
1760968500.528242,0.4345703125,-0.0205078125,0.92041015625,0.6103515625,-3.35693359375,-0.06103515625,-1.065673828125,-24.6697998046875,-147.23876953125
1760968500.5386927,0.427734375,-0.01806640625,0.91748046875,1.03759765625,-3.662109375,0.0,-1.0601806640625,-24.7027587890625,-147.2332763671875
1760968500.5457966,0.427734375,-0.01806640625,0.91748046875,1.03759765625,-3.662109375,0.0,-1.0491943359375,-24.7412109375,-147.227783203125
1760968500.5531213,0.4267578125,-0.0126953125,0.91357421875,-0.8544921875,-3.662109375,0.0,-1.0491943359375,-24.7796630859375,-147.227783203125
1760968500.560063,0.4267578125,-0.0126953125,0.91357421875,-0.8544921875,-3.662109375,0.0,-1.0601806640625,-24.818115234375,-147.2222900390625
1760968500.5748613,0.43017578125,-0.0107421875,0.931640625,0.67138671875,-3.47900390625,-0.18310546875,-1.0601806640625,-24.85107421875,-147.216796875
1760968500.5844357,0.43017578125,-0.0107421875,0.931640625,0.67138671875,-3.47900390625,-0.18310546875,-1.0546875,-24.8895263671875,-147.2113037109375
1760968500.5918007,0.43505859375,-0.009765625,0.93798828125,-0.42724609375,-3.47900390625,-0.18310546875,-1.0491943359375,-24.9224853515625,-147.205810546875
1760968500.6007755,0.43505859375,-0.009765625,0.93798828125,-0.42724609375,-3.47900390625,-0.18310546875,-1.0546875,-24.9554443359375,-147.205810546875
1760968500.608814,0.43505859375,-0.009765625,0.93798828125,-2.685546875,-3.662109375,-0.06103515625,-1.0711669921875,-24.9884033203125,-147.19482421875
1760968500.6169643,0.43994140625,-0.021484375,0.912109375,-2.685546875,-3.662109375,-0.06103515625,-1.0931396484375,-25.02685546875,-147.1893310546875
1760968500.6437087,0.43017578125,-0.03173828125,0.9033203125,-2.5634765625,-3.60107421875,-0.06103515625,-1.12060546875,-25.0653076171875,-147.183837890625
1760968500.6537561,0.43017578125,-0.03173828125,0.9033203125,-2.5634765625,-3.60107421875,-0.06103515625,-1.1480712890625,-25.0982666015625,-147.183837890625
1760968500.6617913,0.42822265625,-0.02587890625,0.892578125,-1.953125,-3.47900390625,-0.1220703125,-1.1700439453125,-25.13671875,-147.1783447265625
1760968500.6697984,0.42822265625,-0.02587890625,0.892578125,-1.953125,-3.47900390625,-0.1220703125,-1.1920166015625,-25.169677734375,-147.1728515625
1760968500.6788201,0.427734375,-0.01171875,0.89501953125,-0.42724609375,-3.60107421875,-0.30517578125,-1.2030029296875,-25.20263671875,-147.1728515625
1760968500.6871984,0.427734375,-0.01171875,0.89501953125,-0.42724609375,-3.60107421875,-0.30517578125,-1.2030029296875,-25.2410888671875,-147.1728515625
1760968500.7035155,0.42529296875,-0.00830078125,0.9111328125,-1.220703125,-3.2958984375,-0.30517578125,-1.2139892578125,-25.2740478515625,-147.1673583984375
1760968500.7101066,0.42529296875,-0.00830078125,0.9111328125,-1.220703125,-3.2958984375,-0.30517578125,-1.219482421875,-25.3070068359375,-147.1673583984375
1760968500.7175949,0.43603515625,-0.02392578125,0.8984375,-1.40380859375,-3.0517578125,-0.244140625,-1.2359619140625,-25.3399658203125,-147.161865234375
1760968500.7265403,0.43603515625,-0.02392578125,0.8984375,-1.40380859375,-3.0517578125,-0.244140625,-1.2469482421875,-25.367431640625,-147.1563720703125
1760968500.734698,0.44140625,-0.0224609375,0.9150390625,-2.197265625,-2.9296875,-0.244140625,-1.263427734375,-25.400390625,-147.15087890625
1760968500.7417426,0.44140625,-0.0224609375,0.9150390625,-2.197265625,-2.9296875,-0.244140625,-1.285400390625,-25.4278564453125,-147.1453857421875
1760968500.750734,0.44140625,-0.0205078125,0.9326171875,-4.21142578125,-2.74658203125,-0.30517578125,-1.3128662109375,-25.455322265625,-147.1453857421875
1760968500.7751524,0.44140625,-0.0205078125,0.9326171875,-4.21142578125,-2.74658203125,-0.30517578125,-1.351318359375,-25.4827880859375,-147.139892578125
1760968500.7823913,0.44384765625,-0.017578125,0.9296875,-3.662109375,-2.99072265625,-0.54931640625,-1.3897705078125,-25.51025390625,-147.139892578125
1760968500.789987,0.44384765625,-0.017578125,0.9296875,-3.662109375,-2.99072265625,-0.54931640625,-1.4227294921875,-25.543212890625,-147.1343994140625
1760968500.796487,0.447265625,-0.02392578125,0.92431640625,-2.44140625,-3.35693359375,-0.42724609375,-1.4501953125,-25.5706787109375,-147.1343994140625
1760968500.80287,0.447265625,-0.02392578125,0.92431640625,-2.44140625,-3.35693359375,-0.42724609375,-1.47216796875,-25.6036376953125,-147.1343994140625
1760968500.8104892,0.4501953125,-0.0302734375,0.91455078125,-3.41796875,-3.72314453125,-0.18310546875,-1.4996337890625,-25.64208984375,-147.12890625
1760968500.8169427,0.4501953125,-0.0302734375,0.91455078125,-3.41796875,-3.72314453125,-0.18310546875,-1.5325927734375,-25.675048828125,-147.1234130859375
1760968500.8244898,0.4482421875,-0.02978515625,0.92626953125,-2.685546875,-3.96728515625,-0.1220703125,-1.56005859375,-25.7135009765625,-147.117919921875
1760968500.832444,0.4482421875,-0.02978515625,0.92626953125,-2.685546875,-3.96728515625,-0.1220703125,-1.5875244140625,-25.751953125,-147.1124267578125
1760968500.83888,0.44775390625,-0.0244140625,0.90478515625,-3.2958984375,-3.90625,-0.1220703125,-1.614990234375,-25.7904052734375,-147.1124267578125
1760968500.8456964,0.44775390625,-0.0244140625,0.90478515625,-3.2958984375,-3.90625,-0.1220703125,-1.64794921875,-25.828857421875,-147.10693359375
1760968500.8521469,0.45947265625,-0.03173828125,0.94873046875,-0.732421875,-4.45556640625,-0.48828125,-1.6644287109375,-25.872802734375,-147.1014404296875
1760968500.8584583,0.45947265625,-0.03173828125,0.94873046875,-0.732421875,-4.45556640625,-0.48828125,-1.669921875,-25.916748046875,-147.1014404296875
1760968500.865175,0.46484375,-0.0263671875,0.943359375,-0.732421875,-4.7607421875,-0.42724609375,-1.6754150390625,-25.960693359375,-147.1014404296875
1760968500.8717961,0.46484375,-0.0263671875,0.943359375,-0.732421875,-4.7607421875,-0.42724609375,-1.680908203125,-26.0101318359375,-147.1014404296875
1760968500.8810833,0.45263671875,-0.03076171875,0.91552734375,-1.3427734375,-5.2490234375,-0.3662109375,-1.6864013671875,-26.0595703125,-147.095947265625
1760968500.906336,0.45263671875,-0.03076171875,0.91552734375,-1.3427734375,-5.2490234375,-0.3662109375,-1.6973876953125,-26.1090087890625,-147.095947265625
1760968500.923518,0.44482421875,-0.0380859375,0.88525390625,0.0,-5.4931640625,-0.42724609375,-1.702880859375,-26.1639404296875,-147.0904541015625
1760968500.9323838,0.44482421875,-0.0380859375,0.88525390625,0.0,-5.4931640625,-0.42724609375,-1.702880859375,-26.21337890625,-147.0904541015625
1760968500.9391599,0.42724609375,-0.03125,0.89013671875,2.74658203125,-5.37109375,-0.3662109375,-1.69189453125,-26.268310546875,-147.0849609375
1760968500.956395,0.42724609375,-0.03125,0.89013671875,2.74658203125,-5.37109375,-0.3662109375,-1.6644287109375,-26.3232421875,-147.0849609375
1760968500.966486,0.37890625,-0.01953125,0.75537109375,2.44140625,-3.47900390625,-0.18310546875,-1.636962890625,-26.3616943359375,-147.0794677734375
1760968500.9732232,0.37890625,-0.01953125,0.75537109375,2.44140625,-3.47900390625,-0.18310546875,-1.614990234375,-26.3946533203125,-147.0794677734375
1760968500.9804232,0.3876953125,-0.00927734375,0.73876953125,1.46484375,-2.13623046875,-0.18310546875,-1.593017578125,-26.422119140625,-147.073974609375
1760968500.9870768,0.3876953125,-0.00927734375,0.73876953125,1.46484375,-2.13623046875,-0.18310546875,-1.5765380859375,-26.444091796875,-147.0684814453125
1760968500.9934428,0.40185546875,-0.02587890625,0.80078125,-0.18310546875,-0.48828125,-0.244140625,-1.571044921875,-26.455078125,-147.0684814453125
1760968501.0000527,0.40185546875,-0.02587890625,0.80078125,-0.18310546875,-0.48828125,-0.244140625,-1.571044921875,-26.4605712890625,-147.06298828125
1760968501.0080438,0.44873046875,-0.015625,0.89794921875,0.0,0.244140625,-0.30517578125,-1.571044921875,-26.4605712890625,-147.06298828125
1760968501.0142756,0.44873046875,-0.015625,0.89794921875,0.0,0.244140625,-0.30517578125,-1.571044921875,-26.4605712890625,-147.06298828125
1760968501.0205305,0.462890625,-0.03759765625,0.94775390625,0.3662109375,0.244140625,-0.06103515625,-1.5655517578125,-26.455078125,-147.0574951171875
1760968501.0275598,0.462890625,-0.03759765625,0.94775390625,0.3662109375,0.244140625,-0.06103515625,-1.5655517578125,-26.455078125,-147.0574951171875
1760968501.03415,0.45361328125,-0.05029296875,0.90478515625,-0.30517578125,0.0,0.1220703125,-1.5655517578125,-26.4495849609375,-147.052001953125
1760968501.04075,0.45361328125,-0.05029296875,0.90478515625,-0.30517578125,0.0,0.1220703125,-1.571044921875,-26.4495849609375,-147.0465087890625
1760968501.047452,0.4443359375,-0.0146484375,0.8544921875,0.0,0.0,0.06103515625,-1.5765380859375,-26.4495849609375,-147.041015625
1760968501.053725,0.4443359375,-0.0146484375,0.8544921875,0.0,0.0,0.06103515625,-1.5765380859375,-26.4495849609375,-147.0355224609375
1760968501.063884,0.4619140625,-0.00048828125,0.92431640625,-0.3662109375,0.1220703125,0.0,-1.5765380859375,-26.4495849609375,-147.0355224609375
1760968501.073661,0.4619140625,-0.00048828125,0.92431640625,-0.3662109375,0.1220703125,0.0,-1.58203125,-26.4495849609375,-147.030029296875
1760968501.0850296,0.46435546875,-0.041015625,0.94873046875,-1.15966796875,0.0,0.06103515625,-1.5875244140625,-26.4495849609375,-147.0245361328125
1760968501.0947418,0.46435546875,-0.041015625,0.94873046875,-1.15966796875,0.0,0.06103515625,-1.60400390625,-26.4495849609375,-147.01904296875
1760968501.1041358,0.4423828125,-0.04638671875,0.87060546875,-0.67138671875,0.0,0.1220703125,-1.6094970703125,-26.4495849609375,-147.0135498046875
1760968501.1164088,0.4423828125,-0.04638671875,0.87060546875,-0.67138671875,0.0,0.1220703125,-1.6204833984375,-26.4495849609375,-147.008056640625
1760968501.12472,0.4453125,-0.01611328125,0.88232421875,-0.18310546875,0.06103515625,0.0,-1.6259765625,-26.455078125,-147.008056640625
1760968501.1375227,0.4453125,-0.01611328125,0.88232421875,-0.18310546875,0.06103515625,0.0,-1.6314697265625,-26.455078125,-147.0025634765625
1760968501.14691,0.4658203125,-0.01708984375,0.94140625,0.0,-0.244140625,-0.06103515625,-1.6314697265625,-26.455078125,-147.0025634765625
1760968501.1556814,0.4658203125,-0.01708984375,0.94140625,0.0,-0.244140625,-0.06103515625,-1.6314697265625,-26.455078125,-147.0025634765625
1760968501.1726372,0.46142578125,-0.04736328125,0.912109375,-1.220703125,-0.6103515625,0.06103515625,-1.636962890625,-26.4605712890625,-146.9970703125
1760968501.1811023,0.46142578125,-0.04736328125,0.912109375,-1.220703125,-0.6103515625,0.06103515625,-1.64794921875,-26.4715576171875,-146.9970703125
1760968501.1901405,0.44482421875,-0.03076171875,0.869140625,-0.79345703125,-0.3662109375,0.06103515625,-1.658935546875,-26.47705078125,-146.9915771484375
1760968501.2030416,0.44482421875,-0.03076171875,0.869140625,-0.79345703125,-0.3662109375,0.06103515625,-1.669921875,-26.47705078125,-146.9915771484375
1760968501.210901,0.44580078125,-0.01123046875,0.896484375,0.42724609375,0.06103515625,-0.06103515625,-1.6754150390625,-26.4825439453125,-146.9915771484375
1760968501.2276852,0.44580078125,-0.01123046875,0.896484375,0.42724609375,0.06103515625,-0.06103515625,-1.669921875,-26.4825439453125,-146.9915771484375
1760968501.2361202,0.45458984375,-0.0244140625,0.92919921875,0.06103515625,0.06103515625,-0.1220703125,-1.6644287109375,-26.4825439453125,-146.9915771484375
1760968501.2446284,0.45458984375,-0.0244140625,0.92919921875,0.06103515625,0.06103515625,-0.1220703125,-1.6644287109375,-26.4825439453125,-146.986083984375
1760968501.254234,0.44970703125,-0.03662109375,0.88671875,0.18310546875,-0.18310546875,0.0,-1.6644287109375,-26.4825439453125,-146.986083984375
1760968501.2611465,0.44970703125,-0.03662109375,0.88671875,0.18310546875,-0.18310546875,0.0,-1.6644287109375,-26.488037109375,-146.9805908203125
1760968501.2780943,0.453125,-0.02734375,0.88671875,0.67138671875,-0.244140625,0.244140625,-1.658935546875,-26.488037109375,-146.97509765625
1760968501.287318,0.453125,-0.02734375,0.88671875,0.67138671875,-0.244140625,0.244140625,-1.6534423828125,-26.4935302734375,-146.97509765625
1760968501.2962162,0.46435546875,-0.0322265625,0.9326171875,1.52587890625,-0.244140625,0.18310546875,-1.64794921875,-26.4935302734375,-146.9696044921875
1760968501.3096428,0.46435546875,-0.0322265625,0.9326171875,1.52587890625,-0.244140625,0.18310546875,-1.6314697265625,-26.4990234375,-146.964111328125
1760968501.318724,0.458984375,-0.02734375,0.91748046875,0.79345703125,-0.42724609375,0.06103515625,-1.6204833984375,-26.5045166015625,-146.964111328125
1760968501.325994,0.458984375,-0.02734375,0.91748046875,0.79345703125,-0.42724609375,0.06103515625,-1.614990234375,-26.510009765625,-146.9586181640625
1760968501.3330016,0.44873046875,-0.0244140625,0.89111328125,1.3427734375,-0.48828125,0.0,-1.60400390625,-26.5155029296875,-146.9586181640625
1760968501.341229,0.44873046875,-0.0244140625,0.89111328125,1.3427734375,-0.48828125,0.0,-1.593017578125,-26.52099609375,-146.9586181640625
1760968501.3537786,0.44873046875,-0.0244140625,0.89111328125,0.732421875,-0.48828125,0.18310546875,-1.5875244140625,-26.5264892578125,-146.953125
1760968501.3629954,0.451171875,-0.03173828125,0.8955078125,0.732421875,-0.48828125,0.18310546875,-1.58203125,-26.531982421875,-146.9476318359375
1760968501.37187,0.45751953125,-0.03466796875,0.9052734375,1.220703125,-0.6103515625,0.30517578125,-1.571044921875,-26.5374755859375,-146.9476318359375
1760968501.3794563,0.45751953125,-0.03466796875,0.9052734375,1.220703125,-0.6103515625,0.30517578125,-1.5655517578125,-26.54296875,-146.942138671875
1760968501.3874888,0.46044921875,-0.01416015625,0.91796875,1.77001953125,-0.8544921875,0.1220703125,-1.5545654296875,-26.5484619140625,-146.9366455078125
1760968501.3964658,0.46044921875,-0.01416015625,0.91796875,1.77001953125,-0.8544921875,0.1220703125,-1.5380859375,-26.5594482421875,-146.9366455078125
1760968501.4054062,0.45947265625,-0.01806640625,0.9169921875,1.3427734375,-0.9765625,0.0,-1.5216064453125,-26.5704345703125,-146.93115234375
1760968501.414633,0.45947265625,-0.01806640625,0.9169921875,1.3427734375,-0.9765625,0.0,-1.5106201171875,-26.5814208984375,-146.93115234375
1760968501.4243364,0.45751953125,-0.03515625,0.91064453125,1.77001953125,-1.15966796875,0.06103515625,-1.494140625,-26.5924072265625,-146.9256591796875
1760968501.4359498,0.45751953125,-0.03515625,0.91064453125,1.77001953125,-1.15966796875,0.06103515625,-1.4776611328125,-26.6033935546875,-146.9256591796875
1760968501.4442117,0.45751953125,-0.0400390625,0.88916015625,2.38037109375,-1.220703125,0.244140625,-1.461181640625,-26.619873046875,-146.920166015625
1760968501.4548295,0.45751953125,-0.0400390625,0.88916015625,2.38037109375,-1.220703125,0.244140625,-1.439208984375,-26.630859375,-146.9146728515625
1760968501.4651475,0.4521484375,-0.02294921875,0.8779296875,2.62451171875,-1.52587890625,0.244140625,-1.417236328125,-26.6473388671875,-146.9146728515625
1760968501.4750817,0.4521484375,-0.02294921875,0.8779296875,2.62451171875,-1.52587890625,0.244140625,-1.395263671875,-26.663818359375,-146.9091796875
1760968501.484932,0.4560546875,-0.015625,0.900390625,2.62451171875,-1.40380859375,0.244140625,-1.373291015625,-26.6802978515625,-146.9091796875
1760968501.4943957,0.4560546875,-0.015625,0.900390625,2.62451171875,-1.40380859375,0.244140625,-1.351318359375,-26.6912841796875,-146.9036865234375
1760968501.5056615,0.46240234375,-0.01806640625,0.9150390625,2.62451171875,-1.5869140625,0.1220703125,-1.3238525390625,-26.707763671875,-146.9036865234375
1760968501.5155919,0.46240234375,-0.01806640625,0.9150390625,2.62451171875,-1.5869140625,0.1220703125,-1.3018798828125,-26.7242431640625,-146.898193359375
1760968501.5271244,0.4521484375,-0.03759765625,0.89404296875,1.46484375,-1.708984375,0.30517578125,-1.2908935546875,-26.7462158203125,-146.8927001953125
1760968501.5346496,0.4521484375,-0.03759765625,0.89404296875,1.46484375,-1.708984375,0.30517578125,-1.2799072265625,-26.7626953125,-146.88720703125
1760968501.5457408,0.44873046875,-0.02783203125,0.86669921875,1.0986328125,-1.52587890625,0.48828125,-1.2744140625,-26.7791748046875,-146.8817138671875
1760968501.5553365,0.44873046875,-0.02783203125,0.86669921875,1.0986328125,-1.52587890625,0.48828125,-1.2689208984375,-26.7901611328125,-146.876220703125
1760968501.5653582,0.44873046875,-0.02783203125,0.86669921875,1.52587890625,-1.0986328125,0.42724609375,-1.2579345703125,-26.806640625,-146.8707275390625
1760968501.5754418,0.45458984375,-0.00732421875,0.9150390625,1.52587890625,-1.0986328125,0.42724609375,-1.2469482421875,-26.817626953125,-146.865234375
1760968501.585198,0.4619140625,-0.0185546875,0.87841796875,0.48828125,-1.3427734375,0.244140625,-1.2469482421875,-26.82861328125,-146.8597412109375
1760968501.5950468,0.4619140625,-0.0185546875,0.87841796875,0.48828125,-1.3427734375,0.244140625,-1.241455078125,-26.8450927734375,-146.8597412109375
1760968501.6058068,0.45556640625,-0.02197265625,0.89013671875,0.3662109375,-1.40380859375,0.244140625,-1.241455078125,-26.8560791015625,-146.854248046875
1760968501.6146855,0.45556640625,-0.02197265625,0.89013671875,0.3662109375,-1.40380859375,0.244140625,-1.241455078125,-26.87255859375,-146.854248046875
1760968501.6269174,0.4560546875,-0.0341796875,0.9208984375,-0.54931640625,-0.8544921875,0.48828125,-1.2469482421875,-26.883544921875,-146.8487548828125
1760968501.6356344,0.4560546875,-0.0341796875,0.9208984375,-0.54931640625,-0.8544921875,0.48828125,-1.2579345703125,-26.8890380859375,-146.84326171875
1760968501.6460915,0.45947265625,-0.015625,0.9072265625,0.8544921875,-0.79345703125,0.30517578125,-1.25244140625,-26.9000244140625,-146.8377685546875
1760968501.6565514,0.45947265625,-0.015625,0.9072265625,0.8544921875,-0.79345703125,0.30517578125,-1.2469482421875,-26.905517578125,-146.832275390625
1760968501.6658912,0.46484375,-0.009765625,0.88525390625,1.0986328125,-1.03759765625,0.06103515625,-1.241455078125,-26.91650390625,-146.8267822265625
1760968501.6756153,0.46484375,-0.009765625,0.88525390625,1.0986328125,-1.03759765625,0.06103515625,-1.23046875,-26.927490234375,-146.8267822265625
1760968501.6846504,0.45947265625,-0.02392578125,0.88232421875,0.54931640625,-1.220703125,0.06103515625,-1.2249755859375,-26.9384765625,-146.8267822265625
1760968501.6958473,0.45947265625,-0.02392578125,0.88232421875,0.54931640625,-1.220703125,0.06103515625,-1.219482421875,-26.9549560546875,-146.8267822265625
1760968501.7050643,0.44970703125,-0.03271484375,0.8896484375,-0.06103515625,-0.8544921875,0.244140625,-1.2249755859375,-26.96044921875,-146.8212890625
1760968501.7159278,0.44970703125,-0.03271484375,0.8896484375,-0.06103515625,-0.8544921875,0.244140625,-1.2249755859375,-26.971435546875,-146.8157958984375
1760968501.7252002,0.46435546875,-0.01171875,0.92431640625,0.06103515625,-0.67138671875,0.244140625,-1.23046875,-26.9769287109375,-146.8157958984375
1760968501.734765,0.46435546875,-0.01171875,0.92431640625,0.06103515625,-0.67138671875,0.244140625,-1.23046875,-26.9879150390625,-146.8048095703125
1760968501.7450752,0.46728515625,-0.01025390625,0.89501953125,0.67138671875,-1.220703125,0.06103515625,-1.2249755859375,-26.9989013671875,-146.8048095703125
1760968501.7558362,0.46728515625,-0.01025390625,0.89501953125,0.67138671875,-1.220703125,0.06103515625,-1.219482421875,-27.0098876953125,-146.79931640625
1760968501.7664423,0.4580078125,-0.0322265625,0.876953125,0.91552734375,-1.40380859375,0.1220703125,-1.20849609375,-27.0263671875,-146.79931640625
1760968501.7749696,0.4580078125,-0.0322265625,0.876953125,0.91552734375,-1.40380859375,0.1220703125,-1.2030029296875,-27.0428466796875,-146.79931640625
1760968501.7860875,0.45068359375,-0.04345703125,0.87353515625,1.15966796875,-1.15966796875,0.30517578125,-1.1920166015625,-27.0538330078125,-146.7938232421875
1760968501.794782,0.45068359375,-0.04345703125,0.87353515625,1.15966796875,-1.15966796875,0.30517578125,-1.1865234375,-27.0648193359375,-146.788330078125
1760968501.8049037,0.453125,-0.0107421875,0.8720703125,1.03759765625,-0.91552734375,0.3662109375,-1.1810302734375,-27.0758056640625,-146.788330078125
1760968501.8156407,0.453125,-0.0107421875,0.8720703125,1.03759765625,-0.91552734375,0.3662109375,-1.175537109375,-27.0867919921875,-146.7828369140625
1760968501.8249614,0.458984375,0.00390625,0.9248046875,0.8544921875,-0.48828125,0.30517578125,-1.1700439453125,-27.09228515625,-146.77734375
1760968501.8373036,0.458984375,0.00390625,0.9248046875,0.8544921875,-0.48828125,0.30517578125,-1.16455078125,-27.0977783203125,-146.7718505859375
1760968501.847658,0.4697265625,-0.021484375,0.91162109375,0.732421875,-0.42724609375,0.244140625,-1.153564453125,-27.0977783203125,-146.766357421875
1760968501.8593776,0.4697265625,-0.021484375,0.91162109375,0.732421875,-0.42724609375,0.244140625,-1.1480712890625,-27.103271484375,-146.75537109375
1760968501.8673863,0.4599609375,-0.03662109375,0.876953125,0.732421875,-0.54931640625,0.244140625,-1.142578125,-27.1087646484375,-146.7498779296875
1760968501.8756251,0.4599609375,-0.03662109375,0.876953125,0.732421875,-0.54931640625,0.244140625,-1.142578125,-27.1142578125,-146.7498779296875
1760968501.8855088,0.45361328125,-0.02880859375,0.86865234375,1.28173828125,-0.6103515625,0.244140625,-1.131591796875,-27.1197509765625,-146.7498779296875
1760968501.8971965,0.45361328125,-0.02880859375,0.86865234375,1.28173828125,-0.6103515625,0.244140625,-1.12060546875,-27.1307373046875,-146.744384765625
1760968501.9048452,0.46142578125,0.00390625,0.908203125,2.01416015625,-0.48828125,0.06103515625,-1.1041259765625,-27.13623046875,-146.744384765625
1760968501.9166095,0.46142578125,0.00390625,0.908203125,2.01416015625,-0.48828125,0.06103515625,-1.0821533203125,-27.1417236328125,-146.744384765625
1760968501.9260132,0.46630859375,-0.00830078125,0.91357421875,0.0,-0.48828125,0.1220703125,-1.0821533203125,-27.147216796875,-146.7388916015625
1760968501.9376068,0.46630859375,-0.00830078125,0.91357421875,0.0,-0.48828125,0.1220703125,-1.087646484375,-27.1527099609375,-146.7333984375
1760968501.9452224,0.46337890625,-0.03173828125,0.89013671875,-0.30517578125,-0.42724609375,0.18310546875,-1.087646484375,-27.1527099609375,-146.7279052734375
1760968501.958077,0.46337890625,-0.03173828125,0.89013671875,-0.30517578125,-0.42724609375,0.18310546875,-1.0931396484375,-27.158203125,-146.7279052734375
1760968501.966705,0.44970703125,-0.029296875,0.8623046875,0.18310546875,-0.3662109375,0.0,-1.0931396484375,-27.1636962890625,-146.7279052734375
1760968501.977354,0.44970703125,-0.029296875,0.8623046875,0.18310546875,-0.3662109375,0.0,-1.0931396484375,-27.169189453125,-146.7279052734375
1760968501.986017,0.45849609375,-0.0107421875,0.89111328125,1.3427734375,-0.244140625,0.0,-1.0821533203125,-27.169189453125,-146.7279052734375
1760968501.9960577,0.45849609375,-0.0107421875,0.89111328125,1.3427734375,-0.244140625,0.0,-1.0711669921875,-27.1746826171875,-146.7279052734375
1760968502.0127344,0.46923828125,-0.017578125,0.90625,1.0986328125,-0.3662109375,0.0,-1.0601806640625,-27.18017578125,-146.7279052734375
1760968502.0249631,0.46923828125,-0.017578125,0.90625,1.0986328125,-0.3662109375,0.0,-1.0491943359375,-27.18017578125,-146.722412109375
1760968502.0324423,0.46484375,-0.0107421875,0.90576171875,1.15966796875,-0.42724609375,0.0,-1.0382080078125,-27.1856689453125,-146.722412109375
1760968502.0404527,0.46484375,-0.0107421875,0.90576171875,1.15966796875,-0.42724609375,0.0,-1.0272216796875,-27.191162109375,-146.722412109375
1760968502.0480945,0.46044921875,-0.015625,0.8740234375,-0.91552734375,-0.30517578125,0.06103515625,-1.0382080078125,-27.1966552734375,-146.722412109375
1760968502.0584683,0.46044921875,-0.015625,0.8740234375,-0.91552734375,-0.30517578125,0.06103515625,-1.0491943359375,-27.2021484375,-146.722412109375
1760968502.0652287,0.46484375,-0.0244140625,0.91552734375,0.54931640625,-0.18310546875,0.06103515625,-1.043701171875,-27.2021484375,-146.722412109375
1760968502.08134,0.46484375,-0.0244140625,0.91552734375,0.54931640625,-0.18310546875,0.06103515625,-1.0382080078125,-27.2076416015625,-146.722412109375
1760968502.0906866,0.47216796875,-0.0283203125,0.91845703125,1.40380859375,-0.42724609375,0.06103515625,-1.0272216796875,-27.2076416015625,-146.722412109375
1760968502.1028028,0.47216796875,-0.0283203125,0.91845703125,1.40380859375,-0.42724609375,0.06103515625,-1.0107421875,-27.213134765625,-146.722412109375
1760968502.1119013,0.45751953125,-0.021484375,0.837890625,1.64794921875,-0.79345703125,0.1220703125,-0.999755859375,-27.22412109375,-146.7169189453125
1760968502.1218543,0.45751953125,-0.021484375,0.837890625,1.64794921875,-0.79345703125,0.1220703125,-0.9832763671875,-27.2296142578125,-146.722412109375
1760968502.1325834,0.4541015625,-0.00048828125,0.88916015625,0.732421875,-0.30517578125,0.18310546875,-0.977783203125,-27.235107421875,-146.722412109375
1760968502.1403868,0.4541015625,-0.00048828125,0.88916015625,0.732421875,-0.30517578125,0.18310546875,-0.9722900390625,-27.2406005859375,-146.7169189453125
1760968502.1495924,0.470703125,-0.01318359375,0.927734375,0.0,-0.1220703125,0.244140625,-0.977783203125,-27.2406005859375,-146.7169189453125
1760968502.160613,0.470703125,-0.01318359375,0.927734375,0.0,-0.1220703125,0.244140625,-0.977783203125,-27.24609375,-146.71142578125
1760968502.1721492,0.46875,-0.0234375,0.90869140625,-0.42724609375,-0.30517578125,0.244140625,-0.9832763671875,-27.24609375,-146.7059326171875
1760968502.1815913,0.46875,-0.0234375,0.90869140625,-0.42724609375,-0.30517578125,0.244140625,-0.98876953125,-27.2515869140625,-146.700439453125
1760968502.1961806,0.4609375,-0.029296875,0.85693359375,0.0,-0.48828125,0.244140625,-0.9942626953125,-27.257080078125,-146.700439453125
1760968502.202849,0.4609375,-0.029296875,0.85693359375,0.0,-0.48828125,0.244140625,-0.9942626953125,-27.2625732421875,-146.700439453125
1760968502.2117634,0.4638671875,-0.005859375,0.90185546875,1.15966796875,-0.244140625,0.1220703125,-0.9832763671875,-27.26806640625,-146.700439453125
1760968502.2179484,0.4638671875,-0.005859375,0.90185546875,1.15966796875,-0.244140625,0.1220703125,-0.977783203125,-27.26806640625,-146.700439453125
1760968502.230624,0.4736328125,-0.009765625,0.92431640625,-0.06103515625,-0.244140625,0.06103515625,-0.977783203125,-27.2735595703125,-146.700439453125
1760968502.2453756,0.4736328125,-0.009765625,0.92431640625,-0.06103515625,-0.244140625,0.06103515625,-0.977783203125,-27.279052734375,-146.700439453125
1760968502.252002,0.46875,-0.02099609375,0.8896484375,-1.28173828125,-0.48828125,0.1220703125,-0.9942626953125,-27.2845458984375,-146.6949462890625
1760968502.2627707,0.46875,-0.02099609375,0.8896484375,-1.28173828125,-0.48828125,0.1220703125,-1.0052490234375,-27.2900390625,-146.6949462890625
1760968502.2695057,0.46484375,-0.0263671875,0.89794921875,-0.3662109375,-0.6103515625,0.06103515625,-1.0107421875,-27.2955322265625,-146.6949462890625
1760968502.2833526,0.46484375,-0.0263671875,0.89794921875,-0.3662109375,-0.6103515625,0.06103515625,-1.0162353515625,-27.301025390625,-146.6949462890625
1760968502.295516,0.47509765625,-0.01220703125,0.91845703125,0.3662109375,-0.67138671875,0.0,-1.0107421875,-27.3065185546875,-146.6949462890625
1760968502.3016136,0.47509765625,-0.01220703125,0.91845703125,0.3662109375,-0.67138671875,0.0,-1.0107421875,-27.3175048828125,-146.6949462890625
1760968502.3089359,0.48193359375,-0.009765625,0.931640625,0.8544921875,-1.03759765625,0.0,-0.999755859375,-27.3284912109375,-146.6949462890625
1760968502.3155522,0.48193359375,-0.009765625,0.931640625,0.8544921875,-1.03759765625,0.0,-0.9942626953125,-27.3394775390625,-146.689453125
1760968502.3291688,0.4892578125,-0.02587890625,0.94140625,-0.79345703125,-1.46484375,0.0,-0.999755859375,-27.35595703125,-146.689453125
1760968502.3381011,0.4873046875,-0.02490234375,0.9287109375,-1.3427734375,-2.13623046875,0.0,-1.0107421875,-27.3724365234375,-146.689453125
1760968502.3452504,0.4873046875,-0.02490234375,0.9287109375,-1.3427734375,-2.13623046875,0.0,-1.0272216796875,-27.3944091796875,-146.689453125
1760968502.3656445,0.4736328125,-0.02001953125,0.90478515625,0.3662109375,-2.44140625,0.0,-1.03271484375,-27.4163818359375,-146.6949462890625
1760968502.3729823,0.4736328125,-0.02001953125,0.90478515625,0.3662109375,-2.44140625,0.0,-1.03271484375,-27.44384765625,-146.689453125
1760968502.38495,0.48095703125,-0.02294921875,0.90380859375,1.64794921875,-3.0517578125,-0.30517578125,-1.021728515625,-27.4713134765625,-146.6949462890625
1760968502.391229,0.48095703125,-0.02294921875,0.90380859375,1.64794921875,-3.0517578125,-0.30517578125,-1.0052490234375,-27.498779296875,-146.6949462890625
1760968502.4108486,0.474609375,-0.015625,0.89453125,1.5869140625,-3.47900390625,-0.30517578125,-0.98876953125,-27.53173828125,-146.700439453125
1760968502.4170218,0.474609375,-0.015625,0.89453125,1.5869140625,-3.47900390625,-0.30517578125,-0.9722900390625,-27.5701904296875,-146.7059326171875
1760968502.4294205,0.47998046875,-0.01025390625,0.921875,0.8544921875,-3.72314453125,-0.18310546875,-0.9613037109375,-27.6031494140625,-146.7059326171875
1760968502.436766,0.47998046875,-0.01025390625,0.921875,0.8544921875,-3.72314453125,-0.18310546875,-0.9503173828125,-27.6416015625,-146.71142578125
1760968502.4432547,0.47998046875,-0.02783203125,0.91064453125,0.3662109375,-4.08935546875,-0.1220703125,-0.94482421875,-27.6800537109375,-146.71142578125
1760968502.4496825,0.47998046875,-0.02783203125,0.91064453125,0.3662109375,-4.08935546875,-0.1220703125,-0.94482421875,-27.718505859375,-146.71142578125
1760968502.4566166,0.47802734375,-0.01708984375,0.89404296875,0.42724609375,-4.39453125,-0.244140625,-0.9393310546875,-27.762451171875,-146.71142578125
1760968502.4700408,0.47802734375,-0.01708984375,0.89404296875,0.42724609375,-4.39453125,-0.244140625,-0.9393310546875,-27.806396484375,-146.71142578125
1760968502.4766376,0.47412109375,-0.017578125,0.89013671875,1.52587890625,-4.7607421875,-0.3662109375,-0.9283447265625,-27.850341796875,-146.71142578125
1760968502.4853926,0.47412109375,-0.017578125,0.89013671875,1.52587890625,-4.7607421875,-0.3662109375,-0.911865234375,-27.8997802734375,-146.7169189453125
1760968502.496791,0.45556640625,-0.01806640625,0.8369140625,0.30517578125,-4.08935546875,-0.1220703125,-0.9063720703125,-27.9437255859375,-146.7169189453125
1760968502.512077,0.45556640625,-0.01806640625,0.8369140625,0.30517578125,-4.08935546875,-0.1220703125,-0.90087890625,-27.982177734375,-146.7169189453125
1760968502.518939,0.4609375,-0.009765625,0.873046875,-0.06103515625,-4.08935546875,-0.244140625,-0.90087890625,-28.0206298828125,-146.722412109375
1760968502.5258708,0.4609375,-0.009765625,0.873046875,-0.06103515625,-4.08935546875,-0.244140625,-0.9063720703125,-28.0645751953125,-146.722412109375
1760968502.5361147,0.46142578125,-0.01708984375,0.84375,-0.3662109375,-3.60107421875,-0.1220703125,-0.9063720703125,-28.10302734375,-146.722412109375
1760968502.5455222,0.46142578125,-0.01708984375,0.84375,-0.3662109375,-3.60107421875,-0.1220703125,-0.911865234375,-28.135986328125,-146.722412109375
1760968502.5578027,0.4765625,-0.00048828125,0.88916015625,0.0,-3.35693359375,-0.1220703125,-0.911865234375,-28.1689453125,-146.722412109375
1760968502.5661008,0.4765625,-0.00048828125,0.88916015625,0.0,-3.35693359375,-0.1220703125,-0.911865234375,-28.201904296875,-146.722412109375
1760968502.5771112,0.47900390625,-0.02783203125,0.87158203125,-1.28173828125,-3.0517578125,0.0,-0.9173583984375,-28.23486328125,-146.722412109375
1760968502.5856788,0.47900390625,-0.02783203125,0.87158203125,-1.28173828125,-3.0517578125,0.0,-0.933837890625,-28.2623291015625,-146.722412109375
1760968502.5978477,0.4892578125,-0.02197265625,0.90673828125,-0.91552734375,-3.11279296875,-0.06103515625,-0.94482421875,-28.2952880859375,-146.722412109375
1760968502.6058114,0.4892578125,-0.02197265625,0.90673828125,-0.91552734375,-3.11279296875,-0.06103515625,-0.955810546875,-28.32275390625,-146.722412109375
1760968502.6167564,0.48828125,-0.013671875,0.908203125,-1.0986328125,-3.173828125,-0.18310546875,-0.966796875,-28.355712890625,-146.722412109375
1760968502.6257672,0.48828125,-0.013671875,0.908203125,-1.0986328125,-3.173828125,-0.18310546875,-0.977783203125,-28.388671875,-146.7279052734375
1760968502.635644,0.50927734375,-0.009765625,0.92041015625,-1.40380859375,-3.662109375,-0.30517578125,-0.98876953125,-28.421630859375,-146.7279052734375
1760968502.6529925,0.50927734375,-0.009765625,0.92041015625,-1.40380859375,-3.662109375,-0.30517578125,-0.999755859375,-28.45458984375,-146.7279052734375
1760968502.6596777,0.50341796875,-0.02099609375,0.931640625,-2.86865234375,-4.0283203125,-0.18310546875,-1.021728515625,-28.4930419921875,-146.7279052734375
1760968502.6689627,0.50341796875,-0.02099609375,0.931640625,-2.86865234375,-4.0283203125,-0.18310546875,-1.0491943359375,-28.531494140625,-146.7279052734375
1760968502.676419,0.509765625,-0.0302734375,0.9267578125,-1.0986328125,-4.638671875,-0.30517578125,-1.0711669921875,-28.575439453125,-146.7279052734375
1760968502.6862626,0.509765625,-0.0302734375,0.9267578125,-1.0986328125,-4.638671875,-0.30517578125,-1.07666015625,-28.619384765625,-146.7279052734375
1760968502.704645,0.50732421875,-0.01513671875,0.91796875,-0.48828125,-5.18798828125,-0.54931640625,-1.087646484375,-28.6688232421875,-146.7279052734375
1760968502.7117336,0.50732421875,-0.01513671875,0.91796875,-0.48828125,-5.18798828125,-0.54931640625,-1.087646484375,-28.71826171875,-146.7333984375
1760968502.719217,0.50634765625,-0.0068359375,0.91162109375,-2.3193359375,-5.55419921875,-0.48828125,-1.0986328125,-28.773193359375,-146.7333984375
1760968502.7256973,0.50634765625,-0.0068359375,0.91162109375,-2.3193359375,-5.55419921875,-0.48828125,-1.12060546875,-28.828125,-146.7333984375
1760968502.7357326,0.50732421875,-0.03125,0.89404296875,-2.01416015625,-6.103515625,-0.42724609375,-1.142578125,-28.883056640625,-146.7388916015625
1760968502.7497013,0.50732421875,-0.03125,0.89404296875,-2.01416015625,-6.103515625,-0.42724609375,-1.1590576171875,-28.9434814453125,-146.7388916015625
1760968502.756371,0.498046875,-0.033203125,0.8876953125,-1.3427734375,-6.53076171875,-0.3662109375,-1.175537109375,-29.00390625,-146.7388916015625
1760968502.7663383,0.498046875,-0.033203125,0.8876953125,-1.3427734375,-6.53076171875,-0.3662109375,-1.1865234375,-29.06982421875,-146.7388916015625
1760968502.7758002,0.4560546875,-0.02001953125,0.82421875,-1.46484375,-5.615234375,-0.3662109375,-1.2030029296875,-29.1302490234375,-146.744384765625
1760968502.792395,0.4560546875,-0.02001953125,0.82421875,-1.46484375,-5.615234375,-0.3662109375,-1.2139892578125,-29.1851806640625,-146.744384765625
1760968502.798973,0.44189453125,-0.01123046875,0.77099609375,-0.1220703125,-4.5166015625,-0.30517578125,-1.2249755859375,-29.234619140625,-146.744384765625
1760968502.8059182,0.44189453125,-0.01123046875,0.77099609375,-0.1220703125,-4.5166015625,-0.30517578125,-1.2249755859375,-29.278564453125,-146.744384765625
1760968502.8197227,0.4296875,-0.00927734375,0.76904296875,-0.6103515625,-3.173828125,-0.42724609375,-1.2249755859375,-29.3115234375,-146.744384765625
1760968502.8341353,0.4296875,-0.00927734375,0.76904296875,-0.6103515625,-3.173828125,-0.42724609375,-1.23046875,-29.344482421875,-146.7498779296875
1760968502.8422186,0.4296875,-0.0107421875,0.75927734375,-2.74658203125,-1.5869140625,-0.42724609375,-1.2469482421875,-29.366455078125,-146.7498779296875
1760968502.8540802,0.4296875,-0.0107421875,0.75927734375,-2.74658203125,-1.5869140625,-0.42724609375,-1.2689208984375,-29.3829345703125,-146.7498779296875
1760968502.8713899,0.45947265625,-0.00634765625,0.8125,-2.50244140625,-0.244140625,-0.244140625,-1.2908935546875,-29.388427734375,-146.7498779296875
1760968502.8868287,0.45947265625,-0.00634765625,0.8125,-2.50244140625,-0.244140625,-0.244140625,-1.3128662109375,-29.388427734375,-146.7498779296875
1760968502.894899,0.494140625,-0.0380859375,0.88330078125,-1.77001953125,0.18310546875,-0.1220703125,-1.3348388671875,-29.388427734375,-146.7498779296875
1760968502.904348,0.494140625,-0.0380859375,0.88330078125,-1.77001953125,0.18310546875,-0.1220703125,-1.351318359375,-29.388427734375,-146.744384765625
1760968502.9186969,0.505859375,-0.03955078125,0.90869140625,-0.6103515625,0.30517578125,0.0,-1.3623046875,-29.3829345703125,-146.744384765625
1760968502.9301012,0.505859375,-0.03955078125,0.90869140625,-0.6103515625,0.30517578125,0.0,-1.3677978515625,-29.37744140625,-146.7388916015625
1760968502.9371204,0.51220703125,-0.0146484375,0.90185546875,-1.5869140625,0.18310546875,0.0,-1.3787841796875,-29.37744140625,-146.7388916015625
1760968502.9462447,0.51220703125,-0.0146484375,0.90185546875,-1.5869140625,0.18310546875,0.0,-1.395263671875,-29.3719482421875,-146.7333984375
1760968502.9568067,0.50830078125,-0.01220703125,0.8857421875,-2.99072265625,0.1220703125,-0.06103515625,-1.417236328125,-29.3719482421875,-146.7279052734375
1760968502.9645991,0.50830078125,-0.01220703125,0.8857421875,-2.99072265625,0.1220703125,-0.06103515625,-1.4447021484375,-29.366455078125,-146.7279052734375
1760968502.9817908,0.51904296875,-0.02587890625,0.921875,-2.38037109375,-0.1220703125,-0.18310546875,-1.47216796875,-29.366455078125,-146.7279052734375
1760968502.9910474,0.51904296875,-0.02587890625,0.921875,-2.38037109375,-0.1220703125,-0.18310546875,-1.494140625,-29.3719482421875,-146.722412109375
1760968502.998561,0.51708984375,-0.0322265625,0.93115234375,-2.3193359375,-0.67138671875,-0.244140625,-1.51611328125,-29.3719482421875,-146.722412109375
1760968503.0068576,0.51708984375,-0.0322265625,0.93115234375,-2.3193359375,-0.67138671875,-0.244140625,-1.5380859375,-29.3829345703125,-146.722412109375
1760968503.0202367,0.52392578125,-0.02734375,0.89599609375,-2.3193359375,-1.3427734375,-0.48828125,-1.5545654296875,-29.388427734375,-146.7169189453125
1760968503.0270634,0.52392578125,-0.02734375,0.89599609375,-2.3193359375,-1.3427734375,-0.48828125,-1.5765380859375,-29.4049072265625,-146.722412109375
1760968503.0424123,0.5224609375,-0.0224609375,0.9306640625,-2.13623046875,-1.89208984375,-0.48828125,-1.5985107421875,-29.42138671875,-146.722412109375
1760968503.0489967,0.5224609375,-0.0224609375,0.9306640625,-2.13623046875,-1.89208984375,-0.48828125,-1.614990234375,-29.4378662109375,-146.7279052734375
1760968503.0568252,0.51611328125,-0.04248046875,0.916015625,-1.28173828125,-2.38037109375,-0.48828125,-1.6314697265625,-29.4598388671875,-146.7279052734375
1760968503.0673757,0.51611328125,-0.04248046875,0.916015625,-1.28173828125,-2.38037109375,-0.48828125,-1.636962890625,-29.4873046875,-146.7279052734375
1760968503.0746512,0.51025390625,-0.03369140625,0.87890625,0.3662109375,-2.8076171875,-0.54931640625,-1.6424560546875,-29.50927734375,-146.7279052734375
1760968503.0842218,0.51025390625,-0.03369140625,0.87890625,0.3662109375,-2.8076171875,-0.54931640625,-1.636962890625,-29.5367431640625,-146.7333984375
1760968503.0911367,0.5205078125,-0.0283203125,0.89794921875,-0.9765625,-3.41796875,-0.3662109375,-1.636962890625,-29.5697021484375,-146.7388916015625
1760968503.1004486,0.5205078125,-0.0283203125,0.89794921875,-0.9765625,-3.41796875,-0.3662109375,-1.64794921875,-29.6026611328125,-146.744384765625
1760968503.1114998,0.513671875,-0.02783203125,0.89111328125,-0.6103515625,-3.7841796875,-0.42724609375,-1.6534423828125,-29.64111328125,-146.744384765625
1760968503.1213553,0.513671875,-0.02783203125,0.89111328125,-0.6103515625,-3.7841796875,-0.42724609375,-1.658935546875,-29.6795654296875,-146.7498779296875
1760968503.1301422,0.5263671875,-0.0302734375,0.89453125,1.3427734375,-4.45556640625,-0.54931640625,-1.6534423828125,-29.7235107421875,-146.75537109375
1760968503.1383932,0.5263671875,-0.0302734375,0.89453125,1.3427734375,-4.45556640625,-0.54931640625,-1.6424560546875,-29.7674560546875,-146.7608642578125
1760968503.1495736,0.5390625,-0.04833984375,0.9306640625,0.8544921875,-5.4931640625,-0.67138671875,-1.6259765625,-29.81689453125,-146.766357421875
1760968503.1586058,0.5390625,-0.04833984375,0.9306640625,0.8544921875,-5.4931640625,-0.67138671875,-1.6204833984375,-29.871826171875,-146.7718505859375
1760968503.1671567,0.53662109375,-0.03759765625,0.923828125,0.18310546875,-6.103515625,-0.6103515625,-1.614990234375,-29.9322509765625,-146.7828369140625
1760968503.1773884,0.53662109375,-0.03759765625,0.923828125,0.18310546875,-6.103515625,-0.6103515625,-1.6094970703125,-29.99267578125,-146.788330078125
1760968503.1849992,0.5400390625,-0.02294921875,0.89697265625,-1.28173828125,-6.89697265625,-0.67138671875,-1.614990234375,-30.0531005859375,-146.7938232421875
1760968503.1931803,0.5400390625,-0.02294921875,0.89697265625,-1.28173828125,-6.89697265625,-0.67138671875,-1.6314697265625,-30.12451171875,-146.79931640625
1760968503.200637,0.53369140625,-0.03271484375,0.89697265625,-2.86865234375,-7.6904296875,-0.30517578125,-1.6534423828125,-30.1959228515625,-146.79931640625
1760968503.2073724,0.53369140625,-0.03271484375,0.89697265625,-2.86865234375,-7.6904296875,-0.30517578125,-1.680908203125,-30.2728271484375,-146.79931640625
1760968503.2631724,0.5107421875,-0.044921875,0.87060546875,-1.0986328125,-7.99560546875,-0.30517578125,-1.702880859375,-30.3497314453125,-146.79931640625
1760968503.269286,0.5107421875,-0.044921875,0.87060546875,-1.0986328125,-7.99560546875,-0.30517578125,-1.7138671875,-30.43212890625,-146.79931640625
1760968503.3035443,0.521484375,-0.02685546875,0.87890625,1.52587890625,-8.48388671875,-0.3662109375,-1.7138671875,-30.5145263671875,-146.79931640625
1760968503.3105638,0.521484375,-0.02685546875,0.87890625,1.52587890625,-8.48388671875,-0.3662109375,-1.702880859375,-30.596923828125,-146.79931640625
1760968503.318012,0.52099609375,-0.0244140625,0.873046875,0.0,-8.36181640625,-0.732421875,-1.6973876953125,-30.6793212890625,-146.79931640625
1760968503.3293858,0.52099609375,-0.0244140625,0.873046875,0.0,-8.36181640625,-0.732421875,-1.69189453125,-30.76171875,-146.8048095703125
1760968503.3355722,0.5107421875,-0.0205078125,0.84228515625,-2.9296875,-8.36181640625,-0.3662109375,-1.7083740234375,-30.838623046875,-146.79931640625
1760968503.3423452,0.5107421875,-0.0205078125,0.84228515625,-2.9296875,-8.36181640625,-0.3662109375,-1.7413330078125,-30.9210205078125,-146.79931640625
1760968503.3489995,0.49658203125,-0.02783203125,0.84033203125,-4.82177734375,-7.8125,-0.48828125,-1.77978515625,-31.00341796875,-146.7938232421875
1760968503.3629053,0.49658203125,-0.02783203125,0.84033203125,-4.82177734375,-7.8125,-0.48828125,-1.82373046875,-31.0748291015625,-146.788330078125
1760968503.3694968,0.49853515625,-0.0341796875,0.81103515625,-2.9296875,-7.14111328125,-0.48828125,-1.8511962890625,-31.146240234375,-146.7828369140625
1760968503.3764498,0.49853515625,-0.0341796875,0.81103515625,-2.9296875,-7.14111328125,-0.48828125,-1.878662109375,-31.212158203125,-146.7828369140625
1760968503.3829026,0.50927734375,-0.0146484375,0.8134765625,-1.5869140625,-6.7138671875,-0.54931640625,-1.8951416015625,-31.278076171875,-146.77734375
1760968503.396261,0.50927734375,-0.0146484375,0.8134765625,-1.5869140625,-6.7138671875,-0.54931640625,-1.91162109375,-31.343994140625,-146.7718505859375
1760968503.403845,0.45703125,-0.0185546875,0.7998046875,-2.25830078125,-5.43212890625,-0.30517578125,-1.9281005859375,-31.3934326171875,-146.766357421875
1760968503.4103928,0.45703125,-0.0185546875,0.7998046875,-2.25830078125,-5.43212890625,-0.30517578125,-1.9500732421875,-31.44287109375,-146.75537109375
1760968503.4172628,0.435546875,-0.04248046875,0.67138671875,-1.8310546875,-3.5400390625,0.0,-1.966552734375,-31.475830078125,-146.744384765625
1760968503.423646,0.435546875,-0.04248046875,0.67138671875,-1.8310546875,-3.5400390625,0.0,-1.988525390625,-31.5087890625,-146.7388916015625
1760968503.4301965,0.4296875,-0.021484375,0.72119140625,-0.244140625,-1.64794921875,-0.30517578125,-1.988525390625,-31.5252685546875,-146.7333984375
1760968503.4447944,0.4296875,-0.021484375,0.72119140625,-0.244140625,-1.64794921875,-0.30517578125,-1.988525390625,-31.5362548828125,-146.7279052734375
1760968503.452043,0.47119140625,-0.02587890625,0.7646484375,-1.3427734375,0.244140625,-0.1220703125,-2.0050048828125,-31.53076171875,-146.722412109375
1760968503.458472,0.47119140625,-0.02587890625,0.7646484375,-1.3427734375,0.244140625,-0.1220703125,-2.0159912109375,-31.5252685546875,-146.7169189453125
1760968503.4848118,0.5322265625,-0.01953125,0.8486328125,-3.47900390625,0.79345703125,-0.06103515625,-2.0489501953125,-31.519775390625,-146.71142578125
1760968503.4914184,0.5322265625,-0.01953125,0.8486328125,-3.47900390625,0.79345703125,-0.06103515625,-2.0819091796875,-31.5087890625,-146.7059326171875
1760968503.4979174,0.55712890625,-0.05517578125,0.9091796875,-2.86865234375,0.6103515625,-0.06103515625,-2.109375,-31.5032958984375,-146.700439453125
1760968503.5040166,0.55712890625,-0.05517578125,0.9091796875,-2.86865234375,0.6103515625,-0.06103515625,-2.1368408203125,-31.497802734375,-146.6949462890625
1760968503.5107596,0.5537109375,-0.05322265625,0.91845703125,-0.42724609375,0.48828125,0.06103515625,-2.142333984375,-31.48681640625,-146.689453125
1760968503.517268,0.5537109375,-0.05322265625,0.91845703125,-0.42724609375,0.48828125,0.06103515625,-2.1478271484375,-31.4813232421875,-146.6839599609375
1760968503.5318546,0.54150390625,-0.03369140625,0.87890625,0.8544921875,0.244140625,0.0,-2.142333984375,-31.4813232421875,-146.6839599609375
1760968503.538079,0.54150390625,-0.03369140625,0.87890625,0.8544921875,0.244140625,0.0,-2.13134765625,-31.475830078125,-146.678466796875
1760968503.544317,0.51953125,-0.02734375,0.84130859375,-0.1220703125,0.06103515625,-0.1220703125,-2.1368408203125,-31.475830078125,-146.6729736328125
1760968503.550427,0.51953125,-0.02734375,0.84130859375,-0.1220703125,0.06103515625,-0.1220703125,-2.1368408203125,-31.475830078125,-146.6729736328125
1760968503.564905,0.5185546875,-0.03466796875,0.81787109375,1.28173828125,0.06103515625,-0.42724609375,-2.120361328125,-31.475830078125,-146.6729736328125
1760968503.5719497,0.5185546875,-0.03466796875,0.81787109375,1.28173828125,0.06103515625,-0.42724609375,-2.109375,-31.475830078125,-146.678466796875
1760968503.57834,0.51806640625,-0.037109375,0.8271484375,-0.06103515625,0.3662109375,-0.244140625,-2.109375,-31.4703369140625,-146.678466796875
1760968503.5847273,0.51806640625,-0.037109375,0.8271484375,-0.06103515625,0.3662109375,-0.244140625,-2.109375,-31.4703369140625,-146.6839599609375
1760968503.5908964,0.5341796875,-0.03662109375,0.88037109375,-1.46484375,0.6103515625,0.0,-2.1258544921875,-31.46484375,-146.6839599609375
1760968503.6076002,0.5341796875,-0.03662109375,0.88037109375,-1.46484375,0.6103515625,0.0,-2.142333984375,-31.4593505859375,-146.678466796875
1760968503.6146765,0.541015625,-0.0361328125,0.888671875,-0.732421875,0.30517578125,0.0,-2.1478271484375,-31.453857421875,-146.678466796875
1760968503.6213048,0.541015625,-0.0361328125,0.888671875,-0.732421875,0.30517578125,0.0,-2.1588134765625,-31.453857421875,-146.678466796875
1760968503.6275237,0.533203125,-0.02978515625,0.86328125,0.18310546875,0.06103515625,-0.3662109375,-2.1533203125,-31.453857421875,-146.678466796875
1760968503.6342251,0.533203125,-0.02978515625,0.86328125,0.18310546875,0.06103515625,-0.3662109375,-2.1533203125,-31.453857421875,-146.678466796875
1760968503.6489205,0.53857421875,-0.03515625,0.84130859375,0.0,-0.18310546875,-0.30517578125,-2.1478271484375,-31.4593505859375,-146.6839599609375
1760968503.656415,0.53857421875,-0.03515625,0.84130859375,0.0,-0.18310546875,-0.30517578125,-2.1478271484375,-31.4593505859375,-146.6839599609375
1760968503.664452,0.5400390625,-0.04296875,0.87744140625,0.0,-0.18310546875,-0.30517578125,-2.1533203125,-31.46484375,-146.6839599609375
1760968503.6708171,0.5400390625,-0.04296875,0.87744140625,-0.54931640625,-0.244140625,0.0,-2.164306640625,-31.4703369140625,-146.6839599609375
1760968503.7024605,0.55029296875,-0.041015625,0.93505859375,1.3427734375,-0.06103515625,-0.06103515625,-2.1368408203125,-31.4703369140625,-146.678466796875
1760968503.720424,0.5732421875,-0.033203125,0.89208984375,1.28173828125,-1.03759765625,-0.30517578125,-2.1258544921875,-31.4813232421875,-146.678466796875
1760968503.7359114,0.5732421875,-0.033203125,0.89208984375,1.28173828125,-1.03759765625,-0.30517578125,-2.109375,-31.4923095703125,-146.678466796875
1760968503.7421255,0.5595703125,-0.0458984375,0.88818359375,0.54931640625,-2.44140625,-0.244140625,-2.109375,-31.519775390625,-146.678466796875
1760968503.7713268,0.5595703125,-0.0458984375,0.88818359375,0.54931640625,-2.44140625,-0.244140625,-2.1038818359375,-31.5472412109375,-146.6839599609375
1760968503.777992,0.5439453125,-0.05615234375,0.86865234375,1.708984375,-2.8076171875,-0.06103515625,-2.08740234375,-31.57470703125,-146.6839599609375
1760968503.7851033,0.5439453125,-0.05615234375,0.86865234375,1.708984375,-2.8076171875,-0.06103515625,-2.076416015625,-31.6021728515625,-146.6839599609375
1760968503.800466,0.57080078125,-0.02099609375,0.92724609375,0.732421875,-3.2958984375,-0.18310546875,-2.0709228515625,-31.640625,-146.6839599609375
1760968503.8083727,0.57080078125,-0.02099609375,0.92724609375,0.732421875,-3.2958984375,-0.18310546875,-2.0654296875,-31.673583984375,-146.6839599609375
1760968503.815716,0.55517578125,-0.0302734375,0.91455078125,0.18310546875,-3.84521484375,-0.54931640625,-2.0654296875,-31.7120361328125,-146.6839599609375
1760968503.8229609,0.55517578125,-0.0302734375,0.91455078125,0.18310546875,-3.84521484375,-0.54931640625,-2.0599365234375,-31.75048828125,-146.6839599609375
1760968503.8484528,0.55419921875,-0.052734375,0.84765625,0.6103515625,-4.69970703125,-0.48828125,-2.054443359375,-31.79443359375,-146.689453125
1760968503.8573458,0.55419921875,-0.052734375,0.84765625,0.6103515625,-4.69970703125,-0.48828125,-2.0489501953125,-31.8438720703125,-146.689453125
1760968503.8648329,0.541015625,-0.04150390625,0.828125,0.91552734375,-5.18798828125,-0.3662109375,-2.04345703125,-31.8988037109375,-146.6949462890625
1760968503.8734376,0.541015625,-0.04150390625,0.828125,0.91552734375,-5.18798828125,-0.3662109375,-2.0379638671875,-31.9482421875,-146.700439453125
1760968503.8986647,0.55322265625,-0.029296875,0.88037109375,-0.6103515625,-5.615234375,-0.18310546875,-2.04345703125,-32.0086669921875,-146.700439453125
1760968503.906935,0.55322265625,-0.029296875,0.88037109375,-0.6103515625,-5.615234375,-0.18310546875,-2.054443359375,-32.0635986328125,-146.700439453125
1760968503.9150264,0.5390625,-0.02880859375,0.87744140625,0.1220703125,-5.7373046875,-0.3662109375,-2.054443359375,-32.1240234375,-146.700439453125
1760968503.923247,0.5390625,-0.02880859375,0.87744140625,0.1220703125,-5.7373046875,-0.3662109375,-2.054443359375,-32.178955078125,-146.700439453125
1760968503.9477856,0.55029296875,-0.03125,0.8603515625,1.220703125,-5.92041015625,-0.48828125,-2.04345703125,-32.2393798828125,-146.700439453125
1760968503.9545348,0.55029296875,-0.03125,0.8603515625,1.220703125,-5.92041015625,-0.48828125,-2.0269775390625,-32.2943115234375,-146.700439453125
1760968503.9616144,0.552734375,-0.04248046875,0.84521484375,0.06103515625,-5.9814453125,-0.30517578125,-2.0269775390625,-32.354736328125,-146.700439453125
1760968503.9689665,0.552734375,-0.04248046875,0.84521484375,0.06103515625,-5.9814453125,-0.30517578125,-2.032470703125,-32.4151611328125,-146.700439453125
1760968503.9763796,0.55029296875,-0.05078125,0.857421875,0.0,-6.04248046875,-0.30517578125,-2.032470703125,-32.4755859375,-146.700439453125
1760968504.001755,0.55029296875,-0.05078125,0.857421875,0.0,-6.04248046875,-0.30517578125,-2.0379638671875,-32.5360107421875,-146.700439453125
1760968504.011202,0.54052734375,-0.037109375,0.849609375,0.6103515625,-5.9814453125,-0.3662109375,-2.032470703125,-32.5909423828125,-146.700439453125
1760968504.0182078,0.54052734375,-0.037109375,0.849609375,0.6103515625,-5.9814453125,-0.3662109375,-2.0269775390625,-32.6513671875,-146.700439453125
1760968504.0259228,0.537109375,-0.02587890625,0.826171875,1.03759765625,-5.92041015625,-0.1220703125,-2.021484375,-32.706298828125,-146.6949462890625
1760968504.0513291,0.537109375,-0.02587890625,0.826171875,1.03759765625,-5.92041015625,-0.1220703125,-2.0159912109375,-32.7667236328125,-146.689453125
1760968504.059039,0.5400390625,-0.025390625,0.83740234375,1.64794921875,-5.92041015625,-0.18310546875,-1.99951171875,-32.8216552734375,-146.6839599609375
1760968504.067459,0.5400390625,-0.025390625,0.83740234375,1.64794921875,-5.92041015625,-0.18310546875,-1.9830322265625,-32.882080078125,-146.678466796875
1760968504.0748155,0.5380859375,-0.03369140625,0.802734375,0.30517578125,-5.67626953125,-0.42724609375,-1.9830322265625,-32.93701171875,-146.6729736328125
1760968504.081658,0.5380859375,-0.03369140625,0.802734375,0.30517578125,-5.67626953125,-0.42724609375,-1.9830322265625,-32.991943359375,-146.6729736328125
1760968504.0956304,0.5283203125,-0.0205078125,0.82958984375,-0.9765625,-5.06591796875,-0.18310546875,-1.9940185546875,-33.0413818359375,-146.66748046875
1760968504.1023521,0.5283203125,-0.0205078125,0.82958984375,-0.9765625,-5.06591796875,-0.18310546875,-2.0050048828125,-33.0908203125,-146.6619873046875
1760968504.1096017,0.53564453125,-0.02685546875,0.82666015625,-1.220703125,-4.5166015625,-0.30517578125,-2.0159912109375,-33.134765625,-146.656494140625
1760968504.1164813,0.53564453125,-0.02685546875,0.82666015625,-1.220703125,-4.5166015625,-0.30517578125,-2.0269775390625,-33.1732177734375,-146.6455078125
1760968504.124436,0.54833984375,-0.02294921875,0.8212890625,-0.732421875,-4.33349609375,-0.6103515625,-2.032470703125,-33.2171630859375,-146.6455078125
1760968504.1315584,0.54833984375,-0.02294921875,0.8212890625,-0.732421875,-4.33349609375,-0.6103515625,-2.0379638671875,-33.255615234375,-146.6400146484375
1760968504.1554065,0.53173828125,-0.03076171875,0.8173828125,-0.9765625,-3.72314453125,-0.48828125,-2.04345703125,-33.2940673828125,-146.634521484375
1760968504.1642272,0.53173828125,-0.03076171875,0.8173828125,-0.9765625,-3.72314453125,-0.48828125,-2.0489501953125,-33.3270263671875,-146.634521484375
1760968504.172014,0.53076171875,-0.03564453125,0.80078125,-2.01416015625,-3.23486328125,-0.244140625,-2.0709228515625,-33.3599853515625,-146.62353515625
1760968504.1789248,0.53076171875,-0.03564453125,0.80078125,-2.01416015625,-3.23486328125,-0.244140625,-2.08740234375,-33.387451171875,-146.6180419921875
1760968504.186118,0.52880859375,-0.0390625,0.7919921875,-0.91552734375,-2.8076171875,-0.30517578125,-2.098388671875,-33.4149169921875,-146.612548828125
1760968504.2021396,0.52880859375,-0.0390625,0.7919921875,-0.91552734375,-2.8076171875,-0.30517578125,-2.1038818359375,-33.4423828125,-146.6070556640625
1760968504.2102334,0.537109375,-0.037109375,0.80419921875,0.06103515625,-2.3193359375,-0.30517578125,-2.1038818359375,-33.46435546875,-146.6070556640625
1760968504.2181444,0.537109375,-0.037109375,0.80419921875,0.06103515625,-2.3193359375,-0.30517578125,-2.1038818359375,-33.486328125,-146.6015625
1760968504.225408,0.53466796875,-0.025390625,0.80224609375,-1.220703125,-1.5869140625,-0.18310546875,-2.1148681640625,-33.5028076171875,-146.6015625
1760968504.2317286,0.53466796875,-0.025390625,0.80224609375,-1.220703125,-1.5869140625,-0.18310546875,-2.13134765625,-33.5137939453125,-146.5960693359375
1760968504.2546039,0.54150390625,-0.025390625,0.81591796875,-2.685546875,-1.0986328125,-0.18310546875,-2.1533203125,-33.5247802734375,-146.590576171875
1760968504.2618399,0.54150390625,-0.025390625,0.81591796875,-2.685546875,-1.0986328125,-0.18310546875,-2.1807861328125,-33.5357666015625,-146.5850830078125
1760968504.2691898,0.5498046875,-0.03173828125,0.82861328125,-2.25830078125,-0.732421875,-0.30517578125,-2.2027587890625,-33.541259765625,-146.5850830078125
1760968504.2767062,0.5498046875,-0.03173828125,0.82861328125,-2.25830078125,-0.732421875,-0.30517578125,-2.21923828125,-33.5467529296875,-146.57958984375
1760968504.2839868,0.55908203125,-0.04541015625,0.82666015625,-1.40380859375,-0.67138671875,-0.244140625,-2.2357177734375,-33.5577392578125,-146.57958984375
1760968504.2997265,0.55908203125,-0.04541015625,0.82666015625,-1.40380859375,-0.67138671875,-0.244140625,-2.2467041015625,-33.563232421875,-146.5740966796875
1760968504.3078215,0.55712890625,-0.0390625,0.8349609375,-0.732421875,-0.54931640625,-0.18310546875,-2.252197265625,-33.5687255859375,-146.5740966796875
1760968504.3158197,0.55712890625,-0.0390625,0.8349609375,-0.732421875,-0.54931640625,-0.18310546875,-2.26318359375,-33.57421875,-146.568603515625
1760968504.3240082,0.5693359375,-0.033203125,0.84716796875,-0.91552734375,-0.3662109375,-0.1220703125,-2.2686767578125,-33.57421875,-146.568603515625
1760968504.3317318,0.5693359375,-0.033203125,0.84716796875,-0.91552734375,-0.3662109375,-0.1220703125,-2.2796630859375,-33.5797119140625,-146.568603515625
1760968504.34823,0.57568359375,-0.03515625,0.875,-1.40380859375,-0.54931640625,-0.18310546875,-2.2906494140625,-33.585205078125,-146.5631103515625
1760968504.3549924,0.57568359375,-0.03515625,0.875,-1.40380859375,-0.54931640625,-0.18310546875,-2.30712890625,-33.5906982421875,-146.5631103515625
1760968504.3619475,0.5732421875,-0.04833984375,0.84619140625,-1.220703125,-1.15966796875,-0.244140625,-2.318115234375,-33.6016845703125,-146.5576171875
1760968504.3679981,0.55615234375,-0.04736328125,0.81396484375,0.732421875,-1.3427734375,-0.30517578125,-2.318115234375,-33.6181640625,-146.5576171875
1760968504.3816824,0.55615234375,-0.04736328125,0.81396484375,0.732421875,-1.3427734375,-0.30517578125,-2.3126220703125,-33.629150390625,-146.5576171875
1760968504.3883786,0.55810546875,-0.02880859375,0.84130859375,-0.244140625,-1.28173828125,-0.1220703125,-2.3126220703125,-33.6456298828125,-146.5576171875
1760968504.3950453,0.55810546875,-0.02880859375,0.84130859375,-0.244140625,-1.28173828125,-0.1220703125,-2.3126220703125,-33.6566162109375,-146.5521240234375
1760968504.402779,0.568359375,-0.03564453125,0.84228515625,-1.52587890625,-1.46484375,-0.18310546875,-2.3236083984375,-33.673095703125,-146.5521240234375
1760968504.4090583,0.568359375,-0.03564453125,0.84228515625,-1.52587890625,-1.46484375,-0.18310546875,-2.340087890625,-33.68408203125,-146.5521240234375
1760968504.4204597,0.56103515625,-0.04248046875,0.83447265625,-1.52587890625,-1.52587890625,-0.244140625,-2.3565673828125,-33.7005615234375,-146.546630859375
1760968504.4274137,0.56103515625,-0.04248046875,0.83447265625,-1.52587890625,-1.52587890625,-0.244140625,-2.3675537109375,-33.717041015625,-146.546630859375
1760968504.434528,0.56494140625,-0.0341796875,0.8310546875,-0.30517578125,-1.64794921875,-0.1220703125,-2.3785400390625,-33.7335205078125,-146.546630859375
1760968504.4409935,0.56494140625,-0.0341796875,0.8310546875,-0.30517578125,-1.64794921875,-0.1220703125,-2.384033203125,-33.75,-146.546630859375
1760968504.4475923,0.5556640625,-0.04296875,0.83056640625,-0.67138671875,-1.64794921875,-0.06103515625,-2.3895263671875,-33.7664794921875,-146.5411376953125
1760968504.4565196,0.5556640625,-0.04296875,0.83056640625,-0.67138671875,-1.64794921875,-0.06103515625,-2.39501953125,-33.782958984375,-146.5411376953125
1760968504.4637542,0.56298828125,-0.04150390625,0.82080078125,0.06103515625,-1.77001953125,-0.1220703125,-2.4005126953125,-33.804931640625,-146.5411376953125
1760968504.4731696,0.56298828125,-0.04150390625,0.82080078125,0.06103515625,-1.77001953125,-0.1220703125,-2.4005126953125,-33.8214111328125,-146.53564453125
1760968504.4809346,0.55712890625,-0.0361328125,0.833984375,-0.244140625,-1.5869140625,-0.06103515625,-2.406005859375,-33.837890625,-146.53564453125
1760968504.4905744,0.55712890625,-0.0361328125,0.833984375,-0.244140625,-1.5869140625,-0.06103515625,-2.406005859375,-33.8543701171875,-146.5301513671875
1760968504.5071971,0.568359375,-0.04345703125,0.83544921875,-0.6103515625,-1.28173828125,0.0,-2.4114990234375,-33.870849609375,-146.5301513671875
1760968504.5150948,0.568359375,-0.04345703125,0.83544921875,-0.6103515625,-1.28173828125,0.0,-2.4224853515625,-33.8818359375,-146.524658203125
1760968504.5307794,0.56884765625,-0.03759765625,0.83251953125,-0.48828125,-1.3427734375,0.0,-2.427978515625,-33.8983154296875,-146.524658203125
1760968504.5381055,0.56884765625,-0.03759765625,0.83251953125,-0.48828125,-1.3427734375,0.0,-2.4334716796875,-33.9093017578125,-146.524658203125
1760968504.5447917,0.57763671875,-0.03369140625,0.84228515625,-1.15966796875,-1.77001953125,-0.1220703125,-2.4444580078125,-33.92578125,-146.524658203125
1760968504.5511124,0.57763671875,-0.03369140625,0.84228515625,-1.15966796875,-1.77001953125,-0.1220703125,-2.4554443359375,-33.9422607421875,-146.5191650390625
1760968504.56882,0.5703125,-0.04150390625,0.85107421875,-1.52587890625,-2.01416015625,-0.06103515625,-2.471923828125,-33.9642333984375,-146.5191650390625
1760968504.5759985,0.5703125,-0.04150390625,0.85107421875,-1.52587890625,-2.01416015625,-0.06103515625,-2.4884033203125,-33.9862060546875,-146.5191650390625
1760968504.5824053,0.568359375,-0.04736328125,0.83154296875,-0.9765625,-2.01416015625,0.0,-2.4993896484375,-34.0081787109375,-146.513671875
1760968504.5894122,0.568359375,-0.04736328125,0.83154296875,-0.9765625,-2.01416015625,0.0,-2.5103759765625,-34.024658203125,-146.513671875
1760968504.5962274,0.568359375,-0.04736328125,0.83154296875,-0.732421875,-2.25830078125,0.0,-2.5213623046875,-34.046630859375,-146.5081787109375
1760968504.6099994,0.587890625,-0.04248046875,0.84326171875,-0.732421875,-2.25830078125,0.0,-2.5323486328125,-34.068603515625,-146.5081787109375
1760968504.6169696,0.59033203125,-0.04248046875,0.86376953125,-0.54931640625,-2.5634765625,-0.18310546875,-2.5433349609375,-34.0960693359375,-146.5081787109375
1760968504.623795,0.59033203125,-0.04248046875,0.86376953125,-0.54931640625,-2.5634765625,-0.18310546875,-2.548828125,-34.12353515625,-146.513671875
1760968504.6304483,0.58642578125,-0.0439453125,0.8583984375,-0.244140625,-2.9296875,-0.244140625,-2.5543212890625,-34.1510009765625,-146.513671875
1760968504.636723,0.58642578125,-0.0439453125,0.8583984375,-0.244140625,-2.9296875,-0.244140625,-2.5543212890625,-34.178466796875,-146.513671875
1760968504.652523,0.5791015625,-0.04736328125,0.8388671875,-0.244140625,-3.23486328125,-0.18310546875,-2.559814453125,-34.21142578125,-146.513671875
1760968504.6589706,0.5791015625,-0.04736328125,0.8388671875,-0.244140625,-3.23486328125,-0.18310546875,-2.5653076171875,-34.244384765625,-146.513671875
1760968504.665372,0.572265625,-0.04833984375,0.8359375,-0.42724609375,-3.2958984375,0.0,-2.57080078125,-34.27734375,-146.5081787109375
1760968504.6723256,0.572265625,-0.04833984375,0.8359375,-0.42724609375,-3.2958984375,0.0,-2.5762939453125,-34.310302734375,-146.5081787109375
1760968504.6872458,0.5771484375,-0.03515625,0.83544921875,-0.42724609375,-3.47900390625,0.06103515625,-2.581787109375,-34.34326171875,-146.502685546875
1760968504.694178,0.5771484375,-0.03515625,0.83544921875,-0.42724609375,-3.47900390625,0.06103515625,-2.5927734375,-34.376220703125,-146.4971923828125
1760968504.7004392,0.5654296875,-0.02978515625,0.82470703125,-0.48828125,-3.47900390625,-0.06103515625,-2.5982666015625,-34.4146728515625,-146.49169921875
1760968504.7068503,0.5654296875,-0.02978515625,0.82470703125,-0.48828125,-3.47900390625,-0.06103515625,-2.603759765625,-34.4476318359375,-146.4862060546875
1760968504.7203047,0.5556640625,-0.0341796875,0.79833984375,-0.244140625,-3.23486328125,-0.1220703125,-2.6092529296875,-34.4805908203125,-146.480712890625
1760968504.728316,0.5556640625,-0.0341796875,0.79833984375,-0.244140625,-3.23486328125,-0.1220703125,-2.61474609375,-34.5135498046875,-146.4752197265625
1760968504.7346828,0.55517578125,-0.04833984375,0.8115234375,0.0,-2.86865234375,-0.1220703125,-2.61474609375,-34.541015625,-146.4697265625
1760968504.7407897,0.55517578125,-0.04833984375,0.8115234375,0.0,-2.86865234375,-0.1220703125,-2.61474609375,-34.5684814453125,-146.4642333984375
1760968504.748482,0.5517578125,-0.0517578125,0.78271484375,-0.244140625,-2.3193359375,0.0,-2.6202392578125,-34.595947265625,-146.458740234375
1760968504.763691,0.5517578125,-0.0517578125,0.78271484375,-0.244140625,-2.3193359375,0.0,-2.625732421875,-34.617919921875,-146.4532470703125
1760968504.7704244,0.5478515625,-0.0390625,0.7744140625,0.06103515625,-1.89208984375,0.0,-2.625732421875,-34.639892578125,-146.44775390625
1760968504.77849,0.5478515625,-0.0390625,0.7744140625,0.06103515625,-1.89208984375,0.0,-2.6312255859375,-34.6563720703125,-146.4422607421875
1760968504.7952487,0.53955078125,-0.03369140625,0.7890625,-0.06103515625,-1.28173828125,0.0,-2.6312255859375,-34.6728515625,-146.4422607421875
1760968504.8021505,0.53955078125,-0.03369140625,0.7890625,-0.06103515625,-1.28173828125,0.0,-2.63671875,-34.6893310546875,-146.436767578125
1760968504.8085701,0.556640625,-0.04150390625,0.7958984375,0.18310546875,-0.67138671875,0.06103515625,-2.63671875,-34.69482421875,-146.4312744140625
1760968504.8182647,0.556640625,-0.04150390625,0.7958984375,0.18310546875,-0.67138671875,0.06103515625,-2.63671875,-34.7003173828125,-146.4312744140625
1760968504.835341,0.5732421875,-0.03857421875,0.81396484375,0.48828125,-0.6103515625,0.0,-2.63671875,-34.7113037109375,-146.42578125
1760968504.8423204,0.5732421875,-0.03857421875,0.81396484375,0.48828125,-0.6103515625,0.0,-2.6312255859375,-34.716796875,-146.42578125
1760968504.8505056,0.5751953125,-0.044921875,0.814453125,0.1220703125,-0.48828125,0.0,-2.6312255859375,-34.7222900390625,-146.4202880859375
1760968504.8583179,0.5751953125,-0.044921875,0.814453125,0.1220703125,-0.48828125,0.0,-2.6312255859375,-34.727783203125,-146.4202880859375
1760968504.875763,0.583984375,-0.0439453125,0.83642578125,-0.06103515625,-0.42724609375,0.0,-2.6312255859375,-34.7332763671875,-146.414794921875
1760968504.882472,0.583984375,-0.0439453125,0.83642578125,-0.06103515625,-0.42724609375,0.0,-2.6312255859375,-34.73876953125,-146.414794921875
1760968504.8887832,0.5869140625,-0.04443359375,0.8525390625,0.1220703125,-0.42724609375,0.0,-2.63671875,-34.73876953125,-146.414794921875
1760968504.8983777,0.5869140625,-0.04443359375,0.8525390625,0.1220703125,-0.42724609375,0.0,-2.63671875,-34.7442626953125,-146.4093017578125
1760968504.9147105,0.58935546875,-0.04248046875,0.830078125,0.54931640625,-0.79345703125,0.0,-2.63671875,-34.749755859375,-146.4093017578125
1760968504.9211493,0.58935546875,-0.04248046875,0.830078125,0.54931640625,-0.79345703125,0.0,-2.6312255859375,-34.7607421875,-146.40380859375
1760968504.928551,0.5849609375,-0.0400390625,0.82421875,0.54931640625,-1.15966796875,0.0,-2.625732421875,-34.771728515625,-146.40380859375
1760968504.9384198,0.5849609375,-0.0400390625,0.82421875,0.54931640625,-1.15966796875,0.0,-2.625732421875,-34.78271484375,-146.40380859375
1760968504.9615915,0.5830078125,-0.04296875,0.83935546875,1.708984375,-1.28173828125,0.0,-2.61474609375,-34.7991943359375,-146.3983154296875
1760968504.9699156,0.5830078125,-0.04296875,0.83935546875,1.708984375,-1.28173828125,0.0,-2.5982666015625,-34.8101806640625,-146.3983154296875
1760968504.9788368,0.587890625,-0.05029296875,0.82958984375,2.13623046875,-1.3427734375,0.0,-2.581787109375,-34.82666015625,-146.3983154296875
1760968504.9857218,0.587890625,-0.05029296875,0.82958984375,2.13623046875,-1.3427734375,0.0,-2.5653076171875,-34.837646484375,-146.392822265625
1760968504.993475,0.58642578125,-0.03955078125,0.828125,2.50244140625,-1.40380859375,-0.30517578125,-2.5433349609375,-34.8541259765625,-146.3983154296875
1760968505.0001726,0.58642578125,-0.03955078125,0.828125,2.50244140625,-1.40380859375,-0.30517578125,-2.5213623046875,-34.87060546875,-146.3983154296875
1760968505.0123475,0.58544921875,-0.03955078125,0.84814453125,1.89208984375,-1.77001953125,-0.30517578125,-2.4993896484375,-34.8870849609375,-146.40380859375
1760968505.0197835,0.58544921875,-0.03955078125,0.84814453125,1.89208984375,-1.77001953125,-0.30517578125,-2.48291015625,-34.903564453125,-146.40380859375
1760968505.030006,0.5810546875,-0.04345703125,0.81298828125,2.86865234375,-1.89208984375,-0.18310546875,-2.4609375,-34.9200439453125,-146.4093017578125
1760968505.0389307,0.5810546875,-0.04345703125,0.81298828125,2.86865234375,-1.89208984375,-0.18310546875,-2.4334716796875,-34.9420166015625,-146.4093017578125
1760968505.0496495,0.58349609375,-0.0341796875,0.8359375,2.74658203125,-1.89208984375,0.0,-2.406005859375,-34.9639892578125,-146.4093017578125
1760968505.0588858,0.58349609375,-0.0341796875,0.8359375,2.74658203125,-1.89208984375,0.0,-2.384033203125,-34.98046875,-146.4093017578125
1760968505.070213,0.576171875,-0.03955078125,0.828125,3.11279296875,-1.8310546875,-0.06103515625,-2.3565673828125,-34.9969482421875,-146.4093017578125
1760968505.0816658,0.576171875,-0.03955078125,0.828125,3.11279296875,-1.8310546875,-0.06103515625,-2.3291015625,-35.0189208984375,-146.4093017578125
1760968505.089381,0.576171875,-0.03955078125,0.828125,3.2958984375,-1.953125,-0.18310546875,-2.3016357421875,-35.035400390625,-146.40380859375
1760968505.101695,0.5732421875,-0.03173828125,0.7998046875,3.2958984375,-1.953125,-0.18310546875,-2.2686767578125,-35.057373046875,-146.4093017578125
1760968505.110396,0.57177734375,-0.03466796875,0.80517578125,4.2724609375,-1.89208984375,-0.244140625,-2.230224609375,-35.0738525390625,-146.4093017578125
1760968505.1216612,0.57177734375,-0.03466796875,0.80517578125,4.2724609375,-1.89208984375,-0.244140625,-2.1917724609375,-35.0958251953125,-146.4093017578125
1760968505.1312835,0.5771484375,-0.05078125,0.80615234375,4.45556640625,-1.708984375,0.0,-2.1533203125,-35.1123046875,-146.4093017578125
1760968505.1410573,0.5771484375,-0.05078125,0.80615234375,4.45556640625,-1.708984375,0.0,-2.109375,-35.1287841796875,-146.4093017578125
1760968505.1501217,0.57958984375,-0.0361328125,0.8134765625,6.16455078125,-1.708984375,-0.1220703125,-2.0599365234375,-35.1507568359375,-146.4093017578125
1760968505.164477,0.57958984375,-0.0361328125,0.8134765625,6.16455078125,-1.708984375,-0.1220703125,-2.0050048828125,-35.167236328125,-146.4093017578125
1760968505.1729956,0.578125,-0.02685546875,0.826171875,3.60107421875,-1.3427734375,-0.06103515625,-1.9610595703125,-35.1837158203125,-146.4093017578125
1760968505.1814172,0.578125,-0.02685546875,0.826171875,3.60107421875,-1.3427734375,-0.06103515625,-1.9281005859375,-35.1947021484375,-146.40380859375
1760968505.1901114,0.572265625,-0.0263671875,0.8037109375,5.2490234375,-1.220703125,-0.18310546875,-1.8896484375,-35.2056884765625,-146.40380859375
1760968505.202133,0.572265625,-0.0263671875,0.8037109375,5.2490234375,-1.220703125,-0.18310546875,-1.8402099609375,-35.22216796875,-146.40380859375
1760968505.2205615,0.5732421875,-0.02197265625,0.7841796875,4.7607421875,-0.9765625,-0.1220703125,-1.790771484375,-35.233154296875,-146.40380859375
1760968505.2359746,0.5732421875,-0.02197265625,0.7841796875,4.7607421875,-0.9765625,-0.1220703125,-1.746826171875,-35.244140625,-146.40380859375
1760968505.2429566,0.580078125,-0.02783203125,0.828125,2.99072265625,-0.54931640625,0.06103515625,-1.7138671875,-35.2496337890625,-146.40380859375
1760968505.2614992,0.580078125,-0.02783203125,0.828125,2.99072265625,-0.54931640625,0.06103515625,-1.6864013671875,-35.255126953125,-146.40380859375
1760968505.274356,0.607421875,-0.02734375,0.83837890625,1.953125,-0.67138671875,0.1220703125,-1.6644287109375,-35.26611328125,-146.40380859375
1760968505.3039162,0.607421875,-0.02734375,0.83837890625,1.953125,-0.67138671875,0.1220703125,-1.64794921875,-35.2716064453125,-146.3983154296875
1760968505.3131537,0.6240234375,-0.00341796875,0.880859375,2.197265625,-1.953125,-0.18310546875,-1.6314697265625,-35.2825927734375,-146.3983154296875
1760968505.321377,0.6240234375,-0.00341796875,0.880859375,2.197265625,-1.953125,-0.18310546875,-1.6094970703125,-35.3045654296875,-146.3983154296875
1760968505.3298368,0.60546875,-0.0400390625,0.84423828125,1.220703125,-2.0751953125,-0.1220703125,-1.5985107421875,-35.3265380859375,-146.3983154296875
1760968505.3383145,0.60546875,-0.0400390625,0.84423828125,1.220703125,-2.0751953125,-0.1220703125,-1.593017578125,-35.3485107421875,-146.392822265625
1760968505.345533,0.61279296875,-0.04541015625,0.8515625,1.64794921875,-2.25830078125,0.06103515625,-1.5765380859375,-35.3704833984375,-146.392822265625
1760968505.369326,0.61279296875,-0.04541015625,0.8515625,1.64794921875,-2.25830078125,0.06103515625,-1.5655517578125,-35.3924560546875,-146.392822265625
1760968505.3845375,0.62158203125,-0.02294921875,0.87939453125,1.708984375,-2.8076171875,0.06103515625,-1.5545654296875,-35.4254150390625,-146.392822265625
1760968505.392327,0.62158203125,-0.02294921875,0.87939453125,1.708984375,-2.8076171875,0.06103515625,-1.5435791015625,-35.452880859375,-146.3873291015625
1760968505.409936,0.61279296875,-0.02685546875,0.83837890625,2.25830078125,-3.47900390625,-0.1220703125,-1.5216064453125,-35.48583984375,-146.3873291015625
1760968505.4177892,0.61279296875,-0.02685546875,0.83837890625,2.25830078125,-3.47900390625,-0.1220703125,-1.4996337890625,-35.5242919921875,-146.3873291015625
1760968505.4387233,0.59521484375,-0.02587890625,0.82177734375,1.953125,-4.150390625,-0.3662109375,-1.483154296875,-35.562744140625,-146.3873291015625
1760968505.4459002,0.59521484375,-0.02587890625,0.82177734375,1.953125,-4.150390625,-0.3662109375,-1.4666748046875,-35.606689453125,-146.392822265625
1760968505.454815,0.58056640625,-0.015625,0.79345703125,3.11279296875,-4.39453125,-0.79345703125,-1.4337158203125,-35.650634765625,-146.3983154296875
1760968505.4825554,0.58056640625,-0.015625,0.79345703125,3.11279296875,-4.39453125,-0.79345703125,-1.4007568359375,-35.694580078125,-146.40380859375
1760968505.491062,0.5791015625,-0.00732421875,0.8125,4.57763671875,-4.21142578125,-1.0986328125,-1.351318359375,-35.738525390625,-146.414794921875
1760968505.4992337,0.5791015625,-0.00732421875,0.8125,4.57763671875,-4.21142578125,-1.0986328125,-1.29638671875,-35.7769775390625,-146.42578125
1760968505.5071015,0.5830078125,-0.02197265625,0.791015625,3.11279296875,-3.72314453125,-1.15966796875,-1.2579345703125,-35.8154296875,-146.436767578125
1760968505.537768,0.5830078125,-0.02197265625,0.791015625,3.11279296875,-3.72314453125,-1.15966796875,-1.2249755859375,-35.8538818359375,-146.44775390625
1760968505.5571103,0.556640625,-0.00341796875,0.79248046875,2.38037109375,-3.41796875,-1.28173828125,-1.1920166015625,-35.8868408203125,-146.458740234375
1760968505.566633,0.556640625,-0.00341796875,0.79248046875,2.38037109375,-3.41796875,-1.28173828125,-1.16455078125,-35.9197998046875,-146.4642333984375
1760968505.5757005,0.533203125,-0.0126953125,0.70556640625,1.708984375,-2.38037109375,-0.9765625,-1.1370849609375,-35.9417724609375,-146.4697265625
1760968505.5861306,0.533203125,-0.0126953125,0.70556640625,1.708984375,-2.38037109375,-0.9765625,-1.1151123046875,-35.96923828125,-146.4752197265625
1760968505.6088176,0.54541015625,-0.01171875,0.7275390625,0.06103515625,-1.40380859375,-0.732421875,-1.109619140625,-35.980224609375,-146.480712890625
1760968505.6159136,0.54541015625,-0.01171875,0.7275390625,0.06103515625,-1.40380859375,-0.732421875,-1.1041259765625,-35.9967041015625,-146.4862060546875
1760968505.627778,0.58203125,-0.02880859375,0.8134765625,-0.54931640625,-0.79345703125,-0.67138671875,-1.109619140625,-36.002197265625,-146.4862060546875
1760968505.646556,0.58203125,-0.02880859375,0.8134765625,-0.54931640625,-0.79345703125,-0.67138671875,-1.109619140625,-36.01318359375,-146.49169921875
1760968505.65293,0.60205078125,-0.02734375,0.8408203125,-0.1220703125,-0.54931640625,-0.54931640625,-1.109619140625,-36.0186767578125,-146.49169921875
1760968505.6660361,0.60205078125,-0.02734375,0.8408203125,-0.1220703125,-0.54931640625,-0.54931640625,-1.109619140625,-36.024169921875,-146.49169921875
1760968505.6828144,0.6181640625,-0.00927734375,0.8310546875,-0.18310546875,-0.6103515625,-0.244140625,-1.109619140625,-36.0296630859375,-146.49169921875
1760968505.689438,0.6181640625,-0.00927734375,0.8310546875,-0.18310546875,-0.6103515625,-0.244140625,-1.1151123046875,-36.03515625,-146.49169921875
1760968505.7061234,0.6181640625,-0.00927734375,0.8310546875,-2.8076171875,-0.6103515625,0.1220703125,-1.142578125,-36.0406494140625,-146.480712890625
1760968505.7126405,0.62841796875,-0.02490234375,0.857421875,-2.8076171875,-0.6103515625,0.1220703125,-1.175537109375,-36.046142578125,-146.4752197265625
1760968505.7193406,0.6337890625,-0.03466796875,0.8828125,-3.60107421875,-0.9765625,0.48828125,-1.2139892578125,-36.05712890625,-146.4642333984375
1760968505.7289922,0.6337890625,-0.03466796875,0.8828125,-3.60107421875,-0.9765625,0.48828125,-1.2579345703125,-36.068115234375,-146.4532470703125
1760968505.7411642,0.63720703125,-0.033203125,0.849609375,-2.44140625,-1.708984375,0.54931640625,-1.285400390625,-36.0845947265625,-146.4422607421875
1760968505.747804,0.63720703125,-0.033203125,0.849609375,-2.44140625,-1.708984375,0.54931640625,-1.318359375,-36.10107421875,-146.4312744140625
1760968505.761446,0.626953125,-0.025390625,0.8330078125,-1.8310546875,-2.50244140625,0.3662109375,-1.34033203125,-36.123046875,-146.42578125
1760968505.7686641,0.626953125,-0.025390625,0.8330078125,-1.8310546875,-2.50244140625,0.3662109375,-1.3623046875,-36.1505126953125,-146.4202880859375
1760968505.782324,0.61669921875,-0.015625,0.84423828125,-1.77001953125,-2.86865234375,0.30517578125,-1.38427734375,-36.177978515625,-146.414794921875
1760968505.808125,0.61669921875,-0.015625,0.84423828125,-1.77001953125,-2.86865234375,0.30517578125,-1.40625,-36.2109375,-146.40380859375
1760968505.8156424,0.61181640625,-0.01953125,0.83984375,-2.13623046875,-3.0517578125,0.3662109375,-1.4337158203125,-36.2384033203125,-146.392822265625
1760968505.8437626,0.61181640625,-0.01953125,0.83984375,-2.13623046875,-3.0517578125,0.3662109375,-1.461181640625,-36.2713623046875,-146.3873291015625
1760968505.8512359,0.603515625,-0.02685546875,0.80859375,-2.01416015625,-3.5400390625,0.06103515625,-1.483154296875,-36.3043212890625,-146.3818359375
1760968505.8747213,0.603515625,-0.02685546875,0.80859375,-2.01416015625,-3.5400390625,0.06103515625,-1.505126953125,-36.3427734375,-146.3763427734375
1760968505.8846142,0.599609375,-0.0224609375,0.791015625,0.67138671875,-3.7841796875,-0.42724609375,-1.494140625,-36.3812255859375,-146.3818359375
1760968505.8920758,0.599609375,-0.0224609375,0.791015625,0.67138671875,-3.7841796875,-0.42724609375,-1.483154296875,-36.419677734375,-146.3818359375
1760968505.9001782,0.60009765625,-0.02099609375,0.81689453125,1.40380859375,-3.662109375,-0.6103515625,-1.4666748046875,-36.45263671875,-146.3873291015625
1760968505.9180405,0.60009765625,-0.02099609375,0.81689453125,1.40380859375,-3.662109375,-0.6103515625,-1.4501953125,-36.4910888671875,-146.3873291015625
1760968505.925423,0.6044921875,-0.01416015625,0.8095703125,-1.0986328125,-3.35693359375,-0.244140625,-1.461181640625,-36.5240478515625,-146.3873291015625
1760968505.931769,0.6044921875,-0.01416015625,0.8095703125,-1.0986328125,-3.35693359375,-0.244140625,-1.47216796875,-36.5570068359375,-146.3873291015625
1760968505.9393065,0.59228515625,-0.0302734375,0.8037109375,-1.953125,-3.2958984375,0.0,-1.494140625,-36.5899658203125,-146.3818359375
1760968505.9468057,0.59228515625,-0.0302734375,0.8037109375,-1.953125,-3.2958984375,0.0,-1.5106201171875,-36.6229248046875,-146.3763427734375
1760968505.961741,0.591796875,-0.0478515625,0.7646484375,0.8544921875,-3.72314453125,-0.1220703125,-1.505126953125,-36.6558837890625,-146.370849609375
1760968505.9687824,0.591796875,-0.0478515625,0.7646484375,0.8544921875,-3.72314453125,-0.1220703125,-1.4996337890625,-36.6943359375,-146.370849609375
1760968505.975461,0.59521484375,-0.033203125,0.771484375,2.8076171875,-3.96728515625,0.0,-1.47216796875,-36.7327880859375,-146.3653564453125
1760968505.983332,0.59521484375,-0.033203125,0.771484375,2.8076171875,-3.96728515625,0.0,-1.4501953125,-36.7767333984375,-146.35986328125
1760968506.0032425,0.60595703125,-0.01708984375,0.810546875,1.03759765625,-3.5400390625,0.42724609375,-1.4447021484375,-36.8096923828125,-146.3543701171875
1760968506.009616,0.60595703125,-0.01708984375,0.810546875,1.03759765625,-3.5400390625,0.42724609375,-1.4447021484375,-36.84814453125,-146.3433837890625
1760968506.0202825,0.62890625,-0.0166015625,0.86181640625,0.3662109375,-3.41796875,0.67138671875,-1.4501953125,-36.881103515625,-146.3323974609375
1760968506.0335288,0.62890625,-0.0166015625,0.86181640625,0.3662109375,-3.41796875,0.67138671875,-1.4501953125,-36.9140625,-146.31591796875
1760968506.0402598,0.64208984375,-0.02880859375,0.83251953125,0.9765625,-3.90625,0.06103515625,-1.4447021484375,-36.9525146484375,-146.3104248046875
1760968506.04942,0.64208984375,-0.02880859375,0.83251953125,0.9765625,-3.90625,0.06103515625,-1.439208984375,-36.990966796875,-146.2994384765625
1760968506.0562496,0.63818359375,-0.02587890625,0.8056640625,3.72314453125,-4.8828125,-0.67138671875,-1.4007568359375,-37.034912109375,-146.304931640625
1760968506.070603,0.63818359375,-0.02587890625,0.8056640625,3.72314453125,-4.8828125,-0.67138671875,-1.3623046875,-37.0843505859375,-146.3104248046875
1760968506.0803413,0.61669921875,-0.02783203125,0.8359375,3.173828125,-5.2490234375,-0.67138671875,-1.329345703125,-37.1392822265625,-146.31591796875
1760968506.0883675,0.61669921875,-0.02783203125,0.8359375,3.173828125,-5.2490234375,-0.67138671875,-1.29638671875,-37.188720703125,-146.3214111328125
1760968506.1036592,0.62451171875,-0.02783203125,0.8232421875,4.21142578125,-5.06591796875,-0.42724609375,-1.25244140625,-37.2381591796875,-146.3214111328125
1760968506.1097782,0.62451171875,-0.02783203125,0.8232421875,4.21142578125,-5.06591796875,-0.42724609375,-1.2139892578125,-37.28759765625,-146.3214111328125
1760968506.1279771,0.6376953125,-0.02978515625,0.82080078125,4.94384765625,-5.31005859375,-0.67138671875,-1.16455078125,-37.342529296875,-146.3214111328125
1760968506.1352384,0.6376953125,-0.02978515625,0.82080078125,4.94384765625,-5.31005859375,-0.67138671875,-1.1151123046875,-37.3919677734375,-146.326904296875
1760968506.1496665,0.63818359375,-0.037109375,0.798828125,4.57763671875,-6.04248046875,-1.03759765625,-1.065673828125,-37.452392578125,-146.3323974609375
1760968506.1559803,0.63818359375,-0.037109375,0.798828125,4.57763671875,-6.04248046875,-1.03759765625,-1.0162353515625,-37.5128173828125,-146.3433837890625
1760968506.1621444,0.63623046875,-0.02197265625,0.83056640625,7.26318359375,-6.89697265625,-1.28173828125,-0.94482421875,-37.584228515625,-146.3543701171875
1760968506.1690717,0.63623046875,-0.02197265625,0.83056640625,7.26318359375,-6.89697265625,-1.28173828125,-0.867919921875,-37.650146484375,-146.3653564453125
1760968506.1760995,0.6298828125,-0.05029296875,0.81640625,6.77490234375,-6.89697265625,-2.44140625,-0.791015625,-37.716064453125,-146.392822265625
1760968506.182575,0.6298828125,-0.05029296875,0.81640625,6.77490234375,-6.89697265625,-2.44140625,-0.714111328125,-37.7874755859375,-146.4202880859375
1760968506.189812,0.630859375,-0.09423828125,0.81640625,4.57763671875,-7.080078125,-3.662109375,-0.648193359375,-37.8533935546875,-146.458740234375
1760968506.1959941,0.630859375,-0.09423828125,0.81640625,4.57763671875,-7.080078125,-3.662109375,-0.5877685546875,-37.9248046875,-146.502685546875
1760968506.203368,0.62548828125,-0.1015625,0.79345703125,8.11767578125,-7.14111328125,-5.18798828125,-0.4888916015625,-37.99072265625,-146.5631103515625
1760968506.2098262,0.62548828125,-0.1015625,0.79345703125,8.11767578125,-7.14111328125,-5.18798828125,-0.384521484375,-38.0621337890625,-146.6290283203125
1760968506.216533,0.62255859375,-0.09130859375,0.75244140625,8.056640625,-7.2021484375,-6.40869140625,-0.274658203125,-38.133544921875,-146.7059326171875
1760968506.2228944,0.62255859375,-0.09130859375,0.75244140625,8.056640625,-7.2021484375,-6.40869140625,-0.1702880859375,-38.2049560546875,-146.788330078125
1760968506.2304811,0.62255859375,-0.09130859375,0.75244140625,9.82666015625,-7.14111328125,-6.89697265625,-0.0439453125,-38.2708740234375,-146.8817138671875
1760968506.2381613,0.6103515625,-0.046875,0.7822265625,9.82666015625,-7.14111328125,-6.89697265625,0.076904296875,-38.34228515625,-146.9696044921875
1760968506.2443879,0.61767578125,-0.0107421875,0.794921875,8.97216796875,-7.080078125,-6.65283203125,0.19775390625,-38.408203125,-147.052001953125
1760968506.2510443,0.61767578125,-0.0107421875,0.794921875,8.97216796875,-7.080078125,-6.65283203125,0.3131103515625,-38.47412109375,-147.1343994140625
1760968506.2574189,0.6171875,0.0087890625,0.76171875,7.568359375,-7.32421875,-6.04248046875,0.41748046875,-38.5455322265625,-147.205810546875
1760968506.2640388,0.6171875,0.0087890625,0.76171875,7.568359375,-7.32421875,-6.04248046875,0.5218505859375,-38.616943359375,-147.28271484375
1760968506.2719405,0.61328125,0.01025390625,0.72802734375,6.34765625,-7.38525390625,-5.18798828125,0.6097412109375,-38.6883544921875,-147.3431396484375
1760968506.279801,0.61328125,0.01025390625,0.72802734375,6.34765625,-7.38525390625,-5.18798828125,0.6976318359375,-38.759765625,-147.403564453125
1760968506.2862206,0.59326171875,0.00927734375,0.7490234375,2.5634765625,-6.77490234375,-4.08935546875,0.736083984375,-38.82568359375,-147.4530029296875
1760968506.2930984,0.59326171875,0.00927734375,0.7490234375,2.5634765625,-6.77490234375,-4.08935546875,0.780029296875,-38.8861083984375,-147.4969482421875
1760968506.2998886,0.603515625,0.013671875,0.755859375,1.8310546875,-5.79833984375,-3.5400390625,0.8184814453125,-38.9410400390625,-147.535400390625
1760968506.3061247,0.603515625,0.013671875,0.755859375,1.8310546875,-5.79833984375,-3.5400390625,0.8514404296875,-38.9959716796875,-147.568359375
1760968506.3129249,0.61572265625,0.02490234375,0.759765625,0.91552734375,-5.126953125,-3.35693359375,0.87890625,-39.04541015625,-147.601318359375
1760968506.3199039,0.61572265625,0.02490234375,0.759765625,0.91552734375,-5.126953125,-3.35693359375,0.9063720703125,-39.0948486328125,-147.63427734375
1760968506.3283384,0.62548828125,0.0234375,0.75537109375,2.197265625,-4.57763671875,-3.173828125,0.94482421875,-39.1387939453125,-147.6617431640625
1760968506.3348653,0.62548828125,0.0234375,0.75537109375,2.197265625,-4.57763671875,-3.173828125,0.9832763671875,-39.17724609375,-147.6947021484375
1760968506.3418398,0.62060546875,0.0302734375,0.7646484375,0.0,-3.72314453125,-2.9296875,1.0052490234375,-39.2156982421875,-147.7166748046875
1760968506.3487716,0.62060546875,0.0302734375,0.7646484375,0.0,-3.72314453125,-2.9296875,1.021728515625,-39.2486572265625,-147.744140625
1760968506.3552206,0.6240234375,0.0439453125,0.76953125,-2.44140625,-2.8076171875,-2.50244140625,1.0162353515625,-39.276123046875,-147.7606201171875
1760968506.3614366,0.62158203125,0.052734375,0.7509765625,-3.5400390625,-2.13623046875,-2.3193359375,1.0052490234375,-39.298095703125,-147.777099609375
1760968506.3683372,0.62158203125,0.052734375,0.7509765625,-3.5400390625,-2.13623046875,-2.3193359375,0.98876953125,-39.3145751953125,-147.7935791015625
1760968506.3753235,0.62646484375,0.0576171875,0.75244140625,-2.44140625,-1.5869140625,-1.8310546875,0.977783203125,-39.3310546875,-147.8045654296875
1760968506.3818026,0.62646484375,0.0576171875,0.75244140625,-2.44140625,-1.5869140625,-1.8310546875,0.9722900390625,-39.342041015625,-147.81005859375
1760968506.3895378,0.6357421875,0.0556640625,0.78515625,-1.89208984375,-1.220703125,-1.3427734375,0.9722900390625,-39.3585205078125,-147.81005859375
1760968506.3961613,0.6357421875,0.0556640625,0.78515625,-1.89208984375,-1.220703125,-1.3427734375,0.9722900390625,-39.3695068359375,-147.81005859375
1760968506.403318,0.6435546875,0.05224609375,0.77734375,-2.50244140625,-1.0986328125,-1.220703125,0.966796875,-39.375,-147.8045654296875
1760968506.4099345,0.6435546875,0.05224609375,0.77734375,-2.50244140625,-1.0986328125,-1.220703125,0.9613037109375,-39.385986328125,-147.799072265625
1760968506.4167278,0.63623046875,0.06396484375,0.77294921875,-3.0517578125,-1.03759765625,-0.91552734375,0.955810546875,-39.39697265625,-147.7935791015625
1760968506.4231365,0.63623046875,0.06396484375,0.77294921875,-3.0517578125,-1.03759765625,-0.91552734375,0.94482421875,-39.4024658203125,-147.7825927734375
1760968506.4302866,0.63427734375,0.06689453125,0.75732421875,-2.86865234375,-1.03759765625,-0.42724609375,0.9283447265625,-39.4134521484375,-147.76611328125
1760968506.4371812,0.63427734375,0.06689453125,0.75732421875,-2.86865234375,-1.03759765625,-0.42724609375,0.9173583984375,-39.4244384765625,-147.7496337890625
1760968506.4433103,0.6259765625,0.05908203125,0.75537109375,-1.0986328125,-1.220703125,0.0,0.9173583984375,-39.429931640625,-147.7276611328125
1760968506.4500675,0.6259765625,0.05908203125,0.75537109375,-1.0986328125,-1.220703125,0.0,0.9228515625,-39.44091796875,-147.7001953125
1760968506.456957,0.62255859375,0.05029296875,0.74853515625,-2.197265625,-1.0986328125,0.42724609375,0.9173583984375,-39.451904296875,-147.6727294921875
1760968506.4643679,0.62255859375,0.05029296875,0.74853515625,-2.197265625,-1.0986328125,0.42724609375,0.911865234375,-39.462890625,-147.645263671875
1760968506.4708898,0.61865234375,0.03515625,0.74853515625,-1.40380859375,-0.8544921875,1.0986328125,0.90087890625,-39.473876953125,-147.6068115234375
1760968506.4780874,0.61865234375,0.03515625,0.74853515625,-1.40380859375,-0.8544921875,1.0986328125,0.8953857421875,-39.4793701171875,-147.568359375
1760968506.4843488,0.619140625,0.033203125,0.7666015625,-4.57763671875,-0.06103515625,2.0751953125,0.867919921875,-39.48486328125,-147.5244140625
1760968506.490406,0.619140625,0.033203125,0.7666015625,-4.57763671875,-0.06103515625,2.0751953125,0.8184814453125,-39.48486328125,-147.469482421875
1760968506.4974856,0.63134765625,0.00244140625,0.75146484375,-5.43212890625,0.30517578125,2.44140625,0.7635498046875,-39.48486328125,-147.41455078125
1760968506.5043054,0.63134765625,0.00244140625,0.75146484375,-5.43212890625,0.30517578125,2.44140625,0.703125,-39.4793701171875,-147.359619140625
1760968506.5116029,0.63525390625,0.00390625,0.7607421875,-5.67626953125,0.48828125,2.38037109375,0.6427001953125,-39.4793701171875,-147.3101806640625
1760968506.5177836,0.63525390625,0.00390625,0.7607421875,-5.67626953125,0.48828125,2.38037109375,0.5767822265625,-39.473876953125,-147.2552490234375
1760968506.529446,0.6328125,0.00732421875,0.76708984375,-6.7138671875,0.67138671875,2.25830078125,0.50537109375,-39.4683837890625,-147.205810546875
1760968506.5367906,0.6328125,0.00732421875,0.76708984375,-6.7138671875,0.67138671875,2.25830078125,0.428466796875,-39.462890625,-147.161865234375
1760968506.551102,0.6298828125,0.00146484375,0.7744140625,-5.0048828125,0.732421875,2.197265625,0.3570556640625,-39.451904296875,-147.1124267578125
1760968506.558614,0.6298828125,0.00146484375,0.7744140625,-5.0048828125,0.732421875,2.197265625,0.3021240234375,-39.4464111328125,-147.0684814453125
1760968506.565418,0.6396484375,0.0009765625,0.76416015625,-4.08935546875,0.3662109375,2.01416015625,0.2471923828125,-39.44091796875,-147.01904296875
1760968506.5717373,0.6396484375,0.0009765625,0.76416015625,-4.08935546875,0.3662109375,2.01416015625,0.1922607421875,-39.44091796875,-146.9805908203125
1760968506.580367,0.6513671875,-0.00634765625,0.75439453125,-0.79345703125,-0.18310546875,1.40380859375,0.164794921875,-39.44091796875,-146.942138671875
1760968506.6014705,0.6513671875,-0.00634765625,0.75439453125,-0.79345703125,-0.18310546875,1.40380859375,0.1483154296875,-39.44091796875,-146.9091796875
1760968506.6084635,0.6513671875,-0.00634765625,0.75439453125,0.6103515625,-0.48828125,1.15966796875,0.142822265625,-39.4464111328125,-146.8817138671875
1760968506.6150177,0.6533203125,-0.00537109375,0.78125,0.6103515625,-0.48828125,1.15966796875,0.142822265625,-39.451904296875,-146.854248046875
1760968506.621419,0.6591796875,-0.00146484375,0.82275390625,-0.6103515625,-0.54931640625,1.3427734375,0.1373291015625,-39.462890625,-146.8267822265625
1760968506.6300342,0.6591796875,-0.00146484375,0.82275390625,-0.6103515625,-0.54931640625,1.3427734375,0.120849609375,-39.4683837890625,-146.79931640625
1760968506.6454585,0.66162109375,0.0029296875,0.78466796875,-3.35693359375,-0.8544921875,1.46484375,0.0933837890625,-39.473876953125,-146.766357421875
1760968506.6524642,0.66162109375,0.0029296875,0.78466796875,-3.35693359375,-0.8544921875,1.46484375,0.0494384765625,-39.48486328125,-146.7333984375
1760968506.660288,0.65576171875,0.0,0.77783203125,-2.62451171875,-1.46484375,1.28173828125,0.010986328125,-39.5013427734375,-146.7059326171875
1760968506.670229,0.65576171875,0.0,0.77783203125,-2.62451171875,-1.46484375,1.28173828125,-0.0164794921875,-39.5123291015625,-146.678466796875
1760968506.6874444,0.64599609375,-0.01806640625,0.7705078125,-0.79345703125,-1.8310546875,0.91552734375,-0.0384521484375,-39.5343017578125,-146.656494140625
1760968506.694013,0.64599609375,-0.01806640625,0.7705078125,-0.79345703125,-1.8310546875,0.91552734375,-0.054931640625,-39.55078125,-146.634521484375
1760968506.7001224,0.65478515625,0.01025390625,0.77783203125,-0.30517578125,-2.13623046875,0.42724609375,-0.06591796875,-39.57275390625,-146.612548828125
