timestamp,acc_x,acc_y,acc_z,gyro_x,gyro_y,gyro_z,angle_x,angle_y,angle_z
1758786352.2987592,-0.556640625,0.07275390625,0.9697265625,-0.91552734375,0.8544921875,9.1552734375,5.899658203125,33.8323974609375,-54.151611328125
1758786352.3100474,-0.48681640625,0.11865234375,0.8173828125,1.46484375,-1.03759765625,6.77490234375,5.9600830078125,33.81591796875,-54.085693359375
1758786352.3212206,-0.45654296875,0.142578125,0.8369140625,5.55419921875,-0.8544921875,4.08935546875,6.031494140625,33.804931640625,-54.0362548828125
1758786352.3328602,-0.45654296875,0.142578125,0.8369140625,5.55419921875,-0.8544921875,4.08935546875,6.119384765625,33.7884521484375,-53.997802734375
1758786352.3441691,-0.52197265625,0.11328125,0.95703125,0.6103515625,-0.3662109375,2.9296875,6.17431640625,33.77197265625,-53.9593505859375
1758786352.353052,-0.52197265625,0.11328125,0.95703125,0.6103515625,-0.3662109375,2.9296875,6.2017822265625,33.760986328125,-53.931884765625
1758786352.3601248,-0.50537109375,0.0849609375,0.8759765625,0.91552734375,-1.3427734375,2.8076171875,6.2347412109375,33.739013671875,-53.9044189453125
1758786352.3677151,-0.50537109375,0.0849609375,0.8759765625,0.91552734375,-1.3427734375,2.8076171875,6.26220703125,33.7115478515625,-53.876953125
1758786352.37488,-0.49169921875,0.10595703125,0.81396484375,-1.03759765625,-2.01416015625,1.64794921875,6.2786865234375,33.6785888671875,-53.85498046875
1758786352.3820674,-0.49169921875,0.10595703125,0.81396484375,-1.03759765625,-2.01416015625,1.64794921875,6.2786865234375,33.6456298828125,-53.843994140625
1758786352.389332,-0.49169921875,0.10595703125,0.81396484375,0.1220703125,-1.46484375,0.30517578125,6.2786865234375,33.6181640625,-53.8385009765625
1758786352.3986683,-0.49658203125,0.0791015625,0.95068359375,0.1220703125,-1.46484375,0.30517578125,6.2841796875,33.585205078125,-53.8385009765625
1758786352.4060113,-0.45654296875,0.1591796875,0.951171875,11.1083984375,-4.21142578125,-4.33349609375,6.3226318359375,33.541259765625,-53.8714599609375
1758786352.414779,-0.45654296875,0.1591796875,0.951171875,11.1083984375,-4.21142578125,-4.33349609375,6.405029296875,33.486328125,-53.931884765625
1758786352.4248827,-0.54736328125,0.173828125,0.97802734375,14.46533203125,-5.4931640625,-7.26318359375,6.4984130859375,33.42041015625,-54.0032958984375
1758786352.4348545,-0.54736328125,0.173828125,0.97802734375,14.46533203125,-5.4931640625,-7.26318359375,6.591796875,33.3544921875,-54.0911865234375
1758786352.444839,-0.595703125,0.12060546875,0.89306640625,3.35693359375,-7.6904296875,-7.26318359375,6.6357421875,33.2720947265625,-54.1790771484375
1758786352.4548757,-0.595703125,0.12060546875,0.89306640625,3.35693359375,-7.6904296875,-7.26318359375,6.624755859375,33.189697265625,-54.2724609375
1758786352.4649258,-0.57861328125,0.064453125,0.78076171875,-1.3427734375,-7.75146484375,-5.79833984375,6.591796875,33.101806640625,-54.3548583984375
1758786352.4748597,-0.57861328125,0.064453125,0.78076171875,-1.3427734375,-7.75146484375,-5.79833984375,6.536865234375,33.0194091796875,-54.437255859375
1758786352.4848533,-0.55908203125,0.03369140625,0.7255859375,-1.40380859375,-7.50732421875,-2.99072265625,6.492919921875,32.9425048828125,-54.4976806640625
1758786352.4948626,-0.55908203125,0.03369140625,0.7255859375,-1.40380859375,-7.50732421875,-2.99072265625,6.4544677734375,32.8656005859375,-54.5526123046875
1758786352.5048928,-0.474609375,0.08154296875,0.73974609375,-3.35693359375,-8.23974609375,-2.9296875,6.4105224609375,32.7886962890625,-54.6075439453125
1758786352.5148954,-0.474609375,0.08154296875,0.73974609375,-3.35693359375,-8.23974609375,-2.9296875,6.35009765625,32.706298828125,-54.6624755859375
1758786352.5248945,-0.513671875,0.11767578125,0.890625,-2.3193359375,-6.53076171875,-2.9296875,6.3006591796875,32.6348876953125,-54.7119140625
1758786352.5349097,-0.513671875,0.11767578125,0.890625,-2.3193359375,-6.53076171875,-2.9296875,6.251220703125,32.5689697265625,-54.7613525390625
1758786352.5449326,-0.54248046875,0.11865234375,0.9169921875,-3.0517578125,-6.7138671875,-2.86865234375,6.207275390625,32.5030517578125,-54.810791015625
1758786352.5549226,-0.54248046875,0.11865234375,0.9169921875,-3.0517578125,-6.7138671875,-2.86865234375,6.1578369140625,32.4371337890625,-54.8602294921875
1758786352.5649374,-0.5205078125,0.048828125,0.92578125,0.54931640625,-6.53076171875,-1.40380859375,6.13037109375,32.36572265625,-54.898681640625
1758786352.574951,-0.5205078125,0.048828125,0.92578125,0.54931640625,-6.53076171875,-1.40380859375,6.1248779296875,32.2998046875,-54.931640625
1758786352.5849729,-0.46826171875,0.04296875,0.9169921875,-1.03759765625,-7.2021484375,-0.3662109375,6.1083984375,32.222900390625,-54.9591064453125
1758786352.5949707,-0.46826171875,0.04296875,0.9169921875,-1.03759765625,-7.2021484375,-0.3662109375,6.08642578125,32.14599609375,-54.9810791015625
1758786352.604992,-0.39453125,0.09375,0.935546875,-5.67626953125,-7.38525390625,-0.244140625,6.04248046875,32.05810546875,-55.0030517578125
1758786352.614991,-0.39453125,0.09375,0.935546875,-5.67626953125,-7.38525390625,-0.244140625,5.9765625,31.97021484375,-55.0250244140625
1758786352.6250055,-0.27880859375,0.1064453125,0.96875,-2.5634765625,-6.591796875,-0.8544921875,5.9271240234375,31.88232421875,-55.0469970703125
1758786352.6350234,-0.27880859375,0.1064453125,0.96875,-2.5634765625,-6.591796875,-0.8544921875,5.888671875,31.79443359375,-55.0634765625
1758786352.6450412,-0.22509765625,0.07373046875,1.0517578125,1.77001953125,-5.92041015625,-0.732421875,5.8721923828125,31.7010498046875,-55.0799560546875
1758786352.6550438,-0.22509765625,0.07373046875,1.0517578125,1.77001953125,-5.92041015625,-0.732421875,5.877685546875,31.6021728515625,-55.0909423828125
1758786352.6650636,-0.1923828125,0.09228515625,1.1484375,3.662109375,-7.26318359375,-1.220703125,5.8941650390625,31.48681640625,-55.1019287109375
1758786352.677001,-0.1923828125,0.09228515625,1.1484375,3.662109375,-7.26318359375,-1.220703125,5.9161376953125,31.35498046875,-55.107421875
1758786352.6850867,-0.10498046875,0.08984375,1.0810546875,7.080078125,-7.9345703125,-2.25830078125,5.9490966796875,31.2176513671875,-55.118408203125
1758786352.6956966,-0.10498046875,0.08984375,1.0810546875,7.080078125,-7.9345703125,-2.25830078125,5.99853515625,31.0693359375,-55.12939453125
1758786352.7051065,-0.140625,0.08837890625,1.08203125,8.6669921875,-8.7890625,-3.41796875,6.053466796875,30.9100341796875,-55.1458740234375
1758786352.7151163,-0.140625,0.08837890625,1.08203125,8.6669921875,-8.7890625,-3.41796875,6.1138916015625,30.73974609375,-55.162353515625
1758786352.7251117,-0.28076171875,0.09521484375,1.04052734375,10.498046875,-7.75146484375,-4.69970703125,6.17431640625,30.574951171875,-55.184326171875
1758786352.7351213,-0.28076171875,0.09521484375,1.04052734375,10.498046875,-7.75146484375,-4.69970703125,6.2457275390625,30.4156494140625,-55.2117919921875
1758786352.7451425,-0.3916015625,0.12353515625,0.88427734375,-8.72802734375,-7.2021484375,-5.9814453125,6.21826171875,30.25634765625,-55.250244140625
1758786352.7551594,-0.3916015625,0.12353515625,0.88427734375,-8.72802734375,-7.2021484375,-5.9814453125,6.08642578125,30.113525390625,-55.294189453125
1758786352.765184,-0.47314453125,0.10205078125,0.90283203125,-28.564453125,-5.7373046875,-5.18798828125,5.86669921875,29.9761962890625,-55.3326416015625
1758786352.7751641,-0.47314453125,0.10205078125,0.90283203125,-28.564453125,-5.7373046875,-5.18798828125,5.5535888671875,29.8553466796875,-55.37109375
1758786352.7852128,-0.63720703125,0.072265625,0.86083984375,-8.36181640625,-6.591796875,-6.103515625,5.3338623046875,29.739990234375,-55.4205322265625
1758786352.7953672,-0.63720703125,0.072265625,0.86083984375,-8.36181640625,-6.591796875,-6.103515625,5.218505859375,29.6246337890625,-55.48095703125
1758786352.8052201,-0.6787109375,-0.00830078125,0.82568359375,14.70947265625,-6.591796875,-6.16455078125,5.2130126953125,29.5257568359375,-55.546875
1758786352.8153806,-0.6787109375,-0.00830078125,0.82568359375,14.70947265625,-6.591796875,-6.16455078125,5.3173828125,29.4378662109375,-55.623779296875
1758786352.825236,-0.70849609375,0.01123046875,0.74462890625,20.08056640625,-6.65283203125,-6.103515625,5.44921875,29.35546875,-55.7061767578125
1758786352.8353596,-0.70849609375,0.01123046875,0.74462890625,20.08056640625,-6.65283203125,-6.103515625,5.60302734375,29.2840576171875,-55.799560546875
1758786352.845267,-0.671875,0.0234375,0.859375,16.4794921875,-8.48388671875,-7.50732421875,5.73486328125,29.2181396484375,-55.9039306640625
1758786352.8558292,-0.671875,0.0234375,0.859375,16.4794921875,-8.48388671875,-7.50732421875,5.8392333984375,29.146728515625,-56.0247802734375
1758786352.865339,-0.623046875,0.1005859375,0.8974609375,13.36669921875,-7.568359375,-5.7373046875,5.9326171875,29.080810546875,-56.1346435546875
1758786352.8754654,-0.623046875,0.1005859375,0.8974609375,13.36669921875,-7.568359375,-5.7373046875,6.0205078125,29.02587890625,-56.2335205078125
1758786352.8855102,-0.48193359375,0.15771484375,0.88134765625,24.10888671875,-9.09423828125,-5.4931640625,6.163330078125,28.9654541015625,-56.3323974609375
1758786352.8954885,-0.48193359375,0.15771484375,0.88134765625,24.10888671875,-9.09423828125,-5.4931640625,6.3555908203125,28.89404296875,-56.42578125
1758786352.9054732,-0.28271484375,0.12939453125,0.6591796875,13.7939453125,-5.79833984375,-3.41796875,6.5093994140625,28.8336181640625,-56.502685546875
1758786352.9155989,-0.28271484375,0.12939453125,0.6591796875,13.7939453125,-5.79833984375,-3.41796875,6.624755859375,28.7896728515625,-56.5631103515625
1758786352.9254053,-0.2060546875,0.1650390625,0.5751953125,-10.92529296875,-2.86865234375,-4.08935546875,6.6082763671875,28.7567138671875,-56.62353515625
1758786352.9358544,-0.2060546875,0.1650390625,0.5751953125,-10.92529296875,-2.86865234375,-4.08935546875,6.48193359375,28.7347412109375,-56.678466796875
1758786352.9460382,-0.2431640625,0.13720703125,0.50244140625,-13.7939453125,2.99072265625,-4.69970703125,6.339111328125,28.740234375,-56.7279052734375
1758786352.9555068,-0.2431640625,0.13720703125,0.50244140625,-13.7939453125,2.99072265625,-4.69970703125,6.1907958984375,28.7677001953125,-56.7718505859375
1758786352.9664135,-0.3173828125,0.078125,0.64794921875,-14.83154296875,5.43212890625,-4.39453125,6.0369873046875,28.8116455078125,-56.8157958984375
1758786352.9757717,-0.3173828125,0.078125,0.64794921875,-14.83154296875,5.43212890625,-4.39453125,5.8831787109375,28.861083984375,-56.8487548828125
1758786352.9864783,-0.447265625,0.0625,0.912109375,-28.4423828125,6.65283203125,-4.57763671875,5.657958984375,28.9215087890625,-56.88720703125
1758786352.9964902,-0.447265625,0.0625,0.912109375,-28.4423828125,6.65283203125,-4.57763671875,5.3668212890625,28.98193359375,-56.9256591796875
1758786353.0057476,-0.5244140625,0.16650390625,0.935546875,-26.91650390625,6.7138671875,-5.0048828125,5.0811767578125,29.0423583984375,-56.964111328125
1758786353.0159972,-0.5244140625,0.16650390625,0.935546875,-26.91650390625,6.7138671875,-5.0048828125,4.801025390625,29.1082763671875,-57.008056640625
1758786353.0258908,-0.44287109375,0.16552734375,0.75439453125,-16.4794921875,7.568359375,-4.21142578125,4.581298828125,29.1741943359375,-57.041015625
1758786353.0362325,-0.44287109375,0.16552734375,0.75439453125,-16.4794921875,7.568359375,-4.21142578125,4.4219970703125,29.24560546875,-57.06298828125
1758786353.0455236,-0.43359375,0.08251953125,0.59765625,-19.47021484375,10.8642578125,-4.08935546875,4.251708984375,29.33349609375,-57.0849609375
1758786353.0556815,-0.43359375,0.08251953125,0.59765625,-19.47021484375,10.8642578125,-4.08935546875,4.06494140625,29.443359375,-57.10693359375
1758786353.0661318,-0.55126953125,-0.00537109375,0.583984375,-19.22607421875,12.20703125,-5.7373046875,3.8726806640625,29.564208984375,-57.1343994140625
1758786353.0757182,-0.55126953125,-0.00537109375,0.583984375,-19.22607421875,12.20703125,-5.7373046875,3.680419921875,29.696044921875,-57.183837890625
1758786353.0855649,-0.79931640625,-0.0205078125,1.02978515625,-9.46044921875,9.765625,-4.45556640625,3.526611328125,29.8223876953125,-57.227783203125
1758786353.0963454,-0.79931640625,-0.0205078125,1.02978515625,-9.46044921875,9.765625,-4.45556640625,3.427734375,29.937744140625,-57.2772216796875
1758786353.1059396,-1.10693359375,-0.0927734375,1.9521484375,63.5986328125,-2.9296875,-6.8359375,3.6749267578125,29.9981689453125,-57.3486328125
1758786353.1169965,-1.10693359375,-0.0927734375,1.9521484375,63.5986328125,-2.9296875,-6.8359375,4.2626953125,29.9871826171875,-57.447509765625
1758786353.1255527,-0.51904296875,-0.00048828125,1.10693359375,32.8369140625,1.8310546875,-4.0283203125,4.7021484375,29.9981689453125,-57.535400390625
1758786353.1358516,-0.51904296875,-0.00048828125,1.10693359375,32.8369140625,1.8310546875,-4.0283203125,4.98779296875,30.025634765625,-57.601318359375
1758786353.1468773,-0.41455078125,0.23291015625,0.28857421875,-32.28759765625,-4.69970703125,-4.82177734375,4.9493408203125,30.025634765625,-57.67822265625
1758786353.1558316,-0.41455078125,0.23291015625,0.28857421875,-32.28759765625,-4.69970703125,-4.82177734375,4.5867919921875,29.99267578125,-57.755126953125
1758786353.1657038,-0.421875,0.12451171875,0.4736328125,2.13623046875,2.5634765625,-4.39453125,4.4110107421875,30.003662109375,-57.8155517578125
1758786353.1763115,-0.421875,0.12451171875,0.4736328125,2.13623046875,2.5634765625,-4.39453125,4.41650390625,30.0531005859375,-57.8704833984375
1758786353.1861775,-0.53515625,-0.08349609375,0.576171875,35.46142578125,4.7607421875,-5.37109375,4.581298828125,30.113525390625,-57.930908203125
1758786353.1959689,-0.53515625,-0.08349609375,0.576171875,35.46142578125,4.7607421875,-5.37109375,4.9053955078125,30.1959228515625,-58.0078125
1758786353.2057023,-0.7861328125,-0.11474609375,1.052734375,47.30224609375,4.0283203125,-4.45556640625,5.284423828125,30.2728271484375,-58.0792236328125
1758786353.2165806,-0.7861328125,-0.11474609375,1.052734375,47.30224609375,4.0283203125,-4.45556640625,5.7183837890625,30.3497314453125,-58.16162109375
1758786353.2266178,-0.92822265625,0.224609375,1.51123046875,33.14208984375,-2.13623046875,-3.96728515625,6.0699462890625,30.399169921875,-58.2440185546875
1758786353.2359042,-0.92822265625,0.224609375,1.51123046875,33.14208984375,-2.13623046875,-3.96728515625,6.361083984375,30.4046630859375,-58.3209228515625
1758786353.2462714,-0.779296875,0.27392578125,1.04931640625,-16.357421875,-3.5400390625,-3.96728515625,6.405029296875,30.41015625,-58.392333984375
1758786353.2564292,-0.779296875,0.27392578125,1.04931640625,-16.357421875,-3.5400390625,-3.96728515625,6.207275390625,30.4046630859375,-58.4637451171875
1758786353.2657864,-0.5908203125,0.123046875,0.60107421875,-24.7802734375,-6.53076171875,-2.74658203125,5.9765625,30.3826904296875,-58.5186767578125
1758786353.2759929,-0.5908203125,0.123046875,0.60107421875,-24.7802734375,-6.53076171875,-2.74658203125,5.712890625,30.355224609375,-58.568115234375
1758786353.2859454,-0.53271484375,-0.0302734375,0.50439453125,-1.64794921875,-3.47900390625,-3.41796875,5.5645751953125,30.34423828125,-58.623046875
1758786353.2966335,-0.53271484375,-0.0302734375,0.50439453125,-1.64794921875,-3.47900390625,-3.41796875,5.5316162109375,30.3497314453125,-58.6834716796875
1758786353.3058066,-0.568359375,-0.01953125,0.625,1.708984375,-2.86865234375,-2.8076171875,5.5096435546875,30.3662109375,-58.7384033203125
1758786353.316108,-0.568359375,-0.01953125,0.625,1.708984375,-2.86865234375,-2.8076171875,5.504150390625,30.38818359375,-58.798828125
1758786353.3262718,-0.66650390625,0.0908203125,0.84130859375,4.638671875,-1.89208984375,-2.3193359375,5.51513671875,30.41015625,-58.853759765625
1758786353.3360794,-0.66650390625,0.0908203125,0.84130859375,4.638671875,-1.89208984375,-2.3193359375,5.548095703125,30.443115234375,-58.90869140625
1758786353.3463337,-0.712890625,0.169921875,0.94921875,-3.90625,-4.33349609375,-0.732421875,5.537109375,30.4595947265625,-58.9471435546875
1758786353.356071,-0.712890625,0.169921875,0.94921875,-3.90625,-4.33349609375,-0.732421875,5.4931640625,30.465087890625,-58.9801025390625
1758786353.3663423,-0.6279296875,0.1689453125,0.845703125,-18.310546875,-3.60107421875,0.42724609375,5.3118896484375,30.4705810546875,-58.9910888671875
1758786353.3761032,-0.6279296875,0.1689453125,0.845703125,-18.310546875,-3.60107421875,0.42724609375,5.1416015625,30.47607421875,-59.0020751953125
1758786353.3858337,-0.6279296875,0.1689453125,0.845703125,-23.8037109375,-3.23486328125,0.8544921875,4.9163818359375,30.487060546875,-59.0020751953125
1758786353.3965065,-0.576171875,0.11181640625,0.68505859375,-23.8037109375,-3.23486328125,0.8544921875,4.6966552734375,30.498046875,-59.0020751953125
1758786353.4059246,-0.51025390625,0.05078125,0.64453125,-15.07568359375,-1.52587890625,0.67138671875,4.5648193359375,30.531005859375,-59.007568359375
1758786353.4160283,-0.51025390625,0.05078125,0.64453125,-15.07568359375,-1.52587890625,0.67138671875,4.427490234375,30.5584716796875,-59.007568359375
1758786353.425955,-0.44970703125,0.0029296875,0.75048828125,-4.82177734375,0.06103515625,0.9765625,4.4000244140625,30.6024169921875,-59.0020751953125
1758786353.4366071,-0.44970703125,0.0029296875,0.75048828125,-4.82177734375,0.06103515625,0.9765625,4.361572265625,30.6353759765625,-59.0020751953125
1758786353.446,-0.423828125,0.0146484375,0.95654296875,1.28173828125,0.3662109375,0.732421875,4.383544921875,30.673828125,-59.007568359375
1758786353.4560397,-0.423828125,0.0146484375,0.95654296875,1.28173828125,0.3662109375,0.732421875,4.405517578125,30.7012939453125,-59.007568359375
1758786353.4659874,-0.44287109375,0.04931640625,0.9658203125,8.11767578125,0.42724609375,0.91552734375,4.493408203125,30.7177734375,-59.007568359375
1758786353.4764814,-0.44287109375,0.04931640625,0.9658203125,8.11767578125,0.42724609375,0.91552734375,4.5758056640625,30.7342529296875,-59.007568359375
1758786353.4859366,-0.3515625,0.06982421875,0.92529296875,-2.9296875,-2.0751953125,1.220703125,4.54833984375,30.7177734375,-59.0020751953125
1758786353.4962506,-0.3515625,0.06982421875,0.92529296875,-2.9296875,-2.0751953125,1.220703125,4.5263671875,30.69580078125,-58.99658203125
1758786353.5063639,-0.2939453125,0.09326171875,0.9111328125,-4.33349609375,-1.220703125,0.42724609375,4.482421875,30.673828125,-58.99658203125
1758786353.5173328,-0.2939453125,0.09326171875,0.9111328125,-4.33349609375,-1.220703125,0.42724609375,4.4439697265625,30.6463623046875,-58.9910888671875
1758786353.5264914,-0.3583984375,0.10205078125,1.046875,-3.84521484375,-2.9296875,-1.0986328125,4.4000244140625,30.596923828125,-58.99658203125
1758786353.5360878,-0.3583984375,0.10205078125,1.046875,-3.84521484375,-2.9296875,-1.0986328125,4.3560791015625,30.5419921875,-59.007568359375
1758786353.546982,-0.49072265625,0.07470703125,1.22216796875,-7.14111328125,-3.96728515625,-1.15966796875,4.273681640625,30.47607421875,-59.0130615234375
1758786353.5563464,-0.49072265625,0.07470703125,1.22216796875,-7.14111328125,-3.96728515625,-1.15966796875,4.19677734375,30.4046630859375,-59.0185546875
1758786353.5660503,-0.57275390625,0.02978515625,1.193359375,-0.91552734375,-7.62939453125,1.220703125,4.1912841796875,30.30029296875,-59.0020751953125
1758786353.5762239,-0.57275390625,0.02978515625,1.193359375,-0.91552734375,-7.62939453125,1.220703125,4.185791015625,30.1904296875,-58.985595703125
1758786353.5866008,-0.44580078125,0.01416015625,0.9052734375,7.14111328125,-9.27734375,2.99072265625,4.2681884765625,30.069580078125,-58.9581298828125
1758786353.596485,-0.44580078125,0.01416015625,0.9052734375,7.14111328125,-9.27734375,2.99072265625,4.3450927734375,29.9432373046875,-58.9306640625
1758786353.6061044,-0.3623046875,-0.00244140625,0.6455078125,20.6298828125,-8.7890625,2.74658203125,4.5538330078125,29.827880859375,-58.9031982421875
1758786353.6161852,-0.3623046875,-0.00244140625,0.6455078125,20.6298828125,-8.7890625,2.74658203125,4.7625732421875,29.718017578125,-58.88671875
1758786353.6268532,-0.34375,0.01318359375,0.6533203125,33.14208984375,-5.7373046875,-0.18310546875,5.07568359375,29.6356201171875,-58.9031982421875
1758786353.6363084,-0.34375,0.01318359375,0.6533203125,33.14208984375,-5.7373046875,-0.18310546875,5.3887939453125,29.5587158203125,-58.919677734375
1758786353.6462739,-0.38330078125,0.07763671875,0.65673828125,33.50830078125,-2.9296875,-0.3662109375,5.701904296875,29.5147705078125,-58.9361572265625
1758786353.6562617,-0.38330078125,0.07763671875,0.65673828125,33.50830078125,-2.9296875,-0.3662109375,6.0150146484375,29.4708251953125,-58.9581298828125
1758786353.6683466,-0.490234375,0.1005859375,0.7890625,12.451171875,-1.3427734375,1.89208984375,6.13037109375,29.4378662109375,-58.9471435546875
1758786353.6762931,-0.490234375,0.1005859375,0.7890625,12.451171875,-1.3427734375,1.89208984375,6.251220703125,29.4158935546875,-58.9361572265625
1758786353.686197,-0.55908203125,0.0927734375,0.82470703125,3.72314453125,-1.953125,2.86865234375,6.2896728515625,29.3829345703125,-58.919677734375
1758786353.6964598,-0.55908203125,0.0927734375,0.82470703125,3.72314453125,-1.953125,2.86865234375,6.3336181640625,29.35546875,-58.9031982421875
1758786353.7069747,-0.6005859375,0.041015625,0.84033203125,14.09912109375,-2.44140625,1.708984375,6.4654541015625,29.33349609375,-58.9031982421875
1758786353.7162719,-0.6005859375,0.041015625,0.84033203125,14.09912109375,-2.44140625,1.708984375,6.602783203125,29.3115234375,-58.9031982421875
1758786353.7262526,-0.63427734375,0.0283203125,0.76220703125,17.4560546875,-1.89208984375,2.01416015625,6.767578125,29.300537109375,-58.9031982421875
1758786353.7383516,-0.63427734375,0.0283203125,0.76220703125,17.4560546875,-1.89208984375,2.01416015625,6.9378662109375,29.2950439453125,-58.90869140625
1758786353.747183,-0.6376953125,0.10986328125,0.7578125,24.84130859375,-1.28173828125,2.50244140625,7.1795654296875,29.300537109375,-58.90869140625
1758786353.7563653,-0.6376953125,0.10986328125,0.7578125,24.84130859375,-1.28173828125,2.50244140625,7.4267578125,29.3115234375,-58.90869140625
1758786353.7664688,-0.67431640625,0.2177734375,0.76416015625,22.5830078125,-0.91552734375,3.96728515625,7.6629638671875,29.322509765625,-58.8922119140625
1758786353.7770493,-0.67431640625,0.2177734375,0.76416015625,22.5830078125,-0.91552734375,3.96728515625,7.9046630859375,29.344482421875,-58.86474609375
1758786353.7865376,-0.677734375,0.23828125,0.833984375,2.86865234375,0.244140625,4.2724609375,7.9541015625,29.37744140625,-58.8372802734375
1758786353.7999835,-0.677734375,0.23828125,0.833984375,2.86865234375,0.244140625,4.2724609375,8.009033203125,29.410400390625,-58.798828125
1758786353.8086283,-0.67041015625,0.24755859375,0.921875,-11.29150390625,0.91552734375,4.5166015625,7.9266357421875,29.4488525390625,-58.7548828125
1758786353.8171237,-0.67041015625,0.24755859375,0.921875,-11.29150390625,0.91552734375,4.5166015625,7.8497314453125,29.4873046875,-58.7109375
1758786353.837417,-0.62109375,0.22119140625,0.92333984375,-28.076171875,1.64794921875,5.79833984375,7.6190185546875,29.53125,-58.64501953125
1758786353.8439867,-0.62109375,0.22119140625,0.92333984375,-28.076171875,1.64794921875,5.79833984375,7.3883056640625,29.5751953125,-58.5791015625
1758786353.850184,-0.54931640625,0.1259765625,0.86572265625,-34.5458984375,2.62451171875,6.16455078125,7.09716796875,29.6246337890625,-58.502197265625
1758786353.8644617,-0.54931640625,0.1259765625,0.86572265625,-34.5458984375,2.62451171875,6.16455078125,6.8115234375,29.674072265625,-58.4307861328125
1758786353.8713322,-0.51025390625,0.05859375,0.8056640625,-26.85546875,3.7841796875,5.79833984375,6.5972900390625,29.72900390625,-58.359375
1758786353.8773313,-0.51025390625,0.05859375,0.8056640625,-26.85546875,3.7841796875,5.79833984375,6.3775634765625,29.7894287109375,-58.29345703125
1758786353.8863854,-0.44677734375,0.05419921875,0.77783203125,-20.32470703125,5.0048828125,4.94384765625,6.2237548828125,29.8553466796875,-58.2330322265625
1758786353.8966181,-0.44677734375,0.05419921875,0.77783203125,-20.32470703125,5.0048828125,4.94384765625,6.064453125,29.9212646484375,-58.172607421875
1758786353.9068134,-0.38671875,0.072265625,0.76416015625,-13.12255859375,5.55419921875,4.5166015625,5.9710693359375,29.99267578125,-58.11767578125
1758786353.9164405,-0.38671875,0.072265625,0.76416015625,-13.12255859375,5.55419921875,4.5166015625,5.8831787109375,30.05859375,-58.0682373046875
1758786353.9264338,-0.357421875,0.0947265625,0.8330078125,-7.080078125,6.77490234375,4.82177734375,5.855712890625,30.1300048828125,-58.0078125
1758786353.9364798,-0.357421875,0.0947265625,0.8330078125,-7.080078125,6.77490234375,4.82177734375,5.82275390625,30.1959228515625,-57.94189453125
1758786353.9464214,-0.39697265625,0.0869140625,0.92138671875,-10.1318359375,6.103515625,6.16455078125,5.7733154296875,30.2508544921875,-57.864990234375
1758786353.956427,-0.39697265625,0.0869140625,0.92138671875,-10.1318359375,6.103515625,6.16455078125,5.7183837890625,30.30029296875,-57.7880859375
1758786353.966934,-0.40869140625,0.1240234375,0.89208984375,-20.6298828125,5.06591796875,7.62939453125,5.570068359375,30.333251953125,-57.689208984375
1758786353.9765272,-0.40869140625,0.1240234375,0.89208984375,-20.6298828125,5.06591796875,7.62939453125,5.4217529296875,30.3662109375,-57.59033203125
1758786353.9864163,-0.44482421875,0.1220703125,0.78271484375,-23.4375,3.60107421875,7.32421875,5.2459716796875,30.3826904296875,-57.491455078125
1758786353.9965084,-0.44482421875,0.1220703125,0.78271484375,-23.4375,3.60107421875,7.32421875,5.0701904296875,30.4046630859375,-57.3980712890625
1758786354.0066261,-0.466796875,0.04443359375,0.83447265625,-20.44677734375,3.11279296875,7.38525390625,4.921875,30.4156494140625,-57.2991943359375
1758786354.0165267,-0.466796875,0.04443359375,0.83447265625,-20.44677734375,3.11279296875,7.38525390625,4.7735595703125,30.43212890625,-57.205810546875
1758786354.0265148,-0.466796875,-0.04150390625,1.14208984375,20.5078125,-0.67138671875,3.173828125,5.0042724609375,30.41015625,-57.1673583984375
1758786354.036545,-0.466796875,-0.04150390625,1.14208984375,20.5078125,-0.67138671875,3.173828125,5.2239990234375,30.3826904296875,-57.1343994140625
1758786354.0467532,-0.44091796875,-0.0302734375,1.0078125,30.029296875,1.708984375,5.37109375,5.548095703125,30.3717041015625,-57.0794677734375
1758786354.0565722,-0.44091796875,-0.0302734375,1.0078125,30.029296875,1.708984375,5.37109375,5.86669921875,30.3607177734375,-57.0245361328125
1758786354.066556,-0.3291015625,0.1123046875,0.8056640625,13.5498046875,-0.42724609375,4.5166015625,6.0150146484375,30.3277587890625,-56.986083984375
1758786354.0768566,-0.3291015625,0.1123046875,0.8056640625,13.5498046875,-0.42724609375,4.5166015625,6.163330078125,30.2947998046875,-56.942138671875
1758786354.086796,-0.30517578125,0.1416015625,0.72705078125,6.9580078125,1.89208984375,2.197265625,6.2347412109375,30.2838134765625,-56.9146728515625
1758786354.0965784,-0.30517578125,0.1416015625,0.72705078125,6.9580078125,1.89208984375,2.197265625,6.3116455078125,30.267333984375,-56.88720703125
1758786354.1065524,-0.2890625,0.13671875,0.8154296875,2.9296875,2.86865234375,1.0986328125,6.3446044921875,30.2618408203125,-56.8707275390625
1758786354.1168108,-0.2890625,0.13671875,0.8154296875,2.9296875,2.86865234375,1.0986328125,6.3775634765625,30.25634765625,-56.8487548828125
1758786354.12716,-0.3662109375,0.10302734375,0.82666015625,7.38525390625,4.57763671875,0.18310546875,6.4544677734375,30.267333984375,-56.832275390625
1758786354.1366098,-0.3662109375,0.10302734375,0.82666015625,7.38525390625,4.57763671875,0.18310546875,6.5313720703125,30.2728271484375,-56.8157958984375
1758786354.146672,-0.45263671875,0.03125,0.8857421875,13.18359375,2.25830078125,0.3662109375,6.6632080078125,30.2618408203125,-56.79931640625
1758786354.156976,-0.45263671875,0.03125,0.8857421875,13.18359375,2.25830078125,0.3662109375,6.78955078125,30.2508544921875,-56.7938232421875
1758786354.1667852,-0.52197265625,0.0068359375,0.93505859375,27.52685546875,1.40380859375,-2.13623046875,7.042236328125,30.234375,-56.8212890625
1758786354.1767051,-0.52197265625,0.0068359375,0.93505859375,27.52685546875,1.40380859375,-2.13623046875,7.2894287109375,30.223388671875,-56.854248046875
1758786354.1867144,-0.65087890625,0.07666015625,0.904296875,40.22216796875,-0.30517578125,-3.2958984375,7.6519775390625,30.201416015625,-56.9036865234375
1758786354.1969209,-0.65087890625,0.07666015625,0.904296875,40.22216796875,-0.30517578125,-3.2958984375,8.0145263671875,30.1904296875,-56.964111328125
1758786354.206688,-0.7802734375,0.185546875,0.95703125,38.63525390625,-3.173828125,-2.99072265625,8.360595703125,30.1519775390625,-57.01904296875
1758786354.2167456,-0.7802734375,0.185546875,0.95703125,38.63525390625,-3.173828125,-2.99072265625,8.7066650390625,30.12451171875,-57.0794677734375
1758786354.2267098,-0.76171875,0.3017578125,0.78857421875,27.52685546875,-4.638671875,-1.64794921875,8.9593505859375,30.091552734375,-57.1234130859375
1758786354.2368803,-0.76171875,0.3017578125,0.78857421875,27.52685546875,-4.638671875,-1.64794921875,9.2120361328125,30.05859375,-57.161865234375
1758786354.2467434,-0.75048828125,0.3046875,0.658203125,-10.1318359375,-5.18798828125,0.1220703125,9.107666015625,30.0311279296875,-57.1783447265625
1758786354.2567406,-0.75048828125,0.3046875,0.658203125,-10.1318359375,-5.18798828125,0.1220703125,9.0142822265625,30.0091552734375,-57.1893310546875
1758786354.266991,-0.73828125,0.2998046875,0.60595703125,-26.7333984375,-4.08935546875,1.77001953125,8.7725830078125,30.003662109375,-57.1728515625
1758786354.2769654,-0.73828125,0.2998046875,0.60595703125,-26.7333984375,-4.08935546875,1.77001953125,8.536376953125,30.003662109375,-57.1563720703125
1758786354.2867897,-0.650390625,0.201171875,0.7001953125,-40.34423828125,-4.08935546875,3.47900390625,8.1793212890625,30.0091552734375,-57.117919921875
1758786354.296811,-0.650390625,0.201171875,0.7001953125,-40.34423828125,-4.08935546875,3.47900390625,7.822265625,30.0091552734375,-57.0794677734375
1758786354.3070667,-0.62744140625,0.10791015625,0.7724609375,-36.7431640625,-0.6103515625,2.01416015625,7.4981689453125,30.0531005859375,-57.052001953125
1758786354.3168483,-0.62744140625,0.10791015625,0.7724609375,-36.7431640625,-0.6103515625,2.01416015625,7.174072265625,30.0970458984375,-57.0245361328125
1758786354.3268542,-0.64990234375,-0.01123046875,0.75830078125,-19.95849609375,-0.67138671875,1.46484375,7.00927734375,30.135498046875,-57.008056640625
1758786354.3369098,-0.64990234375,-0.01123046875,0.75830078125,-19.95849609375,-0.67138671875,1.46484375,6.8389892578125,30.179443359375,-56.9970703125
1758786354.3471746,-0.6904296875,0.01318359375,0.78515625,-7.080078125,-0.1220703125,0.42724609375,6.78955078125,30.234375,-57.008056640625
1758786354.3568714,-0.6904296875,0.01318359375,0.78515625,-7.080078125,-0.1220703125,0.42724609375,6.734619140625,30.2838134765625,-57.0135498046875
1758786354.3668618,-0.73095703125,0.03955078125,0.80078125,9.1552734375,0.30517578125,-0.42724609375,6.83349609375,30.34423828125,-57.041015625
1758786354.3773293,-0.73095703125,0.03955078125,0.80078125,9.1552734375,0.30517578125,-0.42724609375,6.9268798828125,30.4046630859375,-57.06298828125
1758786354.3869593,-0.6826171875,0.09716796875,0.81494140625,0.6103515625,-0.48828125,-1.0986328125,6.932373046875,30.4595947265625,-57.1014404296875
1758786354.39695,-0.6826171875,0.09716796875,0.81494140625,0.6103515625,-0.48828125,-1.0986328125,6.9378662109375,30.5145263671875,-57.1343994140625
1758786354.4069543,-0.6171875,0.1513671875,0.759765625,7.50732421875,1.15966796875,-1.953125,7.00927734375,30.5859375,-57.1728515625
1758786354.417333,-0.6171875,0.1513671875,0.759765625,7.50732421875,1.15966796875,-1.953125,7.0806884765625,30.65185546875,-57.2113037109375
1758786354.426974,-0.5625,0.10888671875,0.73974609375,8.11767578125,1.89208984375,-2.5634765625,7.152099609375,30.728759765625,-57.2552490234375
1758786354.436969,-0.56103515625,0.10693359375,0.85498046875,8.1787109375,3.5400390625,-3.0517578125,7.2235107421875,30.8111572265625,-57.2991943359375
1758786354.4471014,-0.56103515625,0.10693359375,0.85498046875,8.1787109375,3.5400390625,-3.0517578125,7.294921875,30.8935546875,-57.3431396484375
1758786354.4572635,-0.52587890625,0.12109375,0.91455078125,7.50732421875,3.0517578125,-2.99072265625,7.3663330078125,30.970458984375,-57.3870849609375
1758786354.467084,-0.52587890625,0.12109375,0.91455078125,7.50732421875,3.0517578125,-2.99072265625,7.4267578125,31.0418701171875,-57.4310302734375
1758786354.4770236,-0.4677734375,0.125,0.87158203125,4.69970703125,1.46484375,-2.685546875,7.4761962890625,31.102294921875,-57.4749755859375
1758786354.4875288,-0.4677734375,0.125,0.87158203125,4.69970703125,1.46484375,-2.685546875,7.5091552734375,31.146240234375,-57.513427734375
1758786354.4971545,-0.43310546875,0.0791015625,0.89794921875,5.126953125,0.79345703125,-1.77001953125,7.547607421875,31.17919921875,-57.54638671875
1758786354.5071013,-0.43310546875,0.0791015625,0.89794921875,5.126953125,0.79345703125,-1.77001953125,7.591552734375,31.2066650390625,-57.5738525390625
1758786354.5172842,-0.40478515625,0.0888671875,0.912109375,9.82666015625,-0.3662109375,-2.685546875,7.6519775390625,31.22314453125,-57.6123046875
1758786354.527098,-0.40478515625,0.0888671875,0.912109375,9.82666015625,-0.3662109375,-2.685546875,7.7288818359375,31.2286376953125,-57.6507568359375
1758786354.5371664,-0.46240234375,0.142578125,0.95361328125,16.357421875,-1.0986328125,-4.69970703125,7.833251953125,31.2286376953125,-57.7056884765625
1758786354.5470965,-0.46240234375,0.142578125,0.95361328125,16.357421875,-1.0986328125,-4.69970703125,7.965087890625,31.22314453125,-57.76611328125
1758786354.5572753,-0.48974609375,0.138671875,0.900390625,22.4609375,-0.732421875,-7.01904296875,8.118896484375,31.2176513671875,-57.843017578125
1758786354.5683644,-0.48974609375,0.138671875,0.900390625,22.4609375,-0.732421875,-7.01904296875,8.294677734375,31.212158203125,-57.930908203125
1758786354.5773695,-0.49267578125,0.1044921875,0.81591796875,32.77587890625,-1.708984375,-8.72802734375,8.514404296875,31.2066650390625,-58.02978515625
1758786354.5871644,-0.49267578125,0.1044921875,0.81591796875,32.77587890625,-1.708984375,-8.72802734375,8.7835693359375,31.1956787109375,-58.1396484375
1758786354.597674,-0.4345703125,0.1240234375,0.91357421875,32.1044921875,-3.35693359375,-10.19287109375,9.041748046875,31.17919921875,-58.260498046875
1758786354.607143,-0.4345703125,0.1240234375,0.91357421875,32.1044921875,-3.35693359375,-10.19287109375,9.283447265625,31.1517333984375,-58.3868408203125
1758786354.6171982,-0.52880859375,0.2138671875,0.95458984375,34.7900390625,-2.01416015625,-13.18359375,9.5361328125,31.1297607421875,-58.53515625
1758786354.6272585,-0.52880859375,0.2138671875,0.95458984375,34.7900390625,-2.01416015625,-13.18359375,9.7943115234375,31.124267578125,-58.6944580078125
1758786354.637213,-0.6201171875,0.17138671875,0.8173828125,34.60693359375,-3.41796875,-13.00048828125,10.052490234375,31.1077880859375,-58.853759765625
1758786354.6472855,-0.6201171875,0.17138671875,0.8173828125,34.60693359375,-3.41796875,-13.00048828125,10.3106689453125,31.09130859375,-59.0130615234375
1758786354.6574595,-0.517578125,0.22021484375,0.8642578125,-3.2958984375,-2.3193359375,-9.58251953125,10.39306640625,31.080322265625,-59.150390625
1758786354.6674392,-0.517578125,0.22021484375,0.8642578125,-3.2958984375,-2.3193359375,-9.58251953125,10.294189453125,31.0693359375,-59.2657470703125
1758786354.677291,-0.375,0.19482421875,0.91650390625,-17.822265625,-4.82177734375,-7.9345703125,10.1348876953125,31.04736328125,-59.3701171875
1758786354.687323,-0.375,0.19482421875,0.91650390625,-17.822265625,-4.82177734375,-7.9345703125,9.9041748046875,31.00341796875,-59.4635009765625
1758786354.6977055,-0.23876953125,0.22412109375,1.10302734375,-31.31103515625,-3.7841796875,-8.7890625,9.613037109375,30.95947265625,-59.556884765625
1758786354.7072914,-0.23876953125,0.22412109375,1.10302734375,-31.31103515625,-3.7841796875,-8.7890625,9.25048828125,30.9100341796875,-59.6502685546875
1758786354.717472,-0.2880859375,0.1015625,1.10498046875,-16.9677734375,-4.150390625,-9.09423828125,8.96484375,30.849609375,-59.7381591796875
1758786354.727379,-0.2880859375,0.1015625,1.10498046875,-16.9677734375,-4.150390625,-9.09423828125,8.7451171875,30.78369140625,-59.83154296875
1758786354.7372797,-0.23583984375,-0.001953125,1.134765625,-13.61083984375,-6.53076171875,-8.23974609375,8.5418701171875,30.69580078125,-59.91943359375
1758786354.747361,-0.23583984375,-0.001953125,1.134765625,-13.61083984375,-6.53076171875,-8.23974609375,8.3551025390625,30.5914306640625,-60.00732421875
1758786354.7574022,-0.15869140625,0.04443359375,1.13623046875,-2.197265625,-8.11767578125,-9.6435546875,8.2122802734375,30.4705810546875,-60.1007080078125
1758786354.767422,-0.15869140625,0.04443359375,1.13623046875,-2.197265625,-8.11767578125,-9.6435546875,8.118896484375,30.3387451171875,-60.2105712890625
1758786354.7773643,-0.11376953125,0.068359375,1.12255859375,4.7607421875,-6.04248046875,-10.009765625,8.06396484375,30.21240234375,-60.31494140625
1758786354.7877164,-0.11376953125,0.068359375,1.12255859375,4.7607421875,-6.04248046875,-10.009765625,8.0364990234375,30.0860595703125,-60.413818359375
1758786354.7976303,-0.05810546875,0.09423828125,1.10546875,-19.6533203125,-8.544921875,-6.89697265625,7.899169921875,29.937744140625,-60.4962158203125
1758786354.807428,-0.05810546875,0.09423828125,1.10546875,-19.6533203125,-8.544921875,-6.89697265625,7.646484375,29.77294921875,-60.556640625
1758786354.817375,-0.021484375,0.19482421875,0.9599609375,-7.62939453125,-6.4697265625,-8.056640625,7.459716796875,29.608154296875,-60.6170654296875
1758786354.8278449,-0.021484375,0.19482421875,0.9599609375,-7.62939453125,-6.4697265625,-8.056640625,7.3333740234375,29.4488525390625,-60.66650390625
1758786354.8374352,-0.16357421875,0.22998046875,0.865234375,1.953125,-5.43212890625,-8.1787109375,7.261962890625,29.2950439453125,-60.71044921875
1758786354.847448,-0.16357421875,0.22998046875,0.865234375,1.953125,-5.43212890625,-8.1787109375,7.2454833984375,29.146728515625,-60.7489013671875
1758786354.8574135,-0.26025390625,0.2255859375,0.9189453125,-39.36767578125,-4.21142578125,-3.96728515625,7.042236328125,29.00390625,-60.75439453125
1758786354.8675807,-0.26025390625,0.2255859375,0.9189453125,-39.36767578125,-4.21142578125,-3.96728515625,6.646728515625,28.861083984375,-60.732421875
1758786354.877453,-0.26025390625,0.2255859375,0.9189453125,-53.466796875,-2.8076171875,0.48828125,6.1962890625,28.7347412109375,-60.677490234375
1758786354.8875153,-0.419921875,0.2353515625,0.958984375,-53.466796875,-2.8076171875,0.48828125,5.6964111328125,28.619384765625,-60.6005859375
1758786354.8975432,-0.6669921875,0.04296875,0.9697265625,-7.080078125,-3.23486328125,0.91552734375,5.4327392578125,28.5040283203125,-60.523681640625
1758786354.9078438,-0.6669921875,0.04296875,0.9697265625,-7.080078125,-3.23486328125,0.91552734375,5.394287109375,28.4051513671875,-60.4632568359375
1758786354.9175296,-0.80224609375,-0.1083984375,1.09912109375,18.9208984375,-0.18310546875,-0.244140625,5.4766845703125,28.333740234375,-60.4193115234375
1758786354.927571,-0.80224609375,-0.1083984375,1.09912109375,18.9208984375,-0.18310546875,-0.244140625,5.6744384765625,28.289794921875,-60.3973388671875
1758786354.9375322,-0.8271484375,-0.07568359375,0.98681640625,2.99072265625,-1.5869140625,-3.23486328125,5.7733154296875,28.2513427734375,-60.4083251953125
1758786354.9478128,-0.8271484375,-0.07568359375,0.98681640625,2.99072265625,-1.5869140625,-3.23486328125,5.7733154296875,28.2183837890625,-60.44677734375
1758786354.957572,-0.6650390625,0.1357421875,0.7529296875,-8.36181640625,-0.79345703125,-3.173828125,5.7183837890625,28.1964111328125,-60.4962158203125
1758786354.9675562,-0.6650390625,0.1357421875,0.7529296875,-8.36181640625,-0.79345703125,-3.173828125,5.614013671875,28.19091796875,-60.5401611328125
1758786354.9775739,-0.52294921875,0.13623046875,0.54296875,4.57763671875,1.40380859375,-4.5166015625,5.570068359375,28.201904296875,-60.589599609375
1758786354.988201,-0.52294921875,0.13623046875,0.54296875,4.57763671875,1.40380859375,-4.5166015625,5.592041015625,28.2293701171875,-60.64453125
1758786354.997557,-0.46240234375,0.0615234375,0.44873046875,-0.67138671875,5.92041015625,-5.0048828125,5.5865478515625,28.289794921875,-60.699462890625
1758786355.007626,-0.46240234375,0.0615234375,0.44873046875,-0.67138671875,5.92041015625,-5.0048828125,5.55908203125,28.3721923828125,-60.75439453125
1758786355.017887,-0.48828125,0.08837890625,0.53564453125,-7.75146484375,7.9345703125,-5.2490234375,5.4986572265625,28.4765625,-60.809326171875
1758786355.027753,-0.48828125,0.08837890625,0.53564453125,-7.75146484375,7.9345703125,-5.2490234375,5.4052734375,28.58642578125,-60.8697509765625
1758786355.0376484,-0.515625,0.10546875,0.658203125,3.72314453125,10.8642578125,-6.103515625,5.361328125,28.71826171875,-60.9246826171875
1758786355.047712,-0.515625,0.10546875,0.658203125,3.72314453125,10.8642578125,-6.103515625,5.38330078125,28.8665771484375,-60.985107421875
1758786355.058076,-0.521484375,0.06787109375,0.669921875,2.0751953125,10.92529296875,-5.859375,5.394287109375,29.014892578125,-61.0455322265625
1758786355.0677466,-0.521484375,0.06787109375,0.669921875,2.0751953125,10.92529296875,-5.859375,5.394287109375,29.1632080078125,-61.10595703125
1758786355.0776427,-0.66845703125,-0.07177734375,0.76123046875,-3.7841796875,10.8642578125,-7.2021484375,5.361328125,29.3170166015625,-61.171875
1758786355.0877347,-0.66845703125,-0.07177734375,0.76123046875,-3.7841796875,10.8642578125,-7.2021484375,5.2899169921875,29.4708251953125,-61.2542724609375
1758786355.0981078,-0.89404296875,-0.1357421875,0.9111328125,-3.60107421875,7.99560546875,-9.33837890625,5.20751953125,29.6136474609375,-61.358642578125
1758786355.1077657,-0.89404296875,-0.1357421875,0.9111328125,-3.60107421875,7.99560546875,-9.33837890625,5.108642578125,29.7509765625,-61.4849853515625
1758786355.1177316,-0.9970703125,0.0517578125,1.01611328125,9.6435546875,4.2724609375,-7.9345703125,5.07568359375,29.8773193359375,-61.611328125
1758786355.127755,-0.9970703125,0.0517578125,1.01611328125,9.6435546875,4.2724609375,-7.9345703125,5.1141357421875,29.981689453125,-61.732177734375
1758786355.138135,-0.8818359375,0.23095703125,0.9052734375,27.34375,-0.6103515625,-7.8125,5.240478515625,30.069580078125,-61.85302734375
1758786355.1477997,-0.8818359375,0.23095703125,0.9052734375,27.34375,-0.6103515625,-7.8125,5.460205078125,30.135498046875,-61.962890625
1758786355.158161,-0.748046875,0.2197265625,0.603515625,16.6015625,-1.708984375,-6.591796875,5.635986328125,30.1959228515625,-62.0672607421875
1758786355.168346,-0.748046875,0.2197265625,0.603515625,16.6015625,-1.708984375,-6.591796875,5.767822265625,30.25634765625,-62.1551513671875
1758786355.1777833,-0.64990234375,0.20263671875,0.5380859375,-4.39453125,-1.5869140625,-6.65283203125,5.7952880859375,30.3167724609375,-62.2430419921875
1758786355.1878645,-0.64990234375,0.20263671875,0.5380859375,-4.39453125,-1.5869140625,-6.65283203125,5.723876953125,30.3826904296875,-62.325439453125
1758786355.1978438,-0.59375,0.13427734375,0.580078125,-18.73779296875,-0.18310546875,-5.31005859375,5.592041015625,30.4595947265625,-62.3968505859375
1758786355.2081628,-0.59375,0.13427734375,0.580078125,-18.73779296875,-0.18310546875,-5.31005859375,5.394287109375,30.5419921875,-62.457275390625
1758786355.2178102,-0.54248046875,0.068359375,0.6650390625,-21.54541015625,1.708984375,-4.57763671875,5.185546875,30.6298828125,-62.51220703125
1758786355.2278671,-0.54248046875,0.068359375,0.6650390625,-21.54541015625,1.708984375,-4.57763671875,4.9658203125,30.728759765625,-62.5616455078125
1758786355.2378397,-0.4990234375,0.0478515625,0.7880859375,-18.00537109375,5.18798828125,-4.57763671875,4.7625732421875,30.838623046875,-62.611083984375
1758786355.2483869,-0.4990234375,0.0478515625,0.7880859375,-18.00537109375,5.18798828125,-4.57763671875,4.5758056640625,30.95947265625,-62.6605224609375
1758786355.2578785,-0.5498046875,0.0166015625,0.830078125,-4.0283203125,5.4931640625,-3.5400390625,4.46044921875,31.0748291015625,-62.698974609375
1758786355.2679245,-0.5498046875,0.0166015625,0.830078125,-4.0283203125,5.4931640625,-3.5400390625,4.41650390625,31.1846923828125,-62.7374267578125
1758786355.2781026,-0.6015625,-0.01904296875,0.9130859375,-0.6103515625,4.5166015625,-2.685546875,4.383544921875,31.2890625,-62.7703857421875
1758786355.2883203,-0.6015625,-0.01904296875,0.9130859375,-0.6103515625,4.5166015625,-2.685546875,4.37255859375,31.376953125,-62.808837890625
1758786355.2979734,-0.66259765625,0.005859375,0.89208984375,6.591796875,4.33349609375,-1.89208984375,4.3890380859375,31.46484375,-62.8363037109375
1758786355.307992,-0.66259765625,0.005859375,0.89208984375,6.591796875,4.33349609375,-1.89208984375,4.4439697265625,31.552734375,-62.86376953125
1758786355.3180153,-0.515625,0.0517578125,0.80224609375,8.544921875,2.99072265625,-2.50244140625,4.50439453125,31.629638671875,-62.9022216796875
1758786355.3283925,-0.515625,0.0517578125,0.80224609375,8.544921875,2.99072265625,-2.50244140625,4.5758056640625,31.695556640625,-62.940673828125
1758786355.3380234,-0.5830078125,0.09130859375,0.80029296875,0.42724609375,1.8310546875,-2.9296875,4.5977783203125,31.75048828125,-62.9791259765625
1758786355.3480048,-0.5830078125,0.09130859375,0.80029296875,0.42724609375,1.8310546875,-2.9296875,4.5867919921875,31.805419921875,-63.017578125
1758786355.3581522,-0.494140625,0.146484375,0.7685546875,-4.94384765625,1.3427734375,-3.23486328125,4.5428466796875,31.849365234375,-63.0615234375
1758786355.3680224,-0.494140625,0.146484375,0.7685546875,-4.94384765625,1.3427734375,-3.23486328125,4.4769287109375,31.893310546875,-63.0999755859375
1758786355.377986,-0.59033203125,0.10205078125,0.79052734375,-5.43212890625,1.220703125,-3.47900390625,4.4110107421875,31.937255859375,-63.1329345703125
1758786355.388046,-0.59033203125,0.10205078125,0.79052734375,-5.43212890625,1.220703125,-3.47900390625,4.3450927734375,31.9757080078125,-63.17138671875
1758786355.3983033,-0.62890625,0.0439453125,0.833984375,-7.2021484375,4.0283203125,-3.96728515625,4.2681884765625,32.0306396484375,-63.2098388671875
1758786355.4081025,-0.62890625,0.0439453125,0.833984375,-7.2021484375,4.0283203125,-3.96728515625,4.1802978515625,32.0965576171875,-63.248291015625
1758786355.4180806,-0.515625,0.099609375,0.8408203125,-12.939453125,5.4931640625,-2.99072265625,4.06494140625,32.1734619140625,-63.28125
1758786355.4284322,-0.515625,0.099609375,0.8408203125,-12.939453125,5.4931640625,-2.99072265625,3.9276123046875,32.2503662109375,-63.3087158203125
1758786355.4382577,-0.35546875,0.0419921875,0.88525390625,-22.76611328125,7.32421875,-0.54931640625,3.7518310546875,32.332763671875,-63.314208984375
1758786355.4482453,-0.35546875,0.0419921875,0.88525390625,-22.76611328125,7.32421875,-0.54931640625,3.5321044921875,32.4151611328125,-63.3087158203125
1758786355.458227,-0.447265625,0.03125,0.98828125,-18.310546875,6.89697265625,-0.48828125,3.33984375,32.486572265625,-63.2977294921875
1758786355.468557,-0.447265625,0.03125,0.98828125,-18.310546875,6.89697265625,-0.48828125,3.1640625,32.552490234375,-63.292236328125
1758786355.4782128,-0.41455078125,0.02001953125,1.00634765625,-9.82666015625,5.4931640625,0.54931640625,3.076171875,32.596435546875,-63.270263671875
1758786355.4882283,-0.41455078125,0.02001953125,1.00634765625,-9.82666015625,5.4931640625,0.54931640625,2.98828125,32.6348876953125,-63.248291015625
1758786355.4982178,-0.423828125,-0.02197265625,0.99365234375,-25.7568359375,3.2958984375,4.150390625,2.7630615234375,32.6458740234375,-63.182373046875
1758786355.5082545,-0.423828125,-0.02197265625,0.99365234375,-25.7568359375,3.2958984375,4.150390625,2.5323486328125,32.6568603515625,-63.1219482421875
1758786355.5182283,-0.44775390625,0.05712890625,0.97412109375,-35.58349609375,2.8076171875,1.89208984375,2.1917724609375,32.6568603515625,-63.08349609375
1758786355.528232,-0.44775390625,0.05712890625,0.97412109375,-35.58349609375,2.8076171875,1.89208984375,1.856689453125,32.6568603515625,-63.0450439453125
1758786355.538695,-0.427734375,0.1103515625,0.98681640625,-11.962890625,1.89208984375,-1.28173828125,1.7413330078125,32.640380859375,-63.03955078125
1758786355.5483708,-0.427734375,0.1103515625,0.98681640625,-11.962890625,1.89208984375,-1.28173828125,1.6259765625,32.62939453125,-63.028564453125
1758786355.558243,-0.42431640625,-0.005859375,0.97802734375,-5.126953125,0.79345703125,-0.6103515625,1.58203125,32.6019287109375,-63.0120849609375
1758786355.5682878,-0.42431640625,-0.005859375,0.97802734375,-5.126953125,0.79345703125,-0.6103515625,1.5380859375,32.574462890625,-62.9901123046875
1758786355.578696,-0.4833984375,-0.03271484375,0.9462890625,-18.310546875,-2.13623046875,0.79345703125,1.3677978515625,32.5140380859375,-62.9571533203125
1758786355.5883007,-0.4833984375,-0.03271484375,0.9462890625,-18.310546875,-2.13623046875,0.79345703125,1.1920166015625,32.45361328125,-62.9296875
1758786355.5986683,-0.501953125,0.05810546875,0.9443359375,-36.4990234375,-5.31005859375,1.220703125,0.845947265625,32.36572265625,-62.8912353515625
1758786355.608404,-0.501953125,0.05810546875,0.9443359375,-36.4990234375,-5.31005859375,1.220703125,0.4998779296875,32.27783203125,-62.8582763671875
1758786355.6182923,-0.51806640625,0.09033203125,0.88134765625,-32.958984375,-6.16455078125,1.708984375,0.1922607421875,32.18994140625,-62.808837890625
1758786355.6283758,-0.51806640625,0.09033203125,0.88134765625,-32.958984375,-6.16455078125,1.708984375,-0.098876953125,32.0965576171875,-62.7593994140625
1758786355.6388025,-0.51806640625,-0.00732421875,0.90185546875,-10.19287109375,-6.77490234375,1.46484375,-0.17578125,32.003173828125,-62.7154541015625
1758786355.648386,-0.51806640625,-0.00732421875,0.90185546875,-10.19287109375,-6.77490234375,1.46484375,-0.252685546875,31.9097900390625,-62.666015625
1758786355.6583755,-0.419921875,-0.08837890625,0.92529296875,-1.708984375,-7.62939453125,2.3193359375,-0.24169921875,31.8109130859375,-62.6165771484375
1758786355.6687143,-0.419921875,-0.08837890625,0.92529296875,-1.708984375,-7.62939453125,2.3193359375,-0.2362060546875,31.70654296875,-62.567138671875
1758786355.678467,-0.337890625,-0.037109375,0.78125,-14.404296875,-9.58251953125,1.28173828125,-0.362548828125,31.585693359375,-62.5341796875
1758786355.68846,-0.337890625,-0.037109375,0.78125,-14.404296875,-9.58251953125,1.28173828125,-0.494384765625,31.4593505859375,-62.501220703125
1758786355.6987104,-0.2919921875,0.00048828125,0.76611328125,-14.7705078125,-9.033203125,1.46484375,-0.626220703125,31.3385009765625,-62.4627685546875
1758786355.7087152,-0.2919921875,0.00048828125,0.76611328125,-14.7705078125,-9.033203125,1.46484375,-0.758056640625,31.2176513671875,-62.42431640625
1758786355.7184303,-0.32763671875,-0.0087890625,0.83251953125,-2.3193359375,-7.26318359375,1.708984375,-0.7635498046875,31.1077880859375,-62.38037109375
1758786355.728496,-0.32763671875,-0.0087890625,0.83251953125,-2.3193359375,-7.26318359375,1.708984375,-0.76904296875,31.00341796875,-62.3309326171875
1758786355.7389002,-0.37646484375,-0.0185546875,0.97900390625,-5.55419921875,-6.103515625,3.173828125,-0.7965087890625,30.904541015625,-62.2705078125
1758786355.748481,-0.37646484375,-0.0185546875,0.97900390625,-5.55419921875,-6.103515625,3.173828125,-0.8294677734375,30.8056640625,-62.2100830078125
1758786355.7585354,-0.40966796875,-0.02294921875,0.970703125,-12.39013671875,-5.43212890625,4.0283203125,-0.9228515625,30.7122802734375,-62.138671875
1758786355.768919,-0.40966796875,-0.02294921875,0.970703125,-12.39013671875,-5.43212890625,4.0283203125,-1.0162353515625,30.618896484375,-62.0672607421875
1758786355.7786322,-0.42822265625,-0.052734375,0.88623046875,0.8544921875,-4.08935546875,5.0048828125,-0.977783203125,30.5364990234375,-61.98486328125
1758786355.7885785,-0.42822265625,-0.052734375,0.88623046875,0.8544921875,-4.08935546875,5.0048828125,-0.933837890625,30.4595947265625,-61.9134521484375
1758786355.7985191,-0.48193359375,-0.05419921875,0.85986328125,7.14111328125,-2.5634765625,4.45556640625,-0.8404541015625,30.399169921875,-61.842041015625
1758786355.808985,-0.48193359375,-0.05419921875,0.85986328125,7.14111328125,-2.5634765625,4.45556640625,-0.7415771484375,30.34423828125,-61.7816162109375
1758786355.8185918,-0.466796875,-0.0546875,0.79443359375,19.47021484375,-0.6103515625,3.2958984375,-0.5328369140625,30.311279296875,-61.7376708984375
1758786355.8285806,-0.466796875,-0.0546875,0.79443359375,19.47021484375,-0.6103515625,3.2958984375,-0.32958984375,30.2783203125,-61.6937255859375
1758786355.838724,-0.47119140625,-0.04296875,0.78564453125,21.42333984375,1.03759765625,3.90625,-0.1043701171875,30.267333984375,-61.6497802734375
1758786355.848639,-0.47119140625,-0.04296875,0.78564453125,21.42333984375,1.03759765625,3.90625,0.1153564453125,30.25634765625,-61.6058349609375
1758786355.8585472,-0.55517578125,0.0126953125,0.8193359375,4.57763671875,2.44140625,5.06591796875,0.17578125,30.2618408203125,-61.5509033203125
1758786355.8685865,-0.55517578125,0.0126953125,0.8193359375,4.57763671875,2.44140625,5.06591796875,0.24169921875,30.2728271484375,-61.4959716796875
1758786355.878596,-0.5703125,0.05810546875,0.84912109375,-17.333984375,2.8076171875,6.04248046875,0.0933837890625,30.2947998046875,-61.4300537109375
1758786355.8888416,-0.5703125,0.05810546875,0.84912109375,-17.333984375,2.8076171875,6.04248046875,-0.0384521484375,30.3167724609375,-61.358642578125
1758786355.898654,-0.51318359375,0.04443359375,0.8193359375,-5.126953125,3.5400390625,6.7138671875,-0.054931640625,30.34423828125,-61.28173828125
1758786355.9086637,-0.51318359375,0.04443359375,0.8193359375,-5.126953125,3.5400390625,6.7138671875,-0.06591796875,30.377197265625,-61.1993408203125
1758786355.918732,-0.54296875,-0.01708984375,0.85888671875,9.3994140625,6.4697265625,7.01904296875,0.06591796875,30.443115234375,-61.116943359375
1758786355.9288568,-0.54296875,-0.01708984375,0.85888671875,9.3994140625,6.4697265625,7.01904296875,0.19775390625,30.5035400390625,-61.0400390625
1758786355.9386926,-0.6005859375,-0.06201171875,0.90283203125,24.0478515625,5.615234375,5.9814453125,0.472412109375,30.5584716796875,-60.97412109375
1758786355.9487507,-0.6005859375,-0.06201171875,0.90283203125,24.0478515625,5.615234375,5.9814453125,0.736083984375,30.618896484375,-60.908203125
1758786355.9590867,-0.64599609375,-0.09423828125,0.9482421875,28.99169921875,5.43212890625,5.92041015625,1.0491943359375,30.673828125,-60.853271484375
1758786355.96869,-0.64599609375,-0.09423828125,0.9482421875,28.99169921875,5.43212890625,5.92041015625,1.3568115234375,30.7342529296875,-60.8038330078125
1758786355.978708,-0.6318359375,-0.03271484375,0.943359375,8.23974609375,2.8076171875,6.4697265625,1.461181640625,30.7672119140625,-60.743408203125
1758786355.989747,-0.6318359375,-0.03271484375,0.943359375,8.23974609375,2.8076171875,6.4697265625,1.56005859375,30.8001708984375,-60.6939697265625
1758786356.0015504,-0.54345703125,0.017578125,0.82666015625,8.11767578125,2.01416015625,7.568359375,1.669921875,30.82763671875,-60.62255859375
1758786356.00875,-0.54345703125,0.017578125,0.82666015625,8.11767578125,2.01416015625,7.568359375,1.7742919921875,30.8551025390625,-60.556640625
1758786356.0190964,-0.576171875,0.05859375,0.76318359375,11.41357421875,1.220703125,8.97216796875,1.9281005859375,30.8770751953125,-60.46875
1758786356.0288231,-0.576171875,0.05859375,0.76318359375,11.41357421875,1.220703125,8.97216796875,2.0819091796875,30.8990478515625,-60.3863525390625
1758786356.038811,-0.55078125,0.05859375,0.7919921875,9.09423828125,0.18310546875,9.46044921875,2.2137451171875,30.9100341796875,-60.29296875
1758786356.0489779,-0.55078125,0.05859375,0.7919921875,9.09423828125,0.18310546875,9.46044921875,2.35107421875,30.926513671875,-60.1995849609375
1758786356.0616229,-0.52783203125,0.07568359375,0.88330078125,8.11767578125,0.732421875,11.41357421875,2.493896484375,30.9429931640625,-60.0787353515625
1758786356.071277,-0.52783203125,0.07568359375,0.88330078125,8.11767578125,0.732421875,11.41357421875,2.6312255859375,30.9539794921875,-59.9578857421875
1758786356.0788448,-0.55810546875,0.0791015625,0.857421875,7.6904296875,-0.06103515625,12.75634765625,2.779541015625,30.95947265625,-59.820556640625
1758786356.0888782,-0.55810546875,0.0791015625,0.857421875,7.6904296875,-0.06103515625,12.75634765625,2.9278564453125,30.9649658203125,-59.6832275390625
1758786356.0993032,-0.48388671875,0.08544921875,0.85498046875,0.9765625,-0.244140625,13.97705078125,3.0157470703125,30.970458984375,-59.5294189453125
1758786356.1088665,-0.48388671875,0.08544921875,0.85498046875,0.9765625,-0.244140625,13.97705078125,3.109130859375,30.9649658203125,-59.3756103515625
1758786356.1188767,-0.4716796875,0.08251953125,0.84912109375,-11.8408203125,1.64794921875,13.5498046875,3.0706787109375,30.9814453125,-59.2218017578125
1758786356.1289155,-0.4716796875,0.08251953125,0.84912109375,-11.8408203125,1.64794921875,13.5498046875,3.0377197265625,30.9979248046875,-59.0679931640625
1758786356.1393301,-0.47998046875,0.08251953125,0.88623046875,-18.00537109375,0.6103515625,13.85498046875,2.9388427734375,30.9979248046875,-58.90869140625
1758786356.1488874,-0.47998046875,0.08251953125,0.88623046875,-18.00537109375,0.6103515625,13.85498046875,2.8509521484375,30.9979248046875,-58.7493896484375
1758786356.1588745,-0.4580078125,0.0107421875,0.89404296875,9.6435546875,0.9765625,13.0615234375,3.0267333984375,30.9979248046875,-58.60107421875
1758786356.1689851,-0.4580078125,0.0107421875,0.89404296875,9.6435546875,0.9765625,13.0615234375,3.2025146484375,30.9979248046875,-58.447265625
1758786356.1790402,-0.49951171875,0.0,0.89794921875,16.845703125,0.91552734375,12.20703125,3.438720703125,30.9979248046875,-58.3154296875
1758786356.1889484,-0.49951171875,0.0,0.89794921875,16.845703125,0.91552734375,12.20703125,3.6749267578125,30.992431640625,-58.1781005859375
1758786356.1994562,-0.5263671875,0.068359375,0.87646484375,-20.5078125,-0.8544921875,12.20703125,3.53759765625,30.970458984375,-58.0462646484375
1758786356.209073,-0.5263671875,0.068359375,0.87646484375,-20.5078125,-0.8544921875,12.20703125,3.4002685546875,30.9539794921875,-57.9144287109375
1758786356.2194688,-0.47900390625,0.10595703125,0.8212890625,-26.123046875,-2.44140625,12.63427734375,3.2135009765625,30.91552734375,-57.777099609375
1758786356.2290063,-0.47900390625,0.10595703125,0.8212890625,-26.123046875,-2.44140625,12.63427734375,3.0322265625,30.882568359375,-57.63427734375
1758786356.2390082,-0.42578125,0.06884765625,0.75732421875,7.99560546875,-0.732421875,12.451171875,3.1915283203125,30.860595703125,-57.491455078125
1758786356.2490065,-0.42578125,0.06884765625,0.75732421875,7.99560546875,-0.732421875,12.451171875,3.3453369140625,30.8441162109375,-57.3486328125
1758786356.2594326,-0.5009765625,0.0537109375,0.77392578125,17.63916015625,0.91552734375,11.474609375,3.592529296875,30.8441162109375,-57.2222900390625
1758786356.2690327,-0.5009765625,0.0537109375,0.77392578125,17.63916015625,0.91552734375,11.474609375,3.8397216796875,30.8441162109375,-57.0904541015625
1758786356.279029,-0.55712890625,0.0439453125,0.822265625,5.92041015625,0.91552734375,10.31494140625,3.9605712890625,30.8441162109375,-56.97509765625
1758786356.289423,-0.55712890625,0.0439453125,0.822265625,5.92041015625,0.91552734375,10.31494140625,4.0814208984375,30.849609375,-56.865234375
1758786356.2991786,-0.51806640625,0.04296875,0.767578125,0.8544921875,1.3427734375,10.25390625,4.1473388671875,30.860595703125,-56.75537109375
1758786356.3091142,-0.51806640625,0.04296875,0.767578125,0.8544921875,1.3427734375,10.25390625,4.2132568359375,30.87158203125,-56.6455078125
1758786356.31917,-0.51318359375,0.03466796875,0.779296875,-9.8876953125,3.23486328125,10.25390625,4.1748046875,30.8990478515625,-56.5411376953125
1758786356.3293593,-0.51318359375,0.03466796875,0.779296875,-9.8876953125,3.23486328125,10.25390625,4.1363525390625,30.9320068359375,-56.4312744140625
1758786356.3391573,-0.55859375,0.04443359375,0.8095703125,-7.50732421875,3.11279296875,9.27734375,4.1143798828125,30.9649658203125,-56.337890625
1758786356.3491752,-0.55859375,0.04443359375,0.8095703125,-7.50732421875,3.11279296875,9.27734375,4.0924072265625,30.9979248046875,-56.2445068359375
1758786356.360362,-0.56201171875,0.04296875,0.78515625,16.845703125,2.8076171875,7.32421875,4.3011474609375,31.0308837890625,-56.173095703125
1758786356.3722637,-0.56201171875,0.04296875,0.78515625,16.845703125,2.8076171875,7.32421875,4.5098876953125,31.0638427734375,-56.107177734375
1758786356.379159,-0.578125,0.08251953125,0.841796875,17.333984375,3.35693359375,6.53076171875,4.713134765625,31.102294921875,-56.0467529296875
1758786356.3891742,-0.578125,0.08251953125,0.841796875,17.333984375,3.35693359375,6.53076171875,4.921875,31.146240234375,-55.986328125
1758786356.3993106,-0.630859375,0.1484375,0.91162109375,-6.65283203125,2.0751953125,6.7138671875,4.8944091796875,31.1737060546875,-55.92041015625
1758786356.4091928,-0.630859375,0.1484375,0.91162109375,-6.65283203125,2.0751953125,6.7138671875,4.866943359375,31.201171875,-55.8544921875
1758786356.419176,-0.6376953125,0.15625,0.89501953125,-6.34765625,0.0,7.568359375,4.85595703125,31.212158203125,-55.777587890625
1758786356.429249,-0.6376953125,0.15625,0.89501953125,-6.34765625,0.0,7.568359375,4.844970703125,31.22314453125,-55.6951904296875
1758786356.4396925,-0.59765625,0.1220703125,0.85009765625,0.3662109375,-1.03759765625,6.8359375,4.8944091796875,31.22314453125,-55.6292724609375
1758786356.4492798,-0.59765625,0.1220703125,0.85009765625,0.3662109375,-1.03759765625,6.8359375,4.9493408203125,31.22314453125,-55.557861328125
1758786356.4595523,-0.52392578125,0.0869140625,0.8095703125,6.2255859375,-0.1220703125,5.9814453125,5.0537109375,31.2286376953125,-55.491943359375
1758786356.4695623,-0.52392578125,0.0869140625,0.8095703125,6.2255859375,-0.1220703125,5.9814453125,5.1580810546875,31.2396240234375,-55.4315185546875
1758786356.479357,-0.53857421875,0.05615234375,0.880859375,9.21630859375,0.732421875,4.94384765625,5.284423828125,31.256103515625,-55.382080078125
1758786356.4894753,-0.53857421875,0.05615234375,0.880859375,9.21630859375,0.732421875,4.94384765625,5.4107666015625,31.2725830078125,-55.3326416015625
1758786356.499561,-0.572265625,0.0537109375,0.9052734375,-3.72314453125,0.244140625,4.33349609375,5.3997802734375,31.2835693359375,-55.294189453125
1758786356.5094767,-0.572265625,0.0537109375,0.9052734375,-3.72314453125,0.244140625,4.33349609375,5.3887939453125,31.2945556640625,-55.26123046875
1758786356.519297,-0.51904296875,0.0478515625,0.87158203125,-5.55419921875,-1.28173828125,3.84521484375,5.3558349609375,31.2890625,-55.228271484375
1758786356.529772,-0.455078125,0.04248046875,0.84228515625,10.68115234375,-0.79345703125,3.173828125,5.3997802734375,31.2835693359375,-55.206298828125
1758786356.5393744,-0.455078125,0.04248046875,0.84228515625,10.68115234375,-0.79345703125,3.173828125,5.5206298828125,31.278076171875,-55.184326171875
1758786356.5494285,-0.44970703125,0.0419921875,0.86669921875,21.17919921875,-0.732421875,1.77001953125,5.69091796875,31.2725830078125,-55.17333984375
1758786356.5594144,-0.44970703125,0.0419921875,0.86669921875,21.17919921875,-0.732421875,1.77001953125,5.9051513671875,31.2615966796875,-55.1678466796875
1758786356.5699522,-0.48583984375,0.08203125,0.91796875,10.55908203125,-0.18310546875,0.67138671875,6.0589599609375,31.256103515625,-55.17333984375
1758786356.5794072,-0.48583984375,0.08203125,0.91796875,10.55908203125,-0.18310546875,0.67138671875,6.1578369140625,31.2506103515625,-55.184326171875
1758786356.589457,-0.46728515625,0.10009765625,0.91455078125,-0.42724609375,-0.9765625,0.244140625,6.2017822265625,31.2396240234375,-55.1953125
1758786356.5996554,-0.46728515625,0.10009765625,0.91455078125,-0.42724609375,-0.9765625,0.244140625,6.185302734375,31.22314453125,-55.206298828125
1758786356.6109686,-0.4345703125,0.09765625,0.8330078125,8.6669921875,-0.30517578125,-0.244140625,6.21826171875,31.212158203125,-55.2227783203125
1758786356.6199398,-0.4345703125,0.09765625,0.8330078125,8.6669921875,-0.30517578125,-0.244140625,6.295166015625,31.1956787109375,-55.2392578125
1758786356.6296742,-0.419921875,0.1015625,0.82080078125,15.31982421875,-0.79345703125,-0.732421875,6.405029296875,31.1846923828125,-55.2557373046875
1758786356.6396828,-0.419921875,0.1015625,0.82080078125,15.31982421875,-0.79345703125,-0.732421875,6.5478515625,31.1627197265625,-55.272216796875
1758786356.649533,-0.4052734375,0.1123046875,0.7548828125,8.72802734375,-0.244140625,-1.220703125,6.6522216796875,31.146240234375,-55.294189453125
1758786356.65947,-0.4052734375,0.1123046875,0.7548828125,8.72802734375,-0.244140625,-1.220703125,6.7291259765625,31.1297607421875,-55.316162109375
1758786356.6695385,-0.4404296875,0.15185546875,0.7880859375,2.86865234375,0.79345703125,-0.8544921875,6.7730712890625,31.124267578125,-55.3326416015625
1758786356.6794488,-0.4404296875,0.15185546875,0.7880859375,2.86865234375,0.79345703125,-0.8544921875,6.7950439453125,31.1187744140625,-55.3436279296875
1758786356.6894705,-0.4609375,0.16162109375,0.85791015625,3.35693359375,0.732421875,-0.42724609375,6.8280029296875,31.11328125,-55.34912109375
1758786356.6994627,-0.4609375,0.16162109375,0.85791015625,3.35693359375,0.732421875,-0.42724609375,6.8609619140625,31.1077880859375,-55.3546142578125
1758786356.709555,-0.4541015625,0.1611328125,0.83740234375,6.65283203125,0.79345703125,-0.06103515625,6.9158935546875,31.0968017578125,-55.34912109375
1758786356.7195692,-0.4541015625,0.1611328125,0.83740234375,6.65283203125,0.79345703125,-0.06103515625,6.9873046875,31.09130859375,-55.3436279296875
1758786356.7295303,-0.45751953125,0.15478515625,0.8427734375,-5.55419921875,0.8544921875,0.30517578125,7.0037841796875,31.0858154296875,-55.338134765625
1758786356.7395775,-0.45751953125,0.15478515625,0.8427734375,-5.55419921875,0.8544921875,0.30517578125,6.9598388671875,31.0748291015625,-55.3216552734375
1758786356.7500405,-0.4677734375,0.1162109375,0.81640625,-20.3857421875,1.28173828125,0.79345703125,6.844482421875,31.0693359375,-55.30517578125
1758786356.7595577,-0.4677734375,0.1162109375,0.81640625,-20.3857421875,1.28173828125,0.79345703125,6.65771484375,31.0693359375,-55.283203125
1758786356.769587,-0.46044921875,0.06640625,0.81689453125,-11.962890625,1.52587890625,1.46484375,6.514892578125,31.0693359375,-55.26123046875
1758786356.7796023,-0.46044921875,0.06640625,0.81689453125,-11.962890625,1.52587890625,1.46484375,6.416015625,31.0638427734375,-55.2337646484375
1758786356.7901275,-0.49560546875,0.04736328125,0.84228515625,4.82177734375,1.77001953125,1.15966796875,6.39404296875,31.0693359375,-55.21728515625
1758786356.7995977,-0.49560546875,0.04736328125,0.84228515625,4.82177734375,1.77001953125,1.15966796875,6.4544677734375,31.0693359375,-55.2008056640625
1758786356.8095682,-0.5537109375,0.0888671875,0.9072265625,9.27734375,2.01416015625,1.0986328125,6.536865234375,31.080322265625,-55.184326171875
1758786356.8196728,-0.5537109375,0.0888671875,0.9072265625,9.27734375,2.01416015625,1.0986328125,6.6412353515625,31.0858154296875,-55.17333984375
1758786356.8300421,-0.599609375,0.0810546875,1.02783203125,-0.244140625,0.0,0.42724609375,6.690673828125,31.0858154296875,-55.1678466796875
1758786356.8398528,-0.599609375,0.0810546875,1.02783203125,-0.244140625,0.0,0.42724609375,6.690673828125,31.0748291015625,-55.1678466796875
1758786356.8496616,-0.57275390625,0.068359375,1.0732421875,-12.39013671875,0.06103515625,0.30517578125,6.624755859375,31.0693359375,-55.17333984375
1758786356.859957,-0.57275390625,0.068359375,1.0732421875,-12.39013671875,0.06103515625,0.30517578125,6.4984130859375,31.058349609375,-55.1788330078125
1758786356.8699105,-0.5361328125,0.0693359375,1.06689453125,-17.2119140625,-0.8544921875,-0.18310546875,6.3446044921875,31.0418701171875,-55.1898193359375
1758786356.8796885,-0.5361328125,0.0693359375,1.06689453125,-17.2119140625,-0.8544921875,-0.18310546875,6.163330078125,31.025390625,-55.2008056640625
1758786356.8901055,-0.49560546875,0.0732421875,0.93994140625,-6.04248046875,0.06103515625,-1.5869140625,6.0369873046875,31.0089111328125,-55.2227783203125
1758786356.8997102,-0.49560546875,0.0732421875,0.93994140625,-6.04248046875,0.06103515625,-1.5869140625,5.965576171875,30.9979248046875,-55.250244140625
1758786356.9097545,-0.45947265625,0.06640625,0.794921875,5.55419921875,1.3427734375,-3.47900390625,5.943603515625,30.992431640625,-55.2886962890625
1758786356.92001,-0.45947265625,0.06640625,0.794921875,5.55419921875,1.3427734375,-3.47900390625,5.9710693359375,30.992431640625,-55.3326416015625
1758786356.9299898,-0.44140625,0.08203125,0.765625,10.19287109375,4.57763671875,-3.96728515625,6.0260009765625,31.014404296875,-55.382080078125
1758786356.9397404,-0.44140625,0.08203125,0.765625,10.19287109375,4.57763671875,-3.96728515625,6.097412109375,31.0528564453125,-55.4315185546875
1758786356.949725,-0.47412109375,0.10498046875,0.77685546875,4.150390625,7.38525390625,-4.0283203125,6.1468505859375,31.102294921875,-55.48095703125
1758786356.963063,-0.47412109375,0.10498046875,0.77685546875,4.150390625,7.38525390625,-4.0283203125,6.163330078125,31.168212890625,-55.52490234375
1758786356.972792,-0.51953125,0.11865234375,0.763671875,-10.92529296875,9.33837890625,-4.0283203125,6.1083984375,31.2451171875,-55.5633544921875
1758786356.9797707,-0.51953125,0.11865234375,0.763671875,-10.92529296875,9.33837890625,-4.0283203125,5.9820556640625,31.3330078125,-55.6072998046875
1758786356.989846,-0.50830078125,0.10546875,0.7646484375,-8.23974609375,10.68115234375,-4.2724609375,5.86669921875,31.431884765625,-55.645751953125
1758786357.0008101,-0.50830078125,0.10546875,0.7646484375,-8.23974609375,10.68115234375,-4.2724609375,5.767822265625,31.5362548828125,-55.6842041015625
1758786357.009814,-0.5,0.0615234375,0.7353515625,17.4560546875,13.671875,-4.638671875,5.80078125,31.6571044921875,-55.7281494140625
1758786357.0198424,-0.5,0.0615234375,0.7353515625,17.4560546875,13.671875,-4.638671875,5.95458984375,31.79443359375,-55.7666015625
1758786357.030056,-0.55712890625,0.072265625,0.8056640625,25.69580078125,15.2587890625,-4.94384765625,6.15234375,31.937255859375,-55.810546875
1758786357.040157,-0.55712890625,0.072265625,0.8056640625,25.69580078125,15.2587890625,-4.94384765625,6.3885498046875,32.0965576171875,-55.8544921875
1758786357.0498254,-0.56640625,0.10302734375,0.87548828125,9.8876953125,16.17431640625,-5.126953125,6.5423583984375,32.255859375,-55.8984375
1758786357.0598805,-0.56640625,0.10302734375,0.87548828125,9.8876953125,16.17431640625,-5.126953125,6.61376953125,32.420654296875,-55.9478759765625
1758786357.0701773,-0.6484375,0.15966796875,0.955078125,-0.732421875,13.97705078125,-4.150390625,6.6412353515625,32.5689697265625,-55.986328125
1758786357.07999,-0.6484375,0.15966796875,0.955078125,-0.732421875,13.97705078125,-4.150390625,6.6192626953125,32.7117919921875,-56.0247802734375
1758786357.089881,-0.64990234375,0.158203125,0.97119140625,11.16943359375,11.53564453125,-2.9296875,6.65771484375,32.8436279296875,-56.05224609375
1758786357.0999062,-0.64990234375,0.158203125,0.97119140625,11.16943359375,11.53564453125,-2.9296875,6.7620849609375,32.958984375,-56.07421875
1758786357.1100998,-0.60888671875,0.0927734375,0.90673828125,-1.77001953125,7.75146484375,-2.25830078125,6.800537109375,33.0523681640625,-56.0906982421875
1758786357.1200082,-0.60888671875,0.0927734375,0.90673828125,-1.77001953125,7.75146484375,-2.25830078125,6.778564453125,33.134765625,-56.107177734375
1758786357.129945,-0.60888671875,0.0927734375,0.90673828125,-21.6064453125,6.65283203125,-2.38037109375,6.6522216796875,33.2061767578125,-56.129150390625
1758786357.140028,-0.53857421875,0.04931640625,0.837890625,-21.6064453125,6.65283203125,-2.38037109375,6.427001953125,33.2720947265625,-56.1566162109375
1758786357.15024,-0.4970703125,0.05908203125,0.74951171875,-19.53125,5.92041015625,-2.44140625,6.2127685546875,33.33251953125,-56.1785888671875
1758786357.1600406,-0.4970703125,0.05908203125,0.74951171875,-19.53125,5.92041015625,-2.44140625,6.0040283203125,33.3929443359375,-56.2060546875
1758786357.1699915,-0.5478515625,0.09814453125,0.75146484375,-10.80322265625,6.103515625,-2.0751953125,5.8447265625,33.453369140625,-56.2335205078125
1758786357.1802304,-0.5478515625,0.09814453125,0.75146484375,-10.80322265625,6.103515625,-2.0751953125,5.7293701171875,33.5137939453125,-56.2554931640625
1758786357.1899977,-0.6005859375,0.11328125,0.78564453125,-15.5029296875,5.31005859375,-1.8310546875,5.592041015625,33.57421875,-56.27197265625
1758786357.2000155,-0.6005859375,0.11328125,0.78564453125,-15.5029296875,5.31005859375,-1.8310546875,5.438232421875,33.629150390625,-56.2884521484375
1758786357.2100265,-0.595703125,0.09765625,0.783203125,-19.83642578125,5.2490234375,-0.54931640625,5.262451171875,33.68408203125,-56.2939453125
1758786357.2203782,-0.595703125,0.09765625,0.783203125,-19.83642578125,5.2490234375,-0.54931640625,5.07568359375,33.7445068359375,-56.2939453125
1758786357.230016,-0.525390625,0.05810546875,0.767578125,-11.77978515625,5.4931640625,-0.244140625,4.9273681640625,33.7994384765625,-56.2939453125
1758786357.2401147,-0.525390625,0.05810546875,0.767578125,-11.77978515625,5.4931640625,-0.244140625,4.8175048828125,33.85986328125,-56.2884521484375
1758786357.2501097,-0.5166015625,0.07275390625,0.72216796875,-6.9580078125,6.7138671875,-0.91552734375,4.735107421875,33.92578125,-56.2884521484375
1758786357.2610629,-0.5166015625,0.07275390625,0.72216796875,-6.9580078125,6.7138671875,-0.91552734375,4.669189453125,33.9971923828125,-56.2884521484375
1758786357.2701507,-0.5419921875,0.09423828125,0.7431640625,-8.36181640625,6.7138671875,-1.708984375,4.5977783203125,34.068603515625,-56.2994384765625
1758786357.2801673,-0.5419921875,0.09423828125,0.7431640625,-8.36181640625,6.7138671875,-1.708984375,4.5208740234375,34.1455078125,-56.3104248046875
1758786357.2901514,-0.58837890625,0.08544921875,0.79833984375,-22.8271484375,6.04248046875,-2.0751953125,4.3670654296875,34.21142578125,-56.3214111328125
1758786357.30025,-0.58837890625,0.08544921875,0.79833984375,-22.8271484375,6.04248046875,-2.0751953125,4.1363525390625,34.2828369140625,-56.3323974609375
1758786357.3101513,-0.5849609375,0.0908203125,0.87353515625,-30.76171875,5.37109375,-0.54931640625,3.878173828125,34.34326171875,-56.337890625
1758786357.3205829,-0.5849609375,0.0908203125,0.87353515625,-30.76171875,5.37109375,-0.54931640625,3.5870361328125,34.4036865234375,-56.3323974609375
1758786357.3301318,-0.54833984375,0.06884765625,0.79052734375,-26.3671875,3.7841796875,0.3662109375,3.31787109375,34.453125,-56.3214111328125
1758786357.3401668,-0.54833984375,0.06884765625,0.79052734375,-26.3671875,3.7841796875,0.3662109375,3.076171875,34.4915771484375,-56.2994384765625
1758786357.3501565,-0.52294921875,0.0341796875,0.72216796875,-20.01953125,3.84521484375,0.0,2.867431640625,34.530029296875,-56.2884521484375
1758786357.3604875,-0.52294921875,0.0341796875,0.72216796875,-20.01953125,3.84521484375,0.0,2.6861572265625,34.573974609375,-56.27197265625
1758786357.370162,-0.57177734375,0.02099609375,0.7509765625,-16.66259765625,4.638671875,-0.6103515625,2.515869140625,34.617919921875,-56.2664794921875
1758786357.380203,-0.57177734375,0.02099609375,0.7509765625,-16.66259765625,4.638671875,-0.6103515625,2.362060546875,34.6673583984375,-56.260986328125
1758786357.390505,-0.6123046875,0.01416015625,0.822265625,-12.6953125,4.57763671875,-1.46484375,2.2247314453125,34.716796875,-56.2664794921875
1758786357.4012544,-0.6123046875,0.01416015625,0.822265625,-12.6953125,4.57763671875,-1.46484375,2.1038818359375,34.771728515625,-56.2774658203125
1758786357.410254,-0.66748046875,-0.021484375,0.95849609375,-0.91552734375,2.25830078125,-2.5634765625,2.032470703125,34.8101806640625,-56.2939453125
1758786357.420282,-0.66748046875,-0.021484375,0.95849609375,-0.91552734375,2.25830078125,-2.5634765625,2.010498046875,34.837646484375,-56.326904296875
1758786357.4310362,-0.7109375,-0.0341796875,0.94873046875,4.8828125,0.79345703125,-2.38037109375,2.021484375,34.859619140625,-56.3543701171875
1758786357.440425,-0.7109375,-0.0341796875,0.94873046875,4.8828125,0.79345703125,-2.38037109375,2.054443359375,34.8760986328125,-56.3873291015625
1758786357.4502764,-0.70068359375,0.017578125,0.9482421875,-8.30078125,-2.685546875,-1.8310546875,2.021484375,34.87060546875,-56.4202880859375
1758786357.4603333,-0.70068359375,0.017578125,0.9482421875,-8.30078125,-2.685546875,-1.8310546875,1.922607421875,34.8486328125,-56.4532470703125
1758786357.470333,-0.65966796875,0.0927734375,0.8896484375,-11.962890625,-3.90625,-1.28173828125,1.8072509765625,34.82666015625,-56.4752197265625
1758786357.4803174,-0.65966796875,0.0927734375,0.8896484375,-11.962890625,-3.90625,-1.28173828125,1.680908203125,34.793701171875,-56.4971923828125
1758786357.4903028,-0.58349609375,0.07861328125,0.8115234375,-3.173828125,-4.150390625,-1.708984375,1.60400390625,34.7607421875,-56.513671875
1758786357.5003622,-0.58349609375,0.07861328125,0.8115234375,-3.173828125,-4.150390625,-1.708984375,1.5655517578125,34.727783203125,-56.53564453125
1758786357.5106754,-0.51416015625,0.04296875,0.72021484375,5.06591796875,-2.25830078125,-1.77001953125,1.571044921875,34.705810546875,-56.5521240234375
1758786357.520367,-0.51416015625,0.04296875,0.72021484375,5.06591796875,-2.25830078125,-1.77001953125,1.614990234375,34.6893310546875,-56.568603515625
1758786357.5303292,-0.51806640625,0.03515625,0.67919921875,-5.18798828125,-0.244140625,-1.40380859375,1.614990234375,34.683837890625,-56.5850830078125
1758786357.5408456,-0.51806640625,0.03515625,0.67919921875,-5.18798828125,-0.244140625,-1.40380859375,1.56005859375,34.6893310546875,-56.5960693359375
1758786357.5503922,-0.50341796875,0.05419921875,0.63232421875,-15.869140625,1.03759765625,-0.91552734375,1.4556884765625,34.705810546875,-56.6070556640625
1758786357.5604427,-0.50341796875,0.05419921875,0.63232421875,-15.869140625,1.03759765625,-0.91552734375,1.3018798828125,34.7222900390625,-56.6070556640625
1758786357.570412,-0.48583984375,0.0302734375,0.59716796875,-14.83154296875,3.0517578125,-0.6103515625,1.1590576171875,34.7552490234375,-56.612548828125
1758786357.580639,-0.48583984375,0.0302734375,0.59716796875,-14.83154296875,3.0517578125,-0.6103515625,1.021728515625,34.7991943359375,-56.612548828125
1758786357.5905557,-0.52734375,0.02294921875,0.65576171875,-24.169921875,5.06591796875,0.1220703125,0.8349609375,34.8541259765625,-56.6070556640625
1758786357.6004677,-0.52734375,0.02294921875,0.65576171875,-24.169921875,5.06591796875,0.1220703125,0.6097412109375,34.91455078125,-56.5960693359375
1758786357.6110485,-0.55224609375,0.0087890625,0.7236328125,-23.193359375,5.79833984375,0.18310546875,0.3955078125,34.9859619140625,-56.590576171875
1758786357.6206703,-0.55224609375,0.0087890625,0.7236328125,-23.193359375,5.79833984375,0.18310546875,0.1812744140625,35.057373046875,-56.57958984375
1758786357.6304402,-0.587890625,-0.04296875,0.89404296875,-1.953125,5.55419921875,-0.06103515625,0.1702880859375,35.123291015625,-56.5740966796875
1758786357.640597,-0.587890625,-0.04296875,0.89404296875,-1.953125,5.55419921875,-0.06103515625,0.1593017578125,35.189208984375,-56.5740966796875
1758786357.6508636,-0.62841796875,-0.0556640625,1.00732421875,16.845703125,4.150390625,-0.8544921875,0.32958984375,35.233154296875,-56.5850830078125
1758786357.6606305,-0.62841796875,-0.0556640625,1.00732421875,16.845703125,4.150390625,-0.8544921875,0.4888916015625,35.277099609375,-56.5960693359375
1758786357.6705933,-0.61376953125,-0.04638671875,0.96630859375,17.39501953125,2.44140625,-2.0751953125,0.648193359375,35.299072265625,-56.62353515625
1758786357.6815386,-0.61376953125,-0.04638671875,0.96630859375,17.39501953125,2.44140625,-2.0751953125,0.802001953125,35.321044921875,-56.6510009765625
1758786357.6910672,-0.59326171875,-0.01806640625,0.87744140625,5.9814453125,0.1220703125,-2.685546875,0.8349609375,35.321044921875,-56.689453125
1758786357.7009711,-0.59326171875,-0.01806640625,0.87744140625,5.9814453125,0.1220703125,-2.685546875,0.867919921875,35.321044921875,-56.7279052734375
1758786357.7106311,-0.57568359375,-0.00048828125,0.79296875,8.544921875,-0.42724609375,-2.99072265625,0.9228515625,35.31005859375,-56.7718505859375
1758786357.722071,-0.57568359375,-0.00048828125,0.79296875,8.544921875,-0.42724609375,-2.99072265625,0.977783203125,35.3045654296875,-56.8157958984375
1758786357.731276,-0.57177734375,-0.01806640625,0.7333984375,8.6669921875,0.06103515625,-2.86865234375,1.0382080078125,35.3045654296875,-56.8597412109375
1758786357.7409708,-0.57177734375,-0.01806640625,0.7333984375,8.6669921875,0.06103515625,-2.86865234375,1.0931396484375,35.3045654296875,-56.9036865234375
1758786357.7514036,-0.57080078125,-0.0107421875,0.7568359375,3.47900390625,0.244140625,-2.9296875,1.0986328125,35.31005859375,-56.9476318359375
1758786357.7609708,-0.57080078125,-0.0107421875,0.7568359375,3.47900390625,0.244140625,-2.9296875,1.1041259765625,35.3155517578125,-56.9970703125
1758786357.7706723,-0.57568359375,-0.0078125,0.76708984375,11.77978515625,0.42724609375,-3.41796875,1.1865234375,35.321044921875,-57.0465087890625
1758786357.7810802,-0.57568359375,-0.0078125,0.76708984375,11.77978515625,0.42724609375,-3.41796875,1.2689208984375,35.33203125,-57.095947265625
1758786357.7914317,-0.57763671875,0.00439453125,0.80908203125,6.9580078125,-0.06103515625,-3.23486328125,1.3018798828125,35.3375244140625,-57.1453857421875
1758786357.8009768,-0.57763671875,0.00439453125,0.80908203125,6.9580078125,-0.06103515625,-3.23486328125,1.34033203125,35.3375244140625,-57.19482421875
1758786357.8107102,-0.6171875,0.01806640625,0.88623046875,-10.68115234375,0.06103515625,-1.77001953125,1.20849609375,35.343017578125,-57.227783203125
1758786357.8217373,-0.6171875,0.01806640625,0.88623046875,-10.68115234375,0.06103515625,-1.77001953125,1.0821533203125,35.343017578125,-57.2552490234375
1758786357.8307505,-0.6728515625,0.03759765625,0.97216796875,-5.37109375,-2.38037109375,-0.48828125,1.021728515625,35.321044921875,-57.2662353515625
1758786357.8410735,-0.6728515625,0.03759765625,0.97216796875,-5.37109375,-2.38037109375,-0.48828125,0.9613037109375,35.299072265625,-57.2772216796875
1758786357.8512208,-0.6650390625,0.00732421875,0.91552734375,8.85009765625,-4.5166015625,0.06103515625,1.043701171875,35.255126953125,-57.28271484375
1758786357.8614223,-0.6650390625,0.00732421875,0.91552734375,8.85009765625,-4.5166015625,0.06103515625,1.1260986328125,35.211181640625,-57.2882080078125
1758786357.8707473,-0.66259765625,-0.00439453125,0.8837890625,8.4228515625,-5.859375,0.9765625,1.2139892578125,35.15625,-57.28271484375
1758786357.8811228,-0.66259765625,-0.00439453125,0.8837890625,8.4228515625,-5.859375,0.9765625,1.29638671875,35.101318359375,-57.2772216796875
1758786357.8916075,-0.66845703125,0.0068359375,0.9052734375,3.84521484375,-7.38525390625,1.15966796875,1.3348388671875,35.035400390625,-57.271728515625
1758786357.900819,-0.66845703125,0.0068359375,0.9052734375,3.84521484375,-7.38525390625,1.15966796875,1.3787841796875,34.9639892578125,-57.2662353515625
1758786357.9107647,-0.5927734375,0.01904296875,0.85302734375,4.638671875,-8.4228515625,0.732421875,1.4227294921875,34.8870849609375,-57.2662353515625
1758786357.9209018,-0.5927734375,0.01904296875,0.85302734375,4.638671875,-8.4228515625,0.732421875,1.4666748046875,34.8046875,-57.2662353515625
1758786357.931511,-0.53125,0.046875,0.814453125,-0.8544921875,-8.11767578125,0.91552734375,1.4556884765625,34.7332763671875,-57.2662353515625
1758786357.9411058,-0.53125,0.046875,0.814453125,-0.8544921875,-8.11767578125,0.91552734375,1.4501953125,34.65087890625,-57.2607421875
1758786357.9508016,-0.50244140625,0.05615234375,0.74169921875,-12.451171875,-7.8125,2.197265625,1.3348388671875,34.5794677734375,-57.23876953125
1758786357.9621174,-0.50244140625,0.05615234375,0.74169921875,-12.451171875,-7.8125,2.197265625,1.23046875,34.5025634765625,-57.2113037109375
1758786357.9712064,-0.4541015625,0.01318359375,0.744140625,-2.86865234375,-7.26318359375,2.9296875,1.219482421875,34.43115234375,-57.1783447265625
1758786357.9812076,-0.4541015625,0.01318359375,0.744140625,-2.86865234375,-7.26318359375,2.9296875,1.2139892578125,34.3597412109375,-57.1453857421875
1758786357.9908624,-0.51806640625,-0.00341796875,0.8486328125,1.0986328125,-5.859375,3.5400390625,1.2469482421875,34.29931640625,-57.10693359375
1758786358.0017962,-0.51806640625,-0.00341796875,0.8486328125,1.0986328125,-5.859375,3.5400390625,1.2799072265625,34.2388916015625,-57.06298828125
1758786358.010982,-0.6123046875,0.0166015625,0.93994140625,-12.0849609375,-7.2021484375,3.7841796875,1.1810302734375,34.1619873046875,-57.0245361328125
1758786358.0212438,-0.6123046875,0.0166015625,0.93994140625,-12.0849609375,-7.2021484375,3.7841796875,1.087646484375,34.090576171875,-56.9805908203125
1758786358.030991,-0.66162109375,0.02734375,0.97314453125,-2.685546875,-10.25390625,3.84521484375,1.087646484375,33.9862060546875,-56.9366455078125
1758786358.0417857,-0.66162109375,0.02734375,0.97314453125,-2.685546875,-10.25390625,3.84521484375,1.0821533203125,33.8818359375,-56.898193359375
1758786358.0510993,-0.60302734375,-0.0224609375,0.97314453125,18.12744140625,-9.94873046875,3.84521484375,1.285400390625,33.7774658203125,-56.854248046875
1758786358.0613086,-0.60302734375,-0.0224609375,0.97314453125,18.12744140625,-9.94873046875,3.84521484375,1.4886474609375,33.6785888671875,-56.8157958984375
1758786358.0712414,-0.66796875,-0.0283203125,0.9169921875,13.18359375,-8.4228515625,3.11279296875,1.6314697265625,33.5906982421875,-56.788330078125
1758786358.0816638,-0.66796875,-0.0283203125,0.9169921875,13.18359375,-8.4228515625,3.11279296875,1.7742919921875,33.50830078125,-56.766357421875
1758786358.0910184,-0.67138671875,0.02001953125,0.93798828125,16.29638671875,-10.6201171875,2.0751953125,1.9390869140625,33.409423828125,-56.75537109375
1758786358.101397,-0.67138671875,0.02001953125,0.93798828125,16.29638671875,-10.6201171875,2.0751953125,2.1038818359375,33.3050537109375,-56.7498779296875
1758786358.111945,-0.60888671875,0.03955078125,0.83984375,22.5830078125,-9.1552734375,2.3193359375,2.3345947265625,33.22265625,-56.7388916015625
1758786358.1213353,-0.60888671875,0.03955078125,0.83984375,22.5830078125,-9.1552734375,2.3193359375,2.559814453125,33.134765625,-56.7279052734375
1758786358.131049,-0.60888671875,0.03955078125,0.83984375,8.4228515625,-7.38525390625,2.38037109375,2.647705078125,33.0743408203125,-56.7169189453125
1758786358.1415753,-0.603515625,0.056640625,0.7880859375,8.4228515625,-7.38525390625,2.38037109375,2.7410888671875,33.0084228515625,-56.7059326171875
1758786358.151638,-0.583984375,0.037109375,0.8134765625,2.685546875,-5.615234375,2.50244140625,2.7740478515625,32.9644775390625,-56.6949462890625
1758786358.1614745,-0.583984375,0.037109375,0.8134765625,2.685546875,-5.615234375,2.50244140625,2.8070068359375,32.9205322265625,-56.678466796875
1758786358.174862,-0.51123046875,0.00927734375,0.70166015625,5.859375,-4.08935546875,2.25830078125,2.8729248046875,32.89306640625,-56.66748046875
1758786358.1826243,-0.51123046875,0.00927734375,0.70166015625,5.859375,-4.08935546875,2.25830078125,2.933349609375,32.8656005859375,-56.6619873046875
1758786358.1910398,-0.37451171875,-0.01611328125,0.67138671875,32.470703125,0.18310546875,2.01416015625,3.262939453125,32.8765869140625,-56.6510009765625
1758786358.2014568,-0.37451171875,-0.01611328125,0.67138671875,32.470703125,0.18310546875,2.01416015625,3.5870361328125,32.8875732421875,-56.6455078125
1758786358.2119622,-0.51171875,0.0146484375,0.77685546875,4.7607421875,5.126953125,2.197265625,3.636474609375,32.947998046875,-56.6400146484375
1758786358.2214632,-0.51171875,0.0146484375,0.77685546875,4.7607421875,5.126953125,2.197265625,3.680419921875,33.0084228515625,-56.6290283203125
1758786358.2311094,-0.564453125,0.05859375,0.7783203125,-8.544921875,3.23486328125,2.50244140625,3.603515625,33.046875,-56.6180419921875
1758786358.2415552,-0.564453125,0.05859375,0.7783203125,-8.544921875,3.23486328125,2.50244140625,3.5211181640625,33.0853271484375,-56.6015625
1758786358.2518997,-0.447265625,0.04736328125,0.68310546875,14.404296875,3.662109375,2.50244140625,3.6749267578125,33.1292724609375,-56.5850830078125
1758786358.2615526,-0.447265625,0.04736328125,0.68310546875,14.404296875,3.662109375,2.50244140625,3.8232421875,33.167724609375,-56.5740966796875
1758786358.271235,-0.44970703125,0.04296875,0.67919921875,21.05712890625,7.38525390625,1.8310546875,4.0374755859375,33.2501220703125,-56.5631103515625
1758786358.2820208,-0.44970703125,0.04296875,0.67919921875,21.05712890625,7.38525390625,1.8310546875,4.251708984375,33.3270263671875,-56.5521240234375
1758786358.2914112,-0.55517578125,0.0751953125,0.72998046875,7.87353515625,7.99560546875,1.708984375,4.3341064453125,33.409423828125,-56.53564453125
1758786358.3015602,-0.55517578125,0.0751953125,0.72998046875,7.87353515625,7.99560546875,1.708984375,4.4219970703125,33.497314453125,-56.524658203125
1758786358.311832,-0.5234375,0.09521484375,0.732421875,3.2958984375,6.7138671875,2.3193359375,4.4659423828125,33.5687255859375,-56.502685546875
1758786358.3216646,-0.5234375,0.09521484375,0.732421875,3.2958984375,6.7138671875,2.3193359375,4.515380859375,33.64013671875,-56.480712890625
1758786358.3312259,-0.537109375,0.0751953125,0.759765625,-2.50244140625,7.568359375,4.2724609375,4.515380859375,33.7225341796875,-56.4312744140625
1758786358.3416498,-0.537109375,0.0751953125,0.759765625,-2.50244140625,7.568359375,4.2724609375,4.5208740234375,33.7994384765625,-56.3818359375
1758786358.3518484,-0.60205078125,0.046875,0.8037109375,-13.97705078125,6.04248046875,4.08935546875,4.4110107421875,33.8653564453125,-56.337890625
1758786358.3616512,-0.60205078125,0.046875,0.8037109375,-13.97705078125,6.04248046875,4.08935546875,4.3011474609375,33.9312744140625,-56.2939453125
1758786358.3713412,-0.56689453125,0.0400390625,0.74365234375,-1.953125,4.21142578125,3.0517578125,4.3011474609375,33.980712890625,-56.2664794921875
1758786358.3824294,-0.56689453125,0.0400390625,0.74365234375,-1.953125,4.21142578125,3.0517578125,4.3011474609375,34.0301513671875,-56.239013671875
1758786358.3913496,-0.49658203125,0.03955078125,0.72900390625,22.52197265625,6.16455078125,2.197265625,4.537353515625,34.0960693359375,-56.217041015625
1758786358.401699,-0.49658203125,0.03955078125,0.72900390625,22.52197265625,6.16455078125,2.197265625,4.779052734375,34.1619873046875,-56.2005615234375
1758786358.4120274,-0.57275390625,0.04833984375,0.78515625,18.6767578125,8.6669921875,0.48828125,4.9658203125,34.25537109375,-56.2005615234375
1758786358.4216475,-0.57275390625,0.04833984375,0.78515625,18.6767578125,8.6669921875,0.48828125,5.152587890625,34.3487548828125,-56.2005615234375
1758786358.4313557,-0.64794921875,0.07421875,0.8564453125,8.4228515625,7.32421875,-0.42724609375,5.2294921875,34.43115234375,-56.2115478515625
1758786358.441688,-0.64794921875,0.07421875,0.8564453125,8.4228515625,7.32421875,-0.42724609375,5.306396484375,34.5135498046875,-56.22802734375
1758786358.4522018,-0.60791015625,0.0732421875,0.86474609375,14.83154296875,5.859375,-1.5869140625,5.438232421875,34.5794677734375,-56.2554931640625
1758786358.4616575,-0.60791015625,0.0732421875,0.86474609375,14.83154296875,5.859375,-1.5869140625,5.570068359375,34.6453857421875,-56.282958984375
1758786358.4714725,-0.5849609375,0.10205078125,0.87890625,13.36669921875,3.7841796875,-1.03759765625,5.69091796875,34.6893310546875,-56.304931640625
1758786358.4817495,-0.5849609375,0.10205078125,0.87890625,13.36669921875,3.7841796875,-1.03759765625,5.8172607421875,34.7332763671875,-56.3214111328125
1758786358.492422,-0.58984375,0.126953125,0.88037109375,3.41796875,2.44140625,-0.244140625,5.8447265625,34.7607421875,-56.3323974609375
1758786358.5017707,-0.58984375,0.126953125,0.88037109375,3.41796875,2.44140625,-0.244140625,5.8721923828125,34.78271484375,-56.3433837890625
1758786358.5115473,-0.595703125,0.12646484375,0.81982421875,-0.3662109375,0.8544921875,0.1220703125,5.8721923828125,34.793701171875,-56.3433837890625
1758786358.5221596,-0.595703125,0.12646484375,0.81982421875,-0.3662109375,0.8544921875,0.1220703125,5.86669921875,34.8046875,-56.348876953125
1758786358.531624,-0.55126953125,0.13134765625,0.78125,-2.685546875,1.28173828125,0.6103515625,5.8502197265625,34.815673828125,-56.3433837890625
1758786358.5417933,-0.55126953125,0.13134765625,0.78125,-2.685546875,1.28173828125,0.6103515625,5.833740234375,34.8321533203125,-56.3323974609375
1758786358.5515196,-0.55078125,0.111328125,0.791015625,5.31005859375,3.11279296875,0.8544921875,5.899658203125,34.859619140625,-56.3214111328125
1758786358.5619295,-0.55078125,0.111328125,0.791015625,5.31005859375,3.11279296875,0.8544921875,5.965576171875,34.892578125,-56.304931640625
1758786358.571474,-0.6123046875,0.12353515625,0.85498046875,-2.197265625,2.8076171875,1.15966796875,5.9600830078125,34.9200439453125,-56.282958984375
1758786358.5819688,-0.6123046875,0.12353515625,0.85498046875,-2.197265625,2.8076171875,1.15966796875,5.95458984375,34.947509765625,-56.2664794921875
1758786358.5915556,-0.619140625,0.123046875,0.9013671875,-8.23974609375,1.953125,1.5869140625,5.888671875,34.9639892578125,-56.239013671875
1758786358.6018813,-0.619140625,0.123046875,0.9013671875,-8.23974609375,1.953125,1.5869140625,5.8282470703125,34.98046875,-56.217041015625
1758786358.6116893,-0.56787109375,0.11181640625,0.85693359375,0.48828125,1.28173828125,2.5634765625,5.8612060546875,34.991455078125,-56.1785888671875
1758786358.6221883,-0.56787109375,0.11181640625,0.85693359375,0.48828125,1.28173828125,2.5634765625,5.8941650390625,34.9969482421875,-56.1456298828125
1758786358.631613,-0.57275390625,0.1015625,0.87109375,1.89208984375,0.79345703125,3.11279296875,5.943603515625,35.00244140625,-56.1016845703125
1758786358.6418912,-0.57275390625,0.1015625,0.87109375,1.89208984375,0.79345703125,3.11279296875,5.9930419921875,35.00244140625,-56.0577392578125
1758786358.6531458,-0.57421875,0.11474609375,0.84326171875,-4.45556640625,0.244140625,3.47900390625,5.9765625,34.9969482421875,-56.0137939453125
1758786358.66203,-0.58349609375,0.12890625,0.8603515625,-12.6953125,0.18310546875,4.638671875,5.9271240234375,34.991455078125,-55.9588623046875
1758786358.6717389,-0.58349609375,0.12890625,0.8603515625,-12.6953125,0.18310546875,4.638671875,5.8447265625,34.98046875,-55.8929443359375
1758786358.681993,-0.56640625,0.08154296875,0.86181640625,-10.8642578125,-0.6103515625,4.82177734375,5.767822265625,34.969482421875,-55.83251953125
1758786358.6927323,-0.56640625,0.08154296875,0.86181640625,-10.8642578125,-0.6103515625,4.82177734375,5.701904296875,34.9530029296875,-55.7720947265625
1758786358.702019,-0.51416015625,0.03662109375,0.80712890625,-6.77490234375,-1.40380859375,4.08935546875,5.6524658203125,34.9310302734375,-55.711669921875
1758786358.711878,-0.51416015625,0.03662109375,0.80712890625,-6.77490234375,-1.40380859375,4.08935546875,5.6195068359375,34.9090576171875,-55.6622314453125
1758786358.7223725,-0.5146484375,0.01416015625,0.8193359375,-3.5400390625,-0.06103515625,3.5400390625,5.5975341796875,34.892578125,-55.6182861328125
1758786358.7319071,-0.5146484375,0.01416015625,0.8193359375,-3.5400390625,-0.06103515625,3.5400390625,5.5865478515625,34.8760986328125,-55.579833984375
1758786358.7420285,-0.53759765625,0.041015625,0.82958984375,-3.47900390625,-0.244140625,2.0751953125,5.570068359375,34.8651123046875,-55.5523681640625
1758786358.7519224,-0.53759765625,0.041015625,0.82958984375,-3.47900390625,-0.244140625,2.0751953125,5.5426025390625,34.8541259765625,-55.5303955078125
1758786358.7622836,-0.587890625,0.056640625,0.89501953125,-0.3662109375,-0.30517578125,1.3427734375,5.5316162109375,34.837646484375,-55.5194091796875
1758786358.7726889,-0.587890625,0.056640625,0.89501953125,-0.3662109375,-0.30517578125,1.3427734375,5.5316162109375,34.82666015625,-55.513916015625
1758786358.782075,-0.61376953125,0.0595703125,0.90869140625,2.86865234375,-2.197265625,0.30517578125,5.5426025390625,34.8046875,-55.513916015625
1758786358.7928016,-0.61376953125,0.0595703125,0.90869140625,2.86865234375,-2.197265625,0.30517578125,5.570068359375,34.771728515625,-55.5194091796875
1758786358.8020911,-0.58056640625,0.06591796875,0.8447265625,6.77490234375,-3.41796875,-0.06103515625,5.6085205078125,34.73876953125,-55.535888671875
1758786358.8117466,-0.58056640625,0.06591796875,0.8447265625,6.77490234375,-3.41796875,-0.06103515625,5.6634521484375,34.7003173828125,-55.546875
1758786358.8224838,-0.54248046875,0.03955078125,0.802734375,12.87841796875,-2.62451171875,-0.91552734375,5.7513427734375,34.661865234375,-55.56884765625
1758786358.8329434,-0.54248046875,0.03955078125,0.802734375,12.87841796875,-2.62451171875,-0.91552734375,5.8612060546875,34.6343994140625,-55.5963134765625
1758786358.8420844,-0.568359375,0.04150390625,0.72607421875,14.95361328125,-1.5869140625,-1.77001953125,5.9765625,34.60693359375,-55.6292724609375
1758786358.8518298,-0.568359375,0.04150390625,0.72607421875,14.95361328125,-1.5869140625,-1.77001953125,6.1029052734375,34.5904541015625,-55.6732177734375
1758786358.8626716,-0.57861328125,0.05419921875,0.6923828125,11.41357421875,-1.77001953125,-3.0517578125,6.2017822265625,34.5794677734375,-55.72265625
1758786358.8718905,-0.57861328125,0.05419921875,0.6923828125,11.41357421875,-1.77001953125,-3.0517578125,6.2841796875,34.5684814453125,-55.777587890625
1758786358.882085,-0.57861328125,0.05419921875,0.6923828125,16.78466796875,-0.42724609375,-3.60107421875,6.3885498046875,34.56298828125,-55.8380126953125
1758786358.8926022,-0.5400390625,0.10302734375,0.66357421875,16.78466796875,-0.42724609375,-3.60107421875,6.5203857421875,34.573974609375,-55.9039306640625
1758786358.9023552,-0.57568359375,0.103515625,0.6904296875,18.85986328125,1.77001953125,-4.33349609375,6.6632080078125,34.5904541015625,-55.96435546875
1758786358.9118145,-0.57568359375,0.103515625,0.6904296875,18.85986328125,1.77001953125,-4.33349609375,6.8115234375,34.6234130859375,-56.0302734375
1758786358.9221346,-0.6318359375,0.15869140625,0.73486328125,5.79833984375,2.01416015625,-3.90625,6.8994140625,34.661865234375,-56.0906982421875
1758786358.9329264,-0.6318359375,0.15869140625,0.73486328125,5.79833984375,2.01416015625,-3.90625,6.932373046875,34.7003173828125,-56.1456298828125
1758786358.9420915,-0.64453125,0.16748046875,0.84765625,-5.92041015625,1.46484375,-4.69970703125,6.9049072265625,34.73876953125,-56.2060546875
1758786358.9518945,-0.64453125,0.16748046875,0.84765625,-5.92041015625,1.46484375,-4.69970703125,6.8170166015625,34.771728515625,-56.2664794921875
1758786358.9624746,-0.67822265625,0.13232421875,0.84423828125,4.638671875,0.6103515625,-3.662109375,6.7840576171875,34.8046875,-56.3214111328125
1758786358.9719672,-0.67822265625,0.13232421875,0.84423828125,4.638671875,0.6103515625,-3.662109375,6.8115234375,34.82666015625,-56.370849609375
1758786358.98214,-0.646484375,0.12548828125,0.85595703125,6.40869140625,-0.3662109375,-4.45556640625,6.844482421875,34.8486328125,-56.4202880859375
1758786358.9927866,-0.646484375,0.12548828125,0.85595703125,6.40869140625,-0.3662109375,-4.45556640625,6.888427734375,34.8651123046875,-56.480712890625
1758786359.002068,-0.5966796875,0.1005859375,0.8134765625,8.97216796875,-1.03759765625,-3.47900390625,6.943359375,34.8760986328125,-56.5301513671875
1758786359.0119739,-0.5966796875,0.1005859375,0.8134765625,8.97216796875,-1.03759765625,-3.47900390625,7.00927734375,34.8870849609375,-56.5740966796875
1758786359.0223694,-0.57958984375,0.1279296875,0.89697265625,-4.7607421875,-0.1220703125,-3.2958984375,7.0147705078125,34.8980712890625,-56.62353515625
1758786359.032022,-0.57958984375,0.1279296875,0.89697265625,-4.7607421875,-0.1220703125,-3.2958984375,6.9488525390625,34.9090576171875,-56.6619873046875
1758786359.0421236,-0.5869140625,0.1376953125,0.85888671875,-4.2724609375,-0.42724609375,-3.173828125,6.888427734375,34.9200439453125,-56.7059326171875
1758786359.053206,-0.5869140625,0.1376953125,0.85888671875,-4.2724609375,-0.42724609375,-3.173828125,6.8280029296875,34.925537109375,-56.744384765625
1758786359.0621798,-0.52587890625,0.1318359375,0.85546875,-13.671875,-2.3193359375,-1.8310546875,6.7291259765625,34.91455078125,-56.7718505859375
1758786359.0729067,-0.52587890625,0.1318359375,0.85546875,-13.671875,-2.3193359375,-1.8310546875,6.5863037109375,34.8980712890625,-56.7938232421875
1758786359.0821214,-0.4716796875,0.13818359375,0.861328125,-15.5029296875,-2.5634765625,-1.03759765625,6.43798828125,34.8760986328125,-56.8048095703125
1758786359.0931542,-0.4716796875,0.13818359375,0.861328125,-15.5029296875,-2.5634765625,-1.03759765625,6.2841796875,34.8486328125,-56.8157958984375
1758786359.102142,-0.419921875,0.06982421875,0.82177734375,-4.45556640625,-2.3193359375,0.1220703125,6.1962890625,34.815673828125,-56.810302734375
1758786359.1119602,-0.419921875,0.06982421875,0.82177734375,-4.45556640625,-2.3193359375,0.1220703125,6.163330078125,34.78271484375,-56.8048095703125
1758786359.1227176,-0.42578125,0.04736328125,0.84619140625,-13.7939453125,-0.79345703125,0.8544921875,6.0809326171875,34.7552490234375,-56.788330078125
1758786359.133042,-0.42578125,0.04736328125,0.84619140625,-13.7939453125,-0.79345703125,0.8544921875,5.95458984375,34.727783203125,-56.7718505859375
1758786359.1420975,-0.462890625,0.06884765625,0.88427734375,-18.61572265625,-0.48828125,0.42724609375,5.8062744140625,34.7003173828125,-56.75537109375
1758786359.152093,-0.462890625,0.06884765625,0.88427734375,-18.61572265625,-0.48828125,0.42724609375,5.625,34.6728515625,-56.744384765625
1758786359.1626377,-0.51123046875,0.046875,0.912109375,-7.14111328125,-0.91552734375,0.0,5.504150390625,34.6453857421875,-56.7333984375
1758786359.1725216,-0.51123046875,0.046875,0.912109375,-7.14111328125,-0.91552734375,0.0,5.438232421875,34.6124267578125,-56.7279052734375
1758786359.1820948,-0.552734375,0.03125,0.96728515625,4.2724609375,-0.48828125,-1.220703125,5.416259765625,34.5794677734375,-56.7333984375
1758786359.193007,-0.552734375,0.03125,0.96728515625,4.2724609375,-0.48828125,-1.220703125,5.44921875,34.552001953125,-56.744384765625
1758786359.2022674,-0.615234375,0.0390625,0.951171875,0.3662109375,-1.40380859375,-1.708984375,5.460205078125,34.51904296875,-56.7608642578125
1758786359.212094,-0.615234375,0.0390625,0.951171875,0.3662109375,-1.40380859375,-1.708984375,5.44921875,34.486083984375,-56.7828369140625
1758786359.2222815,-0.64501953125,0.07470703125,0.91357421875,-0.9765625,-3.41796875,-2.8076171875,5.4217529296875,34.442138671875,-56.8212890625
1758786359.2331777,-0.64501953125,0.07470703125,0.91357421875,-0.9765625,-3.41796875,-2.8076171875,5.38330078125,34.3927001953125,-56.8597412109375
1758786359.242179,-0.607421875,0.130859375,0.92626953125,-7.99560546875,-3.84521484375,-2.685546875,5.3118896484375,34.34326171875,-56.9036865234375
1758786359.2521195,-0.607421875,0.130859375,0.92626953125,-7.99560546875,-3.84521484375,-2.685546875,5.20751953125,34.2938232421875,-56.942138671875
1758786359.2627065,-0.5458984375,0.19921875,0.90625,-25.390625,-4.150390625,-2.3193359375,5.0262451171875,34.2388916015625,-56.97509765625
1758786359.272664,-0.5458984375,0.19921875,0.90625,-25.390625,-4.150390625,-2.3193359375,4.7625732421875,34.189453125,-56.9970703125
1758786359.2821808,-0.46337890625,0.1318359375,0.76708984375,-17.02880859375,-3.47900390625,-2.86865234375,4.5428466796875,34.134521484375,-57.01904296875
1758786359.2921648,-0.46337890625,0.1318359375,0.76708984375,-17.02880859375,-3.47900390625,-2.86865234375,4.3670654296875,34.090576171875,-57.041015625
1758786359.3028688,-0.40625,0.06298828125,0.7314453125,7.01904296875,-0.244140625,-4.638671875,4.306640625,34.0576171875,-57.073974609375
1758786359.3121803,-0.40625,0.06298828125,0.7314453125,7.01904296875,-0.244140625,-4.638671875,4.361572265625,34.0411376953125,-57.1124267578125
1758786359.3221416,-0.44921875,0.0693359375,0.77880859375,-4.638671875,1.5869140625,-5.615234375,4.3560791015625,34.03564453125,-57.1563720703125
1758786359.3327923,-0.44921875,0.0693359375,0.77880859375,-4.638671875,1.5869140625,-5.615234375,4.28466796875,34.0411376953125,-57.205810546875
1758786359.3428469,-0.466796875,0.08642578125,0.85888671875,-16.357421875,1.15966796875,-5.79833984375,4.15283203125,34.0411376953125,-57.2552490234375
1758786359.352477,-0.466796875,0.08642578125,0.85888671875,-16.357421875,1.15966796875,-5.79833984375,3.966064453125,34.03564453125,-57.3046875
1758786359.3621826,-0.40380859375,0.03369140625,0.75537109375,7.6904296875,0.54931640625,-6.40869140625,3.900146484375,34.024658203125,-57.359619140625
1758786359.3733048,-0.40380859375,0.03369140625,0.75537109375,7.6904296875,0.54931640625,-6.40869140625,3.944091796875,34.013671875,-57.41455078125
1758786359.3824282,-0.447265625,0.001953125,0.80615234375,13.00048828125,3.662109375,-7.080078125,4.0155029296875,34.013671875,-57.48046875
1758786359.392495,-0.447265625,0.001953125,0.80615234375,13.00048828125,3.662109375,-7.080078125,4.1033935546875,34.0301513671875,-57.54638671875
1758786359.4029546,-0.5107421875,0.0322265625,0.849609375,-5.859375,4.08935546875,-8.23974609375,4.0924072265625,34.0521240234375,-57.6287841796875
1758786359.4125993,-0.5107421875,0.0322265625,0.849609375,-5.859375,4.08935546875,-8.23974609375,3.988037109375,34.0740966796875,-57.711181640625
1758786359.4222043,-0.515625,0.03466796875,0.8818359375,2.38037109375,4.8828125,-8.72802734375,3.9166259765625,34.1015625,-57.8045654296875
1758786359.4326448,-0.515625,0.03466796875,0.8818359375,2.38037109375,4.8828125,-8.72802734375,3.8836669921875,34.134521484375,-57.89794921875
1758786359.4429789,-0.58349609375,0.05224609375,0.87451171875,4.8828125,5.859375,-9.33837890625,3.8616943359375,34.16748046875,-57.996826171875
1758786359.4525383,-0.58349609375,0.05224609375,0.87451171875,4.8828125,5.859375,-9.33837890625,3.84521484375,34.21142578125,-58.095703125
1758786359.4623415,-0.66064453125,0.0302734375,0.87451171875,-1.40380859375,5.37109375,-10.19287109375,3.80126953125,34.25537109375,-58.20556640625
1758786359.4737906,-0.66064453125,0.0302734375,0.87451171875,-1.40380859375,5.37109375,-10.19287109375,3.7188720703125,34.29931640625,-58.3209228515625
1758786359.4823165,-0.69482421875,0.0166015625,0.89013671875,-7.6904296875,4.82177734375,-10.6201171875,3.603515625,34.34326171875,-58.4417724609375
1758786359.4926057,-0.69482421875,0.0166015625,0.89013671875,-7.6904296875,4.82177734375,-10.6201171875,3.4552001953125,34.38720703125,-58.568115234375
1758786359.502951,-0.67236328125,0.0078125,0.84130859375,4.82177734375,2.8076171875,-10.986328125,3.36181640625,34.43115234375,-58.699951171875
1758786359.5128536,-0.67236328125,0.0078125,0.84130859375,4.82177734375,2.8076171875,-10.986328125,3.3343505859375,34.4586181640625,-58.831787109375
1758786359.5223298,-0.5400390625,-0.00439453125,0.74609375,31.67724609375,3.23486328125,-11.962890625,3.4332275390625,34.4970703125,-58.9801025390625
1758786359.5330915,-0.5400390625,-0.00439453125,0.74609375,31.67724609375,3.23486328125,-11.962890625,3.658447265625,34.5355224609375,-59.12841796875
1758786359.5429735,-0.5478515625,0.037109375,0.73193359375,14.34326171875,5.859375,-11.77978515625,3.80126953125,34.5904541015625,-59.2822265625
1758786359.5526888,-0.5478515625,0.037109375,0.73193359375,14.34326171875,5.859375,-11.77978515625,3.856201171875,34.6563720703125,-59.425048828125
1758786359.5623538,-0.6015625,0.076171875,0.73193359375,-7.01904296875,5.18798828125,-10.7421875,3.8067626953125,34.7222900390625,-59.56787109375
1758786359.5734842,-0.6015625,0.076171875,0.73193359375,-7.01904296875,5.18798828125,-10.7421875,3.658447265625,34.7882080078125,-59.69970703125
1758786359.5824738,-0.60693359375,0.0810546875,0.74267578125,10.6201171875,3.90625,-9.521484375,3.603515625,34.8431396484375,-59.8260498046875
1758786359.5926971,-0.60693359375,0.0810546875,0.74267578125,10.6201171875,3.90625,-9.521484375,3.6419677734375,34.8980712890625,-59.94140625
1758786359.6032467,-0.62255859375,0.099609375,0.80126953125,8.7890625,2.74658203125,-8.36181640625,3.680419921875,34.9420166015625,-60.05126953125
1758786359.6130319,-0.62255859375,0.099609375,0.80126953125,8.7890625,2.74658203125,-8.36181640625,3.7078857421875,34.9859619140625,-60.150146484375
1758786359.622412,-0.61181640625,0.1025390625,0.791015625,-8.72802734375,1.953125,-7.2021484375,3.658447265625,35.0244140625,-60.2435302734375
1758786359.6327934,-0.61181640625,0.1025390625,0.791015625,-8.72802734375,1.953125,-7.2021484375,3.526611328125,35.057373046875,-60.325927734375
1758786359.6433942,-0.57470703125,0.0654296875,0.72216796875,1.8310546875,1.3427734375,-6.103515625,3.4552001953125,35.09033203125,-60.3973388671875
1758786359.652867,-0.57470703125,0.0654296875,0.72216796875,1.8310546875,1.3427734375,-6.103515625,3.438720703125,35.1177978515625,-60.46875
1758786359.662494,-0.5908203125,0.0166015625,0.7724609375,7.8125,2.25830078125,-6.40869140625,3.44970703125,35.1507568359375,-60.5401611328125
1758786359.6736898,-0.5908203125,0.0166015625,0.7724609375,7.8125,2.25830078125,-6.40869140625,3.49365234375,35.189208984375,-60.611572265625
1758786359.6831431,-0.6474609375,0.0234375,0.83251953125,2.5634765625,1.953125,-5.9814453125,3.504638671875,35.2276611328125,-60.6829833984375
1758786359.692835,-0.6474609375,0.0234375,0.83251953125,2.5634765625,1.953125,-5.9814453125,3.4881591796875,35.2606201171875,-60.75439453125
1758786359.7025871,-0.6552734375,0.02001953125,0.82763671875,-5.43212890625,0.67138671875,-4.8828125,3.438720703125,35.2880859375,-60.8203125
1758786359.7137372,-0.6552734375,0.02001953125,0.82763671875,-5.43212890625,0.67138671875,-4.8828125,3.350830078125,35.31005859375,-60.88623046875
1758786359.722587,-0.64599609375,-0.009765625,0.81005859375,-13.36669921875,-0.8544921875,-3.35693359375,3.2244873046875,35.3265380859375,-60.941162109375
1758786359.7328835,-0.64599609375,-0.009765625,0.81005859375,-13.36669921875,-0.8544921875,-3.35693359375,3.065185546875,35.33203125,-60.985107421875
1758786359.7432973,-0.60400390625,-0.02197265625,0.80859375,-2.38037109375,-0.79345703125,-2.50244140625,2.9608154296875,35.343017578125,-61.0345458984375
1758786359.7532926,-0.60400390625,-0.02197265625,0.80859375,-2.38037109375,-0.79345703125,-2.50244140625,2.9168701171875,35.3485107421875,-61.072998046875
1758786359.7626455,-0.61572265625,-0.0361328125,0.81884765625,-2.3193359375,-0.91552734375,-3.60107421875,2.8619384765625,35.35400390625,-61.1224365234375
1758786359.7733932,-0.61572265625,-0.0361328125,0.81884765625,-2.3193359375,-0.91552734375,-3.60107421875,2.8070068359375,35.3594970703125,-61.182861328125
1758786359.7831688,-0.60888671875,0.01123046875,0.77685546875,0.06103515625,0.1220703125,-3.90625,2.7685546875,35.3759765625,-61.2432861328125
1758786359.7928429,-0.60888671875,0.01123046875,0.77685546875,0.06103515625,0.1220703125,-3.90625,2.7301025390625,35.3924560546875,-61.3092041015625
1758786359.8032901,-0.5732421875,0.0400390625,0.8291015625,5.18798828125,-0.6103515625,-3.2958984375,2.7520751953125,35.39794921875,-61.3641357421875
1758786359.8129835,-0.5732421875,0.0400390625,0.8291015625,5.18798828125,-0.6103515625,-3.2958984375,2.7685546875,35.4034423828125,-61.41357421875
1758786359.8225956,-0.57958984375,0.0556640625,0.83544921875,3.60107421875,0.732421875,-3.47900390625,2.7740478515625,35.4254150390625,-61.468505859375
1758786359.833053,-0.57958984375,0.0556640625,0.83544921875,3.60107421875,0.732421875,-3.47900390625,2.779541015625,35.44189453125,-61.5179443359375
1758786359.8434703,-0.6240234375,0.07373046875,0.80517578125,-13.61083984375,-1.0986328125,-3.23486328125,2.6202392578125,35.4364013671875,-61.5618896484375
1758786359.8529966,-0.6240234375,0.07373046875,0.80517578125,-13.61083984375,-1.0986328125,-3.23486328125,2.4609375,35.4364013671875,-61.6058349609375
1758786359.8626385,-0.62451171875,0.07763671875,0.791015625,-13.7939453125,-1.64794921875,-2.13623046875,2.30712890625,35.430908203125,-61.6387939453125
1758786359.8740036,-0.62451171875,0.07763671875,0.791015625,-13.7939453125,-1.64794921875,-2.13623046875,2.1588134765625,35.4254150390625,-61.6607666015625
1758786359.8831935,-0.62451171875,0.07763671875,0.791015625,-6.2255859375,-2.38037109375,-1.0986328125,2.0928955078125,35.408935546875,-61.67724609375
1758786359.8928978,-0.5908203125,0.03173828125,0.76513671875,-6.2255859375,-2.38037109375,-1.0986328125,2.0269775390625,35.39794921875,-61.688232421875
1758786359.9026878,-0.59375,-0.00048828125,0.84912109375,-2.13623046875,-1.77001953125,-1.8310546875,1.9940185546875,35.3924560546875,-61.710205078125
1758786359.913829,-0.59375,-0.00048828125,0.84912109375,-2.13623046875,-1.77001953125,-1.8310546875,1.966552734375,35.3814697265625,-61.7376708984375
1758786359.9228432,-0.62158203125,0.01171875,0.88232421875,-7.87353515625,-2.13623046875,-1.89208984375,1.8731689453125,35.3704833984375,-61.7596435546875
1758786359.9329646,-0.62158203125,0.01171875,0.88232421875,-7.87353515625,-2.13623046875,-1.89208984375,1.7852783203125,35.35400390625,-61.787109375
1758786359.942831,-0.595703125,0.0439453125,0.83447265625,-10.009765625,-2.50244140625,-1.46484375,1.6754150390625,35.3375244140625,-61.8035888671875
1758786359.9537573,-0.595703125,0.0439453125,0.83447265625,-10.009765625,-2.50244140625,-1.46484375,1.5655517578125,35.3155517578125,-61.8255615234375
1758786359.962805,-0.548828125,0.05615234375,0.79345703125,-0.6103515625,-2.44140625,-1.28173828125,1.5545654296875,35.299072265625,-61.8365478515625
1758786359.9736092,-0.548828125,0.05615234375,0.79345703125,-0.6103515625,-2.44140625,-1.28173828125,1.5435791015625,35.277099609375,-61.8475341796875
1758786359.982774,-0.53125,0.0390625,0.80322265625,-3.11279296875,-1.708984375,-0.79345703125,1.51611328125,35.26611328125,-61.85302734375
1758786359.993868,-0.53125,0.0390625,0.80322265625,-3.11279296875,-1.708984375,-0.79345703125,1.483154296875,35.2496337890625,-61.8585205078125
1758786360.002777,-0.52294921875,0.03466796875,0.7958984375,-11.53564453125,-0.9765625,-0.91552734375,1.3677978515625,35.2386474609375,-61.864013671875
1758786360.0130725,-0.52294921875,0.03466796875,0.7958984375,-11.53564453125,-0.9765625,-0.91552734375,1.2579345703125,35.233154296875,-61.8695068359375
1758786360.0229115,-0.5126953125,0.03857421875,0.77197265625,-3.90625,-0.42724609375,-0.3662109375,1.219482421875,35.2276611328125,-61.8695068359375
1758786360.0331397,-0.5126953125,0.03857421875,0.77197265625,-3.90625,-0.42724609375,-0.3662109375,1.1865234375,35.2166748046875,-61.864013671875
1758786360.0427358,-0.5322265625,0.03662109375,0.77783203125,-0.54931640625,0.48828125,0.0,1.1920166015625,35.22216796875,-61.8585205078125
1758786360.052793,-0.5322265625,0.03662109375,0.77783203125,-0.54931640625,0.48828125,0.0,1.197509765625,35.22216796875,-61.8475341796875
1758786360.0634084,-0.5283203125,0.0341796875,0.76416015625,-4.150390625,0.732421875,0.0,1.16455078125,35.2276611328125,-61.842041015625
1758786360.073558,-0.5283203125,0.0341796875,0.76416015625,-4.150390625,0.732421875,0.0,1.131591796875,35.233154296875,-61.8310546875
1758786360.082865,-0.517578125,0.0166015625,0.73095703125,-2.50244140625,1.64794921875,0.30517578125,1.1151123046875,35.244140625,-61.820068359375
1758786360.0937502,-0.517578125,0.0166015625,0.73095703125,-2.50244140625,1.64794921875,0.30517578125,1.1041259765625,35.2606201171875,-61.80908203125
1758786360.1031325,-0.52294921875,0.01220703125,0.71875,-3.84521484375,2.86865234375,0.8544921875,1.07666015625,35.2880859375,-61.787109375
1758786360.1131008,-0.52294921875,0.01220703125,0.71875,-3.84521484375,2.86865234375,0.8544921875,1.0491943359375,35.3155517578125,-61.7706298828125
1758786360.1231992,-0.57470703125,0.0244140625,0.77001953125,-9.6435546875,3.5400390625,1.52587890625,0.9722900390625,35.3485107421875,-61.7486572265625
1758786360.1339197,-0.57470703125,0.0244140625,0.77001953125,-9.6435546875,3.5400390625,1.52587890625,0.8953857421875,35.3814697265625,-61.72119140625
1758786360.1428819,-0.6015625,0.03173828125,0.80859375,-9.3994140625,3.0517578125,2.0751953125,0.823974609375,35.4144287109375,-61.6937255859375
1758786360.1532323,-0.6015625,0.03173828125,0.80859375,-9.3994140625,3.0517578125,2.0751953125,0.7525634765625,35.44189453125,-61.6607666015625
1758786360.163538,-0.6103515625,-0.001953125,0.83056640625,-10.07080078125,2.44140625,2.197265625,0.6756591796875,35.4693603515625,-61.6278076171875
1758786360.1732306,-0.6103515625,-0.001953125,0.83056640625,-10.07080078125,2.44140625,2.197265625,0.5987548828125,35.496826171875,-61.5948486328125
1758786360.1828685,-0.6279296875,-0.02392578125,0.865234375,-2.74658203125,1.64794921875,2.13623046875,0.5877685546875,35.5133056640625,-61.5673828125
1758786360.19342,-0.6279296875,-0.02392578125,0.865234375,-2.74658203125,1.64794921875,2.13623046875,0.582275390625,35.52978515625,-61.5399169921875
1758786360.2036204,-0.64794921875,-0.06494140625,0.90576171875,6.7138671875,0.48828125,2.3193359375,0.6646728515625,35.5352783203125,-61.5179443359375
1758786360.2131953,-0.64794921875,-0.06494140625,0.90576171875,6.7138671875,0.48828125,2.3193359375,0.7470703125,35.540771484375,-61.4959716796875
1758786360.2236662,-0.64111328125,-0.04736328125,0.953125,3.662109375,-1.46484375,1.46484375,0.7855224609375,35.52978515625,-61.4849853515625
1758786360.2332637,-0.64111328125,-0.04736328125,0.953125,3.662109375,-1.46484375,1.46484375,0.823974609375,35.5133056640625,-61.4739990234375
1758786360.243,-0.60302734375,-0.00537109375,0.88134765625,-1.40380859375,-3.5400390625,2.0751953125,0.8184814453125,35.474853515625,-61.4630126953125
1758786360.2535822,-0.60302734375,-0.00537109375,0.88134765625,-1.40380859375,-3.5400390625,2.0751953125,0.8074951171875,35.44189453125,-61.446533203125
1758786360.2634954,-0.5224609375,-0.00390625,0.81103515625,7.99560546875,-4.21142578125,2.3193359375,0.8953857421875,35.39794921875,-61.4300537109375
1758786360.2732754,-0.5224609375,-0.00390625,0.81103515625,7.99560546875,-4.21142578125,2.3193359375,0.9832763671875,35.3485107421875,-61.4080810546875
1758786360.2831373,-0.47705078125,-0.017578125,0.7890625,15.44189453125,-4.08935546875,2.25830078125,1.142578125,35.3045654296875,-61.3916015625
1758786360.2936947,-0.47705078125,-0.017578125,0.7890625,15.44189453125,-4.08935546875,2.25830078125,1.3018798828125,35.255126953125,-61.380615234375
1758786360.3029997,-0.4697265625,0.00439453125,0.79638671875,10.31494140625,-2.9296875,1.8310546875,1.40625,35.2166748046875,-61.36962890625
1758786360.3133907,-0.4697265625,0.00439453125,0.79638671875,10.31494140625,-2.9296875,1.8310546875,1.505126953125,35.17822265625,-61.358642578125
1758786360.3239682,-0.48486328125,0.0341796875,0.833984375,3.60107421875,-3.0517578125,2.197265625,1.549072265625,35.1397705078125,-61.3421630859375
1758786360.333426,-0.48486328125,0.0341796875,0.833984375,3.60107421875,-3.0517578125,2.197265625,1.5875244140625,35.0958251953125,-61.3201904296875
