timestamp,acc_x,acc_y,acc_z,gyro_x,gyro_y,gyro_z,angle_x,angle_y,angle_z
1760966368.8975165,0.0,0.0,0.0,0.0,0.0,0.0,0.2801513671875,44.8846435546875,-77.7557373046875
1760966368.9077137,-0.71044921875,0.00146484375,0.71533203125,-0.244140625,-1.40380859375,0.0,0.2801513671875,44.8736572265625,-77.750244140625
1760966368.917527,-0.71044921875,0.00146484375,0.71533203125,-0.244140625,-1.40380859375,0.0,0.2801513671875,44.8626708984375,-77.7447509765625
1760966368.9279044,-0.7060546875,0.0029296875,0.71142578125,0.54931640625,-1.15966796875,-0.18310546875,0.2801513671875,44.8516845703125,-77.7392578125
1760966368.9368744,-0.7060546875,0.0029296875,0.71142578125,0.54931640625,-1.15966796875,-0.18310546875,0.28564453125,44.8406982421875,-77.7392578125
1760966368.9464753,-0.7138671875,0.0048828125,0.70947265625,0.732421875,-0.91552734375,-0.3662109375,0.2911376953125,44.835205078125,-77.7392578125
1760966368.9564981,-0.7138671875,0.0048828125,0.70947265625,0.732421875,-0.91552734375,-0.3662109375,0.2911376953125,44.82421875,-77.7392578125
1760966368.9663026,-0.716796875,0.00048828125,0.6953125,1.64794921875,-0.6103515625,-0.42724609375,0.3021240234375,44.82421875,-77.7392578125
1760966368.9767501,-0.716796875,0.00048828125,0.6953125,1.64794921875,-0.6103515625,-0.42724609375,0.318603515625,44.8187255859375,-77.7392578125
1760966368.9863846,-0.7080078125,0.00146484375,0.70849609375,1.15966796875,-0.244140625,-0.48828125,0.3240966796875,44.8187255859375,-77.7447509765625
1760966368.996196,-0.7080078125,0.00146484375,0.70849609375,1.15966796875,-0.244140625,-0.48828125,0.32958984375,44.8187255859375,-77.7447509765625
1760966369.0061872,-0.7021484375,0.0078125,0.72802734375,-0.42724609375,0.06103515625,-0.54931640625,0.318603515625,44.8187255859375,-77.7447509765625
1760966369.0162401,-0.7021484375,0.0078125,0.72802734375,-0.42724609375,0.06103515625,-0.54931640625,0.3076171875,44.82421875,-77.750244140625
1760966369.0261605,-0.7080078125,0.005859375,0.720703125,0.06103515625,0.30517578125,-0.8544921875,0.3021240234375,44.82421875,-77.7557373046875
1760966369.0359635,-0.7080078125,0.005859375,0.720703125,0.06103515625,0.30517578125,-0.8544921875,0.2911376953125,44.8297119140625,-77.76123046875
1760966369.0459466,-0.71533203125,0.0048828125,0.6982421875,0.67138671875,0.30517578125,-1.15966796875,0.2911376953125,44.835205078125,-77.772216796875
1760966369.0559602,-0.71533203125,0.0048828125,0.6982421875,0.67138671875,0.30517578125,-1.15966796875,0.28564453125,44.835205078125,-77.783203125
1760966369.0660253,-0.71142578125,0.005859375,0.6943359375,0.18310546875,-0.244140625,-1.28173828125,0.274658203125,44.835205078125,-77.794189453125
1760966369.0760107,-0.71142578125,0.005859375,0.6943359375,0.18310546875,-0.244140625,-1.28173828125,0.263671875,44.835205078125,-77.8106689453125
1760966369.0862057,-0.71533203125,0.0078125,0.69775390625,-1.03759765625,-0.9765625,-1.28173828125,0.24169921875,44.8297119140625,-77.8216552734375
1760966369.0959575,-0.71533203125,0.0078125,0.69775390625,-1.03759765625,-0.9765625,-1.28173828125,0.2197265625,44.8187255859375,-77.8326416015625
1760966369.1059937,-0.71728515625,0.0029296875,0.69189453125,-2.38037109375,-1.40380859375,-1.3427734375,0.1812744140625,44.8077392578125,-77.84912109375
1760966369.1159568,-0.71728515625,0.0029296875,0.69189453125,-2.38037109375,-1.40380859375,-1.3427734375,0.1483154296875,44.7967529296875,-77.860107421875
1760966369.1259587,-0.71484375,-0.00390625,0.70361328125,-1.3427734375,-1.64794921875,-1.52587890625,0.120849609375,44.7857666015625,-77.8765869140625
1760966369.1359499,-0.71484375,-0.00390625,0.70361328125,-1.3427734375,-1.64794921875,-1.52587890625,0.0933837890625,44.7747802734375,-77.89306640625
1760966369.1459732,-0.71044921875,-0.0107421875,0.712890625,2.01416015625,-1.5869140625,-1.89208984375,0.0933837890625,44.7637939453125,-77.9150390625
1760966369.1559987,-0.71044921875,-0.0107421875,0.712890625,2.01416015625,-1.5869140625,-1.89208984375,0.0933837890625,44.747314453125,-77.93701171875
1760966369.1659815,-0.70263671875,-0.0078125,0.71728515625,3.60107421875,-1.28173828125,-1.89208984375,0.10986328125,44.736328125,-77.958984375
1760966369.175996,-0.70263671875,-0.0078125,0.71728515625,3.60107421875,-1.28173828125,-1.89208984375,0.1263427734375,44.7308349609375,-77.98095703125
1760966369.1860042,-0.69775390625,0.0068359375,0.73291015625,2.0751953125,-0.9765625,-1.64794921875,0.1318359375,44.7198486328125,-77.9974365234375
1760966369.1960158,-0.69775390625,0.0068359375,0.73291015625,2.0751953125,-0.9765625,-1.64794921875,0.1373291015625,44.71435546875,-78.0194091796875
1760966369.2060387,-0.69970703125,0.0078125,0.72705078125,-0.8544921875,-0.67138671875,-1.15966796875,0.1153564453125,44.703369140625,-78.0303955078125
1760966369.216044,-0.69970703125,0.0078125,0.72705078125,-0.8544921875,-0.67138671875,-1.15966796875,0.0933837890625,44.6978759765625,-78.035888671875
1760966369.2260518,-0.71337890625,-0.00439453125,0.7099609375,-1.0986328125,-0.3662109375,-0.8544921875,0.076904296875,44.6978759765625,-78.046875
1760966369.236044,-0.71337890625,-0.00439453125,0.7099609375,-1.0986328125,-0.3662109375,-0.8544921875,0.054931640625,44.6923828125,-78.0523681640625
1760966369.2460604,-0.71240234375,-0.01318359375,0.70166015625,-0.30517578125,-0.54931640625,-0.6103515625,0.0494384765625,44.6868896484375,-78.0523681640625
1760966369.2560747,-0.71240234375,-0.01318359375,0.70166015625,-0.30517578125,-0.54931640625,-0.6103515625,0.0384521484375,44.681396484375,-78.057861328125
1760966369.266083,-0.71044921875,-0.00390625,0.703125,0.79345703125,-0.3662109375,-0.30517578125,0.0384521484375,44.681396484375,-78.057861328125
1760966369.2760928,-0.71044921875,-0.00390625,0.703125,0.79345703125,-0.3662109375,-0.30517578125,0.0439453125,44.681396484375,-78.057861328125
1760966369.2860706,-0.71142578125,0.00048828125,0.71923828125,0.0,-0.1220703125,0.0,0.0439453125,44.681396484375,-78.0523681640625
1760966369.2960668,-0.71142578125,0.00048828125,0.71923828125,0.0,-0.1220703125,0.0,0.0439453125,44.681396484375,-78.0523681640625
1760966369.3061242,-0.71044921875,0.00146484375,0.71240234375,-0.6103515625,0.18310546875,0.244140625,0.0384521484375,44.681396484375,-78.0413818359375
1760966369.316107,-0.71044921875,0.00146484375,0.71240234375,-0.6103515625,0.18310546875,0.244140625,0.032958984375,44.6868896484375,-78.035888671875
1760966369.3261304,-0.7099609375,-0.00390625,0.6962890625,-1.0986328125,0.30517578125,0.48828125,0.0274658203125,44.6923828125,-78.02490234375
1760966369.336137,-0.7099609375,-0.00390625,0.6962890625,-1.0986328125,0.30517578125,0.48828125,0.0164794921875,44.6978759765625,-78.013916015625
1760966369.3461533,-0.70361328125,-0.00830078125,0.70849609375,-0.54931640625,0.1220703125,0.732421875,0.0164794921875,44.6978759765625,-77.9974365234375
1760966369.3561795,-0.70361328125,-0.00830078125,0.70849609375,-0.54931640625,0.1220703125,0.732421875,0.0164794921875,44.703369140625,-77.9864501953125
1760966369.3661592,-0.6943359375,-0.009765625,0.73046875,0.0,0.0,0.9765625,0.0274658203125,44.703369140625,-77.969970703125
1760966369.376272,-0.6943359375,-0.009765625,0.73046875,0.0,0.0,0.9765625,0.032958984375,44.703369140625,-77.9534912109375
1760966369.386255,-0.6943359375,-0.00048828125,0.728515625,-1.3427734375,0.1220703125,1.28173828125,0.032958984375,44.703369140625,-77.9315185546875
1760966369.3963988,-0.6943359375,-0.00048828125,0.728515625,-1.3427734375,0.1220703125,1.28173828125,0.0274658203125,44.703369140625,-77.9095458984375
1760966369.4062903,-0.6962890625,0.00341796875,0.72314453125,-3.35693359375,0.42724609375,1.64794921875,0.010986328125,44.7088623046875,-77.882080078125
1760966369.4163015,-0.6962890625,0.00341796875,0.72314453125,-3.35693359375,0.42724609375,1.64794921875,-0.0054931640625,44.7088623046875,-77.860107421875
1760966369.426323,-0.69140625,-0.0029296875,0.7314453125,-4.150390625,0.8544921875,1.89208984375,-0.0274658203125,44.71435546875,-77.8271484375
1760966369.4363647,-0.69140625,-0.0029296875,0.7314453125,-4.150390625,0.8544921875,1.89208984375,-0.0494384765625,44.7198486328125,-77.794189453125
1760966369.4463923,-0.68408203125,-0.00439453125,0.73779296875,-4.57763671875,1.15966796875,2.0751953125,-0.076904296875,44.7308349609375,-77.76123046875
1760966369.4563875,-0.68408203125,-0.00439453125,0.73779296875,-4.57763671875,1.15966796875,2.0751953125,-0.1043701171875,44.736328125,-77.728271484375
1760966369.4664047,-0.6787109375,-0.0029296875,0.72607421875,-3.84521484375,1.3427734375,1.8310546875,-0.120849609375,44.7418212890625,-77.7008056640625
1760966369.4763167,-0.6787109375,-0.0029296875,0.72607421875,-3.84521484375,1.3427734375,1.8310546875,-0.142822265625,44.7528076171875,-77.6678466796875
1760966369.4863443,-0.6806640625,-0.0087890625,0.74169921875,-2.25830078125,1.220703125,1.5869140625,-0.1483154296875,44.75830078125,-77.6458740234375
1760966369.4963083,-0.6806640625,-0.0087890625,0.74169921875,-2.25830078125,1.220703125,1.5869140625,-0.1593017578125,44.7637939453125,-77.618408203125
1760966369.5097198,-0.68017578125,-0.0009765625,0.751953125,-1.953125,1.28173828125,1.220703125,-0.164794921875,44.769287109375,-77.596435546875
1760966369.5165677,-0.68017578125,-0.0009765625,0.751953125,-1.953125,1.28173828125,1.220703125,-0.17578125,44.7747802734375,-77.574462890625
1760966369.5267887,-0.68359375,0.001953125,0.72802734375,-1.52587890625,1.0986328125,0.8544921875,-0.1812744140625,44.7747802734375,-77.5579833984375
1760966369.5364342,-0.68359375,0.001953125,0.72802734375,-1.52587890625,1.0986328125,0.8544921875,-0.186767578125,44.7747802734375,-77.5360107421875
1760966369.5583212,-0.67529296875,-0.0068359375,0.73193359375,0.06103515625,0.54931640625,0.42724609375,-0.1812744140625,44.7747802734375,-77.5250244140625
1760966369.569524,-0.67529296875,-0.0068359375,0.73193359375,0.06103515625,0.54931640625,0.42724609375,-0.1812744140625,44.769287109375,-77.5140380859375
1760966369.5759838,-0.67041015625,-0.01025390625,0.74853515625,-0.8544921875,0.244140625,0.30517578125,-0.186767578125,44.75830078125,-77.508544921875
1760966369.582756,-0.67041015625,-0.01025390625,0.74853515625,-0.8544921875,0.244140625,0.30517578125,-0.1922607421875,44.7528076171875,-77.49755859375
1760966369.5972645,-0.6748046875,0.0,0.7607421875,-1.40380859375,0.0,0.42724609375,-0.2032470703125,44.7418212890625,-77.486572265625
1760966369.6043649,-0.6748046875,0.0,0.7607421875,-1.40380859375,0.0,0.42724609375,-0.2142333984375,44.7308349609375,-77.4755859375
1760966369.6123917,-0.67578125,-0.00537109375,0.7333984375,-0.48828125,-0.244140625,0.244140625,-0.2142333984375,44.71435546875,-77.464599609375
1760966369.6190898,-0.69189453125,-0.0029296875,0.71630859375,2.50244140625,-0.48828125,-0.06103515625,-0.2032470703125,44.6978759765625,-77.4591064453125
1760966369.628669,-0.69189453125,-0.0029296875,0.71630859375,2.50244140625,-0.48828125,-0.06103515625,-0.1812744140625,44.681396484375,-77.45361328125
1760966369.6385202,-0.69384765625,0.0009765625,0.72412109375,3.11279296875,-0.8544921875,-0.6103515625,-0.15380859375,44.6649169921875,-77.45361328125
1760966369.6475704,-0.69384765625,0.0009765625,0.72412109375,3.11279296875,-0.8544921875,-0.6103515625,-0.1318359375,44.6484375,-77.4591064453125
1760966369.657423,-0.70068359375,0.00390625,0.7412109375,-0.91552734375,-0.91552734375,-0.67138671875,-0.1263427734375,44.62646484375,-77.4591064453125
1760966369.6680348,-0.70068359375,0.00390625,0.7412109375,-0.91552734375,-0.91552734375,-0.67138671875,-0.142822265625,44.6099853515625,-77.464599609375
1760966369.6769035,-0.69970703125,0.00634765625,0.73779296875,-1.5869140625,-0.8544921875,-0.67138671875,-0.1593017578125,44.593505859375,-77.464599609375
1760966369.687233,-0.69970703125,0.00634765625,0.73779296875,-1.5869140625,-0.8544921875,-0.67138671875,-0.1812744140625,44.5770263671875,-77.464599609375
1760966369.697487,-0.7138671875,-0.015625,0.6796875,0.0,-0.91552734375,-0.9765625,-0.19775390625,44.560546875,-77.4700927734375
1760966369.7066987,-0.7138671875,-0.015625,0.6796875,0.0,-0.91552734375,-0.9765625,-0.208740234375,44.5440673828125,-77.4755859375
1760966369.716889,-0.73046875,-0.0048828125,0.67431640625,2.13623046875,-1.15966796875,-1.220703125,-0.208740234375,44.527587890625,-77.486572265625
1760966369.7272286,-0.73046875,-0.0048828125,0.67431640625,2.13623046875,-1.15966796875,-1.220703125,-0.19775390625,44.5166015625,-77.49755859375
1760966369.7366667,-0.712890625,-0.00830078125,0.71484375,2.25830078125,-1.28173828125,-1.46484375,-0.1922607421875,44.505615234375,-77.5140380859375
1760966369.7469978,-0.712890625,-0.00830078125,0.71484375,2.25830078125,-1.28173828125,-1.46484375,-0.1812744140625,44.4891357421875,-77.530517578125
1760966369.7570674,-0.70361328125,-0.001953125,0.7255859375,2.9296875,-0.91552734375,-1.220703125,-0.1702880859375,44.4781494140625,-77.5469970703125
1760966369.7669404,-0.70361328125,-0.001953125,0.7255859375,2.9296875,-0.91552734375,-1.220703125,-0.15380859375,44.47265625,-77.5579833984375
1760966369.7772932,-0.70751953125,-0.0087890625,0.72802734375,2.8076171875,-0.48828125,-1.0986328125,-0.1373291015625,44.461669921875,-77.574462890625
1760966369.7877812,-0.70751953125,-0.0087890625,0.72802734375,2.8076171875,-0.48828125,-1.0986328125,-0.120849609375,44.4561767578125,-77.58544921875
1760966369.7969255,-0.71630859375,-0.0029296875,0.734375,1.708984375,-0.06103515625,-0.91552734375,-0.10986328125,44.4561767578125,-77.596435546875
1760966369.80678,-0.71630859375,-0.0029296875,0.734375,1.708984375,-0.06103515625,-0.91552734375,-0.1043701171875,44.4561767578125,-77.6019287109375
1760966369.817596,-0.7548828125,0.00048828125,0.66845703125,2.38037109375,0.79345703125,-0.732421875,-0.0933837890625,44.4561767578125,-77.6129150390625
1760966369.8271341,-0.7548828125,0.00048828125,0.66845703125,2.38037109375,0.79345703125,-0.732421875,-0.076904296875,44.4671630859375,-77.618408203125
1760966369.8368716,-0.744140625,-0.01123046875,0.619140625,3.662109375,1.0986328125,-0.8544921875,-0.054931640625,44.483642578125,-77.62939453125
1760966369.8473194,-0.744140625,-0.01123046875,0.619140625,3.662109375,1.0986328125,-0.8544921875,-0.032958984375,44.5001220703125,-77.6348876953125
1760966369.858643,-0.7529296875,-0.00830078125,0.70849609375,3.84521484375,1.3427734375,-0.48828125,0.0,44.5220947265625,-77.6458740234375
1760966369.8678675,-0.7529296875,-0.00830078125,0.70849609375,3.84521484375,1.3427734375,-0.48828125,0.02197265625,44.5440673828125,-77.6513671875
1760966369.8785582,-0.74609375,0.01318359375,0.66357421875,1.220703125,1.64794921875,-0.48828125,0.0384521484375,44.571533203125,-77.6568603515625
1760966369.8874114,-0.74609375,0.01318359375,0.66357421875,1.220703125,1.64794921875,-0.48828125,0.0439453125,44.5989990234375,-77.662353515625
1760966369.8981683,-0.74853515625,0.0107421875,0.642578125,0.30517578125,1.46484375,-0.48828125,0.0494384765625,44.62646484375,-77.6678466796875
1760966369.9069355,-0.74853515625,0.0107421875,0.642578125,0.30517578125,1.46484375,-0.48828125,0.0439453125,44.6539306640625,-77.6678466796875
1760966369.9186566,-0.75537109375,0.00341796875,0.67822265625,-1.953125,1.5869140625,-0.3662109375,0.032958984375,44.681396484375,-77.67333984375
1760966369.9288864,-0.75537109375,0.00341796875,0.67822265625,-1.953125,1.5869140625,-0.3662109375,0.010986328125,44.71435546875,-77.67333984375
1760966369.9419425,-0.74072265625,-0.0107421875,0.68212890625,-0.18310546875,1.5869140625,-0.30517578125,0.0,44.747314453125,-77.6788330078125
1760966369.9500508,-0.74072265625,-0.0107421875,0.68212890625,-0.18310546875,1.5869140625,-0.30517578125,-0.0054931640625,44.7747802734375,-77.6788330078125
1760966369.9577587,-0.728515625,-0.01171875,0.6826171875,1.52587890625,1.52587890625,-0.3662109375,0.0,44.8077392578125,-77.6788330078125
1760966369.9718032,-0.728515625,-0.01171875,0.6826171875,1.52587890625,1.52587890625,-0.3662109375,0.0054931640625,44.835205078125,-77.684326171875
1760966369.994417,-0.7255859375,0.0048828125,0.68994140625,1.220703125,1.77001953125,-0.18310546875,0.010986328125,44.8681640625,-77.6898193359375
1760966370.0035133,-0.7255859375,0.0048828125,0.68994140625,1.220703125,1.77001953125,-0.18310546875,0.02197265625,44.8956298828125,-77.6898193359375
1760966370.012611,-0.71826171875,0.005859375,0.70947265625,-0.54931640625,2.0751953125,0.0,0.02197265625,44.9285888671875,-77.6898193359375
1760966370.0261352,-0.71826171875,0.005859375,0.70947265625,-0.54931640625,2.0751953125,0.0,0.0164794921875,44.9615478515625,-77.684326171875
1760966370.0341773,-0.70849609375,-0.01123046875,0.720703125,-1.46484375,2.44140625,0.3662109375,0.010986328125,44.9945068359375,-77.6788330078125
1760966370.0444212,-0.70849609375,-0.01123046875,0.720703125,-1.46484375,2.44140625,0.3662109375,0.0,45.0274658203125,-77.67333984375
1760966370.057935,-0.703125,-0.01123046875,0.7265625,-1.5869140625,2.50244140625,0.67138671875,-0.010986328125,45.0604248046875,-77.662353515625
1760966370.0665987,-0.703125,-0.01123046875,0.7265625,-1.5869140625,2.50244140625,0.67138671875,-0.02197265625,45.0933837890625,-77.6513671875
1760966370.0797832,-0.69677734375,-0.0029296875,0.71240234375,-1.953125,2.50244140625,0.91552734375,-0.032958984375,45.120849609375,-77.640380859375
1760966370.090047,-0.69677734375,-0.0029296875,0.71240234375,-1.953125,2.50244140625,0.91552734375,-0.0439453125,45.1483154296875,-77.6239013671875
1760966370.101728,-0.70068359375,0.00830078125,0.7158203125,-2.3193359375,2.13623046875,0.9765625,-0.054931640625,45.17578125,-77.607421875
1760966370.1104531,-0.70068359375,0.00830078125,0.7158203125,-2.3193359375,2.13623046875,0.9765625,-0.0714111328125,45.19775390625,-77.5909423828125
1760966370.1267726,-0.69775390625,-0.00732421875,0.72900390625,-2.99072265625,1.77001953125,0.91552734375,-0.087890625,45.2197265625,-77.574462890625
1760966370.135399,-0.69775390625,-0.00732421875,0.72900390625,-2.99072265625,1.77001953125,0.91552734375,-0.10986328125,45.2362060546875,-77.5579833984375
1760966370.1427798,-0.70166015625,-0.00390625,0.70166015625,-2.0751953125,1.3427734375,0.91552734375,-0.1263427734375,45.252685546875,-77.54150390625
1760966370.1513667,-0.70166015625,-0.00390625,0.70166015625,-2.0751953125,1.3427734375,0.91552734375,-0.1373291015625,45.263671875,-77.5250244140625
1760966370.1696312,-0.70654296875,-0.00244140625,0.71484375,-1.89208984375,0.79345703125,0.79345703125,-0.1483154296875,45.274658203125,-77.508544921875
1760966370.1801577,-0.70654296875,-0.00244140625,0.71484375,-1.89208984375,0.79345703125,0.79345703125,-0.1593017578125,45.2801513671875,-77.4920654296875
1760966370.1881936,-0.7119140625,0.005859375,0.69775390625,-3.173828125,0.54931640625,0.67138671875,-0.1812744140625,45.28564453125,-77.4755859375
1760966370.1950912,-0.7119140625,0.005859375,0.69775390625,-3.173828125,0.54931640625,0.67138671875,-0.2032470703125,45.28564453125,-77.464599609375
1760966370.2022083,-0.70849609375,0.00048828125,0.72314453125,-1.89208984375,0.1220703125,0.48828125,-0.2197265625,45.2911376953125,-77.45361328125
1760966370.209785,-0.70849609375,0.00048828125,0.72314453125,-1.89208984375,0.1220703125,0.48828125,-0.2362060546875,45.2911376953125,-77.4371337890625
1760966370.2176948,-0.720703125,-0.009765625,0.6953125,-2.197265625,0.3662109375,0.3662109375,-0.252685546875,45.2911376953125,-77.4261474609375
1760966370.2266963,-0.720703125,-0.009765625,0.6953125,-2.197265625,0.3662109375,0.3662109375,-0.2691650390625,45.2911376953125,-77.4151611328125
1760966370.2339807,-0.720703125,-0.00732421875,0.6875,-0.42724609375,0.244140625,0.06103515625,-0.2801513671875,45.296630859375,-77.40966796875
1760966370.2443647,-0.720703125,-0.00732421875,0.6875,-0.42724609375,0.244140625,0.06103515625,-0.2801513671875,45.296630859375,-77.4041748046875
1760966370.2547095,-0.712890625,-0.00634765625,0.72119140625,0.42724609375,0.48828125,-0.1220703125,-0.2801513671875,45.3021240234375,-77.398681640625
1760966370.2613256,-0.712890625,-0.00634765625,0.72119140625,0.42724609375,0.48828125,-0.1220703125,-0.2801513671875,45.3076171875,-77.398681640625
1760966370.2697613,-0.70703125,0.00146484375,0.7138671875,0.48828125,0.42724609375,-0.18310546875,-0.274658203125,45.3131103515625,-77.3931884765625
1760966370.276764,-0.70703125,0.00146484375,0.7138671875,0.48828125,0.42724609375,-0.18310546875,-0.274658203125,45.3131103515625,-77.3931884765625
1760966370.2843785,-0.7158203125,0.0029296875,0.70458984375,-0.67138671875,0.18310546875,-0.244140625,-0.274658203125,45.318603515625,-77.3931884765625
1760966370.2917066,-0.7158203125,0.0029296875,0.70458984375,-0.67138671875,0.18310546875,-0.244140625,-0.28564453125,45.318603515625,-77.3876953125
1760966370.2994206,-0.7197265625,-0.0029296875,0.69140625,-0.732421875,-0.18310546875,-0.54931640625,-0.296630859375,45.318603515625,-77.3876953125
1760966370.307217,-0.7197265625,-0.0029296875,0.69140625,-0.732421875,-0.18310546875,-0.54931640625,-0.3076171875,45.3131103515625,-77.3931884765625
1760966370.3188453,-0.72216796875,-0.00830078125,0.6904296875,1.220703125,-0.42724609375,-0.732421875,-0.3076171875,45.3131103515625,-77.3931884765625
1760966370.327714,-0.72216796875,-0.00830078125,0.6904296875,1.220703125,-0.42724609375,-0.732421875,-0.3076171875,45.3076171875,-77.398681640625
1760966370.3375041,-0.71533203125,-0.00244140625,0.69580078125,1.708984375,-0.42724609375,-1.03759765625,-0.296630859375,45.3076171875,-77.40966796875
1760966370.3479497,-0.71533203125,-0.00244140625,0.69580078125,1.708984375,-0.42724609375,-1.03759765625,-0.2911376953125,45.3021240234375,-77.4151611328125
1760966370.3579702,-0.71484375,-0.0029296875,0.71240234375,0.48828125,-0.18310546875,-0.91552734375,-0.2911376953125,45.3021240234375,-77.4261474609375
1760966370.384721,-0.71484375,-0.0029296875,0.71240234375,0.48828125,-0.18310546875,-0.91552734375,-0.296630859375,45.3021240234375,-77.431640625
1760966370.4031472,-0.71484375,-0.0029296875,0.71240234375,-1.220703125,-0.1220703125,-0.79345703125,-0.3076171875,45.3021240234375,-77.442626953125
1760966370.4106596,-0.70556640625,-0.00927734375,0.72802734375,-1.220703125,-0.1220703125,-0.79345703125,-0.32958984375,45.3021240234375,-77.4481201171875
1760966370.4269419,-0.70654296875,-0.0068359375,0.71435546875,-0.48828125,-0.244140625,-0.8544921875,-0.3460693359375,45.296630859375,-77.45361328125
1760966370.4415848,-0.70654296875,-0.0068359375,0.71435546875,-0.48828125,-0.244140625,-0.8544921875,-0.3570556640625,45.296630859375,-77.464599609375
1760966370.4524138,-0.71044921875,-0.0029296875,0.69677734375,1.03759765625,-0.06103515625,-1.03759765625,-0.362548828125,45.2911376953125,-77.4700927734375
1760966370.4643965,-0.71044921875,-0.0029296875,0.69677734375,1.03759765625,-0.06103515625,-1.03759765625,-0.362548828125,45.2911376953125,-77.4810791015625
1760966370.4835448,-0.716796875,0.00830078125,0.72314453125,0.0,-0.1220703125,-1.28173828125,-0.3680419921875,45.2911376953125,-77.4920654296875
1760966370.490036,-0.716796875,0.00830078125,0.72314453125,0.0,-0.1220703125,-1.28173828125,-0.384521484375,45.28564453125,-77.5030517578125
1760966370.5180066,-0.7158203125,0.00390625,0.69873046875,-1.220703125,0.244140625,-1.5869140625,-0.4010009765625,45.28564453125,-77.51953125
1760966370.5254807,-0.7158203125,0.00390625,0.69873046875,-1.220703125,0.244140625,-1.5869140625,-0.428466796875,45.2911376953125,-77.530517578125
1760966370.5324244,-0.7119140625,-0.00341796875,0.6962890625,-2.685546875,0.54931640625,-1.77001953125,-0.46142578125,45.2911376953125,-77.5469970703125
1760966370.5398748,-0.7119140625,-0.00341796875,0.6962890625,-2.685546875,0.54931640625,-1.77001953125,-0.50537109375,45.296630859375,-77.5634765625
1760966370.5477426,-0.71923828125,-0.01416015625,0.71923828125,-1.03759765625,0.6103515625,-2.3193359375,-0.5438232421875,45.3021240234375,-77.58544921875
1760966370.554723,-0.71923828125,-0.01416015625,0.71923828125,-1.03759765625,0.6103515625,-2.3193359375,-0.5712890625,45.3076171875,-77.6129150390625
1760966370.5619514,-0.70556640625,-0.00634765625,0.7158203125,0.8544921875,0.48828125,-2.74658203125,-0.5987548828125,45.3131103515625,-77.640380859375
1760966370.568544,-0.70556640625,-0.00634765625,0.7158203125,0.8544921875,0.48828125,-2.74658203125,-0.615234375,45.318603515625,-77.67333984375
1760966370.5764973,-0.73486328125,0.00341796875,0.673828125,3.173828125,0.79345703125,-3.173828125,-0.626220703125,45.3240966796875,-77.706298828125
1760966370.5841594,-0.73486328125,0.00341796875,0.673828125,3.173828125,0.79345703125,-3.173828125,-0.6207275390625,45.32958984375,-77.7447509765625
1760966370.5951824,-0.7490234375,0.00048828125,0.66357421875,1.64794921875,1.28173828125,-3.41796875,-0.6317138671875,45.340576171875,-77.783203125
1760966370.606736,-0.7490234375,0.00048828125,0.66357421875,1.64794921875,1.28173828125,-3.41796875,-0.6427001953125,45.3570556640625,-77.8216552734375
1760966370.6144562,-0.7470703125,-0.017578125,0.66845703125,0.67138671875,1.89208984375,-3.47900390625,-0.6646728515625,45.3790283203125,-77.860107421875
1760966370.6220694,-0.7470703125,-0.017578125,0.66845703125,0.67138671875,1.89208984375,-3.47900390625,-0.692138671875,45.4010009765625,-77.904052734375
1760966370.6289794,-0.734375,-0.0087890625,0.68115234375,0.48828125,1.8310546875,-3.41796875,-0.7196044921875,45.428466796875,-77.947998046875
1760966370.6454525,-0.734375,-0.0087890625,0.68115234375,0.48828125,1.8310546875,-3.41796875,-0.7470703125,45.450439453125,-77.991943359375
1760966370.6530159,-0.72216796875,-0.009765625,0.69140625,-0.18310546875,1.8310546875,-3.47900390625,-0.780029296875,45.4779052734375,-78.0303955078125
1760966370.66188,-0.72216796875,-0.009765625,0.69140625,-0.18310546875,1.8310546875,-3.47900390625,-0.8184814453125,45.4998779296875,-78.0743408203125
1760966370.670493,-0.73388671875,-0.02099609375,0.70263671875,-0.3662109375,1.5869140625,-3.23486328125,-0.8514404296875,45.5218505859375,-78.1182861328125
1760966370.6776428,-0.73388671875,-0.02099609375,0.70263671875,-0.3662109375,1.5869140625,-3.23486328125,-0.889892578125,45.5438232421875,-78.15673828125
1760966370.6849248,-0.7353515625,-0.0146484375,0.66015625,-1.03759765625,1.46484375,-2.86865234375,-0.9283447265625,45.5657958984375,-78.189697265625
1760966370.6943977,-0.7353515625,-0.0146484375,0.66015625,-1.03759765625,1.46484375,-2.86865234375,-0.966796875,45.582275390625,-78.2281494140625
1760966370.702279,-0.73828125,-0.0224609375,0.69580078125,-0.30517578125,1.64794921875,-2.62451171875,-0.9942626953125,45.6097412109375,-78.2611083984375
1760966370.7096314,-0.73828125,-0.0224609375,0.69580078125,-0.30517578125,1.64794921875,-2.62451171875,-1.0272216796875,45.6317138671875,-78.2940673828125
1760966370.7174013,-0.7333984375,-0.0283203125,0.6904296875,0.18310546875,2.197265625,-2.25830078125,-1.0491943359375,45.6591796875,-78.321533203125
1760966370.724247,-0.7333984375,-0.0283203125,0.6904296875,0.18310546875,2.197265625,-2.25830078125,-1.0711669921875,45.6866455078125,-78.3489990234375
1760966370.7315836,-0.72998046875,-0.01513671875,0.68310546875,0.54931640625,2.38037109375,-2.13623046875,-1.087646484375,45.714111328125,-78.37646484375
1760966370.74051,-0.72998046875,-0.01513671875,0.68310546875,0.54931640625,2.38037109375,-2.13623046875,-1.109619140625,45.7470703125,-78.4039306640625
1760966370.7490008,-0.7333984375,-0.01171875,0.68701171875,0.42724609375,2.8076171875,-2.25830078125,-1.1260986328125,45.780029296875,-78.431396484375
1760966370.7564406,-0.7333984375,-0.01171875,0.68701171875,0.42724609375,2.8076171875,-2.25830078125,-1.1480712890625,45.81298828125,-78.4588623046875
1760966370.7679608,-0.73193359375,-0.01318359375,0.69091796875,0.0,2.99072265625,-2.3193359375,-1.175537109375,45.845947265625,-78.4918212890625
1760966370.7763453,-0.73193359375,-0.01318359375,0.69091796875,0.0,2.99072265625,-2.3193359375,-1.197509765625,45.8843994140625,-78.519287109375
1760966370.7841094,-0.73876953125,-0.013671875,0.68505859375,0.6103515625,2.99072265625,-2.62451171875,-1.219482421875,45.9173583984375,-78.55224609375
1760966370.7928078,-0.73876953125,-0.013671875,0.68505859375,0.6103515625,2.99072265625,-2.62451171875,-1.241455078125,45.9503173828125,-78.5797119140625
1760966370.8019505,-0.73193359375,-0.01806640625,0.66943359375,1.708984375,3.0517578125,-3.173828125,-1.2579345703125,45.98876953125,-78.6236572265625
1760966370.8095763,-0.73193359375,-0.01806640625,0.66943359375,1.708984375,3.0517578125,-3.173828125,-1.2744140625,46.021728515625,-78.662109375
1760966370.8183892,-0.74462890625,-0.01123046875,0.69189453125,1.46484375,3.173828125,-3.72314453125,-1.29638671875,46.0601806640625,-78.7115478515625
1760966370.829155,-0.74462890625,-0.01123046875,0.69189453125,1.46484375,3.173828125,-3.72314453125,-1.3238525390625,46.0986328125,-78.7554931640625
1760966370.8488336,-0.7353515625,-0.00927734375,0.66357421875,0.8544921875,3.23486328125,-4.5166015625,-1.3623046875,46.131591796875,-78.81591796875
1760966370.8561976,-0.7353515625,-0.00927734375,0.66357421875,0.8544921875,3.23486328125,-4.5166015625,-1.395263671875,46.1700439453125,-78.8763427734375
1760966370.8632834,-0.74853515625,-0.0029296875,0.6826171875,0.9765625,3.173828125,-5.06591796875,-1.439208984375,46.20849609375,-78.936767578125
1760966370.8743973,-0.74853515625,-0.0029296875,0.6826171875,0.9765625,3.173828125,-5.06591796875,-1.483154296875,46.241455078125,-79.002685546875
1760966370.8846092,-0.74560546875,-0.01123046875,0.666015625,-0.06103515625,3.11279296875,-5.4931640625,-1.5380859375,46.2799072265625,-79.0740966796875
1760966370.8915212,-0.74560546875,-0.01123046875,0.666015625,-0.06103515625,3.11279296875,-5.4931640625,-1.593017578125,46.318359375,-79.1455078125
1760966370.8985703,-0.751953125,-0.03515625,0.6689453125,2.5634765625,3.2958984375,-5.859375,-1.6259765625,46.351318359375,-79.222412109375
1760966370.91964,-0.751953125,-0.03515625,0.6689453125,2.5634765625,3.2958984375,-5.859375,-1.658935546875,46.3897705078125,-79.29931640625
1760966370.9404986,-0.740234375,-0.03369140625,0.69140625,3.60107421875,3.662109375,-5.7373046875,-1.6864013671875,46.4337158203125,-79.376220703125
1760966370.9799626,-0.740234375,-0.03369140625,0.69140625,3.60107421875,3.662109375,-5.7373046875,-1.7083740234375,46.4776611328125,-79.453125
1760966371.0083046,-0.744140625,-0.017578125,0.67529296875,3.7841796875,3.84521484375,-5.55419921875,-1.7303466796875,46.51611328125,-79.5245361328125
1760966371.032033,-0.744140625,-0.017578125,0.67529296875,3.7841796875,3.84521484375,-5.55419921875,-1.7523193359375,46.56005859375,-79.6014404296875
1760966371.0388794,-0.7412109375,-0.01171875,0.6611328125,2.50244140625,3.84521484375,-5.43212890625,-1.7852783203125,46.60400390625,-79.6673583984375
1760966371.0586655,-0.7412109375,-0.01171875,0.6611328125,2.50244140625,3.84521484375,-5.43212890625,-1.8182373046875,46.64794921875,-79.73876953125
1760966371.076519,-0.736328125,-0.03173828125,0.6865234375,2.44140625,4.21142578125,-5.2490234375,-1.845703125,46.69189453125,-79.8101806640625
1760966371.0843875,-0.736328125,-0.03173828125,0.6865234375,2.44140625,4.21142578125,-5.2490234375,-1.878662109375,46.73583984375,-79.8760986328125
1760966371.1062906,-0.73681640625,-0.03759765625,0.6865234375,0.0,4.5166015625,-4.7607421875,-1.9281005859375,46.7852783203125,-79.9420166015625
1760966371.1169295,-0.73681640625,-0.03759765625,0.6865234375,0.0,4.5166015625,-4.7607421875,-1.9830322265625,46.834716796875,-80.00244140625
1760966371.1380825,-0.7412109375,-0.02978515625,0.673828125,-1.64794921875,4.82177734375,-4.33349609375,-2.0489501953125,46.8841552734375,-80.0628662109375
1760966371.1461,-0.7412109375,-0.02978515625,0.673828125,-1.64794921875,4.82177734375,-4.33349609375,-2.109375,46.93359375,-80.1177978515625
1760966371.1655142,-0.736328125,-0.03955078125,0.69287109375,0.9765625,4.7607421875,-4.150390625,-2.1478271484375,46.9830322265625,-80.1727294921875
1760966371.172465,-0.736328125,-0.03955078125,0.69287109375,0.9765625,4.7607421875,-4.150390625,-2.186279296875,47.0269775390625,-80.2276611328125
1760966371.188704,-0.73046875,-0.0341796875,0.6796875,3.2958984375,4.5166015625,-4.21142578125,-2.2027587890625,47.076416015625,-80.2880859375
1760966371.204649,-0.73046875,-0.0341796875,0.6796875,3.2958984375,4.5166015625,-4.21142578125,-2.2137451171875,47.120361328125,-80.343017578125
1760966371.216898,-0.71630859375,-0.02685546875,0.6884765625,4.57763671875,4.08935546875,-4.39453125,-2.21923828125,47.1588134765625,-80.4034423828125
1760966371.226583,-0.71630859375,-0.02685546875,0.6884765625,4.57763671875,4.08935546875,-4.39453125,-2.2247314453125,47.197265625,-80.4583740234375
1760966371.2441883,-0.71337890625,-0.03515625,0.7158203125,3.41796875,3.662109375,-4.0283203125,-2.2357177734375,47.230224609375,-80.5133056640625
1760966371.2608988,-0.71337890625,-0.03515625,0.7158203125,3.41796875,3.662109375,-4.0283203125,-2.2467041015625,47.26318359375,-80.5682373046875
1760966371.280468,-0.70849609375,-0.02880859375,0.6962890625,0.48828125,2.8076171875,-3.5400390625,-2.28515625,47.28515625,-80.6121826171875
1760966371.2954366,-0.70849609375,-0.02880859375,0.6962890625,0.48828125,2.8076171875,-3.5400390625,-2.318115234375,47.30712890625,-80.6561279296875
1760966371.3136423,-0.7177734375,-0.02587890625,0.69970703125,-0.6103515625,2.197265625,-3.23486328125,-2.362060546875,47.318115234375,-80.694580078125
1760966371.3261456,-0.7177734375,-0.02587890625,0.69970703125,-0.6103515625,2.197265625,-3.23486328125,-2.406005859375,47.3345947265625,-80.7330322265625
1760966371.3338077,-0.716796875,-0.03662109375,0.7265625,0.42724609375,1.77001953125,-3.11279296875,-2.4334716796875,47.3455810546875,-80.771484375
1760966371.3474102,-0.716796875,-0.03662109375,0.7265625,0.42724609375,1.77001953125,-3.11279296875,-2.4664306640625,47.35107421875,-80.804443359375
1760966371.3681712,-0.7177734375,-0.037109375,0.69482421875,0.8544921875,1.5869140625,-2.99072265625,-2.4884033203125,47.3565673828125,-80.8428955078125
1760966371.3762045,-0.7177734375,-0.037109375,0.69482421875,0.8544921875,1.5869140625,-2.99072265625,-2.515869140625,47.3675537109375,-80.8758544921875
1760966371.3868272,-0.72998046875,-0.03125,0.67919921875,2.01416015625,1.220703125,-3.11279296875,-2.52685546875,47.3675537109375,-80.9088134765625
1760966371.404031,-0.72998046875,-0.03125,0.67919921875,2.01416015625,1.220703125,-3.11279296875,-2.5433349609375,47.373046875,-80.947265625
1760966371.4124062,-0.7255859375,-0.0380859375,0.68896484375,3.0517578125,0.732421875,-3.41796875,-2.548828125,47.3675537109375,-80.9857177734375
1760966371.4342213,-0.7255859375,-0.0380859375,0.68896484375,3.0517578125,0.732421875,-3.41796875,-2.5543212890625,47.3675537109375,-81.0296630859375
1760966371.4528384,-0.7255859375,-0.04833984375,0.67236328125,3.2958984375,0.06103515625,-3.41796875,-2.559814453125,47.362060546875,-81.068115234375
1760966371.4701407,-0.7255859375,-0.04833984375,0.67236328125,3.2958984375,0.06103515625,-3.41796875,-2.57080078125,47.3565673828125,-81.112060546875
1760966371.4771807,-0.73388671875,-0.02294921875,0.67138671875,4.2724609375,-0.79345703125,-3.23486328125,-2.559814453125,47.340087890625,-81.1505126953125
1760966371.4927552,-0.73388671875,-0.02294921875,0.67138671875,4.2724609375,-0.79345703125,-3.23486328125,-2.5543212890625,47.3236083984375,-81.18896484375
1760966371.5052936,-0.7099609375,-0.02783203125,0.70947265625,1.40380859375,-1.03759765625,-2.8076171875,-2.57080078125,47.30712890625,-81.2164306640625
1760966371.51456,-0.7099609375,-0.02783203125,0.70947265625,1.40380859375,-1.03759765625,-2.8076171875,-2.5872802734375,47.2906494140625,-81.2493896484375
1760966371.5301285,-0.7060546875,-0.0341796875,0.74169921875,-0.30517578125,-1.220703125,-2.5634765625,-2.6202392578125,47.2686767578125,-81.27685546875
1760966371.5506248,-0.7060546875,-0.0341796875,0.74169921875,-0.30517578125,-1.220703125,-2.5634765625,-2.647705078125,47.2467041015625,-81.298828125
1760966371.5601761,-0.705078125,-0.0390625,0.71826171875,-2.44140625,-1.28173828125,-2.197265625,-2.6971435546875,47.2247314453125,-81.32080078125
1760966371.5775614,-0.705078125,-0.0390625,0.71826171875,-2.44140625,-1.28173828125,-2.197265625,-2.74658203125,47.2027587890625,-81.3427734375
1760966371.5870535,-0.705078125,-0.0390625,0.71826171875,-2.5634765625,-1.03759765625,-1.64794921875,-2.7850341796875,47.1807861328125,-81.353759765625
1760966371.6047094,-0.73046875,-0.03564453125,0.662109375,-2.5634765625,-1.03759765625,-1.64794921875,-2.8289794921875,47.164306640625,-81.36474609375
1760966371.6142645,-0.71142578125,-0.03515625,0.736328125,-3.2958984375,-1.52587890625,-1.28173828125,-2.8729248046875,47.1368408203125,-81.3702392578125
1760966371.628764,-0.71142578125,-0.03515625,0.736328125,-3.2958984375,-1.52587890625,-1.28173828125,-2.9168701171875,47.1148681640625,-81.3812255859375
1760966371.6396174,-0.72998046875,-0.04150390625,0.70068359375,-4.2724609375,-1.0986328125,-0.67138671875,-2.96630859375,47.0928955078125,-81.375732421875
1760966371.6603732,-0.72998046875,-0.04150390625,0.70068359375,-4.2724609375,-1.0986328125,-0.67138671875,-3.0157470703125,47.0709228515625,-81.375732421875
1760966371.6686141,-0.736328125,-0.0458984375,0.6630859375,-3.0517578125,-1.46484375,-0.48828125,-3.0487060546875,47.0489501953125,-81.3702392578125
1760966371.675409,-0.736328125,-0.0458984375,0.6630859375,-3.0517578125,-1.46484375,-0.48828125,-3.087158203125,47.032470703125,-81.36474609375
1760966371.685015,-0.7666015625,-0.04345703125,0.669921875,-1.708984375,-1.708984375,-0.54931640625,-3.109130859375,47.010498046875,-81.36474609375
1760966371.6999478,-0.7666015625,-0.04345703125,0.669921875,-1.708984375,-1.708984375,-0.54931640625,-3.131103515625,46.988525390625,-81.3592529296875
1760966371.7193239,-0.78515625,-0.0400390625,0.5888671875,-3.96728515625,-1.40380859375,-0.54931640625,-3.175048828125,46.9720458984375,-81.3592529296875
1760966371.7287405,-0.78515625,-0.0400390625,0.5888671875,-3.96728515625,-1.40380859375,-0.54931640625,-3.218994140625,46.966552734375,-81.3592529296875
1760966371.7362442,-0.80078125,-0.060546875,0.58935546875,-3.7841796875,-1.3427734375,-0.42724609375,-3.262939453125,46.95556640625,-81.3592529296875
1760966371.750419,-0.80078125,-0.060546875,0.58935546875,-3.7841796875,-1.3427734375,-0.42724609375,-3.306884765625,46.95556640625,-81.3592529296875
1760966371.7676132,-0.78173828125,-0.04443359375,0.63916015625,-7.87353515625,-2.01416015625,0.18310546875,-3.3837890625,46.944580078125,-81.3482666015625
1760966371.784248,-0.78173828125,-0.04443359375,0.63916015625,-7.87353515625,-2.01416015625,0.18310546875,-3.460693359375,46.9390869140625,-81.3372802734375
1760966371.7992342,-0.759765625,-0.02880859375,0.63818359375,-8.85009765625,-2.25830078125,0.48828125,-3.548583984375,46.93359375,-81.3262939453125
1760966371.8076718,-0.759765625,-0.02880859375,0.63818359375,-8.85009765625,-2.25830078125,0.48828125,-3.62548828125,46.922607421875,-81.309814453125
1760966371.8305416,-0.771484375,-0.0625,0.6787109375,-6.77490234375,-2.62451171875,0.8544921875,-3.6859130859375,46.91162109375,-81.287841796875
1760966371.8422205,-0.771484375,-0.0625,0.6787109375,-6.77490234375,-2.62451171875,0.8544921875,-3.7408447265625,46.900634765625,-81.2713623046875
1760966371.8603618,-0.75830078125,-0.07373046875,0.6328125,-4.33349609375,-2.5634765625,0.91552734375,-3.7738037109375,46.8896484375,-81.2493896484375
1760966371.8683958,-0.75830078125,-0.07373046875,0.6328125,-4.33349609375,-2.5634765625,0.91552734375,-3.812255859375,46.878662109375,-81.23291015625
1760966371.8863618,-0.771484375,-0.0654296875,0.6328125,0.42724609375,-2.01416015625,0.9765625,-3.80126953125,46.8731689453125,-81.2164306640625
1760966371.8953295,-0.771484375,-0.0654296875,0.6328125,0.42724609375,-2.01416015625,0.9765625,-3.790283203125,46.8731689453125,-81.199951171875
1760966371.9121933,-0.7529296875,-0.0517578125,0.6767578125,2.13623046875,-1.708984375,1.15966796875,-3.75732421875,46.86767578125,-81.177978515625
1760966371.925289,-0.7529296875,-0.0517578125,0.6767578125,2.13623046875,-1.708984375,1.15966796875,-3.7298583984375,46.86767578125,-81.1614990234375
1760966371.9336162,-0.75146484375,-0.03466796875,0.67529296875,0.54931640625,-1.15966796875,1.46484375,-3.71337890625,46.8731689453125,-81.1395263671875
1760966371.9471781,-0.75146484375,-0.03466796875,0.67529296875,0.54931640625,-1.15966796875,1.46484375,-3.69140625,46.8731689453125,-81.112060546875
1760966371.9701173,-0.75390625,-0.03515625,0.66162109375,0.244140625,-0.48828125,1.5869140625,-3.6749267578125,46.8841552734375,-81.0845947265625
1760966371.9961295,-0.74609375,-0.06298828125,0.6669921875,-0.06103515625,0.0,1.77001953125,-3.658447265625,46.8951416015625,-81.05712890625
1760966372.0221472,-0.74609375,-0.06298828125,0.6669921875,-0.06103515625,0.0,1.77001953125,-3.6474609375,46.9061279296875,-81.0296630859375
1760966372.0410602,-0.724609375,-0.05517578125,0.69091796875,0.91552734375,-0.1220703125,1.64794921875,-3.62548828125,46.9171142578125,-81.002197265625
1760966372.049664,-0.724609375,-0.05517578125,0.69091796875,0.91552734375,-0.1220703125,1.64794921875,-3.603515625,46.9281005859375,-80.9747314453125
1760966372.0570211,-0.70751953125,-0.03173828125,0.71337890625,2.9296875,-0.79345703125,1.220703125,-3.5760498046875,46.93359375,-80.9527587890625
1760966372.063514,-0.70751953125,-0.03173828125,0.71337890625,2.9296875,-0.79345703125,1.220703125,-3.53759765625,46.9281005859375,-80.9307861328125
1760966372.0713434,-0.71728515625,-0.021484375,0.69091796875,0.42724609375,-1.3427734375,1.03759765625,-3.5101318359375,46.922607421875,-80.9088134765625
1760966372.0777912,-0.71728515625,-0.021484375,0.69091796875,0.42724609375,-1.3427734375,1.03759765625,-3.49365234375,46.9171142578125,-80.8868408203125
1760966372.084428,-0.72607421875,-0.02880859375,0.69091796875,-3.47900390625,-1.8310546875,0.91552734375,-3.4991455078125,46.900634765625,-80.8648681640625
1760966372.0907786,-0.72607421875,-0.02880859375,0.69091796875,-3.47900390625,-1.8310546875,0.91552734375,-3.5211181640625,46.8896484375,-80.8428955078125
1760966372.0988243,-0.724609375,-0.0498046875,0.681640625,-5.43212890625,-1.708984375,0.8544921875,-3.5540771484375,46.8731689453125,-80.8154296875
1760966372.1054976,-0.724609375,-0.0498046875,0.681640625,-5.43212890625,-1.708984375,0.8544921875,-3.5980224609375,46.856689453125,-80.79345703125
1760966372.1142683,-0.7216796875,-0.060546875,0.708984375,-2.197265625,-1.708984375,0.8544921875,-3.62548828125,46.8402099609375,-80.7769775390625
1760966372.1213272,-0.7216796875,-0.060546875,0.708984375,-2.197265625,-1.708984375,0.8544921875,-3.636474609375,46.82373046875,-80.7550048828125
1760966372.12896,-0.7080078125,-0.06494140625,0.6953125,0.42724609375,-1.89208984375,1.0986328125,-3.636474609375,46.8072509765625,-80.7330322265625
1760966372.1361756,-0.7080078125,-0.06494140625,0.6953125,0.42724609375,-1.89208984375,1.0986328125,-3.6199951171875,46.790771484375,-80.7110595703125
1760966372.1438,-0.71826171875,-0.046875,0.69091796875,2.99072265625,-2.197265625,1.5869140625,-3.592529296875,46.768798828125,-80.68359375
1760966372.151308,-0.71826171875,-0.046875,0.69091796875,2.99072265625,-2.197265625,1.5869140625,-3.548583984375,46.746826171875,-80.6561279296875
1760966372.162689,-0.7255859375,-0.05517578125,0.70556640625,2.9296875,-2.01416015625,2.44140625,-3.4991455078125,46.724853515625,-80.6231689453125
1760966372.1749427,-0.7255859375,-0.05517578125,0.70556640625,2.9296875,-2.01416015625,2.44140625,-3.4442138671875,46.702880859375,-80.5792236328125
1760966372.183059,-0.724609375,-0.0595703125,0.693359375,3.90625,-1.3427734375,3.23486328125,-3.3837890625,46.6864013671875,-80.5352783203125
1760966372.1990306,-0.724609375,-0.0595703125,0.693359375,3.90625,-1.3427734375,3.23486328125,-3.3123779296875,46.669921875,-80.48583984375
1760966372.2073498,-0.71875,-0.0517578125,0.69873046875,5.43212890625,-0.79345703125,3.662109375,-3.2354736328125,46.658935546875,-80.430908203125
1760966372.2137563,-0.71875,-0.0517578125,0.69873046875,5.43212890625,-0.79345703125,3.662109375,-3.153076171875,46.6534423828125,-80.3814697265625
1760966372.220027,-0.70654296875,-0.03662109375,0.71435546875,4.82177734375,-0.8544921875,3.72314453125,-3.065185546875,46.6424560546875,-80.3265380859375
1760966372.2350762,-0.70654296875,-0.03662109375,0.71435546875,4.82177734375,-0.8544921875,3.72314453125,-2.9827880859375,46.6314697265625,-80.26611328125
1760966372.2411356,-0.71142578125,-0.0234375,0.70751953125,3.7841796875,-1.28173828125,3.60107421875,-2.911376953125,46.6204833984375,-80.211181640625
1760966372.2498188,-0.71142578125,-0.0234375,0.70751953125,3.7841796875,-1.28173828125,3.60107421875,-2.8399658203125,46.60400390625,-80.15625
1760966372.256703,-0.697265625,-0.03173828125,0.70947265625,2.44140625,-2.197265625,3.2958984375,-2.7740478515625,46.58203125,-80.101318359375
1760966372.2635639,-0.697265625,-0.03173828125,0.70947265625,2.44140625,-2.197265625,3.2958984375,-2.7191162109375,46.5545654296875,-80.0518798828125
1760966372.2704957,-0.71240234375,-0.03369140625,0.71435546875,1.64794921875,-2.685546875,3.11279296875,-2.669677734375,46.527099609375,-79.9969482421875
1760966372.2931223,-0.71240234375,-0.03369140625,0.71435546875,1.64794921875,-2.685546875,3.11279296875,-2.6202392578125,46.494140625,-79.947509765625
1760966372.2996888,-0.70751953125,-0.01953125,0.69677734375,-0.1220703125,-3.23486328125,2.8076171875,-2.581787109375,46.461181640625,-79.8980712890625
1760966372.307898,-0.70751953125,-0.01953125,0.69677734375,-0.1220703125,-3.23486328125,2.8076171875,-2.559814453125,46.4227294921875,-79.8541259765625
1760966372.3160672,-0.71337890625,-0.0126953125,0.70751953125,-2.86865234375,-3.41796875,2.685546875,-2.5433349609375,46.38427734375,-79.8046875
1760966372.341553,-0.71337890625,-0.0126953125,0.70751953125,-2.86865234375,-3.41796875,2.685546875,-2.5433349609375,46.3458251953125,-79.7607421875
1760966372.3588934,-0.7236328125,-0.03125,0.70263671875,-4.08935546875,-3.23486328125,2.685546875,-2.548828125,46.307373046875,-79.7113037109375
1760966372.3652086,-0.7236328125,-0.03125,0.70263671875,-4.08935546875,-3.23486328125,2.685546875,-2.559814453125,46.2744140625,-79.661865234375
1760966372.3728719,-0.73681640625,-0.03271484375,0.68408203125,-3.60107421875,-2.9296875,2.74658203125,-2.57080078125,46.2359619140625,-79.617919921875
1760966372.3797572,-0.73681640625,-0.03271484375,0.68408203125,-3.60107421875,-2.9296875,2.74658203125,-2.5762939453125,46.20849609375,-79.5684814453125
1760966372.3933706,-0.74609375,-0.0302734375,0.6796875,-4.21142578125,-2.38037109375,2.74658203125,-2.5872802734375,46.1810302734375,-79.5245361328125
1760966372.4003396,-0.74609375,-0.0302734375,0.6796875,-4.21142578125,-2.38037109375,2.74658203125,-2.5982666015625,46.153564453125,-79.47509765625
1760966372.406806,-0.74267578125,-0.0283203125,0.67626953125,-5.37109375,-2.13623046875,3.0517578125,-2.61474609375,46.131591796875,-79.43115234375
1760966372.4134803,-0.74267578125,-0.0283203125,0.67626953125,-5.37109375,-2.13623046875,3.0517578125,-2.63671875,46.1151123046875,-79.3817138671875
1760966372.4213333,-0.73681640625,-0.0380859375,0.681640625,-7.080078125,-1.89208984375,3.0517578125,-2.6641845703125,46.0986328125,-79.3267822265625
1760966372.4288986,-0.73681640625,-0.0380859375,0.681640625,-7.080078125,-1.89208984375,3.0517578125,-2.70263671875,46.0821533203125,-79.27734375
1760966372.4365947,-0.74755859375,-0.03125,0.65185546875,-5.2490234375,-1.77001953125,2.9296875,-2.7301025390625,46.0711669921875,-79.2333984375
1760966372.4483297,-0.74755859375,-0.03125,0.65185546875,-5.2490234375,-1.77001953125,2.9296875,-2.7520751953125,46.0601806640625,-79.1839599609375
1760966372.463746,-0.7626953125,-0.04541015625,0.6806640625,0.0,-1.8310546875,2.5634765625,-2.7520751953125,46.0491943359375,-79.1400146484375
1760966372.4725494,-0.7626953125,-0.04541015625,0.6806640625,0.0,-1.8310546875,2.5634765625,-2.724609375,46.0382080078125,-79.0960693359375
1760966372.4807246,-0.7646484375,-0.04345703125,0.646484375,2.99072265625,-1.40380859375,1.89208984375,-2.6861572265625,46.0272216796875,-79.0631103515625
1760966372.5010207,-0.7646484375,-0.04345703125,0.646484375,2.99072265625,-1.40380859375,1.89208984375,-2.63671875,46.0272216796875,-79.03564453125
1760966372.5080936,-0.77587890625,-0.021484375,0.63330078125,5.79833984375,-1.0986328125,1.46484375,-2.5762939453125,46.021728515625,-79.0081787109375
1760966372.5154483,-0.77587890625,-0.021484375,0.63330078125,5.79833984375,-1.0986328125,1.46484375,-2.5048828125,46.0272216796875,-78.9862060546875
1760966372.5222726,-0.7802734375,-0.01904296875,0.6357421875,4.638671875,-0.8544921875,1.28173828125,-2.4444580078125,46.0272216796875,-78.9642333984375
1760966372.5297837,-0.7802734375,-0.01904296875,0.6357421875,4.638671875,-0.8544921875,1.28173828125,-2.384033203125,46.0382080078125,-78.9422607421875
1760966372.5433562,-0.77294921875,-0.017578125,0.6494140625,0.91552734375,-0.79345703125,1.3427734375,-2.3455810546875,46.043701171875,-78.92578125
1760966372.5500956,-0.77294921875,-0.017578125,0.6494140625,0.91552734375,-0.79345703125,1.3427734375,-2.3236083984375,46.0546875,-78.90380859375
1760966372.556729,-0.76318359375,-0.0302734375,0.63818359375,-0.3662109375,-0.8544921875,1.5869140625,-2.30712890625,46.065673828125,-78.8763427734375
1760966372.5629737,-0.76318359375,-0.0302734375,0.63818359375,-0.3662109375,-0.8544921875,1.5869140625,-2.296142578125,46.07666015625,-78.8543701171875
1760966372.5711007,-0.76318359375,-0.0400390625,0.65576171875,0.42724609375,-0.8544921875,1.89208984375,-2.274169921875,46.087646484375,-78.826904296875
1760966372.5852957,-0.76318359375,-0.0400390625,0.65576171875,0.42724609375,-0.8544921875,1.89208984375,-2.252197265625,46.0986328125,-78.7994384765625
1760966372.5929163,-0.759765625,-0.03857421875,0.65966796875,0.6103515625,-0.244140625,2.25830078125,-2.230224609375,46.109619140625,-78.77197265625
1760966372.6006649,-0.759765625,-0.03857421875,0.65966796875,0.6103515625,-0.244140625,2.25830078125,-2.2027587890625,46.1260986328125,-78.739013671875
1760966372.6085188,-0.74609375,-0.03173828125,0.66796875,-0.6103515625,0.244140625,2.86865234375,-2.1807861328125,46.1480712890625,-78.7060546875
1760966372.6155076,-0.74609375,-0.03173828125,0.66796875,-0.6103515625,0.244140625,2.86865234375,-2.1588134765625,46.16455078125,-78.6676025390625
1760966372.6308339,-0.73876953125,-0.02880859375,0.70263671875,-1.46484375,0.42724609375,3.5400390625,-2.142333984375,46.1865234375,-78.6236572265625
1760966372.6412818,-0.73876953125,-0.02880859375,0.70263671875,-1.46484375,0.42724609375,3.5400390625,-2.120361328125,46.20849609375,-78.5797119140625
1760966372.648729,-0.73486328125,-0.0244140625,0.67431640625,-3.0517578125,0.732421875,4.08935546875,-2.109375,46.23046875,-78.5247802734375
1760966372.655812,-0.73486328125,-0.0244140625,0.67431640625,-3.0517578125,0.732421875,4.08935546875,-2.098388671875,46.25244140625,-78.4698486328125
1760966372.6639879,-0.73193359375,-0.0341796875,0.671875,-2.86865234375,0.79345703125,4.45556640625,-2.08740234375,46.2689208984375,-78.409423828125
1760966372.676283,-0.73193359375,-0.0341796875,0.671875,-2.86865234375,0.79345703125,4.45556640625,-2.076416015625,46.2908935546875,-78.3489990234375
1760966372.6832404,-0.728515625,-0.029296875,0.71826171875,-2.0751953125,0.8544921875,4.638671875,-2.054443359375,46.3128662109375,-78.28857421875
1760966372.690044,-0.728515625,-0.029296875,0.71826171875,-2.0751953125,0.8544921875,4.638671875,-2.032470703125,46.329345703125,-78.22265625
1760966372.6968913,-0.71533203125,-0.01513671875,0.693359375,-2.86865234375,0.91552734375,4.5166015625,-2.010498046875,46.351318359375,-78.15673828125
1760966372.7036438,-0.71533203125,-0.01513671875,0.693359375,-2.86865234375,0.91552734375,4.5166015625,-1.9940185546875,46.3677978515625,-78.0963134765625
1760966372.7187781,-0.72607421875,-0.01953125,0.68798828125,-3.173828125,0.79345703125,4.5166015625,-1.9775390625,46.38427734375,-78.0303955078125
1760966372.7281582,-0.72607421875,-0.01953125,0.68798828125,-3.173828125,0.79345703125,4.5166015625,-1.966552734375,46.395263671875,-77.9644775390625
1760966372.7362742,-0.720703125,-0.02490234375,0.7021484375,-3.7841796875,0.732421875,4.5166015625,-1.95556640625,46.4117431640625,-77.8985595703125
1760966372.7435777,-0.720703125,-0.02490234375,0.7021484375,-3.7841796875,0.732421875,4.5166015625,-1.9500732421875,46.4227294921875,-77.8326416015625
1760966372.7510636,-0.71923828125,-0.02294921875,0.7158203125,-2.197265625,0.42724609375,4.2724609375,-1.93359375,46.4337158203125,-77.772216796875
1760966372.7686079,-0.71923828125,-0.02294921875,0.7158203125,-2.197265625,0.42724609375,4.2724609375,-1.91162109375,46.439208984375,-77.706298828125
1760966372.7764413,-0.71533203125,-0.013671875,0.68212890625,-1.8310546875,0.48828125,3.7841796875,-1.8896484375,46.4447021484375,-77.6458740234375
1760966372.7845454,-0.71533203125,-0.013671875,0.68212890625,-1.8310546875,0.48828125,3.7841796875,-1.86767578125,46.4501953125,-77.5909423828125
1760966372.7939146,-0.7197265625,-0.02392578125,0.7177734375,-0.67138671875,0.18310546875,3.60107421875,-1.845703125,46.4556884765625,-77.5360107421875
1760966372.8017895,-0.7197265625,-0.02392578125,0.7177734375,-0.67138671875,0.18310546875,3.60107421875,-1.812744140625,46.461181640625,-77.4810791015625
1760966372.8096926,-0.7119140625,-0.0205078125,0.69921875,-1.89208984375,0.18310546875,3.5400390625,-1.790771484375,46.461181640625,-77.431640625
1760966372.8261776,-0.7119140625,-0.0205078125,0.69921875,-1.89208984375,0.18310546875,3.5400390625,-1.7742919921875,46.461181640625,-77.376708984375
1760966372.8323927,-0.72021484375,-0.01806640625,0.70703125,-1.708984375,0.0,3.35693359375,-1.7523193359375,46.461181640625,-77.32177734375
1760966372.8387058,-0.72021484375,-0.01806640625,0.70703125,-1.708984375,0.0,3.35693359375,-1.73583984375,46.461181640625,-77.2723388671875
1760966372.853287,-0.7353515625,-0.01806640625,0.6806640625,-3.662109375,0.0,3.35693359375,-1.7303466796875,46.4556884765625,-77.222900390625
1760966372.8602927,-0.7353515625,-0.01806640625,0.6806640625,-3.662109375,0.0,3.35693359375,-1.7303466796875,46.4556884765625,-77.1734619140625
1760966372.8694322,-0.67333984375,-0.0302734375,0.67626953125,-2.13623046875,-0.732421875,3.173828125,-1.724853515625,46.4501953125,-77.1185302734375
1760966372.8762443,-0.67333984375,-0.0302734375,0.67626953125,-2.13623046875,-0.732421875,3.173828125,-1.7138671875,46.4447021484375,-77.0745849609375
1760966372.8847399,-0.7216796875,-0.03515625,0.82421875,-0.67138671875,-0.91552734375,3.5400390625,-1.69189453125,46.4337158203125,-77.0196533203125
1760966372.892821,-0.7216796875,-0.03515625,0.82421875,-0.67138671875,-0.91552734375,3.5400390625,-1.6644287109375,46.417236328125,-76.97021484375
1760966372.9010475,-0.68017578125,-0.01025390625,0.68212890625,-1.220703125,-1.5869140625,3.72314453125,-1.636962890625,46.4007568359375,-76.915283203125
1760966372.9178014,-0.68017578125,-0.01025390625,0.68212890625,-1.220703125,-1.5869140625,3.72314453125,-1.6094970703125,46.373291015625,-76.8603515625
1760966372.9300702,-0.68017578125,-0.01025390625,0.68212890625,-0.9765625,-1.89208984375,3.72314453125,-1.58203125,46.351318359375,-76.7999267578125
1760966372.940042,-0.69677734375,-0.0224609375,0.7138671875,-0.9765625,-1.89208984375,3.72314453125,-1.5545654296875,46.3238525390625,-76.7449951171875
1760966372.947318,-0.68017578125,-0.025390625,0.7529296875,-2.197265625,-2.50244140625,3.96728515625,-1.5380859375,46.2908935546875,-76.6845703125
1760966372.9728353,-0.68017578125,-0.025390625,0.7529296875,-2.197265625,-2.50244140625,3.96728515625,-1.51611328125,46.2579345703125,-76.6241455078125
1760966372.980153,-0.67578125,-0.0263671875,0.7529296875,-1.52587890625,-2.99072265625,3.7841796875,-1.494140625,46.2139892578125,-76.5692138671875
1760966372.9873626,-0.67578125,-0.0263671875,0.7529296875,-1.52587890625,-2.99072265625,3.7841796875,-1.47216796875,46.1700439453125,-76.5142822265625
1760966373.0005302,-0.68505859375,-0.00732421875,0.712890625,0.1220703125,-3.41796875,3.173828125,-1.439208984375,46.1260986328125,-76.46484375
1760966373.008233,-0.68505859375,-0.00732421875,0.712890625,0.1220703125,-3.41796875,3.173828125,-1.40625,46.07666015625,-76.4154052734375
1760966373.0158885,-0.7099609375,-0.0029296875,0.6845703125,-0.67138671875,-3.662109375,2.62451171875,-1.38427734375,46.03271484375,-76.376953125
1760966373.0248344,-0.7099609375,-0.0029296875,0.6845703125,-0.67138671875,-3.662109375,2.62451171875,-1.3623046875,45.9832763671875,-76.3330078125
1760966373.0322795,-0.72607421875,-0.0009765625,0.6904296875,0.18310546875,-4.08935546875,1.8310546875,-1.34033203125,45.933837890625,-76.300048828125
1760966373.040619,-0.72607421875,-0.0009765625,0.6904296875,0.18310546875,-4.08935546875,1.8310546875,-1.318359375,45.889892578125,-76.26708984375
1760966373.048427,-0.7421875,-0.01318359375,0.6748046875,-1.708984375,-3.84521484375,1.5869140625,-1.318359375,45.845947265625,-76.2396240234375
1760966373.066783,-0.7421875,-0.01318359375,0.6748046875,-1.708984375,-3.84521484375,1.5869140625,-1.318359375,45.802001953125,-76.212158203125
1760966373.07435,-0.75537109375,0.0068359375,0.64404296875,-3.662109375,-3.2958984375,1.3427734375,-1.3348388671875,45.76904296875,-76.190185546875
1760966373.0821917,-0.75537109375,0.0068359375,0.64404296875,-3.662109375,-3.2958984375,1.3427734375,-1.3568115234375,45.736083984375,-76.1627197265625
1760966373.090291,-0.75732421875,-0.0166015625,0.671875,-2.9296875,-3.2958984375,1.0986328125,-1.373291015625,45.7086181640625,-76.1407470703125
1760966373.0984685,-0.75732421875,-0.0166015625,0.671875,-2.9296875,-3.2958984375,1.0986328125,-1.38427734375,45.68115234375,-76.124267578125
1760966373.1160805,-0.75146484375,-0.0244140625,0.66552734375,-1.5869140625,-3.2958984375,0.91552734375,-1.3897705078125,45.6536865234375,-76.1077880859375
1760966373.1233664,-0.75146484375,-0.0244140625,0.66552734375,-1.5869140625,-3.2958984375,0.91552734375,-1.395263671875,45.626220703125,-76.09130859375
1760966373.1308265,-0.7490234375,-0.0185546875,0.65576171875,1.28173828125,-3.47900390625,0.67138671875,-1.373291015625,45.5987548828125,-76.080322265625
1760966373.137642,-0.7490234375,-0.0185546875,0.65576171875,1.28173828125,-3.47900390625,0.67138671875,-1.351318359375,45.5767822265625,-76.0638427734375
1760966373.1446133,-0.75439453125,-0.0078125,0.6708984375,-0.42724609375,-2.9296875,0.67138671875,-1.3458251953125,45.5548095703125,-76.0528564453125
1760966373.1591825,-0.75439453125,-0.0078125,0.6708984375,-0.42724609375,-2.9296875,0.67138671875,-1.34033203125,45.538330078125,-76.0418701171875
1760966373.1660264,-0.75146484375,-0.013671875,0.66748046875,-2.01416015625,-2.197265625,1.03759765625,-1.351318359375,45.52734375,-76.025390625
1760966373.1760674,-0.75146484375,-0.013671875,0.66748046875,-2.01416015625,-2.197265625,1.03759765625,-1.3568115234375,45.5218505859375,-76.014404296875
1760966373.1839235,-0.748046875,-0.0224609375,0.67041015625,-2.44140625,-1.46484375,1.220703125,-1.3677978515625,45.516357421875,-75.992431640625
1760966373.1924117,-0.748046875,-0.0224609375,0.67041015625,-2.44140625,-1.46484375,1.220703125,-1.3787841796875,45.516357421875,-75.9759521484375
1760966373.199575,-0.72705078125,-0.02880859375,0.68408203125,-0.9765625,-1.220703125,1.28173828125,-1.373291015625,45.516357421875,-75.95947265625
1760966373.2158701,-0.72705078125,-0.02880859375,0.68408203125,-0.9765625,-1.220703125,1.28173828125,-1.373291015625,45.516357421875,-75.9429931640625
1760966373.2246192,-0.708984375,-0.02587890625,0.71435546875,0.67138671875,-1.03759765625,1.28173828125,-1.351318359375,45.516357421875,-75.926513671875
1760966373.2319078,-0.708984375,-0.02587890625,0.71435546875,0.67138671875,-1.03759765625,1.28173828125,-1.3348388671875,45.516357421875,-75.9100341796875
1760966373.2386727,-0.7001953125,-0.01611328125,0.75390625,1.52587890625,-0.48828125,1.40380859375,-1.307373046875,45.5218505859375,-75.8880615234375
1760966373.248091,-0.7001953125,-0.01611328125,0.75390625,1.52587890625,-0.48828125,1.40380859375,-1.2799072265625,45.5218505859375,-75.87158203125
1760966373.2648072,-0.69091796875,-0.013671875,0.73583984375,1.03759765625,0.06103515625,1.46484375,-1.25244140625,45.5218505859375,-75.849609375
1760966373.2717228,-0.69091796875,-0.013671875,0.73583984375,1.03759765625,0.06103515625,1.46484375,-1.23046875,45.52734375,-75.82763671875
1760966373.2800064,-0.68310546875,-0.009765625,0.69921875,-0.79345703125,0.06103515625,1.15966796875,-1.2249755859375,45.52734375,-75.8111572265625
1760966373.2863173,-0.68310546875,-0.009765625,0.69921875,-0.79345703125,0.06103515625,1.15966796875,-1.2249755859375,45.52734375,-75.794677734375
1760966373.2928286,-0.68994140625,0.00634765625,0.72705078125,-1.52587890625,-0.3662109375,0.9765625,-1.23046875,45.5218505859375,-75.7781982421875
1760966373.299943,-0.68994140625,0.00634765625,0.72705078125,-1.52587890625,-0.3662109375,0.9765625,-1.23046875,45.516357421875,-75.76171875
1760966373.314207,-0.6904296875,-0.0205078125,0.7373046875,-0.8544921875,-0.3662109375,0.3662109375,-1.2359619140625,45.5108642578125,-75.7562255859375
1760966373.3208923,-0.6904296875,-0.0205078125,0.7373046875,-0.8544921875,-0.3662109375,0.3662109375,-1.241455078125,45.4998779296875,-75.7452392578125
1760966373.3283174,-0.70263671875,-0.0146484375,0.75,0.1220703125,-0.30517578125,0.06103515625,-1.2359619140625,45.494384765625,-75.7452392578125
1760966373.3369236,-0.70263671875,-0.0146484375,0.75,0.1220703125,-0.30517578125,0.06103515625,-1.2359619140625,45.4833984375,-75.73974609375
1760966373.3529522,-0.712890625,-0.00244140625,0.70654296875,-0.18310546875,0.06103515625,-0.42724609375,-1.241455078125,45.4779052734375,-75.73974609375
1760966373.3609767,-0.712890625,-0.00244140625,0.70654296875,-0.18310546875,0.06103515625,-0.42724609375,-1.241455078125,45.472412109375,-75.7452392578125
1760966373.3695233,-0.73193359375,-0.00048828125,0.705078125,-2.86865234375,0.30517578125,-0.6103515625,-1.2744140625,45.472412109375,-75.750732421875
1760966373.3762324,-0.73193359375,-0.00048828125,0.705078125,-2.86865234375,0.30517578125,-0.6103515625,-1.307373046875,45.472412109375,-75.750732421875
1760966373.3848248,-0.744140625,-0.0263671875,0.64990234375,-3.7841796875,0.732421875,-0.732421875,-1.351318359375,45.472412109375,-75.7562255859375
1760966373.4013937,-0.744140625,-0.0263671875,0.64990234375,-3.7841796875,0.732421875,-0.732421875,-1.395263671875,45.4833984375,-75.7672119140625
1760966373.4090405,-0.751953125,-0.02587890625,0.6767578125,-1.64794921875,0.79345703125,-1.15966796875,-1.4227294921875,45.4888916015625,-75.7781982421875
1760966373.4155092,-0.751953125,-0.02587890625,0.6767578125,-1.64794921875,0.79345703125,-1.15966796875,-1.4501953125,45.4998779296875,-75.794677734375
1760966373.4227695,-0.7568359375,-0.02294921875,0.67138671875,-0.9765625,1.46484375,-1.708984375,-1.47216796875,45.5218505859375,-75.8221435546875
1760966373.4290557,-0.7568359375,-0.02294921875,0.67138671875,-0.9765625,1.46484375,-1.708984375,-1.4996337890625,45.538330078125,-75.8441162109375
1760966373.4431055,-0.7705078125,-0.017578125,0.6533203125,2.197265625,2.0751953125,-1.8310546875,-1.4996337890625,45.5657958984375,-75.87158203125
1760966373.4500713,-0.7705078125,-0.017578125,0.6533203125,2.197265625,2.0751953125,-1.8310546875,-1.494140625,45.59326171875,-75.8990478515625
1760966373.4574392,-0.7939453125,-0.01806640625,0.60888671875,2.99072265625,3.0517578125,-2.01416015625,-1.483154296875,45.63720703125,-75.926513671875
1760966373.471971,-0.7939453125,-0.01806640625,0.60888671875,2.99072265625,3.0517578125,-2.01416015625,-1.4776611328125,45.68115234375,-75.95947265625
1760966373.4841232,-0.7939453125,-0.01513671875,0.62939453125,3.2958984375,3.84521484375,-2.197265625,-1.4666748046875,45.736083984375,-75.992431640625
1760966373.500423,-0.7939453125,-0.01513671875,0.62939453125,3.2958984375,3.84521484375,-2.197265625,-1.4556884765625,45.791015625,-76.025390625
1760966373.5073056,-0.78466796875,-0.02294921875,0.64111328125,3.96728515625,5.37109375,-2.25830078125,-1.4447021484375,45.8624267578125,-76.0638427734375
1760966373.5154228,-0.78466796875,-0.02294921875,0.64111328125,3.96728515625,5.37109375,-2.25830078125,-1.42822265625,45.933837890625,-76.0968017578125
1760966373.526882,-0.7646484375,-0.0185546875,0.66162109375,4.2724609375,7.01904296875,-2.13623046875,-1.4117431640625,46.021728515625,-76.1297607421875
1760966373.5439086,-0.7646484375,-0.0185546875,0.66162109375,4.2724609375,7.01904296875,-2.13623046875,-1.3897705078125,46.109619140625,-76.168212890625
1760966373.5588024,-0.7421875,-0.01123046875,0.6943359375,3.7841796875,8.30078125,-2.13623046875,-1.3787841796875,46.20849609375,-76.201171875
1760966373.5773447,-0.7421875,-0.01123046875,0.6943359375,3.7841796875,8.30078125,-2.13623046875,-1.3677978515625,46.307373046875,-76.234130859375
1760966373.5838776,-0.72802734375,-0.00146484375,0.6982421875,2.3193359375,8.60595703125,-2.3193359375,-1.3677978515625,46.4007568359375,-76.2725830078125
1760966373.5938807,-0.72802734375,-0.00146484375,0.6982421875,2.3193359375,8.60595703125,-2.3193359375,-1.373291015625,46.4996337890625,-76.3055419921875
1760966373.6096377,-0.72607421875,-0.01416015625,0.66259765625,1.8310546875,7.9345703125,-2.50244140625,-1.3787841796875,46.5875244140625,-76.343994140625
1760966373.622475,-0.72607421875,-0.01416015625,0.66259765625,1.8310546875,7.9345703125,-2.50244140625,-1.3897705078125,46.6754150390625,-76.376953125
1760966373.642275,-0.73486328125,-0.02978515625,0.6640625,0.91552734375,6.8359375,-2.38037109375,-1.40625,46.7523193359375,-76.4154052734375
1760966373.6610284,-0.73486328125,-0.02978515625,0.6640625,0.91552734375,6.8359375,-2.38037109375,-1.4227294921875,46.8292236328125,-76.4483642578125
1760966373.670868,-0.734375,-0.0302734375,0.68896484375,0.06103515625,5.7373046875,-1.953125,-1.4501953125,46.8896484375,-76.4813232421875
1760966373.6797001,-0.734375,-0.0302734375,0.68896484375,0.06103515625,5.7373046875,-1.953125,-1.47216796875,46.95556640625,-76.5087890625
1760966373.6923645,-0.73583984375,-0.0166015625,0.68017578125,0.67138671875,4.8828125,-1.77001953125,-1.483154296875,47.0050048828125,-76.5362548828125
1760966373.706836,-0.73583984375,-0.0166015625,0.68017578125,0.67138671875,4.8828125,-1.77001953125,-1.4996337890625,47.0599365234375,-76.563720703125
1760966373.7197046,-0.73681640625,-0.01171875,0.658203125,1.28173828125,4.08935546875,-1.77001953125,-1.505126953125,47.1038818359375,-76.5911865234375
1760966373.726465,-0.73681640625,-0.01171875,0.658203125,1.28173828125,4.08935546875,-1.77001953125,-1.51611328125,47.1478271484375,-76.6131591796875
1760966373.7375524,-0.7373046875,-0.0185546875,0.67822265625,0.48828125,3.5400390625,-1.64794921875,-1.527099609375,47.186279296875,-76.640625
1760966373.7440612,-0.7373046875,-0.0185546875,0.67822265625,0.48828125,3.5400390625,-1.64794921875,-1.5435791015625,47.2247314453125,-76.66259765625
1760966373.764437,-0.73388671875,-0.01708984375,0.6884765625,-0.6103515625,3.5400390625,-1.64794921875,-1.5655517578125,47.26318359375,-76.6845703125
1760966373.7814023,-0.73388671875,-0.01708984375,0.6884765625,-0.6103515625,3.5400390625,-1.64794921875,-1.593017578125,47.296142578125,-76.70654296875
1760966373.7890906,-0.72607421875,-0.01708984375,0.69091796875,-0.67138671875,3.5400390625,-1.708984375,-1.614990234375,47.3345947265625,-76.728515625
1760966373.799406,-0.72607421875,-0.01708984375,0.69091796875,-0.67138671875,3.5400390625,-1.708984375,-1.6424560546875,47.3675537109375,-76.75048828125
1760966373.8079796,-0.71630859375,-0.0224609375,0.69775390625,0.06103515625,3.23486328125,-1.77001953125,-1.658935546875,47.4005126953125,-76.7724609375
1760966373.8171036,-0.71630859375,-0.0224609375,0.69775390625,0.06103515625,3.23486328125,-1.77001953125,-1.680908203125,47.427978515625,-76.7999267578125
1760966373.825463,-0.7177734375,-0.0205078125,0.6962890625,0.1220703125,2.38037109375,-1.8310546875,-1.6973876953125,47.449951171875,-76.8218994140625
1760966373.837339,-0.7177734375,-0.0205078125,0.6962890625,0.1220703125,2.38037109375,-1.8310546875,-1.7138671875,47.471923828125,-76.8438720703125
1760966373.8451123,-0.72412109375,-0.01904296875,0.69189453125,0.48828125,1.8310546875,-1.77001953125,-1.7303466796875,47.48291015625,-76.8658447265625
1760966373.8516479,-0.72412109375,-0.01904296875,0.69189453125,0.48828125,1.8310546875,-1.77001953125,-1.746826171875,47.493896484375,-76.8878173828125
1760966373.859857,-0.71240234375,-0.037109375,0.70556640625,0.54931640625,1.52587890625,-1.40380859375,-1.7523193359375,47.5048828125,-76.904296875
1760966373.866626,-0.71240234375,-0.037109375,0.70556640625,0.54931640625,1.52587890625,-1.40380859375,-1.7633056640625,47.515869140625,-76.9207763671875
1760966373.8731554,-0.70166015625,-0.04931640625,0.7236328125,1.3427734375,1.46484375,-0.54931640625,-1.7578125,47.5213623046875,-76.92626953125
1760966373.8823717,-0.70166015625,-0.04931640625,0.7236328125,1.3427734375,1.46484375,-0.54931640625,-1.7523193359375,47.52685546875,-76.9317626953125
1760966373.891702,-0.703125,-0.02734375,0.71533203125,0.8544921875,0.91552734375,0.0,-1.7523193359375,47.52685546875,-76.9317626953125
1760966373.90074,-0.703125,-0.02734375,0.71533203125,0.8544921875,0.91552734375,0.0,-1.746826171875,47.52685546875,-76.92626953125
1760966373.9163632,-0.70458984375,-0.01953125,0.71435546875,0.06103515625,0.42724609375,0.48828125,-1.7413330078125,47.515869140625,-76.9207763671875
1760966373.926222,-0.70458984375,-0.01953125,0.71435546875,0.06103515625,0.42724609375,0.48828125,-1.73583984375,47.5103759765625,-76.9097900390625
1760966373.9334397,-0.72314453125,-0.02880859375,0.7001953125,0.6103515625,-0.30517578125,0.8544921875,-1.724853515625,47.493896484375,-76.893310546875
1760966373.9414666,-0.72900390625,-0.021484375,0.681640625,3.23486328125,-0.8544921875,0.54931640625,-1.6973876953125,47.4774169921875,-76.8768310546875
1760966373.9566827,-0.72900390625,-0.021484375,0.681640625,3.23486328125,-0.8544921875,0.54931640625,-1.6644287109375,47.4609375,-76.8658447265625
1760966373.9666116,-0.73974609375,-0.025390625,0.677734375,7.080078125,-0.91552734375,0.18310546875,-1.6094970703125,47.4444580078125,-76.8603515625
1760966373.973569,-0.73974609375,-0.025390625,0.677734375,7.080078125,-0.91552734375,0.18310546875,-1.5435791015625,47.4224853515625,-76.8548583984375
1760966373.982898,-0.75390625,-0.00146484375,0.65625,7.6904296875,-1.220703125,-0.244140625,-1.47216796875,47.406005859375,-76.8548583984375
1760966373.9906657,-0.75390625,-0.00146484375,0.65625,7.6904296875,-1.220703125,-0.244140625,-1.4007568359375,47.3895263671875,-76.8548583984375
1760966374.0083704,-0.7685546875,0.013671875,0.650390625,3.84521484375,-1.52587890625,-0.732421875,-1.3458251953125,47.373046875,-76.8548583984375
1760966374.0150394,-0.7685546875,0.013671875,0.650390625,3.84521484375,-1.52587890625,-0.732421875,-1.318359375,47.35107421875,-76.8603515625
1760966374.0218742,-0.7666015625,-0.01171875,0.63427734375,1.0986328125,-1.52587890625,-0.9765625,-1.3018798828125,47.340087890625,-76.871337890625
1760966374.0289488,-0.7666015625,-0.01171875,0.63427734375,1.0986328125,-1.52587890625,-0.9765625,-1.3018798828125,47.3236083984375,-76.8768310546875
1760966374.0363147,-0.75927734375,-0.0322265625,0.6552734375,3.11279296875,-1.40380859375,-1.5869140625,-1.2908935546875,47.3126220703125,-76.893310546875
1760966374.0516322,-0.75927734375,-0.0322265625,0.6552734375,3.11279296875,-1.40380859375,-1.5869140625,-1.2799072265625,47.3016357421875,-76.9097900390625
1760966374.0611835,-0.763671875,-0.02294921875,0.6630859375,4.33349609375,-0.91552734375,-1.89208984375,-1.263427734375,47.296142578125,-76.937255859375
1760966374.0759506,-0.763671875,-0.02294921875,0.6630859375,4.33349609375,-0.91552734375,-1.89208984375,-1.241455078125,47.2906494140625,-76.959228515625
1760966374.0961595,-0.7392578125,0.0,0.67529296875,4.638671875,-1.0986328125,-1.8310546875,-1.2139892578125,47.28515625,-76.9866943359375
1760966374.1053221,-0.7392578125,0.0,0.67529296875,4.638671875,-1.0986328125,-1.8310546875,-1.1920166015625,47.2796630859375,-77.0086669921875
1760966374.1143756,-0.7236328125,-0.0146484375,0.67822265625,2.197265625,-0.79345703125,-1.40380859375,-1.175537109375,47.274169921875,-77.0306396484375
1760966374.1206267,-0.7236328125,-0.0146484375,0.67822265625,2.197265625,-0.79345703125,-1.40380859375,-1.1700439453125,47.2686767578125,-77.047119140625
1760966374.1311648,-0.72509765625,-0.009765625,0.7197265625,0.3662109375,-0.79345703125,-1.03759765625,-1.1700439453125,47.2686767578125,-77.0635986328125
1760966374.1489484,-0.72509765625,-0.009765625,0.7197265625,0.3662109375,-0.79345703125,-1.03759765625,-1.175537109375,47.2576904296875,-77.0745849609375
1760966374.1559231,-0.72509765625,-0.00244140625,0.68603515625,-0.91552734375,-1.220703125,-1.0986328125,-1.1920166015625,47.252197265625,-77.0855712890625
1760966374.16329,-0.72509765625,-0.00244140625,0.68603515625,-0.91552734375,-1.220703125,-1.0986328125,-1.20849609375,47.2357177734375,-77.0965576171875
1760966374.1709213,-0.728515625,-0.01025390625,0.69873046875,0.8544921875,-1.5869140625,-1.52587890625,-1.2249755859375,47.2247314453125,-77.1075439453125
1760966374.1790733,-0.728515625,-0.01025390625,0.69873046875,0.8544921875,-1.5869140625,-1.52587890625,-1.23046875,47.208251953125,-77.1240234375
1760966374.1941779,-0.75537109375,-0.03466796875,0.69189453125,3.35693359375,-1.46484375,-1.5869140625,-1.2249755859375,47.1917724609375,-77.1405029296875
1760966374.2027545,-0.75537109375,-0.03466796875,0.69189453125,3.35693359375,-1.46484375,-1.5869140625,-1.20849609375,47.17529296875,-77.156982421875
1760966374.2120922,-0.77490234375,-0.0234375,0.59375,2.9296875,-0.9765625,-1.46484375,-1.1920166015625,47.164306640625,-77.178955078125
1760966374.2259243,-0.77490234375,-0.0234375,0.59375,2.9296875,-0.9765625,-1.46484375,-1.1810302734375,47.1588134765625,-77.200927734375
1760966374.2464702,-0.77783203125,-0.009765625,0.6318359375,2.685546875,-0.67138671875,-1.3427734375,-1.1700439453125,47.1533203125,-77.2174072265625
1760966374.2599711,-0.77783203125,-0.009765625,0.6318359375,2.685546875,-0.67138671875,-1.3427734375,-1.1590576171875,47.1533203125,-77.23388671875
1760966374.2666283,-0.77294921875,-0.00244140625,0.658203125,-0.6103515625,-0.244140625,-0.9765625,-1.1590576171875,47.1588134765625,-77.2503662109375
1760966374.2802935,-0.77294921875,-0.00244140625,0.658203125,-0.6103515625,-0.244140625,-0.9765625,-1.175537109375,47.164306640625,-77.2613525390625
1760966374.2893848,-0.7763671875,-0.005859375,0.6298828125,-1.3427734375,-0.1220703125,-0.91552734375,-1.197509765625,47.17529296875,-77.2723388671875
1760966374.2955155,-0.7763671875,-0.005859375,0.6298828125,-1.3427734375,-0.1220703125,-0.91552734375,-1.219482421875,47.186279296875,-77.2833251953125
1760966374.3020403,-0.76904296875,-0.02197265625,0.61962890625,-1.3427734375,-0.30517578125,-0.91552734375,-1.241455078125,47.1917724609375,-77.2943115234375
1760966374.3083832,-0.76904296875,-0.02197265625,0.61962890625,-1.3427734375,-0.30517578125,-0.91552734375,-1.263427734375,47.2027587890625,-77.3052978515625
1760966374.3229666,-0.7646484375,-0.02490234375,0.66552734375,-1.64794921875,-0.244140625,-0.79345703125,-1.2908935546875,47.2137451171875,-77.3162841796875
1760966374.3300748,-0.7646484375,-0.02490234375,0.66552734375,-1.64794921875,-0.244140625,-0.79345703125,-1.3128662109375,47.2247314453125,-77.3272705078125
1760966374.3395965,-0.74560546875,-0.02587890625,0.67236328125,-1.64794921875,-0.06103515625,-0.3662109375,-1.3348388671875,47.2357177734375,-77.332763671875
1760966374.349258,-0.74560546875,-0.02587890625,0.67236328125,-1.64794921875,-0.06103515625,-0.3662109375,-1.3568115234375,47.2467041015625,-77.3382568359375
1760966374.356636,-0.744140625,-0.02099609375,0.67578125,-0.732421875,-0.1220703125,-0.06103515625,-1.373291015625,47.2576904296875,-77.34375
1760966374.3737185,-0.744140625,-0.02099609375,0.67578125,-0.732421875,-0.1220703125,-0.06103515625,-1.38427734375,47.2686767578125,-77.34375
1760966374.385557,-0.73681640625,-0.01318359375,0.6728515625,-1.46484375,-0.18310546875,0.1220703125,-1.395263671875,47.274169921875,-77.34375
1760966374.3923347,-0.73681640625,-0.01318359375,0.6728515625,-1.46484375,-0.18310546875,0.1220703125,-1.40625,47.28515625,-77.3382568359375
1760966374.4009483,-0.74267578125,-0.02001953125,0.6826171875,-2.50244140625,-0.244140625,0.3662109375,-1.42822265625,47.2906494140625,-77.332763671875
1760966374.4075596,-0.74267578125,-0.02001953125,0.6826171875,-2.50244140625,-0.244140625,0.3662109375,-1.4501953125,47.296142578125,-77.3272705078125
1760966374.4211528,-0.736328125,-0.02294921875,0.68017578125,-1.77001953125,-0.30517578125,0.3662109375,-1.4666748046875,47.296142578125,-77.3162841796875
1760966374.42984,-0.736328125,-0.02294921875,0.68017578125,-1.77001953125,-0.30517578125,0.3662109375,-1.4776611328125,47.3016357421875,-77.310791015625
1760966374.4370503,-0.74462890625,-0.02783203125,0.67041015625,-0.42724609375,-0.30517578125,0.244140625,-1.4886474609375,47.3016357421875,-77.3052978515625
1760966374.4467807,-0.74462890625,-0.02783203125,0.67041015625,-0.42724609375,-0.30517578125,0.244140625,-1.4886474609375,47.30712890625,-77.2998046875
1760966374.4562092,-0.74365234375,-0.00732421875,0.671875,-0.30517578125,-0.48828125,0.18310546875,-1.494140625,47.30712890625,-77.2943115234375
1760966374.4683878,-0.74365234375,-0.00732421875,0.671875,-0.30517578125,-0.48828125,0.18310546875,-1.494140625,47.30712890625,-77.288818359375
1760966374.4751449,-0.74365234375,-0.00732421875,0.671875,0.0,-0.42724609375,0.06103515625,-1.494140625,47.30712890625,-77.2833251953125
1760966374.4852087,-0.74462890625,-0.01318359375,0.6787109375,0.0,-0.42724609375,0.06103515625,-1.494140625,47.30712890625,-77.27783203125
1760966374.4963925,-0.744140625,-0.017578125,0.669921875,-1.28173828125,-0.30517578125,0.0,-1.4996337890625,47.30712890625,-77.27783203125
1760966374.5029197,-0.744140625,-0.017578125,0.669921875,-1.28173828125,-0.30517578125,0.0,-1.51611328125,47.30712890625,-77.2723388671875
1760966374.5163965,-0.74267578125,-0.017578125,0.6669921875,-0.3662109375,-0.18310546875,-0.48828125,-1.5216064453125,47.3126220703125,-77.2723388671875
1760966374.53598,-0.74267578125,-0.017578125,0.6669921875,-0.3662109375,-0.18310546875,-0.48828125,-1.5325927734375,47.3126220703125,-77.27783203125
1760966374.542895,-0.74365234375,-0.01806640625,0.67138671875,-0.06103515625,-0.18310546875,-0.67138671875,-1.5380859375,47.318115234375,-77.2833251953125
1760966374.5626955,-0.74365234375,-0.01806640625,0.67138671875,-0.06103515625,-0.18310546875,-0.67138671875,-1.549072265625,47.318115234375,-77.288818359375
1760966374.5695214,-0.7412109375,-0.01806640625,0.68359375,1.15966796875,-0.18310546875,-0.9765625,-1.549072265625,47.318115234375,-77.2943115234375
1760966374.577064,-0.7412109375,-0.01806640625,0.68359375,1.15966796875,-0.18310546875,-0.9765625,-1.549072265625,47.3236083984375,-77.3052978515625
1760966374.5838242,-0.73974609375,-0.0166015625,0.67919921875,0.8544921875,-0.18310546875,-1.0986328125,-1.549072265625,47.3236083984375,-77.3162841796875
1760966374.5977154,-0.73974609375,-0.0166015625,0.67919921875,0.8544921875,-0.18310546875,-1.0986328125,-1.5545654296875,47.3236083984375,-77.3272705078125
1760966374.6166425,-0.73388671875,-0.0185546875,0.6865234375,0.79345703125,-0.1220703125,-1.0986328125,-1.5545654296875,47.3236083984375,-77.3382568359375
1760966374.6557758,-0.73388671875,-0.0185546875,0.6865234375,0.79345703125,-0.1220703125,-1.0986328125,-1.56005859375,47.3236083984375,-77.3492431640625
1760966374.669557,-0.7314453125,-0.01953125,0.6953125,1.03759765625,0.0,-1.03759765625,-1.56005859375,47.3236083984375,-77.3602294921875
1760966374.6860998,-0.7314453125,-0.01953125,0.6953125,1.03759765625,0.0,-1.03759765625,-1.56005859375,47.3236083984375,-77.3712158203125
1760966374.701171,-0.75048828125,-0.01513671875,0.669921875,0.79345703125,0.06103515625,-1.03759765625,-1.5655517578125,47.3291015625,-77.3822021484375
1760966374.7178447,-0.75048828125,-0.01513671875,0.669921875,0.79345703125,0.06103515625,-1.03759765625,-1.5655517578125,47.3291015625,-77.3931884765625
1760966374.733218,-0.73193359375,-0.01953125,0.654296875,2.13623046875,-0.244140625,-1.28173828125,-1.5655517578125,47.3291015625,-77.4041748046875
1760966374.752688,-0.73193359375,-0.01953125,0.654296875,2.13623046875,-0.244140625,-1.28173828125,-1.5545654296875,47.3291015625,-77.420654296875
1760966374.759188,-0.7353515625,-0.0224609375,0.71875,1.15966796875,-0.18310546875,-1.220703125,-1.5545654296875,47.3291015625,-77.4371337890625
1760966374.7667944,-0.7353515625,-0.0224609375,0.71875,1.15966796875,-0.18310546875,-1.220703125,-1.5545654296875,47.3236083984375,-77.4481201171875
1760966374.7744324,-0.7353515625,-0.0224609375,0.71875,1.0986328125,-0.3662109375,-1.220703125,-1.5545654296875,47.3236083984375,-77.464599609375
1760966374.7826862,-0.72900390625,-0.01611328125,0.67431640625,1.0986328125,-0.3662109375,-1.220703125,-1.56005859375,47.318115234375,-77.4755859375
1760966374.803306,-0.7314453125,-0.013671875,0.68115234375,1.28173828125,-0.91552734375,-1.28173828125,-1.56005859375,47.3126220703125,-77.4920654296875
1760966374.8132017,-0.7314453125,-0.013671875,0.68115234375,1.28173828125,-0.91552734375,-1.28173828125,-1.56005859375,47.3016357421875,-77.5030517578125
1760966374.8230848,-0.73486328125,-0.02294921875,0.68115234375,0.9765625,-1.15966796875,-1.28173828125,-1.56005859375,47.2906494140625,-77.51953125
1760966374.8351235,-0.73486328125,-0.02294921875,0.68115234375,0.9765625,-1.15966796875,-1.28173828125,-1.5655517578125,47.2796630859375,-77.530517578125
1760966374.8509645,-0.7353515625,-0.02783203125,0.6845703125,0.9765625,-1.3427734375,-1.15966796875,-1.571044921875,47.26318359375,-77.5469970703125
1760966374.8625903,-0.7353515625,-0.02783203125,0.6845703125,0.9765625,-1.3427734375,-1.15966796875,-1.571044921875,47.252197265625,-77.5579833984375
1760966374.871,-0.74658203125,-0.013671875,0.66015625,0.8544921875,-1.15966796875,-1.03759765625,-1.5765380859375,47.2357177734375,-77.5689697265625
1760966374.8790274,-0.74658203125,-0.013671875,0.66015625,0.8544921875,-1.15966796875,-1.03759765625,-1.5765380859375,47.2247314453125,-77.5799560546875
1760966374.8856921,-0.7470703125,-0.01904296875,0.673828125,0.3662109375,-1.220703125,-0.9765625,-1.58203125,47.2137451171875,-77.5909423828125
1760966374.8933637,-0.7470703125,-0.01904296875,0.673828125,0.3662109375,-1.220703125,-0.9765625,-1.5875244140625,47.2027587890625,-77.596435546875
1760966374.9095309,-0.7451171875,-0.037109375,0.6767578125,-0.91552734375,-1.0986328125,-0.79345703125,-1.5985107421875,47.1917724609375,-77.607421875
1760966374.9175987,-0.7451171875,-0.037109375,0.6767578125,-0.91552734375,-1.0986328125,-0.79345703125,-1.6204833984375,47.186279296875,-77.618408203125
1760966374.9246078,-0.74365234375,-0.0244140625,0.6611328125,1.03759765625,-1.0986328125,-0.6103515625,-1.6259765625,47.17529296875,-77.6239013671875
1760966374.9330432,-0.74365234375,-0.0244140625,0.6611328125,1.03759765625,-1.0986328125,-0.6103515625,-1.6259765625,47.1697998046875,-77.62939453125
1760966374.9488833,-0.748046875,-0.0087890625,0.671875,2.62451171875,-1.220703125,-0.8544921875,-1.614990234375,47.1588134765625,-77.640380859375
1760966374.956909,-0.748046875,-0.0087890625,0.671875,2.62451171875,-1.220703125,-0.8544921875,-1.5985107421875,47.1533203125,-77.6513671875
1760966374.9650657,-0.7509765625,-0.0087890625,0.66259765625,0.0,-1.03759765625,-0.8544921875,-1.5985107421875,47.142333984375,-77.6568603515625
1760966374.9734147,-0.7509765625,-0.0087890625,0.66259765625,0.0,-1.03759765625,-0.8544921875,-1.60400390625,47.1368408203125,-77.6678466796875
1760966374.984087,-0.748046875,-0.01611328125,0.66943359375,-1.0986328125,-0.9765625,-0.8544921875,-1.6204833984375,47.13134765625,-77.67333984375
1760966374.9952917,-0.748046875,-0.01611328125,0.66943359375,-1.0986328125,-0.9765625,-0.8544921875,-1.636962890625,47.1258544921875,-77.684326171875
1760966375.00545,-0.74267578125,-0.02880859375,0.6767578125,-0.67138671875,-0.79345703125,-0.8544921875,-1.6534423828125,47.120361328125,-77.6898193359375
1760966375.0130248,-0.74267578125,-0.02880859375,0.6767578125,-0.67138671875,-0.79345703125,-0.8544921875,-1.669921875,47.120361328125,-77.7008056640625
1760966375.0231822,-0.73681640625,-0.02734375,0.67724609375,0.67138671875,-0.6103515625,-0.79345703125,-1.669921875,47.1148681640625,-77.706298828125
1760966375.031125,-0.73681640625,-0.02734375,0.67724609375,0.67138671875,-0.6103515625,-0.79345703125,-1.6754150390625,47.1148681640625,-77.7117919921875
1760966375.0392728,-0.73046875,-0.01806640625,0.69482421875,0.9765625,-0.67138671875,-0.732421875,-1.6754150390625,47.109375,-77.7227783203125
1760966375.0470397,-0.73046875,-0.01806640625,0.69482421875,0.9765625,-0.67138671875,-0.732421875,-1.669921875,47.109375,-77.728271484375
1760966375.0549886,-0.720703125,-0.021484375,0.6962890625,0.6103515625,-0.79345703125,-0.6103515625,-1.669921875,47.1038818359375,-77.7337646484375
1760966375.063947,-0.720703125,-0.021484375,0.6962890625,0.6103515625,-0.79345703125,-0.6103515625,-1.669921875,47.0928955078125,-77.7392578125
1760966375.0732083,-0.7158203125,-0.02392578125,0.69921875,0.3662109375,-0.9765625,-0.54931640625,-1.6754150390625,47.08740234375,-77.7392578125
1760966375.0831265,-0.7158203125,-0.02392578125,0.69921875,0.3662109375,-0.9765625,-0.54931640625,-1.6754150390625,47.076416015625,-77.7447509765625
1760966375.0904765,-0.712890625,-0.0224609375,0.71337890625,-0.3662109375,-1.28173828125,-0.42724609375,-1.6864013671875,47.0599365234375,-77.7447509765625
1760966375.0983403,-0.712890625,-0.0224609375,0.71337890625,-0.3662109375,-1.28173828125,-0.42724609375,-1.69189453125,47.04345703125,-77.7447509765625
1760966375.1061053,-0.72021484375,-0.0205078125,0.703125,-0.48828125,-1.28173828125,-0.42724609375,-1.702880859375,47.0269775390625,-77.750244140625
1760966375.1128337,-0.72021484375,-0.0205078125,0.703125,-0.48828125,-1.28173828125,-0.42724609375,-1.7138671875,47.010498046875,-77.750244140625
1760966375.1189167,-0.72412109375,-0.01708984375,0.697265625,-0.06103515625,-1.46484375,-0.48828125,-1.7193603515625,46.9940185546875,-77.750244140625
1760966375.1263416,-0.72412109375,-0.01708984375,0.697265625,-0.06103515625,-1.46484375,-0.48828125,-1.724853515625,46.9775390625,-77.750244140625
1760966375.1328058,-0.71630859375,-0.01611328125,0.697265625,-1.0986328125,-1.5869140625,-0.67138671875,-1.7413330078125,46.95556640625,-77.7557373046875
1760966375.1396039,-0.71630859375,-0.01611328125,0.697265625,-1.0986328125,-1.5869140625,-0.67138671875,-1.7578125,46.93359375,-77.76123046875
1760966375.1471455,-0.7216796875,-0.0205078125,0.7099609375,-1.28173828125,-1.8310546875,-0.67138671875,-1.7742919921875,46.91162109375,-77.76123046875
1760966375.1537488,-0.7216796875,-0.0205078125,0.7099609375,-1.28173828125,-1.8310546875,-0.67138671875,-1.7962646484375,46.8896484375,-77.7667236328125
1760966375.1617048,-0.72705078125,-0.01953125,0.6826171875,-2.3193359375,-1.89208984375,-0.732421875,-1.82373046875,46.86767578125,-77.772216796875
1760966375.169558,-0.72705078125,-0.01953125,0.6826171875,-2.3193359375,-1.89208984375,-0.732421875,-1.8511962890625,46.845703125,-77.772216796875
1760966375.1770453,-0.72998046875,-0.025390625,0.68212890625,-0.732421875,-1.89208984375,-0.9765625,-1.86767578125,46.8182373046875,-77.783203125
1760966375.1845584,-0.72998046875,-0.025390625,0.68212890625,-0.732421875,-1.89208984375,-0.9765625,-1.8841552734375,46.7962646484375,-77.7886962890625
1760966375.193185,-0.72412109375,-0.02783203125,0.6943359375,-0.244140625,-1.953125,-1.15966796875,-1.8951416015625,46.7742919921875,-77.7996826171875
1760966375.2018204,-0.72412109375,-0.02783203125,0.6943359375,-0.244140625,-1.953125,-1.15966796875,-1.91162109375,46.7523193359375,-77.8106689453125
1760966375.2103305,-0.71923828125,-0.01953125,0.6923828125,0.06103515625,-2.3193359375,-1.40380859375,-1.922607421875,46.724853515625,-77.8271484375
1760966375.2171001,-0.71923828125,-0.01953125,0.6923828125,0.06103515625,-2.3193359375,-1.40380859375,-1.93359375,46.702880859375,-77.838134765625
1760966375.2255805,-0.7216796875,-0.02294921875,0.69970703125,-0.30517578125,-2.5634765625,-1.46484375,-1.9500732421875,46.669921875,-77.8546142578125
1760966375.2335987,-0.7216796875,-0.02294921875,0.69970703125,-0.30517578125,-2.5634765625,-1.46484375,-1.966552734375,46.6424560546875,-77.8656005859375
1760966375.2405376,-0.73876953125,-0.0341796875,0.68212890625,0.3662109375,-2.25830078125,-1.46484375,-1.9775390625,46.6204833984375,-77.882080078125
1760966375.2482398,-0.73876953125,-0.0341796875,0.68212890625,0.3662109375,-2.25830078125,-1.46484375,-1.988525390625,46.593017578125,-77.8985595703125
1760966375.255343,-0.7333984375,-0.02001953125,0.67529296875,-0.48828125,-2.50244140625,-1.52587890625,-2.010498046875,46.5655517578125,-77.9150390625
1760966375.262306,-0.7333984375,-0.02001953125,0.67529296875,-0.48828125,-2.50244140625,-1.52587890625,-2.032470703125,46.5435791015625,-77.926025390625
1760966375.2732794,-0.73193359375,-0.013671875,0.6865234375,-0.42724609375,-2.38037109375,-1.46484375,-2.0489501953125,46.51611328125,-77.9425048828125
1760966375.2812676,-0.73193359375,-0.013671875,0.6865234375,-0.42724609375,-2.38037109375,-1.46484375,-2.0654296875,46.494140625,-77.9534912109375
1760966375.2911844,-0.734375,-0.03125,0.6982421875,-0.06103515625,-2.62451171875,-1.46484375,-2.076416015625,46.4666748046875,-77.969970703125
1760966375.298381,-0.734375,-0.03125,0.6982421875,-0.06103515625,-2.62451171875,-1.46484375,-2.0928955078125,46.4447021484375,-77.98095703125
1760966375.3052447,-0.72607421875,-0.03466796875,0.66162109375,0.18310546875,-2.74658203125,-1.46484375,-2.1038818359375,46.417236328125,-77.9974365234375
1760966375.312802,-0.72607421875,-0.03466796875,0.66162109375,0.18310546875,-2.74658203125,-1.46484375,-2.1148681640625,46.3897705078125,-78.013916015625
1760966375.3189611,-0.7294921875,-0.03564453125,0.68896484375,4.7607421875,-2.9296875,-1.64794921875,-2.08740234375,46.3623046875,-78.0303955078125
1760966375.3280663,-0.7294921875,-0.03564453125,0.68896484375,4.7607421875,-2.9296875,-1.64794921875,-2.054443359375,46.3348388671875,-78.0523681640625
1760966375.334365,-0.73291015625,-0.0205078125,0.68212890625,3.11279296875,-2.99072265625,-1.46484375,-2.0379638671875,46.307373046875,-78.06884765625
1760966375.3409417,-0.73291015625,-0.0205078125,0.68212890625,3.11279296875,-2.99072265625,-1.46484375,-2.0269775390625,46.2799072265625,-78.079833984375
1760966375.3488085,-0.736328125,-0.0166015625,0.681640625,0.8544921875,-3.173828125,-1.28173828125,-2.0269775390625,46.25244140625,-78.0963134765625
1760966375.3562155,-0.736328125,-0.0166015625,0.681640625,0.8544921875,-3.173828125,-1.28173828125,-2.032470703125,46.2249755859375,-78.1072998046875
1760966375.3716004,-0.72998046875,-0.02685546875,0.68310546875,-0.18310546875,-3.2958984375,-1.03759765625,-2.04345703125,46.1920166015625,-78.1182861328125
1760966375.381828,-0.72998046875,-0.02685546875,0.68310546875,-0.18310546875,-3.2958984375,-1.03759765625,-2.054443359375,46.16455078125,-78.123779296875
1760966375.3903031,-0.73876953125,-0.03369140625,0.69140625,-0.42724609375,-3.23486328125,-0.79345703125,-2.0654296875,46.1370849609375,-78.1292724609375
1760966375.4011014,-0.73876953125,-0.03369140625,0.69140625,-0.42724609375,-3.23486328125,-0.79345703125,-2.0819091796875,46.109619140625,-78.1402587890625
1760966375.4086761,-0.72998046875,-0.02880859375,0.67578125,-0.1220703125,-3.23486328125,-0.6103515625,-2.08740234375,46.0821533203125,-78.1402587890625
1760966375.4177828,-0.72998046875,-0.02880859375,0.67578125,-0.1220703125,-3.23486328125,-0.6103515625,-2.0928955078125,46.0546875,-78.145751953125
1760966375.4250598,-0.73681640625,-0.03076171875,0.685546875,0.67138671875,-3.173828125,-0.6103515625,-2.0928955078125,46.0272216796875,-78.1512451171875
1760966375.4312677,-0.73681640625,-0.03076171875,0.685546875,0.67138671875,-3.173828125,-0.6103515625,-2.0928955078125,45.999755859375,-78.15673828125
1760966375.437713,-0.72412109375,-0.03662109375,0.689453125,0.54931640625,-3.173828125,-0.48828125,-2.0928955078125,45.9722900390625,-78.15673828125
1760966375.4458776,-0.72412109375,-0.03662109375,0.689453125,0.54931640625,-3.173828125,-0.48828125,-2.0928955078125,45.9503173828125,-78.1622314453125
1760966375.4532826,-0.72412109375,-0.03662109375,0.689453125,0.0,-3.173828125,-0.3662109375,-2.098388671875,45.9228515625,-78.1622314453125
1760966375.460138,-0.73291015625,-0.025390625,0.6962890625,0.0,-3.173828125,-0.3662109375,-2.1038818359375,45.8953857421875,-78.167724609375
1760966375.4662783,-0.712890625,-0.0126953125,0.69189453125,0.0,-3.35693359375,-0.42724609375,-2.1038818359375,45.867919921875,-78.167724609375
1760966375.474321,-0.712890625,-0.0126953125,0.69189453125,0.0,-3.35693359375,-0.42724609375,-2.109375,45.8349609375,-78.167724609375
1760966375.4804904,-0.7109375,-0.03076171875,0.70751953125,-0.9765625,-3.41796875,-0.18310546875,-2.120361328125,45.8074951171875,-78.167724609375
1760966375.4874249,-0.7109375,-0.03076171875,0.70751953125,-0.9765625,-3.41796875,-0.18310546875,-2.13134765625,45.7745361328125,-78.1622314453125
1760966375.5292513,-0.6923828125,-0.02392578125,0.72216796875,-0.244140625,-3.96728515625,-0.3662109375,-2.1368408203125,45.736083984375,-78.1622314453125
1760966375.5429585,-0.6923828125,-0.02392578125,0.72216796875,-0.244140625,-3.96728515625,-0.3662109375,-2.142333984375,45.6976318359375,-78.1622314453125
1760966375.5499408,-0.7021484375,-0.0185546875,0.71337890625,-1.52587890625,-4.150390625,-0.30517578125,-2.1588134765625,45.6591796875,-78.1622314453125
1760966375.5692267,-0.7021484375,-0.0185546875,0.71337890625,-1.52587890625,-4.150390625,-0.30517578125,-2.17529296875,45.615234375,-78.15673828125
1760966375.5963488,-0.72119140625,-0.01318359375,0.72265625,-4.39453125,-4.150390625,-0.06103515625,-2.2137451171875,45.5767822265625,-78.1512451171875
1760966375.6035962,-0.72119140625,-0.01318359375,0.72265625,-4.39453125,-4.150390625,-0.06103515625,-2.2576904296875,45.5328369140625,-78.1402587890625
1760966375.611454,-0.71044921875,-0.021484375,0.6845703125,-5.37109375,-4.21142578125,-0.244140625,-2.30712890625,45.494384765625,-78.134765625
1760966375.6211083,-0.71044921875,-0.021484375,0.6845703125,-5.37109375,-4.21142578125,-0.244140625,-2.3565673828125,45.450439453125,-78.123779296875
1760966375.6354911,-0.7265625,-0.03955078125,0.69091796875,-5.0048828125,-4.150390625,0.0,-2.406005859375,45.4119873046875,-78.1182861328125
1760966375.656635,-0.7265625,-0.03955078125,0.69091796875,-5.0048828125,-4.150390625,0.0,-2.449951171875,45.3680419921875,-78.1072998046875
1760966375.664293,-0.72998046875,-0.03955078125,0.70556640625,-3.84521484375,-4.21142578125,-0.1220703125,-2.4884033203125,45.32958984375,-78.101806640625
1760966375.6736794,-0.72998046875,-0.03955078125,0.70556640625,-3.84521484375,-4.21142578125,-0.1220703125,-2.5213623046875,45.2911376953125,-78.0963134765625
1760966375.7031188,-0.7333984375,-0.03271484375,0.6904296875,-4.94384765625,-4.150390625,0.06103515625,-2.5653076171875,45.252685546875,-78.0853271484375
1760966375.7106624,-0.7333984375,-0.03271484375,0.6904296875,-4.94384765625,-4.150390625,0.06103515625,-2.61474609375,45.2142333984375,-78.079833984375
1760966375.7364695,-0.7392578125,-0.02587890625,0.67822265625,-3.96728515625,-3.96728515625,0.1220703125,-2.647705078125,45.1812744140625,-78.06884765625
1760966375.7440178,-0.7392578125,-0.02587890625,0.67822265625,-3.96728515625,-3.96728515625,0.1220703125,-2.6806640625,45.1483154296875,-78.057861328125
1760966375.7519288,-0.7392578125,-0.02587890625,0.67822265625,-4.638671875,-3.60107421875,0.30517578125,-2.724609375,45.120849609375,-78.046875
1760966375.759257,-0.7744140625,-0.03076171875,0.673828125,-4.638671875,-3.60107421875,0.30517578125,-2.7630615234375,45.0933837890625,-78.035888671875
1760966375.766245,-0.75439453125,-0.05029296875,0.60986328125,-5.31005859375,-3.11279296875,0.06103515625,-2.8125,45.076904296875,-78.02490234375
1760966375.7919662,-0.75439453125,-0.05029296875,0.60986328125,-5.31005859375,-3.11279296875,0.06103515625,-2.8619384765625,45.0604248046875,-78.0194091796875
1760966375.8016226,-0.78564453125,-0.0478515625,0.66015625,-1.64794921875,-2.5634765625,0.06103515625,-2.87841796875,45.0494384765625,-78.0194091796875
1760966375.807974,-0.78564453125,-0.0478515625,0.66015625,-1.64794921875,-2.5634765625,0.06103515625,-2.889404296875,45.0384521484375,-78.013916015625
1760966375.8147109,-0.7587890625,-0.03369140625,0.6396484375,-2.01416015625,-2.25830078125,-0.18310546875,-2.911376953125,45.0384521484375,-78.013916015625
1760966375.822284,-0.7587890625,-0.03369140625,0.6396484375,-2.01416015625,-2.25830078125,-0.18310546875,-2.933349609375,45.032958984375,-78.013916015625
1760966375.8290114,-0.7490234375,-0.0400390625,0.6689453125,-1.40380859375,-2.0751953125,-0.3662109375,-2.9498291015625,45.032958984375,-78.0194091796875
1760966375.8444402,-0.7490234375,-0.0400390625,0.6689453125,-1.40380859375,-2.0751953125,-0.3662109375,-2.9718017578125,45.0274658203125,-78.02490234375
1760966375.851119,-0.736328125,-0.052734375,0.68505859375,-2.13623046875,-1.953125,0.0,-2.9937744140625,45.0274658203125,-78.0194091796875
1760966375.8579617,-0.736328125,-0.052734375,0.68505859375,-2.13623046875,-1.953125,0.0,-3.0157470703125,45.0274658203125,-78.0194091796875
1760966375.8657157,-0.72021484375,-0.0517578125,0.70654296875,-0.91552734375,-1.953125,0.3662109375,-3.021240234375,45.0274658203125,-78.013916015625
1760966375.8718374,-0.72021484375,-0.0517578125,0.70654296875,-0.91552734375,-1.953125,0.3662109375,-3.0267333984375,45.02197265625,-78.0084228515625
1760966375.8782065,-0.70361328125,-0.04296875,0.71923828125,0.18310546875,-1.953125,0.6103515625,-3.021240234375,45.0164794921875,-78.0029296875
1760966375.8928475,-0.70361328125,-0.04296875,0.71923828125,0.18310546875,-1.953125,0.6103515625,-3.0157470703125,45.010986328125,-77.991943359375
1760966375.9004602,-0.6953125,-0.03662109375,0.72509765625,-0.18310546875,-1.89208984375,0.8544921875,-3.01025390625,45.0,-77.98095703125
1760966375.9080575,-0.6953125,-0.03662109375,0.72509765625,-0.18310546875,-1.89208984375,0.8544921875,-3.0047607421875,44.989013671875,-77.969970703125
1760966375.9144475,-0.69091796875,-0.041015625,0.73095703125,-0.6103515625,-2.01416015625,0.91552734375,-3.0047607421875,44.97802734375,-77.9534912109375
1760966375.9206324,-0.69091796875,-0.041015625,0.73095703125,-0.6103515625,-2.01416015625,0.91552734375,-2.999267578125,44.967041015625,-77.93701171875
1760966375.9277284,-0.68994140625,-0.03466796875,0.7275390625,-0.6103515625,-2.01416015625,0.79345703125,-2.999267578125,44.9505615234375,-77.926025390625
1760966375.9358504,-0.68994140625,-0.03466796875,0.7275390625,-0.6103515625,-2.01416015625,0.79345703125,-2.999267578125,44.93408203125,-77.9095458984375
1760966375.9441478,-0.681640625,-0.03173828125,0.7236328125,-0.3662109375,-2.197265625,0.3662109375,-2.999267578125,44.912109375,-77.904052734375
1760966375.9507337,-0.68408203125,-0.0400390625,0.748046875,-0.48828125,-2.44140625,0.244140625,-2.999267578125,44.89013671875,-77.89306640625
1760966375.9610384,-0.68408203125,-0.0400390625,0.748046875,-0.48828125,-2.44140625,0.244140625,-2.999267578125,44.8626708984375,-77.882080078125
1760966375.9687023,-0.685546875,-0.0341796875,0.7275390625,-1.0986328125,-2.86865234375,0.1220703125,-3.0047607421875,44.835205078125,-77.8765869140625
1760966375.9755082,-0.685546875,-0.0341796875,0.7275390625,-1.0986328125,-2.86865234375,0.1220703125,-3.0157470703125,44.8077392578125,-77.8656005859375
1760966375.9902053,-0.69970703125,-0.0322265625,0.724609375,-2.197265625,-3.173828125,-0.1220703125,-3.0267333984375,44.7747802734375,-77.860107421875
1760966375.9978955,-0.69970703125,-0.0322265625,0.724609375,-2.197265625,-3.173828125,-0.1220703125,-3.0487060546875,44.736328125,-77.8546142578125
1760966376.005136,-0.697265625,-0.03466796875,0.70263671875,-2.9296875,-3.11279296875,-0.244140625,-3.076171875,44.703369140625,-77.84912109375
1760966376.0114071,-0.697265625,-0.03466796875,0.70263671875,-2.9296875,-3.11279296875,-0.244140625,-3.1036376953125,44.67041015625,-77.8436279296875
1760966376.018234,-0.6904296875,-0.0458984375,0.73583984375,-0.42724609375,-3.47900390625,-0.48828125,-3.1201171875,44.637451171875,-77.8436279296875
1760966376.0327637,-0.6904296875,-0.0458984375,0.73583984375,-0.42724609375,-3.47900390625,-0.48828125,-3.1256103515625,44.5989990234375,-77.8436279296875
1760966376.0395093,-0.67529296875,-0.0458984375,0.72314453125,-0.91552734375,-3.60107421875,-0.6103515625,-3.1365966796875,44.560546875,-77.838134765625
1760966376.0461264,-0.67529296875,-0.0458984375,0.72314453125,-0.91552734375,-3.60107421875,-0.6103515625,-3.1475830078125,44.5220947265625,-77.8436279296875
1760966376.053076,-0.6845703125,-0.0380859375,0.73046875,0.48828125,-3.84521484375,-0.8544921875,-3.1585693359375,44.4781494140625,-77.8436279296875
1760966376.0595448,-0.6845703125,-0.0380859375,0.73046875,0.48828125,-3.84521484375,-0.8544921875,-3.1585693359375,44.4342041015625,-77.84912109375
1760966376.0664687,-0.6875,-0.037109375,0.7373046875,-0.06103515625,-3.5400390625,-0.8544921875,-3.1640625,44.395751953125,-77.84912109375
1760966376.0864737,-0.6875,-0.037109375,0.7373046875,-0.06103515625,-3.5400390625,-0.8544921875,-3.1695556640625,44.3572998046875,-77.8546142578125
1760966376.0943823,-0.68798828125,-0.04052734375,0.755859375,0.6103515625,-2.99072265625,-0.8544921875,-3.1695556640625,44.31884765625,-77.8546142578125
1760966376.1013074,-0.68798828125,-0.04052734375,0.755859375,0.6103515625,-2.99072265625,-0.8544921875,-3.1695556640625,44.2803955078125,-77.860107421875
1760966376.1075172,-0.693359375,-0.04541015625,0.7177734375,1.8310546875,-2.74658203125,-0.732421875,-3.1640625,44.2474365234375,-77.8656005859375
1760966376.1317828,-0.693359375,-0.04541015625,0.7177734375,1.8310546875,-2.74658203125,-0.732421875,-3.153076171875,44.2144775390625,-77.8656005859375
1760966376.1383622,-0.701171875,-0.03125,0.7041015625,0.30517578125,-3.11279296875,-0.48828125,-3.1475830078125,44.1815185546875,-77.87109375
1760966376.1466317,-0.701171875,-0.03125,0.7041015625,0.30517578125,-3.11279296875,-0.48828125,-3.1475830078125,44.1485595703125,-77.8656005859375
1760966376.1534421,-0.70263671875,-0.05419921875,0.72802734375,0.48828125,-3.23486328125,-0.3662109375,-3.14208984375,44.110107421875,-77.8656005859375
1760966376.1598854,-0.70263671875,-0.05419921875,0.72802734375,0.48828125,-3.23486328125,-0.3662109375,-3.14208984375,44.0771484375,-77.8656005859375
1760966376.1868024,-0.69775390625,-0.05029296875,0.69970703125,0.42724609375,-3.2958984375,-0.3662109375,-3.14208984375,44.044189453125,-77.8656005859375
1760966376.1949644,-0.69775390625,-0.05029296875,0.69970703125,0.42724609375,-3.2958984375,-0.3662109375,-3.1365966796875,44.01123046875,-77.8656005859375
1760966376.201505,-0.6865234375,-0.03564453125,0.72314453125,0.79345703125,-3.23486328125,-0.30517578125,-3.1365966796875,43.978271484375,-77.8656005859375
1760966376.2080033,-0.6865234375,-0.03564453125,0.72314453125,0.79345703125,-3.23486328125,-0.30517578125,-3.131103515625,43.9453125,-77.8656005859375
1760966376.2327194,-0.681640625,-0.02490234375,0.748046875,-1.3427734375,-3.5400390625,-0.244140625,-3.1365966796875,43.9068603515625,-77.8656005859375
1760966376.239352,-0.681640625,-0.02490234375,0.748046875,-1.3427734375,-3.5400390625,-0.244140625,-3.1475830078125,43.8739013671875,-77.860107421875
1760966376.2464542,-0.6865234375,-0.03271484375,0.728515625,-4.08935546875,-3.662109375,0.0,-3.175048828125,43.83544921875,-77.8546142578125
1760966376.2535462,-0.6865234375,-0.03271484375,0.728515625,-4.08935546875,-3.662109375,0.0,-3.2135009765625,43.7969970703125,-77.84912109375
1760966376.2599788,-0.68310546875,-0.048828125,0.7314453125,-3.72314453125,-3.662109375,0.244140625,-3.2464599609375,43.758544921875,-77.838134765625
1760966376.2670164,-0.68310546875,-0.048828125,0.7314453125,-3.72314453125,-3.662109375,0.244140625,-3.2794189453125,43.7200927734375,-77.8271484375
1760966376.2881413,-0.689453125,-0.056640625,0.75390625,-2.8076171875,-3.72314453125,0.244140625,-3.306884765625,43.681640625,-77.816162109375
1760966376.2962809,-0.689453125,-0.056640625,0.75390625,-2.8076171875,-3.72314453125,0.244140625,-3.328857421875,43.6431884765625,-77.80517578125
1760966376.3024678,-0.6865234375,-0.05712890625,0.72509765625,-0.79345703125,-3.60107421875,0.0,-3.3453369140625,43.604736328125,-77.794189453125
1760966376.3091762,-0.6865234375,-0.05712890625,0.72509765625,-0.79345703125,-3.60107421875,0.0,-3.350830078125,43.5662841796875,-77.7886962890625
1760966376.32306,-0.7021484375,-0.04296875,0.71533203125,1.15966796875,-3.35693359375,-0.18310546875,-3.350830078125,43.52783203125,-77.7886962890625
1760966376.3308973,-0.7021484375,-0.04296875,0.71533203125,1.15966796875,-3.35693359375,-0.18310546875,-3.33984375,43.494873046875,-77.783203125
1760966376.339503,-0.70751953125,-0.02880859375,0.71923828125,0.732421875,-2.86865234375,-0.30517578125,-3.328857421875,43.4619140625,-77.783203125
1760966376.3465772,-0.70751953125,-0.02880859375,0.71923828125,0.732421875,-2.86865234375,-0.30517578125,-3.3233642578125,43.4344482421875,-77.783203125
1760966376.3536603,-0.72412109375,-0.03857421875,0.69580078125,-0.6103515625,-2.74658203125,-0.6103515625,-3.328857421875,43.4124755859375,-77.783203125
1760966376.3662825,-0.72412109375,-0.03857421875,0.69580078125,-0.6103515625,-2.74658203125,-0.6103515625,-3.3343505859375,43.385009765625,-77.783203125
1760966376.3728495,-0.7421875,-0.04345703125,0.66796875,-3.173828125,-2.50244140625,-0.6103515625,-3.36181640625,43.363037109375,-77.7886962890625
1760966376.380539,-0.7421875,-0.04345703125,0.66796875,-3.173828125,-2.50244140625,-0.6103515625,-3.394775390625,43.3465576171875,-77.7886962890625
1760966376.3870003,-0.73779296875,-0.05224609375,0.68798828125,-1.52587890625,-2.25830078125,-0.8544921875,-3.4222412109375,43.330078125,-77.794189453125
1760966376.3938036,-0.73779296875,-0.05224609375,0.68798828125,-1.52587890625,-2.25830078125,-0.8544921875,-3.4442138671875,43.319091796875,-77.80517578125
1760966376.4014049,-0.7265625,-0.056640625,0.6845703125,1.40380859375,-2.01416015625,-1.3427734375,-3.4552001953125,43.30810546875,-77.816162109375
1760966376.4081097,-0.7265625,-0.056640625,0.6845703125,1.40380859375,-2.01416015625,-1.3427734375,-3.4552001953125,43.297119140625,-77.8326416015625
1760966376.4204352,-0.720703125,-0.0419921875,0.7001953125,1.64794921875,-1.953125,-1.3427734375,-3.4552001953125,43.2916259765625,-77.84912109375
1760966376.4268637,-0.720703125,-0.0419921875,0.7001953125,1.64794921875,-1.953125,-1.3427734375,-3.44970703125,43.2861328125,-77.8656005859375
1760966376.434537,-0.71337890625,-0.04296875,0.70068359375,0.54931640625,-1.953125,-1.3427734375,-3.4552001953125,43.2806396484375,-77.882080078125
1760966376.4412968,-0.71337890625,-0.04296875,0.70068359375,0.54931640625,-1.953125,-1.3427734375,-3.460693359375,43.2696533203125,-77.8985595703125
1760966376.4493248,-0.69921875,-0.0556640625,0.7177734375,0.0,-2.197265625,-1.28173828125,-3.4716796875,43.26416015625,-77.9150390625
1760966376.4627542,-0.69921875,-0.0556640625,0.7177734375,0.0,-2.197265625,-1.28173828125,-3.482666015625,43.253173828125,-77.926025390625
1760966376.469919,-0.69677734375,-0.05322265625,0.7216796875,0.54931640625,-2.197265625,-1.220703125,-3.49365234375,43.2421875,-77.9425048828125
1760966376.476559,-0.69677734375,-0.05322265625,0.7216796875,0.54931640625,-2.197265625,-1.220703125,-3.4991455078125,43.231201171875,-77.958984375
1760966376.4836142,-0.69482421875,-0.0498046875,0.7158203125,1.0986328125,-2.0751953125,-0.9765625,-3.4991455078125,43.22021484375,-77.969970703125
1760966376.4897635,-0.69482421875,-0.0498046875,0.7158203125,1.0986328125,-2.0751953125,-0.9765625,-3.4991455078125,43.209228515625,-77.98095703125
1760966376.4981995,-0.68896484375,-0.052734375,0.744140625,1.64794921875,-2.25830078125,-0.8544921875,-3.4991455078125,43.1982421875,-77.991943359375
1760966376.5174348,-0.68896484375,-0.052734375,0.744140625,1.64794921875,-2.25830078125,-0.8544921875,-3.4881591796875,43.1817626953125,-78.0029296875
1760966376.5262072,-0.6826171875,-0.0458984375,0.72412109375,2.3193359375,-2.44140625,-0.79345703125,-3.4771728515625,43.165283203125,-78.013916015625
1760966376.5326803,-0.6826171875,-0.0458984375,0.72412109375,2.3193359375,-2.44140625,-0.79345703125,-3.4661865234375,43.1488037109375,-78.02490234375
1760966376.5390878,-0.68212890625,-0.0498046875,0.72607421875,2.44140625,-2.685546875,-0.6103515625,-3.44970703125,43.1268310546875,-78.0303955078125
1760966376.5477679,-0.68212890625,-0.0498046875,0.72607421875,2.44140625,-2.685546875,-0.6103515625,-3.427734375,43.1048583984375,-78.035888671875
1760966376.5661578,-0.67578125,-0.0478515625,0.75537109375,1.89208984375,-2.9296875,-0.48828125,-3.416748046875,43.0828857421875,-78.0413818359375
1760966376.5729156,-0.67578125,-0.0478515625,0.75537109375,1.89208984375,-2.9296875,-0.48828125,-3.4002685546875,43.055419921875,-78.046875
1760966376.5805666,-0.6806640625,-0.03955078125,0.7294921875,1.03759765625,-3.0517578125,-0.3662109375,-3.3892822265625,43.0279541015625,-78.0523681640625
1760966376.5881784,-0.6806640625,-0.03955078125,0.7294921875,1.03759765625,-3.0517578125,-0.3662109375,-3.3837890625,43.00048828125,-78.0523681640625
1760966376.59516,-0.6767578125,-0.0400390625,0.72705078125,1.77001953125,-3.41796875,-0.48828125,-3.372802734375,42.9730224609375,-78.0523681640625
1760966376.6022902,-0.6767578125,-0.0400390625,0.72705078125,1.77001953125,-3.41796875,-0.48828125,-3.36181640625,42.9400634765625,-78.0523681640625
1760966376.6170604,-0.681640625,-0.0517578125,0.75,0.79345703125,-3.41796875,-0.3662109375,-3.350830078125,42.91259765625,-78.057861328125
1760966376.6253543,-0.681640625,-0.0517578125,0.75,0.79345703125,-3.41796875,-0.3662109375,-3.3453369140625,42.879638671875,-78.057861328125
1760966376.6332612,-0.68359375,-0.05126953125,0.736328125,1.0986328125,-3.47900390625,-0.244140625,-3.33984375,42.8466796875,-78.0523681640625
1760966376.6423967,-0.68359375,-0.05126953125,0.736328125,1.0986328125,-3.47900390625,-0.244140625,-3.3343505859375,42.813720703125,-78.0523681640625
1760966376.650842,-0.6904296875,-0.04541015625,0.71533203125,1.52587890625,-3.47900390625,-0.18310546875,-3.3233642578125,42.78076171875,-78.0523681640625
1760966376.6668346,-0.6904296875,-0.04541015625,0.71533203125,1.52587890625,-3.47900390625,-0.18310546875,-3.306884765625,42.747802734375,-78.0523681640625
1760966376.6747584,-0.6884765625,-0.04833984375,0.728515625,1.708984375,-3.47900390625,-0.30517578125,-3.2958984375,42.71484375,-78.0523681640625
1760966376.682446,-0.6884765625,-0.04833984375,0.728515625,1.708984375,-3.47900390625,-0.30517578125,-3.284912109375,42.681884765625,-78.0523681640625
1760966376.6907725,-0.685546875,-0.05078125,0.73486328125,2.01416015625,-3.11279296875,-0.244140625,-3.2684326171875,42.6544189453125,-78.0523681640625
1760966376.7008214,-0.685546875,-0.05078125,0.73486328125,2.01416015625,-3.11279296875,-0.244140625,-3.251953125,42.626953125,-78.0523681640625
1760966376.7167337,-0.6923828125,-0.048828125,0.74072265625,3.41796875,-2.8076171875,-0.244140625,-3.22998046875,42.5994873046875,-78.0523681640625
1760966376.72382,-0.6923828125,-0.048828125,0.74072265625,3.41796875,-2.8076171875,-0.244140625,-3.197021484375,42.5775146484375,-78.0523681640625
1760966376.7307239,-0.70166015625,-0.037109375,0.7138671875,5.615234375,-2.8076171875,-0.3662109375,-3.1585693359375,42.550048828125,-78.057861328125
1760966376.7376149,-0.70166015625,-0.037109375,0.7138671875,5.615234375,-2.8076171875,-0.3662109375,-3.1036376953125,42.528076171875,-78.057861328125
1760966376.7445822,-0.6943359375,-0.03857421875,0.7158203125,4.2724609375,-2.8076171875,-0.48828125,-3.065185546875,42.506103515625,-78.0633544921875
1760966376.7553658,-0.6943359375,-0.03857421875,0.7158203125,4.2724609375,-2.8076171875,-0.48828125,-3.0267333984375,42.484130859375,-78.06884765625
1760966376.7710404,-0.68896484375,-0.03662109375,0.72265625,2.44140625,-2.62451171875,-0.48828125,-2.999267578125,42.462158203125,-78.0743408203125
1760966376.7791061,-0.68896484375,-0.03662109375,0.72265625,2.44140625,-2.62451171875,-0.48828125,-2.9827880859375,42.440185546875,-78.079833984375
1760966376.788114,-0.6748046875,-0.03759765625,0.75634765625,1.89208984375,-2.99072265625,-0.67138671875,-2.96630859375,42.418212890625,-78.0853271484375
1760966376.795763,-0.6748046875,-0.03759765625,0.75634765625,1.89208984375,-2.99072265625,-0.67138671875,-2.955322265625,42.396240234375,-78.0908203125
1760966376.8048859,-0.67578125,-0.04150390625,0.73095703125,2.3193359375,-2.685546875,-0.732421875,-2.9388427734375,42.3687744140625,-78.0963134765625
1760966376.821699,-0.67578125,-0.04150390625,0.73095703125,2.3193359375,-2.685546875,-0.732421875,-2.92236328125,42.3468017578125,-78.101806640625
1760966376.83003,-0.6728515625,-0.04052734375,0.7578125,2.9296875,-2.86865234375,-0.79345703125,-2.9058837890625,42.3248291015625,-78.1072998046875
1760966376.8380713,-0.6728515625,-0.04052734375,0.7578125,2.9296875,-2.86865234375,-0.79345703125,-2.8839111328125,42.29736328125,-78.1182861328125
1760966376.8468246,-0.67041015625,-0.03369140625,0.7373046875,2.44140625,-2.62451171875,-0.79345703125,-2.867431640625,42.275390625,-78.123779296875
1760966376.8541718,-0.67041015625,-0.03369140625,0.7373046875,2.44140625,-2.62451171875,-0.79345703125,-2.8509521484375,42.25341796875,-78.1292724609375
1760966376.8691342,-0.6806640625,-0.03857421875,0.740234375,3.11279296875,-2.74658203125,-0.8544921875,-2.8289794921875,42.2259521484375,-78.1402587890625
1760966376.8770707,-0.6806640625,-0.03857421875,0.740234375,3.11279296875,-2.74658203125,-0.8544921875,-2.8070068359375,42.2039794921875,-78.145751953125
1760966376.8839014,-0.68359375,-0.04296875,0.744140625,3.11279296875,-2.5634765625,-0.8544921875,-2.7850341796875,42.1820068359375,-78.15673828125
1760966376.8908606,-0.68359375,-0.04296875,0.744140625,3.11279296875,-2.5634765625,-0.8544921875,-2.7630615234375,42.1600341796875,-78.1622314453125
1760966376.8983319,-0.703125,-0.0380859375,0.720703125,2.99072265625,-2.13623046875,-0.67138671875,-2.735595703125,42.1380615234375,-78.1732177734375
1760966376.9172356,-0.703125,-0.0380859375,0.720703125,2.99072265625,-2.13623046875,-0.67138671875,-2.713623046875,42.12158203125,-78.1787109375
1760966376.9255784,-0.7041015625,-0.0322265625,0.7021484375,2.685546875,-1.77001953125,-0.6103515625,-2.6971435546875,42.110595703125,-78.1842041015625
1760966376.9339497,-0.7041015625,-0.0322265625,0.7021484375,2.685546875,-1.77001953125,-0.6103515625,-2.6751708984375,42.099609375,-78.189697265625
1760966376.952791,-0.6455078125,-0.03125,0.74267578125,3.11279296875,-2.13623046875,-0.79345703125,-2.6531982421875,42.0831298828125,-78.20068359375
1760966376.9599857,-0.6455078125,-0.03125,0.74267578125,3.11279296875,-2.13623046875,-0.79345703125,-2.6312255859375,42.0721435546875,-78.211669921875
1760966376.9668596,-0.6728515625,-0.0380859375,0.79443359375,0.0,-1.708984375,-0.244140625,-2.6312255859375,42.0556640625,-78.211669921875
1760966376.9775019,-0.6728515625,-0.0380859375,0.79443359375,0.0,-1.708984375,-0.244140625,-2.63671875,42.0391845703125,-78.211669921875
1760966376.985123,-0.67333984375,-0.0390625,0.71533203125,-0.06103515625,-2.01416015625,0.0,-2.63671875,42.022705078125,-78.2061767578125
1760966376.9916975,-0.67333984375,-0.0390625,0.71533203125,-0.06103515625,-2.01416015625,0.0,-2.63671875,42.0062255859375,-78.2061767578125
1760966377.0078206,-0.67626953125,-0.04248046875,0.73876953125,1.0986328125,-2.13623046875,0.0,-2.6312255859375,41.98974609375,-78.20068359375
1760966377.015892,-0.67626953125,-0.04248046875,0.73876953125,1.0986328125,-2.13623046875,0.0,-2.6202392578125,41.9732666015625,-78.20068359375
1760966377.0229247,-0.66845703125,-0.03564453125,0.76123046875,1.89208984375,-2.0751953125,0.0,-2.603759765625,41.9512939453125,-78.20068359375
1760966377.029312,-0.66845703125,-0.03564453125,0.76123046875,1.89208984375,-2.0751953125,0.0,-2.581787109375,41.934814453125,-78.1951904296875
1760966377.0380833,-0.6650390625,-0.0322265625,0.744140625,0.67138671875,-2.13623046875,0.244140625,-2.5762939453125,41.912841796875,-78.189697265625
1760966377.0459428,-0.6650390625,-0.0322265625,0.744140625,0.67138671875,-2.13623046875,0.244140625,-2.57080078125,41.8963623046875,-78.1842041015625
1760966377.053465,-0.66796875,-0.0322265625,0.7412109375,0.0,-2.25830078125,0.244140625,-2.5653076171875,41.8743896484375,-78.1787109375
1760966377.0712929,-0.66796875,-0.0322265625,0.7412109375,0.0,-2.25830078125,0.244140625,-2.5653076171875,41.8524169921875,-78.1732177734375
1760966377.0798838,-0.66259765625,-0.04150390625,0.7607421875,0.0,-2.50244140625,0.3662109375,-2.559814453125,41.8304443359375,-78.167724609375
1760966377.0869105,-0.66259765625,-0.04150390625,0.7607421875,0.0,-2.50244140625,0.3662109375,-2.559814453125,41.8084716796875,-78.15673828125
1760966377.094141,-0.6630859375,-0.03857421875,0.75732421875,0.79345703125,-2.74658203125,0.30517578125,-2.548828125,41.781005859375,-78.1512451171875
1760966377.1123104,-0.6630859375,-0.03857421875,0.75732421875,0.79345703125,-2.74658203125,0.30517578125,-2.537841796875,41.7535400390625,-78.145751953125
1760966377.1207905,-0.662109375,-0.03125,0.74560546875,1.40380859375,-2.86865234375,0.06103515625,-2.52685546875,41.72607421875,-78.1402587890625
1760966377.126932,-0.662109375,-0.03125,0.74560546875,1.40380859375,-2.86865234375,0.06103515625,-2.5103759765625,41.6986083984375,-78.1402587890625
1760966377.1342664,-0.66455078125,-0.03466796875,0.76416015625,1.708984375,-2.99072265625,-0.06103515625,-2.493896484375,41.6656494140625,-78.134765625
1760966377.1412919,-0.66455078125,-0.03466796875,0.76416015625,1.708984375,-2.99072265625,-0.06103515625,-2.4774169921875,41.63818359375,-78.1292724609375
1760966377.1570206,-0.65869140625,-0.03466796875,0.74755859375,1.3427734375,-3.11279296875,-0.30517578125,-2.4664306640625,41.605224609375,-78.1292724609375
1760966377.1657238,-0.65869140625,-0.03466796875,0.74755859375,1.3427734375,-3.11279296875,-0.30517578125,-2.4609375,41.572265625,-78.1292724609375
1760966377.1775787,-0.6650390625,-0.03125,0.74951171875,1.40380859375,-3.173828125,-0.48828125,-2.449951171875,41.5447998046875,-78.134765625
1760966377.1940906,-0.6650390625,-0.03125,0.74951171875,1.40380859375,-3.173828125,-0.48828125,-2.43896484375,41.5118408203125,-78.134765625
1760966377.2075403,-0.67041015625,-0.029296875,0.744140625,0.79345703125,-3.2958984375,-0.54931640625,-2.43896484375,41.4788818359375,-78.1402587890625
1760966377.2161076,-0.67041015625,-0.029296875,0.744140625,0.79345703125,-3.2958984375,-0.54931640625,-2.4334716796875,41.4459228515625,-78.1402587890625
