timestamp,acc_x,acc_y,acc_z,gyro_x,gyro_y,gyro_z,angle_x,angle_y,angle_z
1758874620.6237185,-0.84326171875,0.01611328125,0.5322265625,-0.54931640625,0.42724609375,0.244140625,1.6534423828125,58.8482666015625,74.5697021484375
1758874620.6356778,-0.8486328125,0.0078125,0.52197265625,0.244140625,0.30517578125,0.30517578125,1.6644287109375,58.8482666015625,74.5697021484375
1758874620.6508317,-0.8486328125,0.0078125,0.52197265625,0.244140625,0.30517578125,0.30517578125,1.669921875,58.853759765625,74.5697021484375
1758874620.6640246,-0.84619140625,0.01318359375,0.52392578125,0.06103515625,0.1220703125,0.244140625,1.6754150390625,58.853759765625,74.5697021484375
1758874620.6719425,-0.84619140625,0.01318359375,0.52392578125,0.06103515625,0.1220703125,0.244140625,1.6754150390625,58.853759765625,74.5697021484375
1758874620.6788273,-0.84765625,0.01318359375,0.52490234375,0.42724609375,0.0,0.30517578125,1.6864013671875,58.8482666015625,74.5697021484375
1758874620.6857,-0.84765625,0.01318359375,0.52490234375,0.42724609375,0.0,0.30517578125,1.69189453125,58.8482666015625,74.5697021484375
1758874620.692882,-0.84912109375,0.01513671875,0.521484375,0.6103515625,0.0,0.30517578125,1.702880859375,58.8427734375,74.5751953125
1758874620.703177,-0.84912109375,0.01513671875,0.521484375,0.6103515625,0.0,0.30517578125,1.7138671875,58.8427734375,74.5751953125
1758874620.7131054,-0.85400390625,0.0166015625,0.5166015625,0.9765625,0.1220703125,0.3662109375,1.7303466796875,58.8427734375,74.5751953125
1758874620.7233055,-0.85400390625,0.0166015625,0.5166015625,0.9765625,0.1220703125,0.3662109375,1.7413330078125,58.8427734375,74.5806884765625
1758874620.7331395,-0.85546875,0.01416015625,0.51123046875,1.3427734375,0.3662109375,0.3662109375,1.7633056640625,58.8427734375,74.5806884765625
1758874620.7427344,-0.85546875,0.01416015625,0.51123046875,1.3427734375,0.3662109375,0.3662109375,1.77978515625,58.8427734375,74.586181640625
1758874620.7528477,-0.86083984375,0.013671875,0.50732421875,1.77001953125,0.54931640625,0.3662109375,1.8017578125,58.8482666015625,74.586181640625
1758874620.762783,-0.86083984375,0.013671875,0.50732421875,1.77001953125,0.54931640625,0.3662109375,1.82373046875,58.853759765625,74.5916748046875
1758874620.776022,-0.86181640625,0.01806640625,0.50244140625,1.953125,0.732421875,0.30517578125,1.8511962890625,58.8592529296875,74.5916748046875
1758874620.7828488,-0.86181640625,0.01806640625,0.50244140625,1.953125,0.732421875,0.30517578125,1.8731689453125,58.8702392578125,74.5916748046875
1758874620.7928267,-0.86181640625,0.021484375,0.50146484375,1.40380859375,0.9765625,0.1220703125,1.8896484375,58.8812255859375,74.5916748046875
1758874620.8031032,-0.86181640625,0.021484375,0.50146484375,1.40380859375,0.9765625,0.1220703125,1.9061279296875,58.8922119140625,74.5916748046875
1758874620.8128073,-0.85693359375,0.021484375,0.50830078125,0.54931640625,1.220703125,0.0,1.91162109375,58.9031982421875,74.586181640625
1758874620.82279,-0.85693359375,0.021484375,0.50830078125,0.54931640625,1.220703125,0.0,1.9171142578125,58.919677734375,74.5806884765625
1758874620.8327584,-0.8544921875,0.017578125,0.51513671875,0.67138671875,1.28173828125,0.0,1.922607421875,58.9306640625,74.5806884765625
1758874620.842781,-0.8544921875,0.017578125,0.51513671875,0.67138671875,1.28173828125,0.0,1.9281005859375,58.9471435546875,74.5751953125
1758874620.8527825,-0.8525390625,0.0126953125,0.51953125,0.67138671875,1.0986328125,0.0,1.9390869140625,58.9581298828125,74.5751953125
1758874620.8635225,-0.8525390625,0.0126953125,0.51953125,0.67138671875,1.0986328125,0.0,1.944580078125,58.9691162109375,74.5697021484375
1758874620.873101,-0.85205078125,0.01171875,0.51513671875,0.79345703125,0.732421875,0.244140625,1.95556640625,58.974609375,74.5697021484375
1758874620.8828578,-0.85205078125,0.01171875,0.51513671875,0.79345703125,0.732421875,0.244140625,1.966552734375,58.985595703125,74.5697021484375
1758874620.8929338,-0.8544921875,0.0126953125,0.5068359375,1.3427734375,0.30517578125,0.42724609375,1.988525390625,58.985595703125,74.5751953125
1758874620.9029434,-0.8544921875,0.0126953125,0.5068359375,1.3427734375,0.30517578125,0.42724609375,2.0050048828125,58.9910888671875,74.5806884765625
1758874620.9131114,-0.85009765625,0.01806640625,0.51416015625,1.52587890625,0.0,0.54931640625,2.0269775390625,58.9910888671875,74.5806884765625
1758874620.9228888,-0.85009765625,0.01806640625,0.51416015625,1.52587890625,0.0,0.54931640625,2.0489501953125,58.9910888671875,74.586181640625
1758874620.9329343,-0.8486328125,0.0224609375,0.521484375,1.0986328125,-0.3662109375,0.6103515625,2.0709228515625,58.985595703125,74.59716796875
1758874620.9429157,-0.8486328125,0.0224609375,0.521484375,1.0986328125,-0.3662109375,0.6103515625,2.08740234375,58.9801025390625,74.6026611328125
1758874620.9529824,-0.8447265625,0.01953125,0.53076171875,0.42724609375,-0.6103515625,0.91552734375,2.1038818359375,58.974609375,74.619140625
1758874620.9629397,-0.8447265625,0.01953125,0.53076171875,0.42724609375,-0.6103515625,0.91552734375,2.1258544921875,58.963623046875,74.630126953125
1758874620.9729655,-0.8408203125,0.01025390625,0.53173828125,0.79345703125,-0.91552734375,1.03759765625,2.1478271484375,58.95263671875,74.6466064453125
1758874620.9829602,-0.8408203125,0.01025390625,0.53173828125,0.79345703125,-0.91552734375,1.03759765625,2.1697998046875,58.941650390625,74.6630859375
1758874620.992983,-0.84130859375,0.01220703125,0.53369140625,1.40380859375,-1.28173828125,1.0986328125,2.197265625,58.9251708984375,74.6795654296875
1758874621.0031238,-0.84130859375,0.01220703125,0.53369140625,1.40380859375,-1.28173828125,1.0986328125,2.2247314453125,58.90869140625,74.696044921875
1758874621.0131288,-0.83544921875,0.01904296875,0.5380859375,2.25830078125,-1.52587890625,1.15966796875,2.26318359375,58.8922119140625,74.7125244140625
1758874621.023047,-0.83544921875,0.01904296875,0.5380859375,2.25830078125,-1.52587890625,1.15966796875,2.3016357421875,58.8702392578125,74.72900390625
1758874621.0330458,-0.83447265625,0.02197265625,0.55322265625,2.5634765625,-1.64794921875,1.28173828125,2.3455810546875,58.8482666015625,74.7509765625
1758874621.043081,-0.83447265625,0.02197265625,0.55322265625,2.5634765625,-1.64794921875,1.28173828125,2.384033203125,58.8262939453125,74.7674560546875
1758874621.0531738,-0.83349609375,0.0185546875,0.56103515625,1.28173828125,-1.89208984375,1.46484375,2.4169921875,58.798828125,74.7894287109375
1758874621.0630476,-0.83349609375,0.0185546875,0.56103515625,1.28173828125,-1.89208984375,1.46484375,2.449951171875,58.7713623046875,74.81689453125
1758874621.0731728,-0.82177734375,0.02099609375,0.55712890625,-0.1220703125,-2.3193359375,1.5869140625,2.471923828125,58.7384033203125,74.8443603515625
1758874621.083093,-0.82177734375,0.02099609375,0.55712890625,-0.1220703125,-2.3193359375,1.5869140625,2.4884033203125,58.7054443359375,74.8663330078125
1758874621.0931923,-0.8310546875,0.02099609375,0.5615234375,2.685546875,-2.62451171875,1.64794921875,2.537841796875,58.6724853515625,74.8992919921875
1758874621.103139,-0.8310546875,0.02099609375,0.5615234375,2.685546875,-2.62451171875,1.64794921875,2.5872802734375,58.634033203125,74.9267578125
1758874621.1132371,-0.8291015625,0.013671875,0.5615234375,2.9296875,-2.9296875,1.64794921875,2.63671875,58.590087890625,74.9542236328125
1758874621.1231084,-0.8291015625,0.013671875,0.5615234375,2.9296875,-2.9296875,1.64794921875,2.6861572265625,58.5516357421875,74.981689453125
1758874621.133299,-0.84033203125,0.0205078125,0.5458984375,0.79345703125,-2.86865234375,1.77001953125,2.713623046875,58.51318359375,75.0091552734375
1758874621.143151,-0.84033203125,0.0205078125,0.5458984375,0.79345703125,-2.86865234375,1.77001953125,2.7410888671875,58.4747314453125,75.03662109375
1758874621.1531727,-0.83984375,0.03759765625,0.53857421875,-1.0986328125,-2.44140625,1.77001953125,2.7520751953125,58.436279296875,75.069580078125
1758874621.16338,-0.83984375,0.03759765625,0.53857421875,-1.0986328125,-2.44140625,1.77001953125,2.7685546875,58.4033203125,75.0970458984375
1758874621.173574,-0.83642578125,0.04931640625,0.52685546875,-2.197265625,-1.708984375,1.708984375,2.7685546875,58.3758544921875,75.1300048828125
1758874621.1832323,-0.83642578125,0.04931640625,0.52685546875,-2.197265625,-1.708984375,1.708984375,2.7740478515625,58.348388671875,75.157470703125
1758874621.1932478,-0.849609375,0.033203125,0.53271484375,-3.41796875,-1.03759765625,1.5869140625,2.7630615234375,58.3319091796875,75.1849365234375
1758874621.203233,-0.849609375,0.033203125,0.53271484375,-3.41796875,-1.03759765625,1.5869140625,2.757568359375,58.3154296875,75.2178955078125
1758874621.2132645,-0.8486328125,0.02783203125,0.51708984375,-3.7841796875,-0.3662109375,1.28173828125,2.7410888671875,58.304443359375,75.2398681640625
1758874621.2232947,-0.8486328125,0.02783203125,0.51708984375,-3.7841796875,-0.3662109375,1.28173828125,2.724609375,58.29345703125,75.267333984375
1758874621.2339387,-0.84130859375,0.01806640625,0.52734375,-0.9765625,0.1220703125,0.8544921875,2.7301025390625,58.2879638671875,75.2838134765625
1758874621.2454343,-0.84130859375,0.01806640625,0.52734375,-0.9765625,0.1220703125,0.8544921875,2.735595703125,58.2879638671875,75.2947998046875
1758874621.253662,-0.83837890625,0.03466796875,0.533203125,-0.732421875,0.48828125,0.244140625,2.735595703125,58.2879638671875,75.30029296875
1758874621.2634413,-0.83837890625,0.03466796875,0.533203125,-0.732421875,0.48828125,0.244140625,2.7301025390625,58.2879638671875,75.3057861328125
1758874621.27379,-0.8427734375,0.041015625,0.544921875,-0.9765625,0.3662109375,-0.30517578125,2.7191162109375,58.2879638671875,75.30029296875
1758874621.2834444,-0.8427734375,0.041015625,0.544921875,-0.9765625,0.3662109375,-0.30517578125,2.7081298828125,58.282470703125,75.2947998046875
1758874621.2934704,-0.83642578125,0.02978515625,0.53662109375,-5.4931640625,0.54931640625,-0.3662109375,2.6531982421875,58.282470703125,75.289306640625
1758874621.3040407,-0.8349609375,0.03515625,0.5234375,-7.9345703125,0.8544921875,0.0,2.5872802734375,58.2879638671875,75.2838134765625
1758874621.313438,-0.8349609375,0.03515625,0.5234375,-7.9345703125,0.8544921875,0.0,2.5103759765625,58.2879638671875,75.289306640625
1758874621.3234453,-0.833984375,0.017578125,0.5625,-6.89697265625,0.54931640625,-0.06103515625,2.4444580078125,58.29345703125,75.289306640625
1758874621.3335354,-0.833984375,0.017578125,0.5625,-6.89697265625,0.54931640625,-0.06103515625,2.3785400390625,58.29345703125,75.289306640625
1758874621.34379,-0.81396484375,0.02490234375,0.55322265625,-6.04248046875,0.0,0.30517578125,2.318115234375,58.2879638671875,75.2947998046875
1758874621.3535001,-0.81396484375,0.02490234375,0.55322265625,-6.04248046875,0.0,0.30517578125,2.2686767578125,58.282470703125,75.30029296875
1758874621.3634949,-0.84912109375,0.015625,0.5126953125,-8.23974609375,0.244140625,0.91552734375,2.208251953125,58.271484375,75.311279296875
1758874621.374252,-0.84912109375,0.015625,0.5126953125,-8.23974609375,0.244140625,0.91552734375,2.1478271484375,58.271484375,75.3277587890625
1758874621.3834946,-0.8427734375,0.01220703125,0.55078125,-8.48388671875,0.6103515625,1.3427734375,2.08740234375,58.2659912109375,75.3497314453125
1758874621.3935528,-0.8427734375,0.01220703125,0.55078125,-8.48388671875,0.6103515625,1.3427734375,2.0269775390625,58.2659912109375,75.377197265625
1758874621.4039817,-0.8212890625,-0.0087890625,0.57421875,-4.33349609375,0.8544921875,1.89208984375,1.988525390625,58.2659912109375,75.41015625
1758874621.4135482,-0.8212890625,-0.0087890625,0.57421875,-4.33349609375,0.8544921875,1.89208984375,1.9775390625,58.2659912109375,75.443115234375
1758874621.423974,-0.82568359375,0.00244140625,0.5595703125,-2.197265625,0.54931640625,2.38037109375,1.9775390625,58.2659912109375,75.487060546875
1758874621.4335709,-0.82568359375,0.00244140625,0.5595703125,-2.197265625,0.54931640625,2.38037109375,1.9940185546875,58.260498046875,75.531005859375
1758874621.4454749,-0.82275390625,0.0341796875,0.57177734375,-1.89208984375,-0.244140625,2.197265625,2.0050048828125,58.24951171875,75.574951171875
1758874621.453839,-0.82275390625,0.0341796875,0.57177734375,-1.89208984375,-0.244140625,2.197265625,2.021484375,58.238525390625,75.6134033203125
1758874621.464508,-0.8359375,0.04345703125,0.5615234375,-7.38525390625,-1.15966796875,2.13623046875,2.010498046875,58.216552734375,75.65185546875
1758874621.475058,-0.8359375,0.04345703125,0.5615234375,-7.38525390625,-1.15966796875,2.13623046875,1.9720458984375,58.194580078125,75.69580078125
1758874621.4848714,-0.8466796875,0.0537109375,0.5390625,-17.9443359375,-1.708984375,2.3193359375,1.8841552734375,58.1671142578125,75.7342529296875
1758874621.4938257,-0.8466796875,0.0537109375,0.5390625,-17.9443359375,-1.708984375,2.3193359375,1.746826171875,58.1396484375,75.7781982421875
1758874621.5047288,-0.82763671875,0.04296875,0.50537109375,-21.3623046875,-1.8310546875,2.3193359375,1.593017578125,58.1121826171875,75.82763671875
1758874621.5144646,-0.82763671875,0.04296875,0.50537109375,-21.3623046875,-1.8310546875,2.3193359375,1.42822265625,58.084716796875,75.87158203125
1758874621.5254571,-0.85693359375,-0.013671875,0.515625,-19.34814453125,-1.8310546875,1.89208984375,1.2689208984375,58.0572509765625,75.91552734375
1758874621.53393,-0.85693359375,-0.013671875,0.515625,-19.34814453125,-1.8310546875,1.89208984375,1.1151123046875,58.0352783203125,75.948486328125
1758874621.544408,-0.85693359375,-0.013671875,0.515625,-18.98193359375,-1.46484375,1.5869140625,0.9613037109375,58.0133056640625,75.9814453125
1758874621.5540173,-0.84326171875,0.0009765625,0.51220703125,-18.98193359375,-1.46484375,1.5869140625,0.802001953125,57.996826171875,76.014404296875
1758874621.5641909,-0.84814453125,0.025390625,0.52099609375,-10.68115234375,-1.0986328125,1.0986328125,0.68115234375,57.9803466796875,76.036376953125
1758874621.5738637,-0.84814453125,0.025390625,0.52099609375,-10.68115234375,-1.0986328125,1.0986328125,0.604248046875,57.9693603515625,76.058349609375
1758874621.5850291,-0.84033203125,0.00048828125,0.5185546875,-8.85009765625,-0.6103515625,0.244140625,0.52734375,57.9583740234375,76.0693359375
1758874621.5939212,-0.84033203125,0.00048828125,0.5185546875,-8.85009765625,-0.6103515625,0.244140625,0.450439453125,57.9473876953125,76.0748291015625
1758874621.6037338,-0.8349609375,0.00732421875,0.52490234375,-10.986328125,-0.3662109375,0.18310546875,0.362548828125,57.94189453125,76.0748291015625
1758874621.6137905,-0.8349609375,0.00732421875,0.52490234375,-10.986328125,-0.3662109375,0.18310546875,0.263671875,57.94189453125,76.080322265625
1758874621.6254113,-0.85302734375,-0.02978515625,0.54833984375,1.3427734375,-0.54931640625,-0.48828125,0.2197265625,57.9364013671875,76.0748291015625
1758874621.6338296,-0.85302734375,-0.02978515625,0.54833984375,1.3427734375,-0.54931640625,-0.48828125,0.230712890625,57.9254150390625,76.0638427734375
1758874621.6437988,-0.87744140625,-0.0556640625,0.5556640625,8.97216796875,-0.8544921875,-1.03759765625,0.2691650390625,57.919921875,76.04736328125
1758874621.6542757,-0.87744140625,-0.0556640625,0.5556640625,8.97216796875,-0.8544921875,-1.03759765625,0.340576171875,57.908935546875,76.025390625
1758874621.6637783,-0.8447265625,-0.01025390625,0.51318359375,19.1650390625,-0.54931640625,-1.953125,0.450439453125,57.9034423828125,75.992431640625
1758874621.6739829,-0.8447265625,-0.01025390625,0.51318359375,19.1650390625,-0.54931640625,-1.953125,0.604248046875,57.89794921875,75.9539794921875
1758874621.6848948,-0.85107421875,0.01806640625,0.5009765625,22.5830078125,-0.30517578125,-2.62451171875,0.76904296875,57.8924560546875,75.904541015625
1758874621.693957,-0.85107421875,0.01806640625,0.5009765625,22.5830078125,-0.30517578125,-2.62451171875,0.94482421875,57.8924560546875,75.8551025390625
1758874621.7042747,-0.88525390625,0.04443359375,0.521484375,15.80810546875,-0.67138671875,-2.9296875,1.087646484375,57.886962890625,75.794677734375
1758874621.7200308,-0.88525390625,0.04443359375,0.521484375,15.80810546875,-0.67138671875,-2.9296875,1.1920166015625,57.886962890625,75.73974609375
1758874621.7290947,-0.87353515625,0.04345703125,0.47119140625,6.04248046875,-0.42724609375,-3.2958984375,1.25244140625,57.886962890625,75.6793212890625
1758874621.7355084,-0.87353515625,0.04345703125,0.47119140625,6.04248046875,-0.42724609375,-3.2958984375,1.2579345703125,57.886962890625,75.6134033203125
1758874621.743923,-0.86669921875,0.04931640625,0.50048828125,-0.67138671875,-0.1220703125,-3.662109375,1.23046875,57.8924560546875,75.5474853515625
1758874621.7539768,-0.86669921875,0.04931640625,0.50048828125,-0.67138671875,-0.1220703125,-3.662109375,1.1700439453125,57.89794921875,75.47607421875
1758874621.7644527,-0.86865234375,0.02783203125,0.46337890625,-2.01416015625,0.6103515625,-3.84521484375,1.1041259765625,57.908935546875,75.4046630859375
1758874621.7767844,-0.86865234375,0.02783203125,0.46337890625,-2.01416015625,0.6103515625,-3.84521484375,1.03271484375,57.9254150390625,75.3277587890625
1758874621.783949,-0.88330078125,-0.0205078125,0.48193359375,-1.28173828125,1.03759765625,-4.0283203125,0.9613037109375,57.9473876953125,75.2508544921875
1758874621.7939963,-0.88330078125,-0.0205078125,0.48193359375,-1.28173828125,1.03759765625,-4.0283203125,0.889892578125,57.9693603515625,75.1739501953125
1758874621.8043203,-0.83740234375,-0.01220703125,0.474609375,-3.11279296875,1.15966796875,-4.150390625,0.8074951171875,57.9913330078125,75.091552734375
1758874621.8139868,-0.83740234375,-0.01220703125,0.474609375,-3.11279296875,1.15966796875,-4.150390625,0.714111328125,58.018798828125,75.0091552734375
1758874621.8247313,-0.87353515625,0.00341796875,0.521484375,-0.30517578125,0.3662109375,-3.96728515625,0.6317138671875,58.0352783203125,74.9267578125
1758874621.8350284,-0.87353515625,0.00341796875,0.521484375,-0.30517578125,0.3662109375,-3.96728515625,0.5712890625,58.0517578125,74.849853515625
1758874621.844066,-0.8642578125,-0.0087890625,0.5205078125,3.47900390625,-0.18310546875,-3.5400390625,0.52734375,58.062744140625,74.77294921875
1758874621.8543496,-0.8642578125,-0.0087890625,0.5205078125,3.47900390625,-0.18310546875,-3.5400390625,0.50537109375,58.07373046875,74.7015380859375
1758874621.8643348,-0.84521484375,-0.0107421875,0.50732421875,7.75146484375,-0.67138671875,-3.60107421875,0.50537109375,58.0792236328125,74.630126953125
1758874621.8748198,-0.84521484375,-0.0107421875,0.50732421875,7.75146484375,-0.67138671875,-3.60107421875,0.5218505859375,58.084716796875,74.5587158203125
1758874621.884182,-0.8515625,-0.001953125,0.51025390625,5.4931640625,-0.9765625,-3.2958984375,0.5328369140625,58.084716796875,74.4873046875
1758874621.895337,-0.8515625,-0.001953125,0.51025390625,5.4931640625,-0.9765625,-3.2958984375,0.5328369140625,58.084716796875,74.4158935546875
1758874621.9040782,-0.8427734375,0.02392578125,0.55029296875,2.62451171875,-1.40380859375,-3.662109375,0.516357421875,58.0792236328125,74.344482421875
1758874621.9144042,-0.8427734375,0.02392578125,0.55029296875,2.62451171875,-1.40380859375,-3.662109375,0.4833984375,58.07373046875,74.2730712890625
1758874621.9251425,-0.8486328125,0.0048828125,0.52978515625,5.859375,-2.0751953125,-3.84521484375,0.4669189453125,58.062744140625,74.1961669921875
1758874621.935067,-0.8486328125,0.0048828125,0.52978515625,5.859375,-2.0751953125,-3.84521484375,0.46142578125,58.0462646484375,74.1192626953125
1758874621.9441042,-0.83203125,-0.0341796875,0.51611328125,5.0048828125,-2.5634765625,-3.84521484375,0.4559326171875,58.02978515625,74.0423583984375
1758874621.9548347,-0.83203125,-0.0341796875,0.51611328125,5.0048828125,-2.5634765625,-3.84521484375,0.439453125,58.0078125,73.9599609375
1758874621.964672,-0.8486328125,-0.0185546875,0.521484375,9.6435546875,-2.86865234375,-4.2724609375,0.4449462890625,57.98583984375,73.8775634765625
1758874621.9750443,-0.8486328125,-0.0185546875,0.521484375,9.6435546875,-2.86865234375,-4.2724609375,0.4669189453125,57.9583740234375,73.7896728515625
1758874621.9842124,-0.83544921875,-0.005859375,0.5107421875,16.66259765625,-2.74658203125,-4.57763671875,0.5218505859375,57.9364013671875,73.7017822265625
1758874621.9956152,-0.83544921875,-0.005859375,0.5107421875,16.66259765625,-2.74658203125,-4.57763671875,0.6097412109375,57.9144287109375,73.6083984375
1758874622.0042083,-0.84033203125,0.00244140625,0.5478515625,14.70947265625,-3.41796875,-4.57763671875,0.6866455078125,57.886962890625,73.5205078125
1758874622.0142462,-0.84033203125,0.00244140625,0.5478515625,14.70947265625,-3.41796875,-4.57763671875,0.7525634765625,57.8594970703125,73.4271240234375
1758874622.0256355,-0.8359375,0.00927734375,0.52490234375,14.83154296875,-4.0283203125,-4.5166015625,0.8184814453125,57.8265380859375,73.3392333984375
1758874622.0342638,-0.8359375,0.00927734375,0.52490234375,14.83154296875,-4.0283203125,-4.5166015625,0.889892578125,57.7880859375,73.245849609375
1758874622.0442443,-0.85107421875,-0.0068359375,0.53173828125,18.73779296875,-4.45556640625,-4.57763671875,0.977783203125,57.7496337890625,73.157958984375
1758874622.0544963,-0.85107421875,-0.0068359375,0.53173828125,18.73779296875,-4.45556640625,-4.57763671875,1.0821533203125,57.7056884765625,73.0645751953125
1758874622.064535,-0.84521484375,-0.00341796875,0.537109375,17.39501953125,-4.638671875,-4.57763671875,1.1810302734375,57.667236328125,72.9766845703125
1758874622.0780523,-0.84521484375,-0.00341796875,0.537109375,17.39501953125,-4.638671875,-4.57763671875,1.2689208984375,57.623291015625,72.88330078125
1758874622.0848904,-0.8330078125,0.0068359375,0.53125,16.41845703125,-4.94384765625,-4.69970703125,1.3568115234375,57.579345703125,72.7899169921875
1758874622.0943966,-0.8330078125,0.0068359375,0.53125,16.41845703125,-4.94384765625,-4.69970703125,1.4337158203125,57.535400390625,72.6910400390625
1758874622.1043677,-0.85888671875,0.0029296875,0.5302734375,18.9208984375,-5.2490234375,-4.7607421875,1.527099609375,57.4859619140625,72.59765625
1758874622.1146731,-0.85888671875,0.0029296875,0.5302734375,18.9208984375,-5.2490234375,-4.7607421875,1.6259765625,57.4420166015625,72.498779296875
1758874622.1243174,-0.861328125,0.0126953125,0.53759765625,17.2119140625,-5.37109375,-4.69970703125,1.724853515625,57.392578125,72.39990234375
1758874622.1343937,-0.861328125,0.0126953125,0.53759765625,17.2119140625,-5.37109375,-4.69970703125,1.8072509765625,57.3431396484375,72.3065185546875
1758874622.1447759,-0.84326171875,0.0341796875,0.51123046875,12.63427734375,-5.2490234375,-4.638671875,1.8731689453125,57.2991943359375,72.2076416015625
1758874622.1544054,-0.84326171875,0.0341796875,0.51123046875,12.63427734375,-5.2490234375,-4.638671875,1.9171142578125,57.249755859375,72.1142578125
1758874622.1643577,-0.8359375,0.03076171875,0.5390625,10.19287109375,-5.4931640625,-4.45556640625,1.95556640625,57.205810546875,72.0208740234375
1758874622.1744027,-0.8359375,0.03076171875,0.5390625,10.19287109375,-5.4931640625,-4.45556640625,1.9775390625,57.1563720703125,71.927490234375
1758874622.1847682,-0.83837890625,0.00634765625,0.53955078125,8.6669921875,-5.55419921875,-3.96728515625,1.99951171875,57.10693359375,71.839599609375
1758874622.1944141,-0.83837890625,0.00634765625,0.53955078125,8.6669921875,-5.55419921875,-3.96728515625,2.0159912109375,57.0574951171875,71.7572021484375
1758874622.204476,-0.83203125,-0.009765625,0.53125,10.498046875,-5.37109375,-3.7841796875,2.0489501953125,57.008056640625,71.6802978515625
1758874622.2147863,-0.83203125,-0.009765625,0.53125,10.498046875,-5.37109375,-3.7841796875,2.0819091796875,56.964111328125,71.597900390625
1758874622.2244654,-0.8408203125,0.0,0.5419921875,13.0615234375,-5.06591796875,-3.60107421875,2.13134765625,56.9146728515625,71.52099609375
1758874622.2345,-0.8408203125,0.0,0.5419921875,13.0615234375,-5.06591796875,-3.60107421875,2.197265625,56.8707275390625,71.444091796875
1758874622.2446258,-0.841796875,0.04248046875,0.54345703125,13.916015625,-5.0048828125,-2.99072265625,2.2686767578125,56.8267822265625,71.3726806640625
1758874622.2548323,-0.841796875,0.04248046875,0.54345703125,13.916015625,-5.0048828125,-2.99072265625,2.35107421875,56.7828369140625,71.3067626953125
1758874622.2647443,-0.85595703125,0.03662109375,0.48974609375,10.68115234375,-4.638671875,-2.685546875,2.4224853515625,56.744384765625,71.2408447265625
1758874622.274636,-0.85595703125,0.03662109375,0.48974609375,10.68115234375,-4.638671875,-2.685546875,2.48291015625,56.7059326171875,71.180419921875
1758874622.2856457,-0.83984375,0.02978515625,0.5185546875,1.708984375,-4.39453125,-2.62451171875,2.4993896484375,56.66748046875,71.12548828125
1758874622.294512,-0.83984375,0.02978515625,0.5185546875,1.708984375,-4.39453125,-2.62451171875,2.471923828125,56.634521484375,71.0650634765625
1758874622.3048668,-0.84765625,0.0263671875,0.54833984375,-0.3662109375,-4.39453125,-2.25830078125,2.4334716796875,56.6015625,71.0101318359375
1758874622.3147748,-0.84765625,0.0263671875,0.54833984375,-0.3662109375,-4.39453125,-2.25830078125,2.39501953125,56.5631103515625,70.9552001953125
1758874622.3249226,-0.8408203125,0.01220703125,0.54345703125,1.5869140625,-4.21142578125,-1.8310546875,2.3675537109375,56.5301513671875,70.9112548828125
1758874622.3346272,-0.8408203125,0.01220703125,0.54345703125,1.5869140625,-4.21142578125,-1.8310546875,2.35107421875,56.4971923828125,70.8673095703125
1758874622.344945,-0.80615234375,-0.00390625,0.537109375,2.01416015625,-4.150390625,-1.52587890625,2.340087890625,56.4642333984375,70.8233642578125
1758874622.3550909,-0.80615234375,-0.00390625,0.537109375,2.01416015625,-4.150390625,-1.52587890625,2.3345947265625,56.4312744140625,70.784912109375
1758874622.3649843,-0.8173828125,0.00244140625,0.5849609375,3.11279296875,-4.21142578125,-1.15966796875,2.340087890625,56.392822265625,70.751953125
1758874622.3746321,-0.8173828125,0.00244140625,0.5849609375,3.11279296875,-4.21142578125,-1.15966796875,2.3455810546875,56.3543701171875,70.718994140625
1758874622.3855743,-0.814453125,0.01513671875,0.595703125,2.685546875,-4.7607421875,-0.6103515625,2.35107421875,56.3104248046875,70.697021484375
1758874622.3947756,-0.814453125,0.01513671875,0.595703125,2.685546875,-4.7607421875,-0.6103515625,2.362060546875,56.2664794921875,70.675048828125
1758874622.4051366,-0.79931640625,0.0322265625,0.55615234375,-1.15966796875,-5.126953125,0.0,2.340087890625,56.2115478515625,70.6640625
1758874622.4151027,-0.79931640625,0.0322265625,0.55615234375,-1.15966796875,-5.126953125,0.0,2.3236083984375,56.162109375,70.653076171875
1758874622.42533,-0.80224609375,0.0205078125,0.59423828125,3.5400390625,-6.04248046875,0.3662109375,2.3565673828125,56.1016845703125,70.6475830078125
1758874622.434777,-0.80224609375,0.0205078125,0.59423828125,3.5400390625,-6.04248046875,0.3662109375,2.3895263671875,56.0357666015625,70.64208984375
1758874622.4453611,-0.81689453125,0.00732421875,0.59765625,1.5869140625,-6.40869140625,1.220703125,2.4169921875,55.9698486328125,70.653076171875
1758874622.4558136,-0.81689453125,0.00732421875,0.59765625,1.5869140625,-6.40869140625,1.220703125,2.43896484375,55.9039306640625,70.6640625
1758874622.4647632,-0.79931640625,0.02490234375,0.57421875,-2.197265625,-6.8359375,1.3427734375,2.427978515625,55.83251953125,70.6805419921875
1758874622.47505,-0.79931640625,0.02490234375,0.57421875,-2.197265625,-6.8359375,1.3427734375,2.4169921875,55.755615234375,70.6915283203125
1758874622.4852316,-0.85302734375,0.017578125,0.56005859375,-1.03759765625,-6.7138671875,1.64794921875,2.4224853515625,55.6842041015625,70.7080078125
1758874622.494802,-0.85302734375,0.017578125,0.56005859375,-1.03759765625,-6.7138671875,1.64794921875,2.427978515625,55.6182861328125,70.7244873046875
1758874622.504832,-0.81494140625,0.01025390625,0.533203125,0.9765625,-6.53076171875,1.8310546875,2.4554443359375,55.5523681640625,70.7464599609375
1758874622.515079,-0.81494140625,0.01025390625,0.533203125,0.9765625,-6.53076171875,1.8310546875,2.48291015625,55.4864501953125,70.762939453125
1758874622.5248017,-0.8251953125,0.01171875,0.5751953125,2.62451171875,-6.16455078125,1.5869140625,2.52685546875,55.426025390625,70.7794189453125
1758874622.5348697,-0.8251953125,0.01171875,0.5751953125,2.62451171875,-6.16455078125,1.5869140625,2.5653076171875,55.3656005859375,70.7958984375
1758874622.544845,-0.8251953125,0.01171875,0.5751953125,7.99560546875,-6.103515625,1.0986328125,2.647705078125,55.30517578125,70.8013916015625
1758874622.5551286,-0.814453125,0.00927734375,0.58544921875,7.99560546875,-6.103515625,1.0986328125,2.735595703125,55.2447509765625,70.806884765625
1758874622.5648196,-0.80908203125,0.01513671875,0.59130859375,9.033203125,-5.79833984375,0.54931640625,2.8179931640625,55.184326171875,70.806884765625
1758874622.5748892,-0.80908203125,0.01513671875,0.59130859375,9.033203125,-5.79833984375,0.54931640625,2.9058837890625,55.1239013671875,70.8013916015625
1758874622.5852919,-0.7939453125,0.0537109375,0.5849609375,-1.03759765625,-5.2490234375,0.48828125,2.889404296875,55.074462890625,70.8013916015625
1758874622.5949233,-0.7939453125,0.0537109375,0.5849609375,-1.03759765625,-5.2490234375,0.48828125,2.87841796875,55.01953125,70.7958984375
1758874622.6049082,-0.7939453125,0.08642578125,0.5693359375,-3.11279296875,-5.06591796875,0.67138671875,2.8509521484375,54.964599609375,70.7958984375
1758874622.6149416,-0.7939453125,0.08642578125,0.5693359375,-3.11279296875,-5.06591796875,0.67138671875,2.8289794921875,54.9151611328125,70.8013916015625
1758874622.6253583,-0.82470703125,0.0302734375,0.6083984375,-5.31005859375,-4.69970703125,0.67138671875,2.7850341796875,54.86572265625,70.8013916015625
1758874622.634923,-0.82470703125,0.0302734375,0.6083984375,-5.31005859375,-4.69970703125,0.67138671875,2.7410888671875,54.8162841796875,70.806884765625
1758874622.644962,-0.80078125,0.041015625,0.5419921875,-15.19775390625,-4.21142578125,0.8544921875,2.603759765625,54.7723388671875,70.8123779296875
1758874622.655316,-0.80078125,0.041015625,0.5419921875,-15.19775390625,-4.21142578125,0.8544921875,2.4664306640625,54.7283935546875,70.8233642578125
1758874622.665313,-0.81298828125,0.05615234375,0.5908203125,-16.2353515625,-3.96728515625,1.0986328125,2.3236083984375,54.68994140625,70.8343505859375
1758874622.6761293,-0.81298828125,0.05615234375,0.5908203125,-16.2353515625,-3.96728515625,1.0986328125,2.186279296875,54.64599609375,70.8453369140625
1758874622.6849754,-0.83154296875,0.00439453125,0.556640625,-9.21630859375,-3.60107421875,1.5869140625,2.120361328125,54.613037109375,70.8673095703125
1758874622.6958556,-0.83154296875,0.00439453125,0.556640625,-9.21630859375,-3.60107421875,1.5869140625,2.0599365234375,54.5745849609375,70.8892822265625
1758874622.7050574,-0.822265625,-0.03564453125,0.57080078125,-9.82666015625,-3.2958984375,1.953125,1.988525390625,54.5416259765625,70.9112548828125
1758874622.7152994,-0.822265625,-0.03564453125,0.57080078125,-9.82666015625,-3.2958984375,1.953125,1.9171142578125,54.51416015625,70.938720703125
1758874622.7250917,-0.7958984375,0.02197265625,0.580078125,-8.72802734375,-2.50244140625,2.13623046875,1.8621826171875,54.4866943359375,70.9661865234375
1758874622.7352595,-0.7958984375,0.02197265625,0.580078125,-8.72802734375,-2.50244140625,2.13623046875,1.8017578125,54.4647216796875,70.99365234375
1758874622.745081,-0.79150390625,0.02734375,0.59716796875,-2.44140625,-2.13623046875,2.197265625,1.8072509765625,54.4427490234375,71.0211181640625
1758874622.755975,-0.79150390625,0.02734375,0.59716796875,-2.44140625,-2.13623046875,2.197265625,1.8182373046875,54.4207763671875,71.0540771484375
1758874622.765127,-0.80224609375,0.0361328125,0.6083984375,-7.14111328125,-1.953125,2.50244140625,1.77978515625,54.3988037109375,71.0870361328125
1758874622.775341,-0.80224609375,0.0361328125,0.6083984375,-7.14111328125,-1.953125,2.50244140625,1.746826171875,54.38232421875,71.12548828125
1758874622.7851405,-0.80908203125,0.056640625,0.6025390625,-12.39013671875,-2.0751953125,2.9296875,1.669921875,54.3548583984375,71.1639404296875
1758874622.796311,-0.80908203125,0.056640625,0.6025390625,-12.39013671875,-2.0751953125,2.9296875,1.593017578125,54.3328857421875,71.2078857421875
1758874622.805105,-0.79638671875,0.02978515625,0.56005859375,-20.32470703125,-2.01416015625,3.47900390625,1.4447021484375,54.3109130859375,71.2628173828125
1758874622.81561,-0.79638671875,0.02978515625,0.56005859375,-20.32470703125,-2.01416015625,3.47900390625,1.3018798828125,54.2889404296875,71.3177490234375
1758874622.8259413,-0.82763671875,0.00390625,0.607421875,-20.6298828125,-2.38037109375,3.5400390625,1.153564453125,54.261474609375,71.3726806640625
1758874622.8361132,-0.82763671875,0.00390625,0.607421875,-20.6298828125,-2.38037109375,3.5400390625,1.0052490234375,54.2340087890625,71.4276123046875
1758874622.8451846,-0.79296875,-0.0087890625,0.57470703125,-20.20263671875,-2.5634765625,4.08935546875,0.867919921875,54.20654296875,71.488037109375
1758874622.855992,-0.79296875,-0.0087890625,0.57470703125,-20.20263671875,-2.5634765625,4.08935546875,0.72509765625,54.1790771484375,71.553955078125
1758874622.8655772,-0.79296875,0.0078125,0.5654296875,-15.7470703125,-2.3193359375,4.21142578125,0.6317138671875,54.1571044921875,71.619873046875
1758874622.8758023,-0.79296875,0.0078125,0.5654296875,-15.7470703125,-2.3193359375,4.21142578125,0.538330078125,54.1351318359375,71.6802978515625
1758874622.886132,-0.78564453125,-0.01171875,0.60400390625,-10.92529296875,-2.38037109375,4.21142578125,0.494384765625,54.107666015625,71.7462158203125
1758874622.8952239,-0.78564453125,-0.01171875,0.60400390625,-10.92529296875,-2.38037109375,4.21142578125,0.450439453125,54.0802001953125,71.8121337890625
1758874622.9052324,-0.77685546875,-0.021484375,0.60546875,-6.16455078125,-2.5634765625,4.57763671875,0.450439453125,54.052734375,71.883544921875
1758874622.9152546,-0.77685546875,-0.021484375,0.60546875,-6.16455078125,-2.5634765625,4.57763671875,0.4559326171875,54.0252685546875,71.949462890625
1758874622.9255888,-0.79150390625,-0.04541015625,0.62109375,7.99560546875,-3.41796875,3.90625,0.582275390625,53.98681640625,72.0098876953125
1758874622.935428,-0.79150390625,-0.04541015625,0.62109375,7.99560546875,-3.41796875,3.90625,0.714111328125,53.9483642578125,72.0648193359375
1758874622.9453616,-0.8017578125,-0.0263671875,0.6220703125,16.17431640625,-4.57763671875,3.90625,0.9173583984375,53.89892578125,72.1197509765625
1758874622.9557786,-0.8017578125,-0.0263671875,0.6220703125,16.17431640625,-4.57763671875,3.90625,1.12060546875,53.843994140625,72.18017578125
1758874622.9671924,-0.822265625,0.01708984375,0.58056640625,14.95361328125,-5.2490234375,3.662109375,1.307373046875,53.7890625,72.2296142578125
1758874622.9754171,-0.822265625,0.01708984375,0.58056640625,14.95361328125,-5.2490234375,3.662109375,1.494140625,53.734130859375,72.279052734375
1758874622.9866216,-0.8486328125,0.07861328125,0.59619140625,0.18310546875,-5.37109375,2.99072265625,1.527099609375,53.67919921875,72.3175048828125
1758874622.9953458,-0.8486328125,0.07861328125,0.59619140625,0.18310546875,-5.37109375,2.99072265625,1.5655517578125,53.624267578125,72.3614501953125
1758874623.0053465,-0.82763671875,0.0966796875,0.533203125,-11.5966796875,-4.94384765625,2.86865234375,1.4886474609375,53.5748291015625,72.39990234375
1758874623.0157053,-0.82763671875,0.0966796875,0.533203125,-11.5966796875,-4.94384765625,2.86865234375,1.4117431640625,53.525390625,72.4383544921875
1758874623.0255272,-0.85205078125,0.0478515625,0.548828125,-13.12255859375,-4.39453125,3.0517578125,1.329345703125,53.4869384765625,72.4822998046875
1758874623.035654,-0.85205078125,0.0478515625,0.548828125,-13.12255859375,-4.39453125,3.0517578125,1.25244140625,53.4539794921875,72.5262451171875
1758874623.0454676,-0.8125,-0.01171875,0.5087890625,-13.73291015625,-3.47900390625,2.74658203125,1.1590576171875,53.426513671875,72.5592041015625
1758874623.055757,-0.8125,-0.01171875,0.5087890625,-13.73291015625,-3.47900390625,2.74658203125,1.065673828125,53.404541015625,72.59765625
1758874623.0654914,-0.80322265625,-0.0302734375,0.56103515625,-12.8173828125,-2.86865234375,2.44140625,0.977783203125,53.382568359375,72.6251220703125
1758874623.075476,-0.80322265625,-0.0302734375,0.56103515625,-12.8173828125,-2.86865234375,2.44140625,0.8843994140625,53.3660888671875,72.652587890625
1758874623.0865183,-0.8369140625,0.01708984375,0.5947265625,-8.97216796875,-2.62451171875,2.0751953125,0.823974609375,53.349609375,72.6800537109375
1758874623.0954974,-0.8369140625,0.01708984375,0.5947265625,-8.97216796875,-2.62451171875,2.0751953125,0.76904296875,53.338623046875,72.7020263671875
1758874623.1055408,-0.806640625,0.01904296875,0.60205078125,-1.3427734375,-2.9296875,1.40380859375,0.7745361328125,53.316650390625,72.718505859375
1758874623.1155856,-0.806640625,0.01904296875,0.60205078125,-1.3427734375,-2.9296875,1.40380859375,0.7855224609375,53.3001708984375,72.7294921875
1758874623.1255367,-0.80029296875,0.01416015625,0.56689453125,-6.103515625,-2.5634765625,1.15966796875,0.7415771484375,53.2781982421875,72.740478515625
1758874623.13577,-0.80029296875,0.01416015625,0.56689453125,-6.103515625,-2.5634765625,1.15966796875,0.703125,53.26171875,72.7459716796875
1758874623.1463351,-0.82470703125,0.01220703125,0.58740234375,-3.2958984375,-2.5634765625,0.79345703125,0.6866455078125,53.2452392578125,72.75146484375
1758874623.155552,-0.82470703125,0.01220703125,0.58740234375,-3.2958984375,-2.5634765625,0.79345703125,0.6646728515625,53.228759765625,72.75146484375
1758874623.165821,-0.82177734375,-0.03466796875,0.576171875,3.23486328125,-2.25830078125,0.6103515625,0.7086181640625,53.2177734375,72.75146484375
1758874623.1760087,-0.82177734375,-0.03466796875,0.576171875,3.23486328125,-2.25830078125,0.6103515625,0.7470703125,53.206787109375,72.75146484375
1758874623.1873958,-0.802734375,-0.03369140625,0.556640625,9.765625,-1.89208984375,0.3662109375,0.845947265625,53.19580078125,72.7459716796875
1758874623.1956098,-0.802734375,-0.03369140625,0.556640625,9.765625,-1.89208984375,0.3662109375,0.94482421875,53.184814453125,72.740478515625
1758874623.2059324,-0.81689453125,0.00341796875,0.576171875,12.8173828125,-1.3427734375,0.0,1.065673828125,53.184814453125,72.7294921875
1758874623.216051,-0.81689453125,0.00341796875,0.576171875,12.8173828125,-1.3427734375,0.0,1.1865234375,53.1793212890625,72.718505859375
1758874623.2260535,-0.81689453125,0.03759765625,0.5595703125,11.65771484375,-0.79345703125,-0.54931640625,1.2908935546875,53.184814453125,72.7020263671875
1758874623.2362187,-0.81689453125,0.03759765625,0.5595703125,11.65771484375,-0.79345703125,-0.54931640625,1.395263671875,53.184814453125,72.685546875
1758874623.246624,-0.81396484375,0.02685546875,0.5830078125,10.07080078125,-0.3662109375,-0.9765625,1.4776611328125,53.19580078125,72.6580810546875
1758874623.2556381,-0.81396484375,0.02685546875,0.5830078125,10.07080078125,-0.3662109375,-0.9765625,1.56005859375,53.2012939453125,72.6361083984375
1758874623.2665598,-0.81005859375,0.01416015625,0.58544921875,9.765625,-0.18310546875,-1.0986328125,1.6424560546875,53.206787109375,72.608642578125
1758874623.2759933,-0.81005859375,0.01416015625,0.58544921875,9.765625,-0.18310546875,-1.0986328125,1.7193603515625,53.2177734375,72.5811767578125
1758874623.2865422,-0.81103515625,0.01318359375,0.587890625,9.8876953125,-0.18310546875,-1.3427734375,1.7962646484375,53.2232666015625,72.5537109375
1758874623.295765,-0.81103515625,0.01318359375,0.587890625,9.8876953125,-0.18310546875,-1.3427734375,1.8731689453125,53.228759765625,72.520751953125
1758874623.3068743,-0.80224609375,0.01708984375,0.58203125,7.14111328125,-0.1220703125,-1.3427734375,1.922607421875,53.23974609375,72.4932861328125
1758874623.3157294,-0.80224609375,0.01708984375,0.58203125,7.14111328125,-0.1220703125,-1.3427734375,1.9720458984375,53.2452392578125,72.4603271484375
1758874623.3263195,-0.8046875,0.02099609375,0.5830078125,6.9580078125,-0.30517578125,-1.220703125,2.021484375,53.250732421875,72.432861328125
1758874623.3366685,-0.8046875,0.02099609375,0.5830078125,6.9580078125,-0.30517578125,-1.220703125,2.0709228515625,53.2562255859375,72.4053955078125
1758874623.3458068,-0.8046875,0.02099609375,0.5830078125,7.4462890625,-0.67138671875,-1.40380859375,2.120361328125,53.2562255859375,72.3779296875
1758874623.355787,-0.80712890625,0.0234375,0.6123046875,7.4462890625,-0.67138671875,-1.40380859375,2.17529296875,53.250732421875,72.344970703125
1758874623.36584,-0.7822265625,0.02587890625,0.57861328125,7.9345703125,-0.9765625,-1.64794921875,2.2247314453125,53.250732421875,72.31201171875
1758874623.3762078,-0.80322265625,0.025390625,0.61865234375,8.97216796875,-1.64794921875,-2.13623046875,2.2796630859375,53.23974609375,72.2735595703125
1758874623.385818,-0.80322265625,0.025390625,0.61865234375,8.97216796875,-1.64794921875,-2.13623046875,2.340087890625,53.228759765625,72.2296142578125
1758874623.3957953,-0.796875,0.0205078125,0.59375,8.72802734375,-1.953125,-2.25830078125,2.39501953125,53.2177734375,72.1856689453125
1758874623.4062095,-0.796875,0.0205078125,0.59375,8.72802734375,-1.953125,-2.25830078125,2.4444580078125,53.2012939453125,72.13623046875
1758874623.4158993,-0.78515625,0.02734375,0.58935546875,4.57763671875,-2.25830078125,-2.3193359375,2.4774169921875,53.1793212890625,72.09228515625
1758874623.4258099,-0.78515625,0.02734375,0.58935546875,4.57763671875,-2.25830078125,-2.3193359375,2.4884033203125,53.162841796875,72.04833984375
1758874623.4358776,-0.80615234375,0.0439453125,0.6142578125,2.3193359375,-2.25830078125,-2.13623046875,2.4884033203125,53.140869140625,72.00439453125
1758874623.446417,-0.80615234375,0.0439453125,0.6142578125,2.3193359375,-2.25830078125,-2.13623046875,2.4774169921875,53.1243896484375,71.96044921875
1758874623.45592,-0.80908203125,0.03515625,0.572265625,2.50244140625,-1.708984375,-2.13623046875,2.471923828125,53.10791015625,71.91650390625
1758874623.4659302,-0.80908203125,0.03515625,0.572265625,2.50244140625,-1.708984375,-2.13623046875,2.471923828125,53.0914306640625,71.8780517578125
1758874623.4760945,-0.80615234375,0.02734375,0.5537109375,0.9765625,-0.8544921875,-2.44140625,2.4554443359375,53.0859375,71.8341064453125
1758874623.4859693,-0.80615234375,0.02734375,0.5537109375,0.9765625,-0.8544921875,-2.44140625,2.4334716796875,53.0804443359375,71.7901611328125
1758874623.495932,-0.814453125,0.02783203125,0.59033203125,-0.79345703125,0.1220703125,-2.50244140625,2.406005859375,53.0859375,71.7462158203125
1758874623.5063324,-0.814453125,0.02783203125,0.59033203125,-0.79345703125,0.1220703125,-2.50244140625,2.362060546875,53.0914306640625,71.69677734375
1758874623.5160866,-0.80029296875,0.02001953125,0.59814453125,-0.6103515625,0.9765625,-2.38037109375,2.3291015625,53.1024169921875,71.65283203125
1758874623.5259662,-0.80029296875,0.02001953125,0.59814453125,-0.6103515625,0.9765625,-2.38037109375,2.2906494140625,53.118896484375,71.6143798828125
1758874623.5360522,-0.80908203125,0.01220703125,0.59521484375,-2.3193359375,1.708984375,-2.3193359375,2.2467041015625,53.1353759765625,71.5704345703125
1758874623.546504,-0.80908203125,0.01220703125,0.59521484375,-2.3193359375,1.708984375,-2.3193359375,2.197265625,53.1573486328125,71.5264892578125
1758874623.5560663,-0.80224609375,0.03759765625,0.59814453125,-6.53076171875,2.74658203125,-2.38037109375,2.120361328125,53.184814453125,71.4825439453125
1758874623.5666442,-0.80224609375,0.03759765625,0.59814453125,-6.53076171875,2.74658203125,-2.38037109375,2.0269775390625,53.2177734375,71.444091796875
1758874623.5781617,-0.7958984375,0.04248046875,0.59912109375,-3.7841796875,3.72314453125,-2.44140625,1.9500732421875,53.250732421875,71.400146484375
1758874623.5862699,-0.7958984375,0.04248046875,0.59912109375,-3.7841796875,3.72314453125,-2.44140625,1.8841552734375,53.294677734375,71.356201171875
1758874623.5961714,-0.791015625,-0.00048828125,0.611328125,-3.11279296875,4.5166015625,-1.8310546875,1.8292236328125,53.3331298828125,71.3177490234375
1758874623.6060917,-0.791015625,-0.00048828125,0.611328125,-3.11279296875,4.5166015625,-1.8310546875,1.77978515625,53.382568359375,71.2847900390625
1758874623.617029,-0.77734375,-0.0244140625,0.6123046875,-1.89208984375,4.45556640625,-1.15966796875,1.73583984375,53.426513671875,71.25732421875
1758874623.6263769,-0.77734375,-0.0244140625,0.6123046875,-1.89208984375,4.45556640625,-1.15966796875,1.702880859375,53.470458984375,71.2353515625
1758874623.6363523,-0.7998046875,-0.0185546875,0.60595703125,3.23486328125,3.96728515625,-1.03759765625,1.6973876953125,53.5089111328125,71.21337890625
1758874623.6461964,-0.7998046875,-0.0185546875,0.60595703125,3.23486328125,3.96728515625,-1.03759765625,1.7138671875,53.54736328125,71.19140625
1758874623.6572137,-0.78662109375,0.0185546875,0.59521484375,3.96728515625,3.173828125,-1.40380859375,1.7303466796875,53.580322265625,71.1639404296875
1758874623.666207,-0.78662109375,0.0185546875,0.59521484375,3.96728515625,3.173828125,-1.40380859375,1.746826171875,53.6077880859375,71.136474609375
1758874623.67711,-0.7890625,0.0546875,0.607421875,3.5400390625,2.5634765625,-2.01416015625,1.7578125,53.6297607421875,71.103515625
1758874623.6862535,-0.7890625,0.0546875,0.607421875,3.5400390625,2.5634765625,-2.01416015625,1.7633056640625,53.6517333984375,71.070556640625
1758874623.696364,-0.787109375,0.056640625,0.60595703125,-2.99072265625,2.13623046875,-2.13623046875,1.7413330078125,53.6737060546875,71.0321044921875
1758874623.706246,-0.787109375,0.056640625,0.60595703125,-2.99072265625,2.13623046875,-2.13623046875,1.6864013671875,53.690185546875,70.9991455078125
1758874623.717241,-0.7822265625,0.02880859375,0.6015625,-5.92041015625,1.77001953125,-2.197265625,1.614990234375,53.7066650390625,70.960693359375
1758874623.7263186,-0.7822265625,0.02880859375,0.6015625,-5.92041015625,1.77001953125,-2.197265625,1.5325927734375,53.7176513671875,70.9222412109375
1758874623.7368493,-0.81396484375,-0.00244140625,0.62646484375,-6.77490234375,1.77001953125,-2.01416015625,1.4501953125,53.7286376953125,70.8892822265625
1758874623.7464478,-0.81396484375,-0.00244140625,0.62646484375,-6.77490234375,1.77001953125,-2.01416015625,1.3568115234375,53.7396240234375,70.850830078125
1758874623.7568338,-0.80712890625,-0.00634765625,0.56298828125,-7.87353515625,2.197265625,-2.86865234375,1.2579345703125,53.756103515625,70.806884765625
1758874623.7662895,-0.80712890625,-0.00634765625,0.56298828125,-7.87353515625,2.197265625,-2.86865234375,1.142578125,53.7725830078125,70.7574462890625
1758874623.777048,-0.80859375,0.0048828125,0.59765625,-2.25830078125,2.197265625,-3.2958984375,1.0491943359375,53.7890625,70.7025146484375
1758874623.7868836,-0.80859375,0.0048828125,0.59765625,-2.25830078125,2.197265625,-3.2958984375,0.98876953125,53.81103515625,70.64208984375
1758874623.7963586,-0.7958984375,-0.00537109375,0.57373046875,3.5400390625,1.708984375,-3.41796875,0.9503173828125,53.8275146484375,70.5816650390625
1758874623.8064063,-0.7958984375,-0.00537109375,0.57373046875,3.5400390625,1.708984375,-3.41796875,0.9393310546875,53.8385009765625,70.521240234375
1758874623.8164907,-0.79541015625,0.0068359375,0.58642578125,3.41796875,0.6103515625,-3.72314453125,0.9283447265625,53.8494873046875,70.4608154296875
1758874623.826376,-0.79541015625,0.0068359375,0.58642578125,3.41796875,0.6103515625,-3.72314453125,0.911865234375,53.85498046875,70.389404296875
1758874623.8363972,-0.79541015625,0.0068359375,0.58642578125,4.0283203125,-0.54931640625,-3.7841796875,0.8953857421875,53.8494873046875,70.323486328125
1758874623.8464015,-0.79931640625,0.0185546875,0.6171875,4.0283203125,-0.54931640625,-3.7841796875,0.8843994140625,53.843994140625,70.257568359375
1758874623.856662,-0.77978515625,0.00830078125,0.60595703125,3.11279296875,-1.8310546875,-3.60107421875,0.8734130859375,53.8275146484375,70.191650390625
1758874623.8668706,-0.77978515625,0.00830078125,0.60595703125,3.11279296875,-1.8310546875,-3.60107421875,0.8514404296875,53.8055419921875,70.125732421875
1758874623.8775828,-0.787109375,0.009765625,0.5869140625,-2.25830078125,-2.38037109375,-3.47900390625,0.81298828125,53.7835693359375,70.0653076171875
1758874623.886479,-0.787109375,0.009765625,0.5869140625,-2.25830078125,-2.38037109375,-3.47900390625,0.7415771484375,53.756103515625,70.0048828125
1758874623.9062915,-0.78076171875,0.013671875,0.60302734375,-3.47900390625,-2.86865234375,-3.60107421875,0.6646728515625,53.72314453125,69.93896484375
1758874623.913939,-0.78076171875,0.013671875,0.60302734375,-3.47900390625,-2.86865234375,-3.60107421875,0.582275390625,53.690185546875,69.873046875
1758874623.9298522,-0.77685546875,0.02392578125,0.6240234375,-0.8544921875,-4.69970703125,-4.150390625,0.5108642578125,53.646240234375,69.80712890625
1758874623.9399984,-0.77685546875,0.02392578125,0.6240234375,-0.8544921875,-4.69970703125,-4.150390625,0.450439453125,53.5968017578125,69.7357177734375
1758874623.9478521,-0.74853515625,-0.001953125,0.607421875,-4.7607421875,-5.18798828125,-2.99072265625,0.3790283203125,53.5418701171875,69.67529296875
1758874623.9549265,-0.74853515625,-0.001953125,0.607421875,-4.7607421875,-5.18798828125,-2.99072265625,0.296630859375,53.4814453125,69.620361328125
1758874623.9613233,-0.79345703125,0.015625,0.65576171875,-6.103515625,-5.37109375,-3.0517578125,0.2032470703125,53.4210205078125,69.5709228515625
1758874623.968339,-0.79345703125,0.015625,0.65576171875,-6.103515625,-5.37109375,-3.0517578125,0.10986328125,53.360595703125,69.5159912109375
1758874623.9772725,-0.7666015625,-0.005859375,0.59765625,-7.26318359375,-5.79833984375,-2.5634765625,0.010986328125,53.3001708984375,69.4720458984375
1758874623.9869306,-0.7666015625,-0.005859375,0.59765625,-7.26318359375,-5.79833984375,-2.5634765625,-0.0823974609375,53.2342529296875,69.4281005859375
1758874623.996598,-0.802734375,-0.02783203125,0.625,-3.84521484375,-6.103515625,-1.953125,-0.164794921875,53.162841796875,69.3896484375
1758874624.0074282,-0.802734375,-0.02783203125,0.625,-3.84521484375,-6.103515625,-1.953125,-0.2252197265625,53.096923828125,69.356689453125
1758874624.0166438,-0.78076171875,-0.052734375,0.59521484375,2.86865234375,-5.92041015625,-1.708984375,-0.252685546875,53.031005859375,69.32373046875
1758874624.0269291,-0.78076171875,-0.052734375,0.59521484375,2.86865234375,-5.92041015625,-1.708984375,-0.2471923828125,52.965087890625,69.290771484375
1758874624.0373452,-0.78564453125,-0.029296875,0.6083984375,5.0048828125,-5.4931640625,-1.28173828125,-0.230712890625,52.9046630859375,69.2633056640625
1758874624.0469327,-0.78564453125,-0.029296875,0.6083984375,5.0048828125,-5.4931640625,-1.28173828125,-0.2032470703125,52.84423828125,69.23583984375
1758874624.0566998,-0.80126953125,0.01123046875,0.60302734375,8.1787109375,-4.94384765625,-1.708984375,-0.164794921875,52.789306640625,69.202880859375
1758874624.0672243,-0.80126953125,0.01123046875,0.60302734375,8.1787109375,-4.94384765625,-1.708984375,-0.10986328125,52.734375,69.169921875
1758874624.0767558,-0.79638671875,0.0302734375,0.61181640625,4.7607421875,-3.96728515625,-1.8310546875,-0.0714111328125,52.6904296875,69.136962890625
1758874624.0873969,-0.79638671875,0.0302734375,0.61181640625,4.7607421875,-3.96728515625,-1.8310546875,-0.0494384765625,52.646484375,69.0985107421875
1758874624.0969896,-0.7900390625,0.05126953125,0.6240234375,-4.94384765625,-2.62451171875,-2.13623046875,-0.076904296875,52.613525390625,69.06005859375
1758874624.1070275,-0.7900390625,0.05126953125,0.6240234375,-4.94384765625,-2.62451171875,-2.13623046875,-0.1483154296875,52.5860595703125,69.0216064453125
1758874624.1168656,-0.82275390625,0.04052734375,0.6064453125,-9.58251953125,-1.52587890625,-2.38037109375,-0.24169921875,52.5640869140625,68.9776611328125
1758874624.1275606,-0.82275390625,0.04052734375,0.6064453125,-9.58251953125,-1.52587890625,-2.38037109375,-0.362548828125,52.547607421875,68.9337158203125
1758874624.1368358,-0.7841796875,-0.04736328125,0.5341796875,-13.00048828125,-3.96728515625,-1.953125,-0.494384765625,52.5201416015625,68.8897705078125
1758874624.147219,-0.7841796875,-0.04736328125,0.5341796875,-13.00048828125,-3.96728515625,-1.953125,-0.63720703125,52.481689453125,68.851318359375
1758874624.157901,-0.79052734375,-0.046875,0.5908203125,-14.6484375,-4.33349609375,-1.03759765625,-0.791015625,52.4432373046875,68.818359375
1758874624.1671557,-0.79052734375,-0.046875,0.5908203125,-14.6484375,-4.33349609375,-1.03759765625,-0.94482421875,52.40478515625,68.79638671875
1758874624.1768348,-0.7998046875,-0.01806640625,0.6103515625,-6.04248046875,-4.2724609375,-1.15966796875,-1.0601806640625,52.36083984375,68.7689208984375
1758874624.1877935,-0.7998046875,-0.01806640625,0.6103515625,-6.04248046875,-4.2724609375,-1.15966796875,-1.131591796875,52.3223876953125,68.741455078125
1758874624.196924,-0.7919921875,-0.02587890625,0.58642578125,3.0517578125,-4.08935546875,-1.28173828125,-1.1590576171875,52.2894287109375,68.7139892578125
1758874624.207142,-0.7919921875,-0.02587890625,0.58642578125,3.0517578125,-4.08935546875,-1.28173828125,-1.142578125,52.2509765625,68.6810302734375
1758874624.2169323,-0.80126953125,-0.05517578125,0.59375,5.126953125,-4.150390625,-0.8544921875,-1.1151123046875,52.2125244140625,68.653564453125
1758874624.2274508,-0.80126953125,-0.05517578125,0.59375,5.126953125,-4.150390625,-0.8544921875,-1.07666015625,52.1795654296875,68.631591796875
1758874624.236891,-0.79931640625,-0.0380859375,0.59765625,9.58251953125,-3.84521484375,-1.220703125,-1.021728515625,52.1466064453125,68.6041259765625
1758874624.2472417,-0.79931640625,-0.0380859375,0.59765625,9.58251953125,-3.84521484375,-1.220703125,-0.94482421875,52.1136474609375,68.57666015625
1758874624.2574625,-0.7939453125,-0.04052734375,0.5986328125,20.8740234375,-3.662109375,-1.77001953125,-0.8184814453125,52.0806884765625,68.5382080078125
1758874624.2672114,-0.7939453125,-0.04052734375,0.5986328125,20.8740234375,-3.662109375,-1.77001953125,-0.6427001953125,52.0477294921875,68.499755859375
1758874624.276948,-0.80078125,-0.01708984375,0.61669921875,22.27783203125,-3.60107421875,-2.01416015625,-0.46142578125,52.020263671875,68.455810546875
1758874624.2875707,-0.80078125,-0.01708984375,0.61669921875,22.27783203125,-3.60107421875,-2.01416015625,-0.2801513671875,51.9927978515625,68.4063720703125
1758874624.2971387,-0.79638671875,0.02783203125,0.6259765625,17.08984375,-3.41796875,-2.197265625,-0.120849609375,51.9598388671875,68.3624267578125
1758874624.307209,-0.79638671875,0.02783203125,0.6259765625,17.08984375,-3.41796875,-2.197265625,0.0054931640625,51.932373046875,68.31298828125
1758874624.3170338,-0.8193359375,0.04052734375,0.60302734375,7.50732421875,-3.35693359375,-2.3193359375,0.0933837890625,51.9049072265625,68.2635498046875
1758874624.3276184,-0.8193359375,0.04052734375,0.60302734375,7.50732421875,-3.35693359375,-2.3193359375,0.1318359375,51.87744140625,68.2196044921875
1758874624.3370008,-0.818359375,0.04443359375,0.57275390625,-3.662109375,-3.23486328125,-2.74658203125,0.1153564453125,51.8499755859375,68.1646728515625
1758874624.3474,-0.818359375,0.04443359375,0.57275390625,-3.662109375,-3.23486328125,-2.74658203125,0.0439453125,51.8280029296875,68.1097412109375
1758874624.358081,-0.8310546875,0.01513671875,0.56396484375,-8.48388671875,-2.0751953125,-2.3193359375,-0.0384521484375,51.8115234375,68.060302734375
1758874624.3673563,-0.8310546875,0.01513671875,0.56396484375,-8.48388671875,-2.0751953125,-2.3193359375,-0.1483154296875,51.800537109375,68.0108642578125
1758874624.3771281,-0.818359375,-0.0166015625,0.55908203125,-5.92041015625,-1.220703125,-2.62451171875,-0.2471923828125,51.7950439453125,67.9559326171875
1758874624.388025,-0.818359375,-0.0166015625,0.55908203125,-5.92041015625,-1.220703125,-2.62451171875,-0.3350830078125,51.7950439453125,67.9010009765625
1758874624.3970664,-0.80029296875,-0.01416015625,0.56005859375,-5.0048828125,-1.03759765625,-2.74658203125,-0.41748046875,51.800537109375,67.8460693359375
1758874624.4074104,-0.80029296875,-0.01416015625,0.56005859375,-5.0048828125,-1.03759765625,-2.74658203125,-0.4998779296875,51.8060302734375,67.7911376953125
1758874624.4183652,-0.79736328125,-0.0185546875,0.60302734375,-6.04248046875,-0.67138671875,-2.62451171875,-0.5877685546875,51.8115234375,67.730712890625
1758874624.4273038,-0.79736328125,-0.0185546875,0.60302734375,-6.04248046875,-0.67138671875,-2.62451171875,-0.68115234375,51.8170166015625,67.67578125
1758874624.4371414,-0.78857421875,-0.021484375,0.63134765625,-3.23486328125,-0.244140625,-2.5634765625,-0.7415771484375,51.8280029296875,67.620849609375
1758874624.4479935,-0.78857421875,-0.021484375,0.63134765625,-3.23486328125,-0.244140625,-2.5634765625,-0.8074951171875,51.83349609375,67.56591796875
1758874624.4573886,-0.7763671875,-0.04052734375,0.609375,0.3662109375,-0.30517578125,-2.38037109375,-0.8349609375,51.8389892578125,67.5164794921875
1758874624.4678097,-0.7763671875,-0.04052734375,0.609375,0.3662109375,-0.30517578125,-2.38037109375,-0.8624267578125,51.844482421875,67.467041015625
1758874624.4794567,-0.802734375,-0.0205078125,0.611328125,3.173828125,0.0,-2.197265625,-0.85693359375,51.8499755859375,67.4176025390625
1758874624.4874203,-0.802734375,-0.0205078125,0.611328125,3.173828125,0.0,-2.197265625,-0.85693359375,51.8609619140625,67.3681640625
1758874624.4972265,-0.79150390625,-0.01318359375,0.5927734375,4.82177734375,0.8544921875,-1.708984375,-0.8349609375,51.8719482421875,67.32421875
1758874624.5078819,-0.79150390625,-0.01318359375,0.5927734375,4.82177734375,0.8544921875,-1.708984375,-0.81298828125,51.888427734375,67.2857666015625
1758874624.5179586,-0.79345703125,-0.00537109375,0.61865234375,2.62451171875,1.15966796875,-1.52587890625,-0.8074951171875,51.910400390625,67.247314453125
1758874624.527285,-0.79345703125,-0.00537109375,0.61865234375,2.62451171875,1.15966796875,-1.52587890625,-0.802001953125,51.9268798828125,67.2088623046875
1758874624.5382235,-0.76904296875,-0.00927734375,0.62353515625,-0.42724609375,0.91552734375,-0.732421875,-0.8184814453125,51.9378662109375,67.1868896484375
1758874624.5473964,-0.76904296875,-0.00927734375,0.62353515625,-0.42724609375,0.91552734375,-0.732421875,-0.8349609375,51.954345703125,67.159423828125
1758874624.5573251,-0.7822265625,-0.00390625,0.6328125,-3.173828125,0.732421875,-0.48828125,-0.8734130859375,51.9598388671875,67.1429443359375
1758874624.5681195,-0.7822265625,-0.00390625,0.6328125,-3.173828125,0.732421875,-0.48828125,-0.911865234375,51.9708251953125,67.1209716796875
1758874624.5775793,-0.7900390625,-0.015625,0.6328125,-1.8310546875,1.15966796875,-0.3662109375,-0.933837890625,51.9818115234375,67.1044921875
1758874624.5873268,-0.7900390625,-0.015625,0.6328125,-1.8310546875,1.15966796875,-0.3662109375,-0.9613037109375,51.998291015625,67.0880126953125
1758874624.5979996,-0.7861328125,-0.0244140625,0.59375,-0.244140625,0.9765625,-0.42724609375,-0.966796875,52.00927734375,67.071533203125
1758874624.6079695,-0.7861328125,-0.0244140625,0.59375,-0.244140625,0.9765625,-0.42724609375,-0.977783203125,52.020263671875,67.0550537109375
1758874624.6173196,-0.78271484375,-0.02880859375,0.59814453125,-1.64794921875,0.3662109375,-0.1220703125,-0.999755859375,52.0257568359375,67.0440673828125
1758874624.6277177,-0.78271484375,-0.02880859375,0.59814453125,-1.64794921875,0.3662109375,-0.1220703125,-1.021728515625,52.0257568359375,67.027587890625
1758874624.6382267,-0.78662109375,-0.02880859375,0.6201171875,4.33349609375,0.30517578125,-0.18310546875,-0.9832763671875,52.03125,67.0166015625
1758874624.6473637,-0.78662109375,-0.02880859375,0.6201171875,4.33349609375,0.30517578125,-0.18310546875,-0.94482421875,52.0367431640625,67.0001220703125
1758874624.6579833,-0.7919921875,-0.03515625,0.59765625,7.32421875,0.18310546875,-0.1220703125,-0.8843994140625,52.042236328125,66.9891357421875
1758874624.667804,-0.7919921875,-0.03515625,0.59765625,7.32421875,0.18310546875,-0.1220703125,-0.8184814453125,52.042236328125,66.97265625
1758874624.6774154,-0.80615234375,-0.00830078125,0.58154296875,3.7841796875,0.244140625,0.244140625,-0.7855224609375,52.0477294921875,66.9671630859375
1758874624.6874633,-0.80615234375,-0.00830078125,0.58154296875,3.7841796875,0.244140625,0.244140625,-0.7470703125,52.05322265625,66.961669921875
1758874624.69804,-0.81201171875,0.00439453125,0.58349609375,2.3193359375,0.8544921875,0.79345703125,-0.7196044921875,52.0697021484375,66.961669921875
1758874624.7076633,-0.81201171875,0.00439453125,0.58349609375,2.3193359375,0.8544921875,0.79345703125,-0.692138671875,52.0806884765625,66.961669921875
1758874624.7174866,-0.8076171875,-0.02001953125,0.5810546875,2.8076171875,1.708984375,1.77001953125,-0.648193359375,52.1026611328125,66.9781494140625
1758874624.7280116,-0.8076171875,-0.02001953125,0.5810546875,2.8076171875,1.708984375,1.77001953125,-0.5987548828125,52.130126953125,66.99462890625
1758874624.7379835,-0.79541015625,-0.03369140625,0.6025390625,3.0517578125,2.197265625,2.3193359375,-0.54931640625,52.1575927734375,67.0220947265625
1758874624.7474635,-0.79541015625,-0.03369140625,0.6025390625,3.0517578125,2.197265625,2.3193359375,-0.494384765625,52.18505859375,67.049560546875
1758874624.7581007,-0.783203125,-0.02490234375,0.60546875,4.45556640625,1.953125,2.86865234375,-0.4229736328125,52.2125244140625,67.08251953125
1758874624.769594,-0.783203125,-0.02490234375,0.60546875,4.45556640625,1.953125,2.86865234375,-0.3515625,52.2344970703125,67.115478515625
1758874624.7788308,-0.76416015625,-0.0087890625,0.6142578125,5.7373046875,1.3427734375,2.99072265625,-0.263671875,52.2509765625,67.1539306640625
1758874624.7874806,-0.76416015625,-0.0087890625,0.6142578125,5.7373046875,1.3427734375,2.99072265625,-0.17578125,52.2674560546875,67.1923828125
1758874624.7983115,-0.7783203125,0.03076171875,0.65234375,3.41796875,0.0,2.25830078125,-0.120849609375,52.2674560546875,67.2198486328125
1758874624.8079164,-0.7783203125,0.03076171875,0.65234375,3.41796875,0.0,2.25830078125,-0.0604248046875,52.2674560546875,67.247314453125
1758874624.8175492,-0.763671875,0.0146484375,0.6455078125,0.1220703125,-0.3662109375,2.01416015625,-0.0384521484375,52.261962890625,67.2747802734375
1758874624.8276374,-0.763671875,0.0146484375,0.6455078125,0.1220703125,-0.3662109375,2.01416015625,-0.0164794921875,52.2564697265625,67.30224609375
1758874624.8385713,-0.763671875,0.0146484375,0.6455078125,1.220703125,-0.8544921875,1.3427734375,0.0054931640625,52.2454833984375,67.313232421875
1758874624.8476145,-0.76953125,0.00341796875,0.61865234375,1.220703125,-0.8544921875,1.3427734375,0.032958984375,52.2344970703125,67.3297119140625
1758874624.8576202,-0.7744140625,-0.005859375,0.6337890625,1.220703125,-1.5869140625,0.54931640625,0.0494384765625,52.2125244140625,67.335205078125
1758874624.8683505,-0.7744140625,-0.005859375,0.6337890625,1.220703125,-1.5869140625,0.54931640625,0.0714111328125,52.196044921875,67.3406982421875
1758874624.8779936,-0.783203125,0.0,0.62255859375,3.90625,-1.77001953125,-0.06103515625,0.1043701171875,52.174072265625,67.3297119140625
1758874624.8876414,-0.783203125,0.0,0.62255859375,3.90625,-1.77001953125,-0.06103515625,0.142822265625,52.152099609375,67.32421875
1758874624.8985178,-0.7724609375,0.0,0.62158203125,5.55419921875,-1.708984375,-0.732421875,0.1812744140625,52.130126953125,67.3077392578125
1758874624.9079266,-0.7724609375,0.0,0.62158203125,5.55419921875,-1.708984375,-0.732421875,0.2252197265625,52.108154296875,67.291259765625
1758874624.9176095,-0.76904296875,0.00146484375,0.63037109375,4.39453125,-1.5869140625,-0.67138671875,0.2581787109375,52.086181640625,67.2747802734375
1758874624.9278374,-0.76904296875,0.00146484375,0.63037109375,4.39453125,-1.5869140625,-0.67138671875,0.2911376953125,52.064208984375,67.25830078125
1758874624.9387655,-0.7783203125,0.00537109375,0.63525390625,5.615234375,-1.46484375,-0.8544921875,0.3350830078125,52.0477294921875,67.2418212890625
1758874624.9477017,-0.7783203125,0.00537109375,0.63525390625,5.615234375,-1.46484375,-0.8544921875,0.3790283203125,52.0257568359375,67.225341796875
1758874624.9580553,-0.7783203125,0.001953125,0.625,4.0283203125,-1.15966796875,-0.54931640625,0.406494140625,52.00927734375,67.21435546875
1758874624.96824,-0.7783203125,0.001953125,0.625,4.0283203125,-1.15966796875,-0.54931640625,0.439453125,51.9927978515625,67.1978759765625
1758874624.978378,-0.779296875,0.0009765625,0.60791015625,2.44140625,-1.0986328125,-0.06103515625,0.4559326171875,51.976318359375,67.1923828125
1758874624.9877334,-0.779296875,0.0009765625,0.60791015625,2.44140625,-1.0986328125,-0.06103515625,0.4779052734375,51.96533203125,67.1868896484375
1758874624.9981263,-0.78125,-0.01123046875,0.6240234375,2.86865234375,-0.79345703125,0.54931640625,0.5108642578125,51.954345703125,67.1923828125
1758874625.0084546,-0.78125,-0.01123046875,0.6240234375,2.86865234375,-0.79345703125,0.54931640625,0.5438232421875,51.943359375,67.1923828125
1758874625.0180187,-0.7841796875,-0.00537109375,0.61865234375,3.84521484375,-0.6103515625,0.732421875,0.5877685546875,51.932373046875,67.203369140625
1758874625.027738,-0.7841796875,-0.00537109375,0.61865234375,3.84521484375,-0.6103515625,0.732421875,0.626220703125,51.92138671875,67.2088623046875
1758874625.0392797,-0.7841796875,0.0029296875,0.60693359375,2.99072265625,-0.67138671875,1.40380859375,0.670166015625,51.910400390625,67.225341796875
1758874625.0478985,-0.7841796875,0.0029296875,0.60693359375,2.99072265625,-0.67138671875,1.40380859375,0.714111328125,51.9049072265625,67.2418212890625
1758874625.0581656,-0.77734375,0.00634765625,0.62255859375,0.67138671875,-0.732421875,2.13623046875,0.7415771484375,51.8939208984375,67.269287109375
1758874625.06834,-0.77734375,0.00634765625,0.62255859375,0.67138671875,-0.732421875,2.13623046875,0.76904296875,51.8829345703125,67.30224609375
1758874625.078236,-0.79150390625,0.009765625,0.6083984375,-0.30517578125,-0.3662109375,2.9296875,0.802001953125,51.87744140625,67.3406982421875
1758874625.0878565,-0.79150390625,0.009765625,0.6083984375,-0.30517578125,-0.3662109375,2.9296875,0.8294677734375,51.8719482421875,67.3846435546875
1758874625.0987103,-0.78076171875,0.01220703125,0.591796875,-2.99072265625,-0.30517578125,3.41796875,0.8404541015625,51.8719482421875,67.43408203125
1758874625.10804,-0.78076171875,0.01220703125,0.591796875,-2.99072265625,-0.30517578125,3.41796875,0.8514404296875,51.866455078125,67.4835205078125
1758874625.118285,-0.7880859375,0.00732421875,0.61865234375,-3.7841796875,-0.244140625,3.662109375,0.85693359375,51.8609619140625,67.5384521484375
1758874625.1281526,-0.7880859375,0.00732421875,0.61865234375,-3.7841796875,-0.244140625,3.662109375,0.8624267578125,51.8609619140625,67.587890625
1758874625.1389031,-0.78369140625,0.00390625,0.62158203125,-3.7841796875,-0.06103515625,3.662109375,0.867919921875,51.8609619140625,67.642822265625
1758874625.147951,-0.78369140625,0.00390625,0.62158203125,-3.7841796875,-0.06103515625,3.662109375,0.8734130859375,51.8609619140625,67.6922607421875
1758874625.1583629,-0.77099609375,0.0126953125,0.6142578125,-3.35693359375,-0.30517578125,3.47900390625,0.8843994140625,51.85546875,67.7471923828125
1758874625.1688738,-0.77099609375,0.0126953125,0.6142578125,-3.35693359375,-0.30517578125,3.47900390625,0.889892578125,51.8499755859375,67.796630859375
1758874625.1788116,-0.775390625,0.0068359375,0.62744140625,-2.13623046875,-0.54931640625,3.23486328125,0.9063720703125,51.844482421875,67.8460693359375
1758874625.1880066,-0.775390625,0.0068359375,0.62744140625,-2.13623046875,-0.54931640625,3.23486328125,0.9283447265625,51.8389892578125,67.8900146484375
1758874625.1983454,-0.771484375,0.0107421875,0.6259765625,-1.28173828125,-0.79345703125,2.99072265625,0.9503173828125,51.8280029296875,67.9339599609375
1758874625.2085433,-0.771484375,0.0107421875,0.6259765625,-1.28173828125,-0.79345703125,2.99072265625,0.9722900390625,51.8170166015625,67.9779052734375
1758874625.218515,-0.76806640625,0.01318359375,0.634765625,-1.46484375,-1.28173828125,2.74658203125,0.98876953125,51.800537109375,68.016357421875
1758874625.2279718,-0.76806640625,0.01318359375,0.634765625,-1.46484375,-1.28173828125,2.74658203125,1.0107421875,51.7840576171875,68.060302734375
1758874625.2389371,-0.74755859375,0.021484375,0.6376953125,-2.99072265625,-2.13623046875,2.3193359375,1.0052490234375,51.756591796875,68.0877685546875
1758874625.2485008,-0.74755859375,0.021484375,0.6376953125,-2.99072265625,-2.13623046875,2.3193359375,1.0052490234375,51.734619140625,68.1207275390625
1758874625.2583656,-0.75146484375,0.013671875,0.64697265625,-0.6103515625,-2.86865234375,1.77001953125,1.021728515625,51.6961669921875,68.148193359375
1758874625.2687826,-0.75146484375,0.013671875,0.64697265625,-0.6103515625,-2.86865234375,1.77001953125,1.0382080078125,51.6632080078125,68.1756591796875
1758874625.2783575,-0.75146484375,0.0,0.6650390625,1.03759765625,-3.2958984375,1.40380859375,1.0601806640625,51.624755859375,68.192138671875
1758874625.288093,-0.75146484375,0.0,0.6650390625,1.03759765625,-3.2958984375,1.40380859375,1.087646484375,51.580810546875,68.214111328125
1758874625.2985003,-0.76953125,0.0166015625,0.6376953125,-3.662109375,-3.662109375,1.40380859375,1.065673828125,51.536865234375,68.236083984375
1758874625.3084655,-0.76953125,0.0166015625,0.6376953125,-3.662109375,-3.662109375,1.40380859375,1.0491943359375,51.492919921875,68.2525634765625
1758874625.3182042,-0.75634765625,0.03955078125,0.6279296875,-7.32421875,-3.84521484375,1.64794921875,0.9942626953125,51.448974609375,68.280029296875
1758874625.328318,-0.75634765625,0.03955078125,0.6279296875,-7.32421875,-3.84521484375,1.64794921875,0.94482421875,51.405029296875,68.302001953125
1758874625.3386726,-0.7685546875,0.01171875,0.6435546875,-6.04248046875,-4.08935546875,1.8310546875,0.9063720703125,51.3555908203125,68.3349609375
1758874625.3481734,-0.7685546875,0.01171875,0.6435546875,-6.04248046875,-4.08935546875,1.8310546875,0.8734130859375,51.30615234375,68.3624267578125
1758874625.358376,-0.79345703125,-0.00048828125,0.62939453125,-7.9345703125,-3.60107421875,1.953125,0.8184814453125,51.26220703125,68.389892578125
1758874625.3734646,-0.79345703125,-0.00048828125,0.62939453125,-7.9345703125,-3.60107421875,1.953125,0.7635498046875,51.2237548828125,68.4173583984375
1758874625.383564,-0.8037109375,-0.00439453125,0.5986328125,-6.591796875,-2.99072265625,2.13623046875,0.72509765625,51.1907958984375,68.4503173828125
1758874625.390121,-0.8037109375,-0.00439453125,0.5986328125,-6.591796875,-2.99072265625,2.13623046875,0.6866455078125,51.1578369140625,68.477783203125
1758874625.3983479,-0.8330078125,-0.01513671875,0.56787109375,-1.64794921875,-2.3193359375,2.0751953125,0.6976318359375,51.1358642578125,68.5107421875
1758874625.4090617,-0.8330078125,-0.01513671875,0.56787109375,-1.64794921875,-2.3193359375,2.0751953125,0.703125,51.119384765625,68.5382080078125
1758874625.4183285,-0.81494140625,-0.0048828125,0.560546875,1.89208984375,-1.708984375,1.15966796875,0.736083984375,51.1083984375,68.5491943359375
1758874625.4282262,-0.8046875,0.021484375,0.5830078125,-2.0751953125,-0.91552734375,1.708984375,0.7525634765625,51.1029052734375,68.565673828125
1758874625.4389236,-0.8046875,0.021484375,0.5830078125,-2.0751953125,-0.91552734375,1.708984375,0.7470703125,51.1029052734375,68.587646484375
1758874625.4482632,-0.7998046875,0.00341796875,0.61328125,0.732421875,0.0,1.8310546875,0.7635498046875,51.1083984375,68.6041259765625
1758874625.4584322,-0.7998046875,0.00341796875,0.61328125,0.732421875,0.0,1.8310546875,0.791015625,51.1138916015625,68.6260986328125
1758874625.4700322,-0.78369140625,-0.00146484375,0.60009765625,3.662109375,0.244140625,1.5869140625,0.8349609375,51.1248779296875,68.6480712890625
1758874625.4790874,-0.78369140625,-0.00146484375,0.60009765625,3.662109375,0.244140625,1.5869140625,0.889892578125,51.1358642578125,68.66455078125
1758874625.4883294,-0.78076171875,0.01806640625,0.61083984375,2.0751953125,0.244140625,1.46484375,0.933837890625,51.1468505859375,68.6810302734375
1758874625.498642,-0.78076171875,0.01806640625,0.61083984375,2.0751953125,0.244140625,1.46484375,0.9722900390625,51.1578369140625,68.6920166015625
1758874625.5091655,-0.79150390625,0.01123046875,0.63037109375,2.50244140625,0.9765625,1.64794921875,1.0107421875,51.17431640625,68.7139892578125
1758874625.5186014,-0.79150390625,0.01123046875,0.63037109375,2.50244140625,0.9765625,1.64794921875,1.0546875,51.1907958984375,68.73046875
1758874625.5283508,-0.78076171875,0.0048828125,0.6201171875,2.50244140625,1.52587890625,1.8310546875,1.0986328125,51.207275390625,68.75244140625
1758874625.5390031,-0.78076171875,0.0048828125,0.6201171875,2.50244140625,1.52587890625,1.8310546875,1.1480712890625,51.229248046875,68.7744140625
1758874625.5483785,-0.78076171875,0.0048828125,0.6201171875,2.8076171875,1.708984375,1.953125,1.1920166015625,51.251220703125,68.8018798828125
1758874625.558571,-0.7822265625,0.0,0.61279296875,2.8076171875,1.708984375,1.953125,1.241455078125,51.273193359375,68.8238525390625
1758874625.5690806,-0.779296875,0.01513671875,0.6240234375,3.84521484375,2.50244140625,2.44140625,1.3018798828125,51.295166015625,68.8568115234375
1758874625.5785851,-0.779296875,0.01513671875,0.6240234375,3.84521484375,2.50244140625,2.44140625,1.3677978515625,51.328125,68.8897705078125
1758874625.588409,-0.77490234375,0.00048828125,0.64306640625,2.44140625,3.47900390625,3.173828125,1.42822265625,51.361083984375,68.9337158203125
1758874625.5991397,-0.77490234375,0.00048828125,0.64306640625,2.44140625,3.47900390625,3.173828125,1.4886474609375,51.39404296875,68.983154296875
1758874625.610989,-0.77197265625,0.01220703125,0.6357421875,0.3662109375,4.21142578125,4.33349609375,1.5435791015625,51.4324951171875,69.0380859375
1758874625.6185715,-0.77197265625,0.01220703125,0.6357421875,0.3662109375,4.21142578125,4.33349609375,1.5985107421875,51.4764404296875,69.10400390625
1758874625.6284559,-0.77197265625,0.0078125,0.64697265625,-1.46484375,5.06591796875,5.4931640625,1.6534423828125,51.5203857421875,69.180908203125
1758874625.638995,-0.77197265625,0.0078125,0.64697265625,-1.46484375,5.06591796875,5.4931640625,1.702880859375,51.56982421875,69.268798828125
1758874625.6484659,-0.75732421875,0.00048828125,0.626953125,-2.74658203125,5.06591796875,6.2255859375,1.7523193359375,51.61376953125,69.3621826171875
1758874625.6585846,-0.75732421875,0.00048828125,0.626953125,-2.74658203125,5.06591796875,6.2255859375,1.7962646484375,51.65771484375,69.466552734375
1758874625.6725717,-0.7578125,0.025390625,0.65478515625,-1.46484375,4.82177734375,6.04248046875,1.845703125,51.70166015625,69.5654296875
1758874625.681566,-0.7578125,0.025390625,0.65478515625,-1.46484375,4.82177734375,6.04248046875,1.9061279296875,51.74560546875,69.664306640625
1758874625.6885982,-0.7548828125,0.03369140625,0.6513671875,0.91552734375,4.33349609375,5.55419921875,1.9720458984375,51.778564453125,69.7576904296875
1758874625.699916,-0.7548828125,0.03369140625,0.6513671875,0.91552734375,4.33349609375,5.55419921875,2.0489501953125,51.8115234375,69.85107421875
1758874625.7087882,-0.7490234375,0.0283203125,0.64501953125,0.244140625,3.0517578125,4.8828125,2.1148681640625,51.8389892578125,69.93896484375
1758874625.7186549,-0.7490234375,0.0283203125,0.64501953125,0.244140625,3.0517578125,4.8828125,2.17529296875,51.8609619140625,70.0213623046875
1758874625.7286963,-0.765625,0.033203125,0.63720703125,-2.13623046875,1.708984375,3.7841796875,2.21923828125,51.8719482421875,70.0927734375
1758874625.739173,-0.765625,0.033203125,0.63720703125,-2.13623046875,1.708984375,3.7841796875,2.2467041015625,51.87744140625,70.15869140625
1758874625.7486172,-0.76220703125,0.07080078125,0.6123046875,-2.25830078125,0.8544921875,2.197265625,2.2576904296875,51.87744140625,70.2081298828125
1758874625.7588136,-0.76220703125,0.07080078125,0.6123046875,-2.25830078125,0.8544921875,2.197265625,2.2686767578125,51.87744140625,70.24658203125
1758874625.7691498,-0.765625,0.0673828125,0.6298828125,-7.99560546875,0.18310546875,1.40380859375,2.2412109375,51.8719482421875,70.279541015625
1758874625.7787433,-0.765625,0.0673828125,0.6298828125,-7.99560546875,0.18310546875,1.40380859375,2.186279296875,51.866455078125,70.3070068359375
1758874625.7886825,-0.75244140625,0.05908203125,0.64453125,-11.29150390625,0.06103515625,0.9765625,2.109375,51.85546875,70.3289794921875
1758874625.7990608,-0.75244140625,0.05908203125,0.64453125,-11.29150390625,0.06103515625,0.9765625,2.021484375,51.844482421875,70.3509521484375
1758874625.8088267,-0.7734375,-0.0068359375,0.6259765625,-12.0849609375,-1.15966796875,1.52587890625,1.9281005859375,51.83349609375,70.37841796875
1758874625.8188286,-0.7734375,-0.0068359375,0.6259765625,-12.0849609375,-1.15966796875,1.52587890625,1.834716796875,51.8115234375,70.4058837890625
1758874625.8294945,-0.7783203125,0.01806640625,0.61669921875,-12.39013671875,-1.52587890625,0.8544921875,1.7303466796875,51.78955078125,70.4278564453125
1758874625.83919,-0.7783203125,0.01806640625,0.61669921875,-12.39013671875,-1.52587890625,0.8544921875,1.6259765625,51.7620849609375,70.4443359375
1758874625.8488083,-0.7783203125,0.001953125,0.60107421875,-8.9111328125,-1.8310546875,0.6103515625,1.5325927734375,51.7401123046875,70.4608154296875
1758874625.8589122,-0.7783203125,0.001953125,0.60107421875,-8.9111328125,-1.8310546875,0.6103515625,1.4556884765625,51.7181396484375,70.4718017578125
1758874625.8693864,-0.7744140625,0.00732421875,0.64306640625,-7.568359375,-2.0751953125,0.0,1.38427734375,51.690673828125,70.477294921875
1758874625.87887,-0.7744140625,0.00732421875,0.64306640625,-7.568359375,-2.0751953125,0.0,1.3128662109375,51.668701171875,70.4827880859375
1758874625.8888679,-0.767578125,0.02099609375,0.6328125,-3.23486328125,-2.13623046875,-0.3662109375,1.2579345703125,51.6412353515625,70.4827880859375
1758874625.8991635,-0.767578125,0.02099609375,0.6328125,-3.23486328125,-2.13623046875,-0.3662109375,1.2249755859375,51.61376953125,70.477294921875
1758874625.909191,-0.751953125,-0.00341796875,0.63916015625,-0.30517578125,-2.74658203125,-0.67138671875,1.2030029296875,51.5863037109375,70.4718017578125
1758874625.9188945,-0.751953125,-0.00341796875,0.63916015625,-0.30517578125,-2.74658203125,-0.67138671875,1.197509765625,51.5533447265625,70.4608154296875
1758874625.9292428,-0.7646484375,0.01171875,0.64599609375,-0.54931640625,-3.23486328125,-1.15966796875,1.1810302734375,51.514892578125,70.4498291015625
1758874625.9393988,-0.7646484375,0.01171875,0.64599609375,-0.54931640625,-3.23486328125,-1.15966796875,1.1590576171875,51.4764404296875,70.433349609375
1758874625.9489274,-0.763671875,0.033203125,0.62744140625,2.5634765625,-3.96728515625,-2.50244140625,1.1480712890625,51.4324951171875,70.4058837890625
1758874625.9590178,-0.763671875,0.033203125,0.62744140625,2.5634765625,-3.96728515625,-2.50244140625,1.142578125,51.3885498046875,70.367431640625
1758874625.969552,-0.75830078125,0.03515625,0.6298828125,1.77001953125,-5.43212890625,-3.90625,1.131591796875,51.339111328125,70.3179931640625
1758874625.9790397,-0.75830078125,0.03515625,0.6298828125,1.77001953125,-5.43212890625,-3.90625,1.1041259765625,51.2786865234375,70.2520751953125
1758874625.9890945,-0.759765625,0.068359375,0.63623046875,-6.77490234375,-6.8359375,-4.7607421875,1.0272216796875,51.2127685546875,70.1861572265625
1758874625.9993749,-0.759765625,0.068359375,0.63623046875,-6.77490234375,-6.8359375,-4.7607421875,0.9063720703125,51.141357421875,70.1092529296875
1758874626.0100164,-0.76025390625,0.0478515625,0.63623046875,-16.9677734375,-7.568359375,-5.126953125,0.7415771484375,51.064453125,70.0323486328125
1758874626.0190105,-0.76025390625,0.0478515625,0.63623046875,-16.9677734375,-7.568359375,-5.126953125,0.5218505859375,50.987548828125,69.9554443359375
1758874626.029014,-0.76123046875,-0.0087890625,0.6416015625,-15.625,-8.11767578125,-5.4931640625,0.3076171875,50.9051513671875,69.873046875
1758874626.0393727,-0.76123046875,-0.0087890625,0.6416015625,-15.625,-8.11767578125,-5.4931640625,0.098876953125,50.8172607421875,69.7906494140625
1758874626.04893,-0.74951171875,-0.06298828125,0.65234375,-12.3291015625,-8.72802734375,-5.0048828125,-0.087890625,50.7293701171875,69.708251953125
1758874626.0593016,-0.74951171875,-0.06298828125,0.65234375,-12.3291015625,-8.72802734375,-5.0048828125,-0.263671875,50.6414794921875,69.63134765625
1758874626.0698617,-0.724609375,0.01171875,0.64892578125,-9.58251953125,-9.521484375,-4.57763671875,-0.4229736328125,50.5426025390625,69.5599365234375
1758874626.0790775,-0.724609375,0.01171875,0.64892578125,-9.58251953125,-9.521484375,-4.57763671875,-0.5657958984375,50.4437255859375,69.4940185546875
1758874626.089171,-0.72705078125,-0.02490234375,0.6884765625,-9.3994140625,-9.521484375,-2.38037109375,-0.692138671875,50.3448486328125,69.4390869140625
1758874626.0996382,-0.72705078125,-0.02490234375,0.6884765625,-9.3994140625,-9.521484375,-2.38037109375,-0.802001953125,50.240478515625,69.4061279296875
1758874626.1092296,-0.73193359375,-0.0263671875,0.6875,-9.765625,-10.07080078125,0.3662109375,-0.9063720703125,50.1361083984375,69.3951416015625
1758874626.1191633,-0.73193359375,-0.0263671875,0.6875,-9.765625,-10.07080078125,0.3662109375,-0.98876953125,50.03173828125,69.4061279296875
1758874626.1292195,-0.78125,-0.1240234375,0.6044921875,-10.1318359375,-12.14599609375,4.21142578125,-1.0546875,49.910888671875,69.444580078125
1758874626.1396723,-0.78125,-0.1240234375,0.6044921875,-10.1318359375,-12.14599609375,4.21142578125,-1.1041259765625,49.7845458984375,69.5159912109375
1758874626.1491244,-0.7490234375,-0.0625,0.576171875,12.51220703125,-12.20703125,0.0,-1.07666015625,49.6636962890625,69.5489501953125
1758874626.15922,-0.7490234375,-0.0625,0.576171875,12.51220703125,-12.20703125,0.0,-0.955810546875,49.5428466796875,69.5489501953125
1758874626.17013,-0.7666015625,-0.0263671875,0.669921875,35.400390625,-12.14599609375,-1.15966796875,-0.736083984375,49.4219970703125,69.5379638671875
1758874626.1792445,-0.7666015625,-0.0263671875,0.669921875,35.400390625,-12.14599609375,-1.15966796875,-0.406494140625,49.3011474609375,69.521484375
1758874626.1891832,-0.73583984375,0.01025390625,0.689453125,28.99169921875,-12.451171875,-2.01416015625,-0.1153564453125,49.1802978515625,69.4940185546875
1758874626.1996765,-0.73583984375,0.01025390625,0.689453125,28.99169921875,-12.451171875,-2.01416015625,0.1318359375,49.0594482421875,69.4610595703125
1758874626.2094262,-0.7529296875,0.08984375,0.68017578125,15.0146484375,-13.85498046875,-2.0751953125,0.3131103515625,48.9276123046875,69.422607421875
1758874626.219364,-0.7529296875,0.08984375,0.68017578125,15.0146484375,-13.85498046875,-2.0751953125,0.4339599609375,48.790283203125,69.3896484375
1758874626.229344,-0.7548828125,0.02392578125,0.654296875,-1.03759765625,-14.70947265625,-0.91552734375,0.4779052734375,48.6474609375,69.3621826171875
1758874626.2397501,-0.7548828125,0.02392578125,0.654296875,-1.03759765625,-14.70947265625,-0.91552734375,0.4559326171875,48.504638671875,69.3402099609375
1758874626.249196,-0.7392578125,0.0419921875,0.63623046875,-7.75146484375,-16.66259765625,-1.77001953125,0.3955078125,48.350830078125,69.3182373046875
1758874626.259339,-0.7392578125,0.0419921875,0.63623046875,-7.75146484375,-16.66259765625,-1.77001953125,0.296630859375,48.1915283203125,69.2852783203125
1758874626.2735136,-0.75048828125,0.02099609375,0.6591796875,-6.40869140625,-17.27294921875,-2.3193359375,0.208740234375,48.0267333984375,69.246826171875
1758874626.2832415,-0.75048828125,0.02099609375,0.6591796875,-6.40869140625,-17.27294921875,-2.3193359375,0.120849609375,47.8564453125,69.2083740234375
1758874626.2896178,-0.7294921875,0.0048828125,0.66845703125,-8.1787109375,-16.9677734375,-2.74658203125,0.0274658203125,47.691650390625,69.1644287109375
1758874626.3000257,-0.7294921875,0.0048828125,0.66845703125,-8.1787109375,-16.9677734375,-2.74658203125,-0.0714111328125,47.5323486328125,69.114990234375
1758874626.3096678,-0.728515625,-0.009765625,0.68603515625,-10.19287109375,-15.9912109375,-2.74658203125,-0.186767578125,47.373046875,69.0655517578125
1758874626.3194551,-0.728515625,-0.009765625,0.68603515625,-10.19287109375,-15.9912109375,-2.74658203125,-0.3131103515625,47.21923828125,69.0216064453125
1758874626.3295217,-0.73486328125,-0.033203125,0.6953125,-5.18798828125,-16.2353515625,-2.50244140625,-0.4119873046875,47.0654296875,68.9776611328125
1758874626.3401277,-0.73486328125,-0.033203125,0.6953125,-5.18798828125,-16.2353515625,-2.50244140625,-0.4833984375,46.91162109375,68.939208984375
1758874626.3492963,-0.7197265625,-0.0693359375,0.6435546875,4.21142578125,-17.578125,-2.0751953125,-0.5108642578125,46.746826171875,68.9007568359375
1758874626.3594785,-0.7197265625,-0.0693359375,0.6435546875,4.21142578125,-17.578125,-2.0751953125,-0.4888916015625,46.58203125,68.8623046875
1758874626.3702152,-0.72802734375,-0.04296875,0.638671875,12.939453125,-18.98193359375,-3.72314453125,-0.439453125,46.40625,68.818359375
1758874626.3794513,-0.72802734375,-0.04296875,0.638671875,12.939453125,-18.98193359375,-3.72314453125,-0.3515625,46.23046875,68.7579345703125
1758874626.3893821,-0.74267578125,0.029296875,0.68701171875,16.66259765625,-19.83642578125,-4.82177734375,-0.252685546875,46.0491943359375,68.6865234375
1758874626.4014475,-0.74267578125,0.029296875,0.68701171875,16.66259765625,-19.83642578125,-4.82177734375,-0.142822265625,45.8624267578125,68.609619140625
1758874626.4096732,-0.74169921875,0.0361328125,0.6904296875,7.26318359375,-19.1650390625,-4.45556640625,-0.0714111328125,45.68115234375,68.53271484375
1758874626.4196472,-0.74169921875,0.0361328125,0.6904296875,7.26318359375,-19.1650390625,-4.45556640625,-0.0494384765625,45.4998779296875,68.4613037109375
1758874626.4294112,-0.73486328125,-0.005859375,0.689453125,1.77001953125,-17.822265625,-4.150390625,-0.0439453125,45.32958984375,68.3843994140625
1758874626.4401836,-0.73486328125,-0.005859375,0.689453125,1.77001953125,-17.822265625,-4.150390625,-0.0714111328125,45.1702880859375,68.3184814453125
1758874626.4494915,-0.7470703125,-0.0537109375,0.658203125,8.23974609375,-16.78466796875,-4.82177734375,-0.0384521484375,45.0164794921875,68.236083984375
1758874626.4595175,-0.7470703125,-0.0537109375,0.658203125,8.23974609375,-16.78466796875,-4.82177734375,-0.010986328125,44.8681640625,68.1536865234375
1758874626.4703124,-0.73779296875,-0.01806640625,0.6708984375,16.90673828125,-13.97705078125,-6.591796875,0.0823974609375,44.747314453125,68.04931640625
1758874626.479454,-0.73779296875,-0.01806640625,0.6708984375,16.90673828125,-13.97705078125,-6.591796875,0.1812744140625,44.62646484375,67.9449462890625
1758874626.4895258,-0.7412109375,0.00537109375,0.71875,21.54541015625,-11.71875,-7.01904296875,0.318603515625,44.527587890625,67.82958984375
1758874626.4999318,-0.7412109375,0.00537109375,0.71875,21.54541015625,-11.71875,-7.01904296875,0.4559326171875,44.4287109375,67.7142333984375
1758874626.5097253,-0.73046875,0.0166015625,0.66259765625,19.47021484375,-9.70458984375,-7.568359375,0.5712890625,44.351806640625,67.5933837890625
1758874626.5196598,-0.73046875,0.0166015625,0.66259765625,19.47021484375,-9.70458984375,-7.568359375,0.6866455078125,44.27490234375,67.4725341796875
1758874626.52954,-0.73193359375,0.02734375,0.7373046875,16.357421875,-7.01904296875,-7.32421875,0.7745361328125,44.2254638671875,67.357177734375
1758874626.5400507,-0.73193359375,0.02734375,0.7373046875,16.357421875,-7.01904296875,-7.32421875,0.85693359375,44.1705322265625,67.236328125
1758874626.5496073,-0.73193359375,0.02734375,0.7373046875,8.60595703125,-5.859375,-6.53076171875,0.87890625,44.132080078125,67.1319580078125
1758874626.5595715,-0.7021484375,0.00439453125,0.6796875,8.60595703125,-5.859375,-6.53076171875,0.8953857421875,44.088134765625,67.027587890625
1758874626.5737352,-0.68115234375,0.01025390625,0.73779296875,8.48388671875,-5.4931640625,-6.34765625,0.911865234375,44.0496826171875,66.9232177734375
1758874626.5833862,-0.68115234375,0.01025390625,0.73779296875,8.48388671875,-5.4931640625,-6.34765625,0.933837890625,44.01123046875,66.81884765625
1758874626.5905557,-0.662109375,-0.001953125,0.72314453125,13.12255859375,-6.65283203125,-6.16455078125,0.999755859375,43.956298828125,66.719970703125
1758874626.599645,-0.662109375,-0.001953125,0.72314453125,13.12255859375,-6.65283203125,-6.16455078125,1.065673828125,43.8958740234375,66.62109375
1758874626.61032,-0.6494140625,-0.02099609375,0.74462890625,10.009765625,-8.1787109375,-4.94384765625,1.109619140625,43.824462890625,66.544189453125
1758874626.6197672,-0.6494140625,-0.02099609375,0.74462890625,10.009765625,-8.1787109375,-4.94384765625,1.153564453125,43.74755859375,66.4617919921875
1758874626.6296499,-0.66015625,0.0087890625,0.76171875,11.65771484375,-9.33837890625,-4.82177734375,1.2139892578125,43.65966796875,66.3848876953125
1758874626.639859,-0.66015625,0.0087890625,0.76171875,11.65771484375,-9.33837890625,-4.82177734375,1.2744140625,43.57177734375,66.3079833984375
1758874626.6503813,-0.64794921875,0.00341796875,0.7177734375,13.427734375,-9.46044921875,-5.0048828125,1.351318359375,43.4783935546875,66.2255859375
1758874626.6597013,-0.64794921875,0.00341796875,0.7177734375,13.427734375,-9.46044921875,-5.0048828125,1.42822265625,43.385009765625,66.1431884765625
1758874626.6699486,-0.69775390625,0.04150390625,0.7900390625,11.29150390625,-6.77490234375,-4.69970703125,1.4886474609375,43.319091796875,66.07177734375
1758874626.6803489,-0.69775390625,0.04150390625,0.7900390625,11.29150390625,-6.77490234375,-4.69970703125,1.549072265625,43.253173828125,65.994873046875
1758874626.6900241,-0.6591796875,-0.00537109375,0.7509765625,10.68115234375,-3.84521484375,-3.96728515625,1.614990234375,43.2147216796875,65.928955078125
1758874626.699735,-0.6591796875,-0.00537109375,0.7509765625,10.68115234375,-3.84521484375,-3.96728515625,1.6754150390625,43.17626953125,65.8685302734375
1758874626.710058,-0.67431640625,-0.01123046875,0.76904296875,9.70458984375,-2.9296875,-4.82177734375,1.7193603515625,43.1488037109375,65.797119140625
1758874626.7204108,-0.67431640625,-0.01123046875,0.76904296875,9.70458984375,-2.9296875,-4.82177734375,1.7578125,43.1158447265625,65.72021484375
1758874626.7297664,-0.6689453125,0.10791015625,0.7158203125,11.1083984375,-1.89208984375,-7.01904296875,1.7962646484375,43.0938720703125,65.621337890625
1758874626.7397645,-0.6689453125,0.10791015625,0.7158203125,11.1083984375,-1.89208984375,-7.01904296875,1.8402099609375,43.077392578125,65.5169677734375
1758874626.750476,-0.681640625,0.04150390625,0.77734375,0.1220703125,-0.1220703125,-3.90625,1.8072509765625,43.0718994140625,65.45654296875
1758874626.759788,-0.681640625,0.04150390625,0.77734375,0.1220703125,-0.1220703125,-3.90625,1.768798828125,43.06640625,65.3961181640625
1758874626.7699883,-0.6259765625,0.025390625,0.7197265625,-7.50732421875,0.1220703125,-3.47900390625,1.6644287109375,43.06640625,65.3411865234375
1758874626.7800844,-0.6259765625,0.025390625,0.7197265625,-7.50732421875,0.1220703125,-3.47900390625,1.56005859375,43.0609130859375,65.2862548828125
1758874626.790477,-0.62744140625,-0.01123046875,0.76806640625,-7.62939453125,-0.42724609375,-1.89208984375,1.4666748046875,43.0499267578125,65.2532958984375
1758874626.7998257,-0.62744140625,-0.01123046875,0.76806640625,-7.62939453125,-0.42724609375,-1.89208984375,1.373291015625,43.0389404296875,65.2203369140625
1758874626.8102782,-0.6337890625,-0.04833984375,0.7724609375,-7.26318359375,-1.52587890625,0.06103515625,1.3018798828125,43.011474609375,65.2203369140625
1758874626.820559,-0.6337890625,-0.04833984375,0.7724609375,-7.26318359375,-1.52587890625,0.06103515625,1.2249755859375,42.989501953125,65.21484375
1758874626.8300834,-0.640625,-0.01025390625,0.72802734375,-2.62451171875,-3.173828125,0.3662109375,1.197509765625,42.945556640625,65.21484375
1758874626.839916,-0.640625,-0.01025390625,0.72802734375,-2.62451171875,-3.173828125,0.3662109375,1.16455078125,42.901611328125,65.21484375
1758874626.85085,-0.689453125,0.0166015625,0.73388671875,-1.28173828125,-4.0283203125,0.67138671875,1.153564453125,42.8521728515625,65.21484375
1758874626.859975,-0.689453125,0.0166015625,0.73388671875,-1.28173828125,-4.0283203125,0.67138671875,1.142578125,42.8082275390625,65.21484375
1758874626.8703022,-0.69873046875,0.029296875,0.69287109375,1.220703125,-4.21142578125,-0.54931640625,1.142578125,42.7587890625,65.1983642578125
1758874626.8804505,-0.69873046875,0.029296875,0.69287109375,1.220703125,-4.21142578125,-0.54931640625,1.1480712890625,42.71484375,65.181884765625
1758874626.8901763,-0.73486328125,0.03955078125,0.703125,4.7607421875,-3.41796875,-2.01416015625,1.175537109375,42.6763916015625,65.1434326171875
1758874626.8999436,-0.73486328125,0.03955078125,0.703125,4.7607421875,-3.41796875,-2.01416015625,1.2030029296875,42.64892578125,65.0994873046875
1758874626.9107933,-0.8037109375,0.05224609375,0.6865234375,-1.953125,-1.52587890625,-1.89208984375,1.1700439453125,42.637939453125,65.06103515625
1758874626.9199688,-0.8037109375,0.05224609375,0.6865234375,-1.953125,-1.52587890625,-1.89208984375,1.1370849609375,42.6324462890625,65.01708984375
1758874626.9302354,-0.80224609375,0.03466796875,0.5966796875,-11.474609375,2.86865234375,-0.06103515625,1.0272216796875,42.6708984375,65.0006103515625
1758874626.9403174,-0.80224609375,0.03466796875,0.5966796875,-11.474609375,2.86865234375,-0.06103515625,0.9173583984375,42.7203369140625,64.9786376953125
1758874626.9510746,-0.80712890625,-0.048828125,0.669921875,-11.29150390625,7.32421875,2.01416015625,0.8294677734375,42.813720703125,64.9786376953125
1758874626.9600108,-0.80712890625,-0.048828125,0.669921875,-11.29150390625,7.32421875,2.01416015625,0.7415771484375,42.9071044921875,64.984130859375
1758874626.9701755,-0.74609375,-0.05859375,0.66259765625,-4.57763671875,10.6201171875,2.13623046875,0.714111328125,43.0389404296875,64.9896240234375
1758874626.9805849,-0.74609375,-0.05859375,0.66259765625,-4.57763671875,10.6201171875,2.13623046875,0.6866455078125,43.165283203125,64.9951171875
1758874626.9904497,-0.67431640625,-0.01611328125,0.72900390625,9.6435546875,11.8408203125,0.91552734375,0.7855224609375,43.30810546875,64.984130859375
1758874627.000022,-0.67431640625,-0.01611328125,0.72900390625,9.6435546875,11.8408203125,0.91552734375,0.889892578125,43.4454345703125,64.9786376953125
1758874627.0112092,-0.6015625,0.0302734375,0.7724609375,10.43701171875,8.97216796875,-0.30517578125,0.9832763671875,43.5443115234375,64.9566650390625
1758874627.020357,-0.6015625,0.0302734375,0.7724609375,10.43701171875,8.97216796875,-0.30517578125,1.0821533203125,43.6431884765625,64.940185546875
1758874627.0301828,-0.564453125,0.09326171875,0.78076171875,2.685546875,3.662109375,-2.01416015625,1.087646484375,43.681640625,64.9017333984375
1758874627.0401692,-0.564453125,0.09326171875,0.78076171875,2.685546875,3.662109375,-2.01416015625,1.0986328125,43.7200927734375,64.86328125
1758874627.0508528,-0.5947265625,0.087890625,0.80224609375,-7.26318359375,-0.244140625,-2.685546875,1.0052490234375,43.7091064453125,64.8193359375
1758874627.0600994,-0.5947265625,0.087890625,0.80224609375,-7.26318359375,-0.244140625,-2.685546875,0.9173583984375,43.6981201171875,64.775390625
1758874627.0703661,-0.5966796875,0.01904296875,0.7919921875,-16.54052734375,-3.60107421875,-3.173828125,0.7305908203125,43.648681640625,64.7259521484375
1758874627.0808926,-0.5966796875,0.01904296875,0.7919921875,-16.54052734375,-3.60107421875,-3.173828125,0.5438232421875,43.5992431640625,64.6820068359375
1758874627.0902941,-0.6259765625,-0.01318359375,0.755859375,-10.7421875,-6.4697265625,-4.7607421875,0.4010009765625,43.516845703125,64.610595703125
1758874627.100227,-0.6259765625,-0.01318359375,0.755859375,-10.7421875,-6.4697265625,-4.7607421875,0.252685546875,43.43994140625,64.544677734375
1758874627.1112719,-0.6630859375,-0.03076171875,0.7568359375,-1.77001953125,-7.080078125,-5.2490234375,0.1922607421875,43.35205078125,64.4677734375
1758874627.1201637,-0.6630859375,-0.03076171875,0.7568359375,-1.77001953125,-7.080078125,-5.2490234375,0.1318359375,43.2696533203125,64.3963623046875
1758874627.1303391,-0.6572265625,-0.02880859375,0.7294921875,1.52587890625,-6.16455078125,-4.82177734375,0.1043701171875,43.1927490234375,64.324951171875
1758874627.1407647,-0.6572265625,-0.02880859375,0.7294921875,1.52587890625,-6.16455078125,-4.82177734375,0.076904296875,43.1158447265625,64.259033203125
1758874627.1504047,-0.6552734375,-0.03662109375,0.75146484375,4.94384765625,-5.67626953125,-4.2724609375,0.087890625,43.0499267578125,64.1986083984375
1758874627.1602764,-0.6552734375,-0.03662109375,0.75146484375,4.94384765625,-5.67626953125,-4.2724609375,0.0933837890625,42.978515625,64.1326904296875
1758874627.1771655,-0.658203125,-0.0283203125,0.76708984375,12.939453125,-5.06591796875,-4.33349609375,0.1812744140625,42.9180908203125,64.072265625
1758874627.1848297,-0.658203125,-0.0283203125,0.76708984375,12.939453125,-5.06591796875,-4.33349609375,0.263671875,42.857666015625,64.0118408203125
1758874627.1912858,-0.65966796875,-0.0087890625,0.76806640625,16.05224609375,-5.2490234375,-4.21142578125,0.3790283203125,42.791748046875,63.9459228515625
1758874627.200275,-0.65966796875,-0.0087890625,0.76806640625,16.05224609375,-5.2490234375,-4.21142578125,0.494384765625,42.7313232421875,63.885498046875
1758874627.2108488,-0.67236328125,0.03125,0.7001953125,11.53564453125,-5.7373046875,-2.3193359375,0.582275390625,42.6654052734375,63.8525390625
1758874627.2208211,-0.67236328125,0.03125,0.7001953125,11.53564453125,-5.7373046875,-2.3193359375,0.670166015625,42.5994873046875,63.8140869140625
1758874627.2303765,-0.68505859375,-0.01611328125,0.73193359375,2.5634765625,-4.57763671875,-0.48828125,0.6866455078125,42.550048828125,63.797607421875
1758874627.2403955,-0.68505859375,-0.01611328125,0.73193359375,2.5634765625,-4.57763671875,-0.48828125,0.6976318359375,42.4951171875,63.7811279296875
1758874627.2509522,-0.68212890625,-0.0048828125,0.76708984375,3.11279296875,-3.41796875,-0.1220703125,0.72509765625,42.4566650390625,63.7701416015625
1758874627.260434,-0.68212890625,-0.0048828125,0.76708984375,3.11279296875,-3.41796875,-0.1220703125,0.7470703125,42.418212890625,63.7591552734375
1758874627.271034,-0.6572265625,0.0322265625,0.7138671875,-2.25830078125,-2.3193359375,0.06103515625,0.7196044921875,42.396240234375,63.753662109375
1758874627.2806652,-0.6572265625,0.0322265625,0.7138671875,-2.25830078125,-2.3193359375,0.06103515625,0.692138671875,42.3687744140625,63.74267578125
1758874627.2904954,-0.65478515625,0.03662109375,0.76025390625,-1.953125,-2.3193359375,0.30517578125,0.6756591796875,42.34130859375,63.7371826171875
1758874627.300464,-0.65478515625,0.03662109375,0.76025390625,-1.953125,-2.3193359375,0.30517578125,0.6591796875,42.3138427734375,63.731689453125
1758874627.312112,-0.65185546875,0.0126953125,0.74853515625,-5.4931640625,-2.8076171875,0.54931640625,0.6097412109375,42.2808837890625,63.731689453125
1758874627.3204656,-0.65185546875,0.0126953125,0.74853515625,-5.4931640625,-2.8076171875,0.54931640625,0.560302734375,42.2479248046875,63.731689453125
1758874627.3304958,-0.65673828125,0.02587890625,0.71875,-8.11767578125,-3.23486328125,0.9765625,0.4888916015625,42.2149658203125,63.7371826171875
1758874627.3411758,-0.65673828125,0.02587890625,0.71875,-8.11767578125,-3.23486328125,0.9765625,0.41748046875,42.176513671875,63.7371826171875
1758874627.3505855,-0.66650390625,-0.01123046875,0.73779296875,-10.986328125,-3.173828125,2.197265625,0.32958984375,42.1435546875,63.7591552734375
1758874627.3605056,-0.66650390625,-0.01123046875,0.73779296875,-10.986328125,-3.173828125,2.197265625,0.24169921875,42.110595703125,63.775634765625
1758874627.3713806,-0.6640625,-0.04443359375,0.75390625,-9.09423828125,-2.5634765625,2.8076171875,0.1812744140625,42.0831298828125,63.8031005859375
1758874627.3809874,-0.6640625,-0.04443359375,0.75390625,-9.09423828125,-2.5634765625,2.8076171875,0.10986328125,42.0556640625,63.8360595703125
1758874627.3905678,-0.650390625,-0.00439453125,0.73681640625,2.5634765625,-3.35693359375,0.244140625,0.1373291015625,42.0172119140625,63.83056640625
1758874627.4008539,-0.650390625,-0.00439453125,0.73681640625,2.5634765625,-3.35693359375,0.244140625,0.164794921875,41.9842529296875,63.8250732421875
1758874627.411333,-0.650390625,-0.0009765625,0.75,3.23486328125,-4.2724609375,0.0,0.1922607421875,41.9403076171875,63.8140869140625
1758874627.420628,-0.650390625,-0.0009765625,0.75,3.23486328125,-4.2724609375,0.0,0.2252197265625,41.8963623046875,63.80859375
1758874627.4306452,-0.64697265625,0.0322265625,0.74072265625,-1.220703125,-4.8828125,0.1220703125,0.2142333984375,41.8414306640625,63.797607421875
1758874627.4413548,-0.64697265625,0.0322265625,0.74072265625,-1.220703125,-4.8828125,0.1220703125,0.2032470703125,41.7919921875,63.7921142578125
1758874627.4506874,-0.6357421875,0.00830078125,0.7861328125,-3.23486328125,-5.2490234375,0.48828125,0.17578125,41.737060546875,63.7921142578125
1758874627.4606218,-0.6357421875,0.00830078125,0.7861328125,-3.23486328125,-5.2490234375,0.48828125,0.1483154296875,41.68212890625,63.78662109375
1758874627.4744055,-0.64404296875,0.01611328125,0.744140625,-11.3525390625,-5.92041015625,1.15966796875,0.0439453125,41.6162109375,63.797607421875
1758874627.4839184,-0.64404296875,0.01611328125,0.744140625,-11.3525390625,-5.92041015625,1.15966796875,-0.0494384765625,41.5557861328125,63.8031005859375
1758874627.4907193,-0.66748046875,0.0185546875,0.77001953125,-10.3759765625,-5.06591796875,0.79345703125,-0.142822265625,41.5008544921875,63.80859375
1758874627.5010083,-0.6640625,-0.0126953125,0.7666015625,-9.21630859375,-3.47900390625,0.91552734375,-0.2252197265625,41.4569091796875,63.80859375
1758874627.5113776,-0.6640625,-0.0126953125,0.7666015625,-9.21630859375,-3.47900390625,0.91552734375,-0.3076171875,41.41845703125,63.8140869140625
1758874627.5206156,-0.65380859375,-0.01953125,0.71044921875,-7.87353515625,-2.9296875,1.220703125,-0.3790283203125,41.3800048828125,63.8140869140625
1758874627.5307612,-0.65380859375,-0.01953125,0.71044921875,-7.87353515625,-2.9296875,1.220703125,-0.439453125,41.3525390625,63.8250732421875
1758874627.541225,-0.66845703125,-0.02294921875,0.77734375,-7.6904296875,-2.62451171875,1.64794921875,-0.50537109375,41.3250732421875,63.83056640625
1758874627.5508194,-0.66845703125,-0.02294921875,0.77734375,-7.6904296875,-2.62451171875,1.64794921875,-0.5657958984375,41.297607421875,63.841552734375
1758874627.5607207,-0.6455078125,-0.0244140625,0.74755859375,-9.09423828125,-1.52587890625,2.0751953125,-0.6317138671875,41.275634765625,63.8580322265625
1758874627.5711553,-0.6455078125,-0.0244140625,0.74755859375,-9.09423828125,-1.52587890625,2.0751953125,-0.703125,41.2591552734375,63.87451171875
1758874627.5816505,-0.646484375,-0.0068359375,0.7548828125,-5.55419921875,-0.9765625,1.708984375,-0.758056640625,41.2481689453125,63.885498046875
1758874627.5908558,-0.646484375,-0.0068359375,0.7548828125,-5.55419921875,-0.9765625,1.708984375,-0.7965087890625,41.2371826171875,63.896484375
1758874627.600753,-0.66552734375,-0.00634765625,0.7578125,-5.4931640625,-0.30517578125,1.77001953125,-0.8349609375,41.2261962890625,63.907470703125
1758874627.6117246,-0.66552734375,-0.00634765625,0.7578125,-5.4931640625,-0.30517578125,1.77001953125,-0.8734130859375,41.220703125,63.9239501953125
1758874627.620754,-0.642578125,-0.02685546875,0.72802734375,-2.50244140625,0.1220703125,1.46484375,-0.8953857421875,41.220703125,63.929443359375
1758874627.6309388,-0.642578125,-0.02685546875,0.72802734375,-2.50244140625,0.1220703125,1.46484375,-0.9063720703125,41.220703125,63.9404296875
1758874627.6414165,-0.65234375,-0.04736328125,0.7744140625,4.08935546875,0.54931640625,0.6103515625,-0.889892578125,41.2261962890625,63.9404296875
1758874627.6510146,-0.65234375,-0.04736328125,0.7744140625,4.08935546875,0.54931640625,0.6103515625,-0.845947265625,41.231689453125,63.9404296875
1758874627.660743,-0.6376953125,-0.03515625,0.76806640625,11.1083984375,0.732421875,0.0,-0.76904296875,41.231689453125,63.9349365234375
1758874627.671344,-0.6376953125,-0.03515625,0.76806640625,11.1083984375,0.732421875,0.0,-0.6646728515625,41.2371826171875,63.9239501953125
1758874627.6809294,-0.62353515625,-0.01171875,0.74072265625,13.73291015625,0.3662109375,-0.8544921875,-0.54931640625,41.24267578125,63.9129638671875
1758874627.6910346,-0.62353515625,-0.01171875,0.74072265625,13.73291015625,0.3662109375,-0.8544921875,-0.428466796875,41.2371826171875,63.8909912109375
1758874627.7011797,-0.642578125,0.001953125,0.7705078125,11.29150390625,0.0,-0.9765625,-0.318603515625,41.2371826171875,63.8690185546875
1758874627.7117443,-0.642578125,0.001953125,0.7705078125,11.29150390625,0.0,-0.9765625,-0.2197265625,41.231689453125,63.8525390625
1758874627.7208936,-0.65380859375,0.00146484375,0.76904296875,10.07080078125,0.06103515625,-0.9765625,-0.1263427734375,41.2261962890625,63.83056640625
1758874627.7314937,-0.65380859375,0.00146484375,0.76904296875,10.07080078125,0.06103515625,-0.9765625,-0.0384521484375,41.2261962890625,63.80859375
1758874627.7413492,-0.6552734375,0.017578125,0.76416015625,8.056640625,0.3662109375,-1.64794921875,0.0274658203125,41.220703125,63.78662109375
1758874627.7510574,-0.6552734375,0.017578125,0.76416015625,8.056640625,0.3662109375,-1.64794921875,0.087890625,41.220703125,63.7591552734375
1758874627.760926,-0.6796875,0.029296875,0.75830078125,2.685546875,0.8544921875,-1.77001953125,0.1263427734375,41.220703125,63.7261962890625
1758874627.7718399,-0.6796875,0.029296875,0.75830078125,2.685546875,0.8544921875,-1.77001953125,0.1373291015625,41.2261962890625,63.69873046875
1758874627.7810419,-0.6982421875,0.0283203125,0.74609375,-3.23486328125,1.3427734375,-1.89208984375,0.1153564453125,41.2371826171875,63.665771484375
1758874627.7910373,-0.6982421875,0.0283203125,0.74609375,-3.23486328125,1.3427734375,-1.89208984375,0.06591796875,41.2481689453125,63.6273193359375
1758874627.8013988,-0.66748046875,0.02734375,0.7158203125,-9.82666015625,1.8310546875,-1.46484375,-0.0054931640625,41.2646484375,63.5943603515625
1758874627.8116875,-0.66748046875,0.02734375,0.7158203125,-9.82666015625,1.8310546875,-1.46484375,-0.10986328125,41.2811279296875,63.56689453125
1758874627.8209226,-0.67626953125,-0.01025390625,0.74169921875,-12.20703125,1.708984375,-1.0986328125,-0.2252197265625,41.3031005859375,63.5394287109375
1758874627.8314846,-0.67626953125,-0.01025390625,0.74169921875,-12.20703125,1.708984375,-1.0986328125,-0.3515625,41.319580078125,63.511962890625
1758874627.8414972,-0.6708984375,-0.01611328125,0.7392578125,-9.21630859375,1.03759765625,-1.46484375,-0.4669189453125,41.3360595703125,63.4844970703125
1758874627.851248,-0.6708984375,-0.01611328125,0.7392578125,-9.21630859375,1.03759765625,-1.46484375,-0.5657958984375,41.3470458984375,63.4515380859375
1758874627.8610415,-0.6474609375,-0.03955078125,0.712890625,-5.31005859375,0.42724609375,-2.0751953125,-0.6536865234375,41.3580322265625,63.4185791015625
1758874627.8717005,-0.6474609375,-0.03955078125,0.712890625,-5.31005859375,0.42724609375,-2.0751953125,-0.7196044921875,41.363525390625,63.380126953125
1758874627.881216,-0.638671875,-0.021484375,0.75439453125,2.685546875,-2.197265625,-3.662109375,-0.758056640625,41.3580322265625,63.3306884765625
1758874627.891318,-0.638671875,-0.021484375,0.75439453125,2.685546875,-2.197265625,-3.662109375,-0.7635498046875,41.3360595703125,63.270263671875
1758874627.9014626,-0.6103515625,-0.00146484375,0.69580078125,10.25390625,-6.2255859375,-4.7607421875,-0.7305908203125,41.297607421875,63.2098388671875
1758874627.911912,-0.6103515625,-0.00146484375,0.69580078125,10.25390625,-6.2255859375,-4.7607421875,-0.670166015625,41.2371826171875,63.138427734375
1758874627.9210439,-0.64599609375,-0.0166015625,0.79638671875,2.50244140625,-8.48388671875,-3.7841796875,-0.6427001953125,41.1602783203125,63.072509765625
1758874627.9317348,-0.64599609375,-0.0166015625,0.79638671875,2.50244140625,-8.48388671875,-3.7841796875,-0.648193359375,41.077880859375,63.0120849609375
1758874627.9413764,-0.63623046875,0.01416015625,0.72900390625,-0.30517578125,-8.9111328125,-2.50244140625,-0.6646728515625,40.989990234375,62.9681396484375
1758874627.9511902,-0.63623046875,0.01416015625,0.72900390625,-0.30517578125,-8.9111328125,-2.50244140625,-0.6866455078125,40.902099609375,62.9241943359375
1758874627.961153,-0.7109375,-0.04052734375,0.82373046875,-1.89208984375,-4.8828125,-0.06103515625,-0.7086181640625,40.836181640625,62.9022216796875
1758874627.9717774,-0.7109375,-0.04052734375,0.82373046875,-1.89208984375,-4.8828125,-0.06103515625,-0.72509765625,40.7867431640625,62.8912353515625
1758874627.9811428,-0.701171875,-0.052734375,0.7265625,-6.53076171875,-0.06103515625,2.01416015625,-0.7635498046875,40.7647705078125,62.896728515625
1758874627.991261,-0.701171875,-0.052734375,0.7265625,-6.53076171875,-0.06103515625,2.01416015625,-0.81298828125,40.7647705078125,62.9132080078125
1758874628.0013957,-0.71337890625,-0.046875,0.75830078125,-1.0986328125,4.638671875,2.9296875,-0.8349609375,40.7977294921875,62.9296875
1758874628.0114634,-0.71337890625,-0.046875,0.75830078125,-1.0986328125,4.638671875,2.9296875,-0.823974609375,40.84716796875,62.9571533203125
1758874628.0211847,-0.67724609375,-0.02978515625,0.70654296875,3.47900390625,6.53076171875,1.5869140625,-0.802001953125,40.9075927734375,62.9736328125
1758874628.031373,-0.67724609375,-0.02978515625,0.70654296875,3.47900390625,6.53076171875,1.5869140625,-0.758056640625,40.9844970703125,62.9791259765625
1758874628.0414736,-0.66455078125,0.01904296875,0.7412109375,9.58251953125,7.14111328125,-0.3662109375,-0.6976318359375,41.055908203125,62.9736328125
1758874628.0512874,-0.66455078125,0.01904296875,0.7412109375,9.58251953125,7.14111328125,-0.3662109375,-0.6097412109375,41.1383056640625,62.95166015625
1758874628.0611782,-0.6572265625,0.01123046875,0.76171875,10.55908203125,7.99560546875,-2.01416015625,-0.5218505859375,41.2152099609375,62.9241943359375
1758874628.0743127,-0.6572265625,0.01123046875,0.76171875,10.55908203125,7.99560546875,-2.01416015625,-0.439453125,41.3031005859375,62.8857421875
1758874628.0844336,-0.64208984375,0.01025390625,0.7509765625,8.60595703125,8.30078125,-3.173828125,-0.3680419921875,41.385498046875,62.8363037109375
1758874628.0919056,-0.64208984375,0.01025390625,0.7509765625,8.60595703125,8.30078125,-3.173828125,-0.3131103515625,41.4678955078125,62.7813720703125
1758874628.1018972,-0.64111328125,0.00341796875,0.7587890625,6.2255859375,8.544921875,-3.84521484375,-0.274658203125,41.5557861328125,62.7264404296875
1758874628.1120915,-0.64111328125,0.00341796875,0.7587890625,6.2255859375,8.544921875,-3.84521484375,-0.2471923828125,41.63818359375,62.666015625
1758874628.1214497,-0.65380859375,-0.00732421875,0.76318359375,5.67626953125,9.3994140625,-3.84521484375,-0.2252197265625,41.72607421875,62.6055908203125
1758874628.1313944,-0.65380859375,-0.00732421875,0.76318359375,5.67626953125,9.3994140625,-3.84521484375,-0.2032470703125,41.8194580078125,62.545166015625
1758874628.1422517,-0.65966796875,-0.0263671875,0.74072265625,6.16455078125,9.94873046875,-3.5400390625,-0.1812744140625,41.9073486328125,62.490234375
1758874628.1518974,-0.65966796875,-0.0263671875,0.74072265625,6.16455078125,9.94873046875,-3.5400390625,-0.15380859375,42.0062255859375,62.435302734375
1758874628.1614444,-0.66552734375,-0.01220703125,0.74462890625,9.8876953125,10.55908203125,-4.21142578125,-0.10986328125,42.1051025390625,62.3748779296875
1758874628.1716344,-0.66552734375,-0.01220703125,0.74462890625,9.8876953125,10.55908203125,-4.21142578125,-0.054931640625,42.2039794921875,62.314453125
1758874628.182308,-0.681640625,-0.0048828125,0.7314453125,13.61083984375,10.6201171875,-4.82177734375,0.010986328125,42.3028564453125,62.24853515625
1758874628.1916246,-0.681640625,-0.0048828125,0.7314453125,13.61083984375,10.6201171875,-4.82177734375,0.098876953125,42.4072265625,62.1771240234375
1758874628.2014556,-0.67724609375,0.0087890625,0.7158203125,11.962890625,11.04736328125,-6.04248046875,0.1702880859375,42.5115966796875,62.0947265625
1758874628.2121983,-0.67724609375,0.0087890625,0.7158203125,11.962890625,11.04736328125,-6.04248046875,0.230712890625,42.615966796875,62.0068359375
1758874628.2217464,-0.71875,0.04248046875,0.74609375,14.5263671875,13.5498046875,-7.4462890625,0.296630859375,42.73681640625,61.9134521484375
1758874628.2315013,-0.71875,0.04248046875,0.74609375,14.5263671875,13.5498046875,-7.4462890625,0.37353515625,42.86865234375,61.8035888671875
1758874628.2416866,-0.70849609375,0.0146484375,0.73876953125,11.23046875,16.7236328125,-7.080078125,0.4339599609375,43.0169677734375,61.69921875
1758874628.252204,-0.70849609375,0.0146484375,0.73876953125,11.23046875,16.7236328125,-7.080078125,0.4833984375,43.1817626953125,61.600341796875
1758874628.261562,-0.6748046875,-0.013671875,0.703125,8.7890625,18.00537109375,-6.04248046875,0.5218505859375,43.35205078125,61.5069580078125
1758874628.2716103,-0.6748046875,-0.013671875,0.703125,8.7890625,18.00537109375,-6.04248046875,0.54931640625,43.52783203125,61.4190673828125
1758874628.2824712,-0.6953125,-0.02880859375,0.7490234375,6.65283203125,18.5546875,-4.2724609375,0.5767822265625,43.7091064453125,61.34765625
1758874628.291629,-0.6953125,-0.02880859375,0.7490234375,6.65283203125,18.5546875,-4.2724609375,0.5987548828125,43.8848876953125,61.2872314453125
1758874628.3016627,-0.68603515625,-0.02734375,0.708984375,7.50732421875,18.4326171875,-2.50244140625,0.6317138671875,44.066162109375,61.2432861328125
1758874628.3117363,-0.68603515625,-0.02734375,0.708984375,7.50732421875,18.4326171875,-2.50244140625,0.68115234375,44.241943359375,61.2103271484375
1758874628.3224666,-0.689453125,-0.02490234375,0.6923828125,9.70458984375,17.39501953125,-1.0986328125,0.7415771484375,44.4122314453125,61.1883544921875
1758874628.3316457,-0.689453125,-0.02490234375,0.6923828125,9.70458984375,17.39501953125,-1.0986328125,0.8184814453125,44.58251953125,61.171875
1758874628.341808,-0.693359375,0.0009765625,0.71240234375,10.43701171875,16.357421875,-0.9765625,0.90087890625,44.7418212890625,61.160888671875
1758874628.352108,-0.693359375,0.0009765625,0.71240234375,10.43701171875,16.357421875,-0.9765625,0.98876953125,44.8956298828125,61.14990234375
1758874628.3618038,-0.689453125,0.02978515625,0.70947265625,10.498046875,15.07568359375,-1.3427734375,1.07666015625,45.0439453125,61.138916015625
1758874628.3727572,-0.689453125,0.02978515625,0.70947265625,10.498046875,15.07568359375,-1.3427734375,1.1590576171875,45.186767578125,61.1279296875
1758874628.381731,-0.68017578125,0.03857421875,0.71240234375,7.99560546875,13.97705078125,-1.52587890625,1.2359619140625,45.3240966796875,61.1114501953125
1758874628.3923373,-0.68017578125,0.03857421875,0.71240234375,7.99560546875,13.97705078125,-1.52587890625,1.29638671875,45.4559326171875,61.1004638671875
1758874628.4016693,-0.685546875,0.03369140625,0.7236328125,5.18798828125,12.63427734375,-1.52587890625,1.3458251953125,45.5767822265625,61.083984375
1758874628.4118114,-0.685546875,0.03369140625,0.7236328125,5.18798828125,12.63427734375,-1.52587890625,1.3787841796875,45.692138671875,61.072998046875
1758874628.4218903,-0.6806640625,0.01806640625,0.7119140625,2.99072265625,11.53564453125,-1.0986328125,1.40625,45.7965087890625,61.06201171875
1758874628.4323869,-0.6806640625,0.01806640625,0.7119140625,2.99072265625,11.53564453125,-1.0986328125,1.4227294921875,45.90087890625,61.0565185546875
1758874628.4416773,-0.677734375,0.0,0.73046875,2.62451171875,10.68115234375,-0.42724609375,1.4447021484375,45.999755859375,61.051025390625
1758874628.45237,-0.677734375,0.0,0.73046875,2.62451171875,10.68115234375,-0.42724609375,1.4666748046875,46.087646484375,61.0565185546875
1758874628.4694185,-0.6826171875,-0.001953125,0.7333984375,3.41796875,9.94873046875,0.30517578125,1.494140625,46.175537109375,61.06201171875
1758874628.475987,-0.6826171875,-0.001953125,0.7333984375,3.41796875,9.94873046875,0.30517578125,1.527099609375,46.2579345703125,61.072998046875
1758874628.4825304,-0.71337890625,-0.00146484375,0.70703125,5.0048828125,9.46044921875,0.91552734375,1.5765380859375,46.34033203125,61.094970703125
1758874628.4925256,-0.71337890625,-0.00146484375,0.70703125,5.0048828125,9.46044921875,0.91552734375,1.6314697265625,46.417236328125,61.116943359375
1758874628.501785,-0.6982421875,0.02392578125,0.681640625,5.4931640625,8.9111328125,0.8544921875,1.6864013671875,46.4886474609375,61.138916015625
1758874628.5118906,-0.6982421875,0.02392578125,0.681640625,5.4931640625,8.9111328125,0.8544921875,1.746826171875,46.5655517578125,61.160888671875
1758874628.522763,-0.69189453125,0.03662109375,0.69287109375,3.0517578125,7.9345703125,0.91552734375,1.7962646484375,46.6314697265625,61.182861328125
1758874628.531922,-0.69189453125,0.03662109375,0.69287109375,3.0517578125,7.9345703125,0.91552734375,1.834716796875,46.6973876953125,61.204833984375
1758874628.5418046,-0.70849609375,0.03955078125,0.7060546875,-0.06103515625,7.01904296875,1.0986328125,1.845703125,46.7523193359375,61.226806640625
1758874628.551824,-0.70849609375,0.03955078125,0.7060546875,-0.06103515625,7.01904296875,1.0986328125,1.856689453125,46.8072509765625,61.2542724609375
1758874628.5628798,-0.712890625,0.01806640625,0.68408203125,-1.03759765625,6.8359375,0.79345703125,1.856689453125,46.8621826171875,61.2762451171875
1758874628.5718184,-0.712890625,0.01806640625,0.68408203125,-1.03759765625,6.8359375,0.79345703125,1.8511962890625,46.9171142578125,61.2982177734375
1758874628.5818546,-0.7265625,0.02294921875,0.68408203125,0.30517578125,7.080078125,-0.1220703125,1.856689453125,46.9720458984375,61.3037109375
1758874628.5926785,-0.7265625,0.02294921875,0.68408203125,0.30517578125,7.080078125,-0.1220703125,1.856689453125,47.032470703125,61.3092041015625
1758874628.601952,-0.7265625,0.02294921875,0.68408203125,0.244140625,8.1787109375,-0.42724609375,1.856689453125,47.1038818359375,61.3092041015625
1758874628.6119423,-0.7255859375,0.04443359375,0.6943359375,0.244140625,8.1787109375,-0.42724609375,1.856689453125,47.17529296875,61.314697265625
1758874628.6222482,-0.7099609375,0.04150390625,0.68359375,-2.8076171875,8.9111328125,-0.42724609375,1.8292236328125,47.252197265625,61.314697265625
1758874628.6326034,-0.7099609375,0.04150390625,0.68359375,-2.8076171875,8.9111328125,-0.42724609375,1.8017578125,47.3291015625,61.3201904296875
1758874628.6419017,-0.7119140625,0.00390625,0.70556640625,-4.5166015625,8.36181640625,0.0,1.7633056640625,47.4005126953125,61.3311767578125
1758874628.6520004,-0.7119140625,0.00390625,0.70556640625,-4.5166015625,8.36181640625,0.0,1.7193603515625,47.471923828125,61.336669921875
1758874628.6628432,-0.7158203125,0.0048828125,0.68701171875,-6.4697265625,7.6904296875,0.48828125,1.6644287109375,47.537841796875,61.3531494140625
1758874628.6719759,-0.7158203125,0.0048828125,0.68701171875,-6.4697265625,7.6904296875,0.48828125,1.6094970703125,47.5982666015625,61.36962890625
1758874628.6819663,-0.7216796875,0.0224609375,0.67138671875,-5.43212890625,7.14111328125,0.67138671875,1.5655517578125,47.65869140625,61.3916015625
1758874628.6926208,-0.7216796875,0.0224609375,0.67138671875,-5.43212890625,7.14111328125,0.67138671875,1.5216064453125,47.7191162109375,61.4080810546875
1758874628.7019699,-0.74169921875,0.02099609375,0.697265625,-2.99072265625,6.77490234375,0.732421875,1.4996337890625,47.7740478515625,61.4300537109375
