timestamp,acc_x,acc_y,acc_z,gyro_x,gyro_y,gyro_z,angle_x,angle_y,angle_z
1758184553.461699,0.0,0.0,0.0,0.0,0.0,0.0,10.6951904296875,39.00146484375,57.23876953125
1758184553.4726348,-0.61572265625,0.14111328125,0.77880859375,-7.99560546875,-0.54931640625,4.45556640625,10.6512451171875,38.9849853515625,57.293701171875
1758184553.4819891,-0.615234375,0.13037109375,0.76904296875,-5.615234375,-0.54931640625,4.39453125,10.6292724609375,38.968505859375,57.3541259765625
1758184553.493289,-0.615234375,0.13037109375,0.76904296875,-5.615234375,-0.54931640625,4.39453125,10.6072998046875,38.9520263671875,57.4090576171875
1758184553.5005462,-0.60693359375,0.1328125,0.77294921875,-3.2958984375,-0.6103515625,4.57763671875,10.6072998046875,38.9300537109375,57.469482421875
1758184553.5157576,-0.60693359375,0.1328125,0.77294921875,-3.2958984375,-0.6103515625,4.57763671875,10.6072998046875,38.91357421875,57.5244140625
1758184553.5234559,-0.60546875,0.1494140625,0.7880859375,-6.28662109375,-0.79345703125,4.45556640625,10.579833984375,38.8916015625,57.5848388671875
1758184553.5306208,-0.60546875,0.1494140625,0.7880859375,-6.28662109375,-0.79345703125,4.45556640625,10.546875,38.8751220703125,57.6397705078125
1758184553.54076,-0.6083984375,0.15576171875,0.78125,-9.33837890625,-0.91552734375,4.39453125,10.491943359375,38.8531494140625,57.6947021484375
1758184553.5508566,-0.6083984375,0.15576171875,0.78125,-9.33837890625,-0.91552734375,4.39453125,10.4315185546875,38.8311767578125,57.755126953125
1758184553.5616758,-0.61279296875,0.154296875,0.7724609375,-8.056640625,-0.79345703125,4.150390625,10.382080078125,38.8092041015625,57.8045654296875
1758184553.5707858,-0.61279296875,0.154296875,0.7724609375,-8.056640625,-0.79345703125,4.150390625,10.338134765625,38.7872314453125,57.8594970703125
1758184553.581005,-0.60986328125,0.142578125,0.7783203125,-5.4931640625,-0.732421875,3.96728515625,10.316162109375,38.770751953125,57.908935546875
1758184553.5917401,-0.60986328125,0.142578125,0.7783203125,-5.4931640625,-0.732421875,3.96728515625,10.294189453125,38.748779296875,57.9638671875
1758184553.6026757,-0.59814453125,0.142578125,0.76953125,-5.4931640625,-1.03759765625,3.84521484375,10.2667236328125,38.726806640625,58.0133056640625
1758184553.6104052,-0.59814453125,0.142578125,0.76953125,-5.4931640625,-1.03759765625,3.84521484375,10.2447509765625,38.704833984375,58.062744140625
1758184553.6216056,-0.60888671875,0.138671875,0.7802734375,-7.01904296875,-1.0986328125,3.173828125,10.2008056640625,38.682861328125,58.1011962890625
1758184553.631045,-0.60888671875,0.138671875,0.7802734375,-7.01904296875,-1.0986328125,3.173828125,10.1568603515625,38.660888671875,58.1451416015625
1758184553.6421733,-0.60888671875,0.138671875,0.7802734375,-6.04248046875,-0.9765625,3.0517578125,10.118408203125,38.638916015625,58.18359375
1758184553.6502295,-0.60791015625,0.1396484375,0.7900390625,-6.04248046875,-0.9765625,3.0517578125,10.08544921875,38.616943359375,58.2220458984375
1758184553.660161,-0.59521484375,0.1396484375,0.77587890625,-3.90625,-1.03759765625,2.62451171875,10.0689697265625,38.6004638671875,58.2550048828125
1758184553.6701686,-0.59521484375,0.1396484375,0.77587890625,-3.90625,-1.03759765625,2.62451171875,10.0469970703125,38.5784912109375,58.2879638671875
1758184553.6802332,-0.59912109375,0.1416015625,0.77978515625,-2.8076171875,-1.220703125,2.25830078125,10.04150390625,38.5565185546875,58.3154296875
1758184553.6902053,-0.59912109375,0.1416015625,0.77978515625,-2.8076171875,-1.220703125,2.25830078125,10.030517578125,38.5345458984375,58.3428955078125
1758184553.7002113,-0.60302734375,0.1396484375,0.78271484375,-5.31005859375,-1.0986328125,2.197265625,9.9920654296875,38.5125732421875,58.370361328125
1758184553.7102392,-0.60302734375,0.1396484375,0.78271484375,-5.31005859375,-1.0986328125,2.197265625,9.9591064453125,38.4906005859375,58.3978271484375
1758184553.720229,-0.6064453125,0.134765625,0.78125,-5.859375,-0.9765625,1.89208984375,9.9151611328125,38.4686279296875,58.42529296875
1758184553.730242,-0.6064453125,0.134765625,0.78125,-5.859375,-0.9765625,1.89208984375,9.8712158203125,38.4521484375,58.447265625
1758184553.7402616,-0.60595703125,0.13671875,0.7763671875,-4.33349609375,-0.79345703125,1.708984375,9.84375,38.4356689453125,58.46923828125
1758184553.750329,-0.60595703125,0.13671875,0.7763671875,-4.33349609375,-0.79345703125,1.708984375,9.8162841796875,38.419189453125,58.4912109375
1758184553.7602725,-0.60693359375,0.14013671875,0.779296875,-2.9296875,-1.0986328125,1.40380859375,9.7998046875,38.397216796875,58.51318359375
1758184553.7703147,-0.60693359375,0.14013671875,0.779296875,-2.9296875,-1.0986328125,1.40380859375,9.77783203125,38.3807373046875,58.5296630859375
1758184553.7803023,-0.625,0.14453125,0.8017578125,-3.11279296875,-1.03759765625,1.03759765625,9.7613525390625,38.3642578125,58.5406494140625
1758184553.7903998,-0.625,0.14453125,0.8017578125,-3.11279296875,-1.03759765625,1.03759765625,9.7393798828125,38.34228515625,58.5516357421875
1758184553.800391,-0.62646484375,0.14697265625,0.775390625,-5.615234375,-0.91552734375,1.03759765625,9.68994140625,38.331298828125,58.568115234375
1758184553.8103945,-0.62646484375,0.14697265625,0.775390625,-5.615234375,-0.91552734375,1.03759765625,9.64599609375,38.3148193359375,58.5791015625
1758184553.8203907,-0.61865234375,0.1455078125,0.76416015625,-8.6669921875,-1.46484375,1.0986328125,9.569091796875,38.2928466796875,58.590087890625
1758184553.8303928,-0.61865234375,0.1455078125,0.76416015625,-8.6669921875,-1.46484375,1.0986328125,9.4921875,38.2763671875,58.60107421875
1758184553.8404024,-0.61376953125,0.1318359375,0.76318359375,-12.75634765625,-1.0986328125,0.91552734375,9.3768310546875,38.2598876953125,58.6065673828125
1758184553.8504493,-0.61376953125,0.1318359375,0.76318359375,-12.75634765625,-1.0986328125,0.91552734375,9.261474609375,38.243408203125,58.6175537109375
1758184553.8604043,-0.63037109375,0.12939453125,0.78955078125,-12.26806640625,-1.52587890625,0.91552734375,9.151611328125,38.2269287109375,58.623046875
1758184553.8704147,-0.63037109375,0.12939453125,0.78955078125,-12.26806640625,-1.52587890625,0.91552734375,9.041748046875,38.21044921875,58.6285400390625
1758184553.880429,-0.6279296875,0.1220703125,0.78515625,-9.82666015625,-1.220703125,0.8544921875,8.953857421875,38.1939697265625,58.634033203125
1758184553.89045,-0.6279296875,0.1220703125,0.78515625,-9.82666015625,-1.220703125,0.8544921875,8.865966796875,38.177490234375,58.6395263671875
1758184553.900453,-0.62158203125,0.12060546875,0.748046875,-6.53076171875,-1.28173828125,0.91552734375,8.81103515625,38.16650390625,58.6505126953125
1758184553.9104648,-0.62158203125,0.12060546875,0.748046875,-6.53076171875,-1.28173828125,0.91552734375,8.756103515625,38.1500244140625,58.656005859375
1758184553.9204876,-0.62939453125,0.12451171875,0.771484375,-9.33837890625,-1.52587890625,0.8544921875,8.6737060546875,38.1390380859375,58.6614990234375
1758184553.9304929,-0.62939453125,0.12451171875,0.771484375,-9.33837890625,-1.52587890625,0.8544921875,8.59130859375,38.12255859375,58.6614990234375
1758184553.940512,-0.63427734375,0.1171875,0.7666015625,-12.0849609375,-1.220703125,1.0986328125,8.4869384765625,38.111572265625,58.6724853515625
1758184553.9505882,-0.63427734375,0.1171875,0.7666015625,-12.0849609375,-1.220703125,1.0986328125,8.3770751953125,38.1005859375,58.677978515625
1758184553.9605155,-0.63427734375,0.10888671875,0.751953125,-9.94873046875,-1.15966796875,1.0986328125,8.294677734375,38.089599609375,58.6834716796875
1758184553.9706967,-0.63427734375,0.10888671875,0.751953125,-9.94873046875,-1.15966796875,1.0986328125,8.206787109375,38.07861328125,58.6944580078125
1758184553.98074,-0.6279296875,0.10595703125,0.77685546875,-8.6669921875,-1.46484375,1.0986328125,8.1353759765625,38.067626953125,58.699951171875
1758184553.9905949,-0.6279296875,0.10595703125,0.77685546875,-8.6669921875,-1.46484375,1.0986328125,8.0584716796875,38.056640625,58.7054443359375
1758184554.0005782,-0.63232421875,0.1005859375,0.7724609375,-9.3994140625,-1.220703125,1.0986328125,7.97607421875,38.045654296875,58.7109375
1758184554.010631,-0.63232421875,0.1005859375,0.7724609375,-9.3994140625,-1.220703125,1.0986328125,7.8936767578125,38.0401611328125,58.7164306640625
1758184554.020645,-0.63916015625,0.09716796875,0.7578125,-5.37109375,-0.9765625,0.79345703125,7.8497314453125,38.03466796875,58.7164306640625
1758184554.030627,-0.63916015625,0.09716796875,0.7578125,-5.37109375,-0.9765625,0.79345703125,7.8057861328125,38.0291748046875,58.7164306640625
1758184554.0407403,-0.6357421875,0.091796875,0.7626953125,-0.48828125,-0.91552734375,0.54931640625,7.8057861328125,38.023681640625,58.7164306640625
1758184554.0507643,-0.6357421875,0.091796875,0.7626953125,-0.48828125,-0.91552734375,0.54931640625,7.8057861328125,38.023681640625,58.7164306640625
1758184554.0607588,-0.6318359375,0.09814453125,0.7724609375,1.46484375,-0.91552734375,0.3662109375,7.8277587890625,38.0181884765625,58.7109375
1758184554.070844,-0.6318359375,0.09814453125,0.7724609375,1.46484375,-0.91552734375,0.3662109375,7.84423828125,38.0126953125,58.7109375
1758184554.080818,-0.6376953125,0.1064453125,0.77490234375,-0.54931640625,-0.9765625,0.42724609375,7.8387451171875,38.0126953125,58.7054443359375
1758184554.0908349,-0.6376953125,0.1064453125,0.77490234375,-0.54931640625,-0.9765625,0.42724609375,7.8387451171875,38.0072021484375,58.7054443359375
1758184554.1007848,-0.63720703125,0.10595703125,0.77587890625,0.0,-1.0986328125,0.30517578125,7.8387451171875,38.001708984375,58.699951171875
1758184554.1109424,-0.63720703125,0.10595703125,0.77587890625,0.0,-1.0986328125,0.30517578125,7.84423828125,38.001708984375,58.6944580078125
1758184554.121017,-0.63720703125,0.10595703125,0.77587890625,3.90625,-0.91552734375,0.18310546875,7.8826904296875,37.9962158203125,58.68896484375
1758184554.1308029,-0.63671875,0.1015625,0.7763671875,3.90625,-0.91552734375,0.18310546875,7.921142578125,37.9962158203125,58.6834716796875
1758184554.14096,-0.63525390625,0.1015625,0.767578125,6.2255859375,-1.03759765625,0.1220703125,7.9815673828125,37.99072265625,58.677978515625
1758184554.1513906,-0.63525390625,0.1015625,0.767578125,6.2255859375,-1.03759765625,0.1220703125,8.0419921875,37.9852294921875,58.6724853515625
1758184554.1609075,-0.63134765625,0.11181640625,0.76953125,5.18798828125,-1.28173828125,0.1220703125,8.0914306640625,37.979736328125,58.6669921875
1758184554.1708996,-0.63134765625,0.11181640625,0.76953125,5.18798828125,-1.28173828125,0.1220703125,8.140869140625,37.9742431640625,58.656005859375
1758184554.1813085,-0.6318359375,0.12060546875,0.77587890625,2.44140625,-1.28173828125,0.06103515625,8.162841796875,37.96875,58.6505126953125
1758184554.1909566,-0.6318359375,0.12060546875,0.77587890625,2.44140625,-1.28173828125,0.06103515625,8.184814453125,37.9632568359375,58.64501953125
1758184554.2009377,-0.63720703125,0.12060546875,0.78125,0.0,-1.03759765625,0.0,8.184814453125,37.9632568359375,58.6395263671875
1758184554.2112646,-0.63720703125,0.12060546875,0.78125,0.0,-1.03759765625,0.0,8.184814453125,37.957763671875,58.6285400390625
1758184554.22101,-0.634765625,0.111328125,0.75830078125,1.708984375,-0.79345703125,-0.18310546875,8.2012939453125,37.957763671875,58.623046875
1758184554.2309093,-0.634765625,0.111328125,0.75830078125,1.708984375,-0.79345703125,-0.18310546875,8.2122802734375,37.957763671875,58.612060546875
1758184554.2412884,-0.6298828125,0.10107421875,0.75732421875,6.65283203125,-0.732421875,-0.30517578125,8.2781982421875,37.957763671875,58.60107421875
1758184554.2513468,-0.6298828125,0.10107421875,0.75732421875,6.65283203125,-0.732421875,-0.30517578125,8.338623046875,37.957763671875,58.5955810546875
1758184554.261008,-0.62451171875,0.10888671875,0.779296875,7.32421875,-0.67138671875,-0.30517578125,8.4100341796875,37.957763671875,58.5845947265625
1758184554.271002,-0.61865234375,0.1220703125,0.78271484375,4.638671875,-0.42724609375,-0.42724609375,8.45947265625,37.957763671875,58.5736083984375
1758184554.2813444,-0.61865234375,0.1220703125,0.78271484375,4.638671875,-0.42724609375,-0.42724609375,8.50341796875,37.9632568359375,58.5626220703125
1758184554.2910566,-0.623046875,0.12109375,0.7724609375,3.47900390625,-0.18310546875,-0.244140625,8.536376953125,37.9632568359375,58.5516357421875
1758184554.3011057,-0.623046875,0.12109375,0.7724609375,3.47900390625,-0.18310546875,-0.244140625,8.5693359375,37.96875,58.546142578125
1758184554.3115277,-0.61767578125,0.1162109375,0.76513671875,3.72314453125,-0.244140625,-0.244140625,8.602294921875,37.9742431640625,58.53515625
1758184554.3210404,-0.61767578125,0.1162109375,0.76513671875,3.72314453125,-0.244140625,-0.244140625,8.63525390625,37.9742431640625,58.5296630859375
1758184554.331042,-0.61181640625,0.1171875,0.77783203125,4.57763671875,-0.30517578125,-0.54931640625,8.6737060546875,37.979736328125,58.5186767578125
1758184554.3411713,-0.61181640625,0.1171875,0.77783203125,4.57763671875,-0.30517578125,-0.54931640625,8.712158203125,37.979736328125,58.5076904296875
1758184554.3511076,-0.60302734375,0.12451171875,0.7880859375,4.69970703125,-0.30517578125,-0.6103515625,8.7506103515625,37.979736328125,58.4912109375
1758184554.3611052,-0.60302734375,0.12451171875,0.7880859375,4.69970703125,-0.30517578125,-0.6103515625,8.7945556640625,37.9852294921875,58.480224609375
1758184554.3711205,-0.60498046875,0.13134765625,0.7998046875,2.01416015625,0.0,-0.6103515625,8.822021484375,37.9852294921875,58.46923828125
1758184554.3813388,-0.60498046875,0.13134765625,0.7998046875,2.01416015625,0.0,-0.6103515625,8.8330078125,37.9852294921875,58.458251953125
1758184554.391146,-0.6025390625,0.1240234375,0.7841796875,2.38037109375,0.18310546875,-0.67138671875,8.8494873046875,37.99072265625,58.447265625
1758184554.4012325,-0.6025390625,0.1240234375,0.7841796875,2.38037109375,0.18310546875,-0.67138671875,8.865966796875,37.99072265625,58.436279296875
1758184554.411599,-0.5986328125,0.1162109375,0.77734375,3.5400390625,0.0,-0.732421875,8.8934326171875,37.99072265625,58.42529296875
1758184554.4212022,-0.5986328125,0.1162109375,0.77734375,3.5400390625,0.0,-0.732421875,8.9208984375,37.99072265625,58.414306640625
1758184554.4311755,-0.595703125,0.126953125,0.79150390625,2.9296875,-0.42724609375,-1.0986328125,8.94287109375,37.99072265625,58.4033203125
1758184554.4412878,-0.595703125,0.126953125,0.79150390625,2.9296875,-0.42724609375,-1.0986328125,8.96484375,37.9852294921875,58.3868408203125
1758184554.4512606,-0.60498046875,0.12646484375,0.80322265625,0.79345703125,-0.54931640625,-1.03759765625,8.9703369140625,37.979736328125,58.370361328125
1758184554.4612405,-0.60498046875,0.12646484375,0.80322265625,0.79345703125,-0.54931640625,-1.03759765625,8.9703369140625,37.9742431640625,58.359375
1758184554.4711802,-0.61083984375,0.1240234375,0.78125,0.48828125,-0.6103515625,-0.48828125,8.9703369140625,37.9632568359375,58.348388671875
1758184554.4816535,-0.61083984375,0.1240234375,0.78125,0.48828125,-0.6103515625,-0.48828125,8.9703369140625,37.957763671875,58.3428955078125
1758184554.4912646,-0.61572265625,0.11474609375,0.7822265625,-0.42724609375,-1.03759765625,-0.244140625,8.96484375,37.94677734375,58.33740234375
1758184554.501312,-0.61572265625,0.11474609375,0.7822265625,-0.42724609375,-1.03759765625,-0.244140625,8.953857421875,37.9302978515625,58.3319091796875
1758184554.5117238,-0.61767578125,0.12451171875,0.7822265625,-3.96728515625,-1.28173828125,0.1220703125,8.931884765625,37.9193115234375,58.3319091796875
1758184554.5213456,-0.61767578125,0.12451171875,0.7822265625,-3.96728515625,-1.28173828125,0.1220703125,8.887939453125,37.90283203125,58.326416015625
1758184554.5313509,-0.62060546875,0.12060546875,0.77001953125,-3.41796875,-1.46484375,0.30517578125,8.8494873046875,37.8863525390625,58.326416015625
1758184554.5415504,-0.62060546875,0.12060546875,0.77001953125,-3.41796875,-1.46484375,0.30517578125,8.8165283203125,37.8753662109375,58.326416015625
1758184554.551384,-0.62451171875,0.12109375,0.7822265625,-2.38037109375,-1.220703125,0.3662109375,8.7890625,37.85888671875,58.326416015625
1758184554.5613887,-0.62451171875,0.12109375,0.7822265625,-2.38037109375,-1.220703125,0.3662109375,8.76708984375,37.847900390625,58.326416015625
1758184554.5717409,-0.62548828125,0.1171875,0.77880859375,-1.708984375,-0.67138671875,0.6103515625,8.7506103515625,37.8369140625,58.3319091796875
1758184554.582201,-0.62548828125,0.1171875,0.77880859375,-1.708984375,-0.67138671875,0.6103515625,8.7396240234375,37.8314208984375,58.33740234375
1758184554.592131,-0.6318359375,0.10498046875,0.77978515625,0.0,-0.48828125,0.91552734375,8.734130859375,37.8204345703125,58.3428955078125
1758184554.6014156,-0.6318359375,0.10498046875,0.77978515625,0.0,-0.48828125,0.91552734375,8.7396240234375,37.8204345703125,58.348388671875
1758184554.6115654,-0.63916015625,0.1015625,0.763671875,1.15966796875,-0.06103515625,1.15966796875,8.7506103515625,37.81494140625,58.359375
1758184554.6214492,-0.63916015625,0.1015625,0.763671875,1.15966796875,-0.06103515625,1.15966796875,8.7725830078125,37.81494140625,58.370361328125
1758184554.6315076,-0.6416015625,0.11767578125,0.7509765625,2.13623046875,0.30517578125,0.9765625,8.7945556640625,37.8204345703125,58.38134765625
1758184554.6416922,-0.6416015625,0.11767578125,0.7509765625,2.13623046875,0.30517578125,0.9765625,8.822021484375,37.825927734375,58.392333984375
1758184554.651516,-0.64501953125,0.13134765625,0.76416015625,3.2958984375,0.67138671875,1.0986328125,8.85498046875,37.8369140625,58.4033203125
1758184554.6615922,-0.64501953125,0.13134765625,0.76416015625,3.2958984375,0.67138671875,1.0986328125,8.8934326171875,37.847900390625,58.414306640625
1758184554.671493,-0.64599609375,0.12939453125,0.76220703125,2.25830078125,1.15966796875,1.15966796875,8.931884765625,37.85888671875,58.42529296875
1758184554.681783,-0.64599609375,0.12939453125,0.76220703125,2.25830078125,1.15966796875,1.15966796875,8.96484375,37.8753662109375,58.436279296875
1758184554.691467,-0.6416015625,0.1279296875,0.75634765625,1.89208984375,1.40380859375,0.91552734375,8.9923095703125,37.8973388671875,58.4417724609375
1758184554.7016609,-0.6416015625,0.1279296875,0.75634765625,1.89208984375,1.40380859375,0.91552734375,9.019775390625,37.913818359375,58.4527587890625
1758184554.7119865,-0.6337890625,0.1279296875,0.75537109375,2.50244140625,1.40380859375,0.732421875,9.052734375,37.935791015625,58.458251953125
1758184554.7216136,-0.6337890625,0.1279296875,0.75537109375,2.50244140625,1.40380859375,0.732421875,9.085693359375,37.957763671875,58.4637451171875
1758184554.7315857,-0.63330078125,0.1298828125,0.76513671875,2.5634765625,1.3427734375,0.732421875,9.11865234375,37.979736328125,58.46923828125
1758184554.7417219,-0.63330078125,0.1298828125,0.76513671875,2.5634765625,1.3427734375,0.732421875,9.151611328125,37.9962158203125,58.4747314453125
1758184554.751613,-0.626953125,0.1259765625,0.76416015625,2.25830078125,1.220703125,0.79345703125,9.1845703125,38.0181884765625,58.480224609375
1758184554.7616358,-0.626953125,0.1259765625,0.76416015625,2.25830078125,1.220703125,0.79345703125,9.2120361328125,38.03466796875,58.4857177734375
1758184554.7715418,-0.62353515625,0.12451171875,0.76904296875,1.708984375,1.03759765625,0.8544921875,9.239501953125,38.0511474609375,58.4912109375
1758184554.7818873,-0.62353515625,0.12451171875,0.76904296875,1.708984375,1.03759765625,0.8544921875,9.2669677734375,38.067626953125,58.4967041015625
1758184554.791611,-0.623046875,0.1259765625,0.77294921875,0.54931640625,0.9765625,0.79345703125,9.283447265625,38.0841064453125,58.5076904296875
1758184554.8016691,-0.623046875,0.1259765625,0.77294921875,0.54931640625,0.9765625,0.79345703125,9.29443359375,38.0950927734375,58.51318359375
1758184554.812141,-0.61962890625,0.13134765625,0.77392578125,1.8310546875,0.9765625,0.54931640625,9.31640625,38.111572265625,58.5186767578125
1758184554.821634,-0.61962890625,0.13134765625,0.77392578125,1.8310546875,0.9765625,0.54931640625,9.33837890625,38.12255859375,58.524169921875
1758184554.8316536,-0.6162109375,0.1298828125,0.77880859375,3.662109375,0.91552734375,0.3662109375,9.371337890625,38.1390380859375,58.524169921875
1758184554.841794,-0.6162109375,0.1298828125,0.77880859375,3.662109375,0.91552734375,0.3662109375,9.4097900390625,38.1500244140625,58.5296630859375
1758184554.851823,-0.615234375,0.12890625,0.7724609375,3.60107421875,0.79345703125,0.1220703125,9.4482421875,38.1610107421875,58.5296630859375
1758184554.8617213,-0.615234375,0.12890625,0.7724609375,3.60107421875,0.79345703125,0.1220703125,9.4866943359375,38.1719970703125,58.53515625
1758184554.871694,-0.6142578125,0.13623046875,0.77783203125,2.44140625,0.67138671875,-0.1220703125,9.51416015625,38.1829833984375,58.53515625
1758184554.882379,-0.6142578125,0.13623046875,0.77783203125,2.44140625,0.67138671875,-0.1220703125,9.5416259765625,38.1884765625,58.53515625
1758184554.891896,-0.607421875,0.140625,0.779296875,1.3427734375,0.54931640625,-0.54931640625,9.55810546875,38.199462890625,58.5296630859375
1758184554.9017234,-0.607421875,0.140625,0.779296875,1.3427734375,0.54931640625,-0.54931640625,9.569091796875,38.2049560546875,58.524169921875
1758184554.912058,-0.6015625,0.13525390625,0.78466796875,3.23486328125,0.3662109375,-0.91552734375,9.5855712890625,38.21044921875,58.5186767578125
1758184554.921733,-0.6015625,0.13525390625,0.78466796875,3.23486328125,0.3662109375,-0.91552734375,9.613037109375,38.2159423828125,58.5076904296875
1758184554.931767,-0.60205078125,0.12548828125,0.79296875,5.79833984375,0.18310546875,-1.3427734375,9.64599609375,38.221435546875,58.4967041015625
1758184554.9418178,-0.60205078125,0.12548828125,0.79296875,5.79833984375,0.18310546875,-1.3427734375,9.6954345703125,38.221435546875,58.4857177734375
1758184554.9518573,-0.60498046875,0.12890625,0.78369140625,5.37109375,0.18310546875,-1.8310546875,9.7393798828125,38.221435546875,58.46923828125
1758184554.9617605,-0.60498046875,0.12890625,0.78369140625,5.37109375,0.18310546875,-1.8310546875,9.77783203125,38.2269287109375,58.447265625
1758184554.9717815,-0.60400390625,0.1376953125,0.7744140625,5.4931640625,0.30517578125,-2.44140625,9.810791015625,38.2269287109375,58.42529296875
1758184554.9820857,-0.60400390625,0.1376953125,0.7744140625,5.4931640625,0.30517578125,-2.44140625,9.84375,38.232421875,58.3978271484375
1758184554.991875,-0.5908203125,0.150390625,0.79833984375,7.6904296875,0.3662109375,-2.99072265625,9.8876953125,38.2379150390625,58.3648681640625
1758184555.0019195,-0.5908203125,0.150390625,0.79833984375,7.6904296875,0.3662109375,-2.99072265625,9.942626953125,38.243408203125,58.33740234375
1758184555.0124006,-0.583984375,0.14208984375,0.8056640625,7.568359375,0.18310546875,-2.99072265625,9.99755859375,38.243408203125,58.304443359375
1758184555.0218697,-0.583984375,0.14208984375,0.8056640625,7.568359375,0.18310546875,-2.99072265625,10.0469970703125,38.243408203125,58.271484375
1758184555.0319848,-0.58447265625,0.13037109375,0.7919921875,6.34765625,0.0,-3.11279296875,10.0909423828125,38.243408203125,58.238525390625
1758184555.0420446,-0.58447265625,0.13037109375,0.7919921875,6.34765625,0.0,-3.11279296875,10.12939453125,38.2379150390625,58.20556640625
1758184555.051972,-0.5888671875,0.126953125,0.78759765625,4.57763671875,0.06103515625,-3.47900390625,10.1568603515625,38.2379150390625,58.172607421875
1758184555.061915,-0.5888671875,0.126953125,0.78759765625,4.57763671875,0.06103515625,-3.47900390625,10.17333984375,38.2379150390625,58.1341552734375
1758184555.0724373,-0.583984375,0.140625,0.7900390625,7.32421875,0.244140625,-4.2724609375,10.2008056640625,38.2379150390625,58.095703125
1758184555.0822546,-0.583984375,0.140625,0.7900390625,7.32421875,0.244140625,-4.2724609375,10.2337646484375,38.2379150390625,58.0517578125
1758184555.0919857,-0.58935546875,0.150390625,0.80517578125,11.77978515625,0.48828125,-4.45556640625,10.294189453125,38.2379150390625,58.0023193359375
1758184555.102024,-0.58935546875,0.150390625,0.80517578125,11.77978515625,0.48828125,-4.45556640625,10.3765869140625,38.243408203125,57.9583740234375
1758184555.1124554,-0.59423828125,0.13916015625,0.796875,12.6953125,0.3662109375,-4.39453125,10.458984375,38.243408203125,57.908935546875
1758184555.1220016,-0.59423828125,0.13916015625,0.796875,12.6953125,0.3662109375,-4.39453125,10.5523681640625,38.243408203125,57.864990234375
1758184555.1320415,-0.59912109375,0.14013671875,0.779296875,9.09423828125,0.18310546875,-3.90625,10.623779296875,38.243408203125,57.821044921875
1758184555.1420882,-0.59912109375,0.14013671875,0.779296875,9.09423828125,0.18310546875,-3.90625,10.6787109375,38.243408203125,57.777099609375
1758184555.1521292,-0.59716796875,0.14697265625,0.77392578125,4.82177734375,0.244140625,-3.72314453125,10.7171630859375,38.2379150390625,57.7386474609375
1758184555.1620176,-0.59716796875,0.14697265625,0.77392578125,4.82177734375,0.244140625,-3.72314453125,10.733642578125,38.2379150390625,57.7001953125
1758184555.1720185,-0.6015625,0.150390625,0.7998046875,3.84521484375,0.30517578125,-3.47900390625,10.74462890625,38.2379150390625,57.667236328125
1758184555.1823173,-0.6015625,0.150390625,0.7998046875,3.84521484375,0.30517578125,-3.47900390625,10.7501220703125,38.2379150390625,57.63427734375
1758184555.1920652,-0.60302734375,0.15087890625,0.7939453125,3.23486328125,0.42724609375,-3.11279296875,10.7611083984375,38.2379150390625,57.601318359375
1758184555.2021184,-0.60302734375,0.15087890625,0.7939453125,3.23486328125,0.42724609375,-3.11279296875,10.7666015625,38.2379150390625,57.568359375
1758184555.2125137,-0.599609375,0.14892578125,0.7744140625,3.23486328125,0.30517578125,-3.0517578125,10.7720947265625,38.2379150390625,57.5408935546875
1758184555.2221215,-0.599609375,0.14892578125,0.7744140625,3.23486328125,0.30517578125,-3.0517578125,10.777587890625,38.2379150390625,57.513427734375
1758184555.23218,-0.59716796875,0.15234375,0.77685546875,1.953125,0.1220703125,-2.74658203125,10.7830810546875,38.2379150390625,57.48046875
1758184555.242215,-0.59716796875,0.15234375,0.77685546875,1.953125,0.1220703125,-2.74658203125,10.777587890625,38.2379150390625,57.45849609375
1758184555.2522523,-0.59619140625,0.1513671875,0.7880859375,-1.220703125,0.0,-2.62451171875,10.7611083984375,38.232421875,57.4310302734375
1758184555.26217,-0.59619140625,0.1513671875,0.7880859375,-1.220703125,0.0,-2.62451171875,10.7281494140625,38.2269287109375,57.403564453125
1758184555.2721899,-0.58935546875,0.15380859375,0.7890625,-4.150390625,-0.1220703125,-2.5634765625,10.6787109375,38.2269287109375,57.3760986328125
1758184555.2824724,-0.58935546875,0.15380859375,0.7890625,-4.150390625,-0.1220703125,-2.5634765625,10.6182861328125,38.221435546875,57.3541259765625
1758184555.2922273,-0.59423828125,0.1455078125,0.779296875,-5.55419921875,-0.30517578125,-2.685546875,10.546875,38.21044921875,57.32666015625
1758184555.3021696,-0.59423828125,0.1455078125,0.779296875,-5.55419921875,-0.30517578125,-2.685546875,10.4754638671875,38.2049560546875,57.2991943359375
1758184555.3126593,-0.609375,0.13232421875,0.78125,-3.90625,-0.06103515625,-3.173828125,10.4095458984375,38.199462890625,57.2662353515625
1758184555.3222408,-0.609375,0.13232421875,0.78125,-3.90625,-0.06103515625,-3.173828125,10.34912109375,38.199462890625,57.2332763671875
1758184555.332337,-0.6279296875,0.12548828125,0.7763671875,0.42724609375,0.42724609375,-3.7841796875,10.3216552734375,38.2049560546875,57.19482421875
1758184555.3426726,-0.6279296875,0.12548828125,0.7763671875,0.42724609375,0.42724609375,-3.7841796875,10.2996826171875,38.2049560546875,57.15087890625
1758184555.3523855,-0.626953125,0.1337890625,0.75732421875,5.18798828125,0.8544921875,-4.45556640625,10.316162109375,38.2159423828125,57.10693359375
1758184555.3623033,-0.626953125,0.1337890625,0.75732421875,5.18798828125,0.8544921875,-4.45556640625,10.3326416015625,38.232421875,57.0574951171875
1758184555.3723254,-0.6005859375,0.1396484375,0.76171875,9.09423828125,0.8544921875,-4.82177734375,10.3875732421875,38.243408203125,57.0025634765625
1758184555.3826332,-0.6005859375,0.1396484375,0.76171875,9.09423828125,0.8544921875,-4.82177734375,10.4425048828125,38.25439453125,56.942138671875
1758184555.3923016,-0.60546875,0.146484375,0.8046875,8.11767578125,0.3662109375,-4.94384765625,10.4864501953125,38.265380859375,56.88720703125
1758184555.4023857,-0.60546875,0.146484375,0.8046875,8.11767578125,0.3662109375,-4.94384765625,10.52490234375,38.2708740234375,56.8267822265625
1758184555.4128406,-0.61962890625,0.13818359375,0.78564453125,4.5166015625,0.6103515625,-4.82177734375,10.5303955078125,38.2818603515625,56.7718505859375
1758184555.4224186,-0.61962890625,0.13818359375,0.78564453125,4.5166015625,0.6103515625,-4.82177734375,10.5413818359375,38.2928466796875,56.7169189453125
1758184555.432455,-0.6357421875,0.1318359375,0.748046875,6.8359375,0.6103515625,-4.8828125,10.56884765625,38.3038330078125,56.6619873046875
1758184555.442454,-0.6357421875,0.1318359375,0.748046875,6.8359375,0.6103515625,-4.8828125,10.5963134765625,38.3148193359375,56.6070556640625
1758184555.4525354,-0.6357421875,0.13720703125,0.7451171875,8.9111328125,0.732421875,-5.0048828125,10.645751953125,38.331298828125,56.546630859375
1758184555.4623933,-0.6357421875,0.13720703125,0.7451171875,8.9111328125,0.732421875,-5.0048828125,10.6951904296875,38.3477783203125,56.4862060546875
1758184555.4724925,-0.6416015625,0.16162109375,0.77587890625,6.34765625,0.9765625,-4.8828125,10.7171630859375,38.3642578125,56.4312744140625
1758184555.483295,-0.6416015625,0.16162109375,0.77587890625,6.34765625,0.9765625,-4.8828125,10.74462890625,38.38623046875,56.370849609375
1758184555.4924636,-0.64697265625,0.16943359375,0.765625,-0.1220703125,1.28173828125,-4.69970703125,10.7061767578125,38.408203125,56.31591796875
1758184555.502483,-0.64697265625,0.16943359375,0.765625,-0.1220703125,1.28173828125,-4.69970703125,10.6732177734375,38.43017578125,56.2554931640625
1758184555.512896,-0.6513671875,0.154296875,0.73486328125,-1.708984375,1.52587890625,-4.638671875,10.623779296875,38.4521484375,56.2005615234375
1758184555.522441,-0.6513671875,0.154296875,0.73486328125,-1.708984375,1.52587890625,-4.638671875,10.5743408203125,38.4796142578125,56.1456298828125
1758184555.5324855,-0.6552734375,0.12744140625,0.76806640625,5.0048828125,2.3193359375,-4.2724609375,10.5963134765625,38.51806640625,56.09619140625
1758184555.5426526,-0.6552734375,0.12744140625,0.76806640625,5.0048828125,2.3193359375,-4.2724609375,10.6182861328125,38.551025390625,56.041259765625
1758184555.5528555,-0.64599609375,0.11376953125,0.732421875,10.43701171875,1.77001953125,-4.150390625,10.689697265625,38.5784912109375,55.9918212890625
1758184555.5625186,-0.64599609375,0.11376953125,0.732421875,10.43701171875,1.77001953125,-4.150390625,10.7666015625,38.6114501953125,55.9368896484375
1758184555.5729396,-0.64404296875,0.1435546875,0.73876953125,8.23974609375,1.03759765625,-4.2724609375,10.810546875,38.6334228515625,55.8819580078125
1758184555.5828297,-0.64404296875,0.1435546875,0.73876953125,8.23974609375,1.03759765625,-4.2724609375,10.8599853515625,38.660888671875,55.8270263671875
1758184555.5926714,-0.6396484375,0.17529296875,0.76318359375,-0.91552734375,1.03759765625,-4.08935546875,10.821533203125,38.682861328125,55.7720947265625
1758184555.6025949,-0.6396484375,0.17529296875,0.76318359375,-0.91552734375,1.03759765625,-4.08935546875,10.7830810546875,38.7103271484375,55.72265625
1758184555.6132977,-0.640625,0.16015625,0.755859375,-2.13623046875,0.91552734375,-3.96728515625,10.733642578125,38.7322998046875,55.667724609375
1758184555.6226737,-0.640625,0.16015625,0.755859375,-2.13623046875,0.91552734375,-3.96728515625,10.6842041015625,38.7542724609375,55.6182861328125
1758184555.6327224,-0.64892578125,0.1396484375,0.75244140625,2.01416015625,0.9765625,-3.84521484375,10.6787109375,38.7762451171875,55.5633544921875
1758184555.642717,-0.64892578125,0.1396484375,0.75244140625,2.01416015625,0.9765625,-3.84521484375,10.6732177734375,38.7982177734375,55.513916015625
1758184555.6527195,-0.63916015625,0.126953125,0.7470703125,5.126953125,1.15966796875,-3.72314453125,10.6951904296875,38.8201904296875,55.4644775390625
1758184555.6626942,-0.63916015625,0.126953125,0.7470703125,5.126953125,1.15966796875,-3.72314453125,10.72265625,38.84765625,55.4150390625
1758184555.6727152,-0.638671875,0.1357421875,0.7607421875,4.94384765625,1.220703125,-3.7841796875,10.7391357421875,38.86962890625,55.3656005859375
1758184555.682809,-0.638671875,0.1357421875,0.7607421875,4.94384765625,1.220703125,-3.7841796875,10.7611083984375,38.8970947265625,55.316162109375
1758184555.6927533,-0.63720703125,0.15478515625,0.767578125,2.8076171875,1.40380859375,-3.5400390625,10.7666015625,38.9190673828125,55.272216796875
1758184555.7026958,-0.63720703125,0.15478515625,0.767578125,2.8076171875,1.40380859375,-3.5400390625,10.7666015625,38.946533203125,55.2227783203125
1758184555.7130942,-0.6416015625,0.15771484375,0.76513671875,0.06103515625,1.77001953125,-3.2958984375,10.74462890625,38.9739990234375,55.184326171875
1758184555.7227573,-0.6416015625,0.15771484375,0.76513671875,0.06103515625,1.77001953125,-3.2958984375,10.72265625,39.00146484375,55.1458740234375
1758184555.7327964,-0.64892578125,0.14306640625,0.755859375,-0.3662109375,2.197265625,-3.23486328125,10.6951904296875,39.034423828125,55.1019287109375
1758184555.7432504,-0.64892578125,0.14306640625,0.755859375,-0.3662109375,2.197265625,-3.23486328125,10.6732177734375,39.0618896484375,55.0634765625
1758184555.7528768,-0.650390625,0.1318359375,0.73193359375,3.2958984375,2.197265625,-3.2958984375,10.6842041015625,39.0948486328125,55.01953125
1758184555.7628388,-0.650390625,0.1318359375,0.73193359375,3.2958984375,2.197265625,-3.2958984375,10.6951904296875,39.1278076171875,54.9810791015625
1758184555.7733893,-0.64404296875,0.14111328125,0.75,5.126953125,2.197265625,-3.2958984375,10.72265625,39.1607666015625,54.9371337890625
1758184555.7837698,-0.64404296875,0.14111328125,0.75,5.126953125,2.197265625,-3.2958984375,10.7501220703125,39.1937255859375,54.898681640625
1758184555.7928789,-0.634765625,0.15380859375,0.76220703125,2.9296875,2.13623046875,-3.11279296875,10.7611083984375,39.2266845703125,54.8602294921875
1758184555.8028834,-0.634765625,0.15380859375,0.76220703125,2.9296875,2.13623046875,-3.11279296875,10.7666015625,39.254150390625,54.82177734375
1758184555.8134263,-0.6396484375,0.1552734375,0.7607421875,-0.9765625,2.197265625,-2.9296875,10.7391357421875,39.287109375,54.788818359375
1758184555.822856,-0.6396484375,0.1552734375,0.7607421875,-0.9765625,2.197265625,-2.9296875,10.711669921875,39.3145751953125,54.7503662109375
1758184555.8329256,-0.64453125,0.13916015625,0.7470703125,-1.64794921875,2.38037109375,-2.9296875,10.6787109375,39.3475341796875,54.7174072265625
1758184555.843299,-0.64453125,0.13916015625,0.7470703125,-1.64794921875,2.38037109375,-2.9296875,10.6402587890625,39.3804931640625,54.6844482421875
1758184555.8529766,-0.64208984375,0.13671875,0.75244140625,2.197265625,2.38037109375,-2.9296875,10.645751953125,39.4134521484375,54.64599609375
1758184555.8628943,-0.64208984375,0.13671875,0.75244140625,2.197265625,2.38037109375,-2.9296875,10.645751953125,39.4464111328125,54.6075439453125
1758184555.873368,-0.63330078125,0.13916015625,0.7568359375,3.35693359375,2.3193359375,-2.74658203125,10.6622314453125,39.473876953125,54.5745849609375
1758184555.8833349,-0.63330078125,0.13916015625,0.7568359375,3.35693359375,2.3193359375,-2.74658203125,10.6787109375,39.5068359375,54.5416259765625
1758184555.8933394,-0.6279296875,0.140625,0.75927734375,2.8076171875,2.13623046875,-2.74658203125,10.689697265625,39.5343017578125,54.5086669921875
1758184555.9030232,-0.6279296875,0.140625,0.75927734375,2.8076171875,2.13623046875,-2.74658203125,10.6951904296875,39.5562744140625,54.4757080078125
1758184555.9135127,-0.630859375,0.14794921875,0.7646484375,0.6103515625,2.25830078125,-2.74658203125,10.6842041015625,39.5892333984375,54.4482421875
1758184555.9230125,-0.630859375,0.14794921875,0.7646484375,0.6103515625,2.25830078125,-2.74658203125,10.6732177734375,39.6112060546875,54.415283203125
1758184555.9332108,-0.630859375,0.15966796875,0.77197265625,-0.244140625,2.3193359375,-2.5634765625,10.6512451171875,39.638671875,54.3878173828125
1758184555.9434361,-0.630859375,0.15966796875,0.77197265625,-0.244140625,2.3193359375,-2.5634765625,10.634765625,39.6661376953125,54.3603515625
1758184555.953178,-0.642578125,0.14306640625,0.7470703125,-0.48828125,2.50244140625,-2.5634765625,10.61279296875,39.693603515625,54.3328857421875
1758184555.963023,-0.642578125,0.14306640625,0.7470703125,-0.48828125,2.50244140625,-2.5634765625,10.5963134765625,39.7210693359375,54.305419921875
1758184555.9735026,-0.6318359375,0.13623046875,0.7568359375,0.48828125,2.0751953125,-2.50244140625,10.5853271484375,39.74853515625,54.2779541015625
1758184555.9832501,-0.6318359375,0.13623046875,0.7568359375,0.48828125,2.0751953125,-2.50244140625,10.5743408203125,39.7705078125,54.25048828125
1758184555.9931219,-0.6328125,0.13427734375,0.76416015625,-0.67138671875,2.197265625,-2.197265625,10.5523681640625,39.79248046875,54.228515625
1758184556.0032854,-0.6328125,0.13427734375,0.76416015625,-0.67138671875,2.197265625,-2.197265625,10.5303955078125,39.8199462890625,54.20654296875
1758184556.0134785,-0.63134765625,0.13134765625,0.76806640625,-1.77001953125,2.3193359375,-2.01416015625,10.5029296875,39.8419189453125,54.1845703125
1758184556.0231843,-0.63134765625,0.13134765625,0.76806640625,-1.77001953125,2.3193359375,-2.01416015625,10.469970703125,39.8638916015625,54.16259765625
1758184556.033223,-0.6416015625,0.12890625,0.7529296875,-1.64794921875,2.38037109375,-1.89208984375,10.4425048828125,39.891357421875,54.1461181640625
1758184556.0435047,-0.6416015625,0.12890625,0.7529296875,-1.64794921875,2.38037109375,-1.89208984375,10.4150390625,39.913330078125,54.129638671875
1758184556.0532248,-0.6474609375,0.14013671875,0.744140625,1.8310546875,2.44140625,-2.197265625,10.4150390625,39.9407958984375,54.107666015625
1758184556.063187,-0.6474609375,0.14013671875,0.744140625,1.8310546875,2.44140625,-2.197265625,10.4205322265625,39.9627685546875,54.085693359375
1758184556.0735028,-0.640625,0.146484375,0.75341796875,5.37109375,2.44140625,-2.13623046875,10.458984375,39.990234375,54.0692138671875
1758184556.0836549,-0.640625,0.146484375,0.75341796875,5.37109375,2.44140625,-2.13623046875,10.4974365234375,40.0177001953125,54.0472412109375
1758184556.093301,-0.6298828125,0.14794921875,0.7685546875,1.52587890625,2.44140625,-1.64794921875,10.5029296875,40.045166015625,54.03076171875
1758184556.103276,-0.6298828125,0.14794921875,0.7685546875,1.52587890625,2.44140625,-1.64794921875,10.5084228515625,40.067138671875,54.019775390625
1758184556.1135952,-0.63037109375,0.14208984375,0.76611328125,-5.859375,2.197265625,-1.220703125,10.447998046875,40.089111328125,54.0087890625
1758184556.123333,-0.63037109375,0.14208984375,0.76611328125,-5.859375,2.197265625,-1.220703125,10.382080078125,40.1055908203125,53.997802734375
1758184556.1333704,-0.634765625,0.13525390625,0.75439453125,-8.48388671875,2.197265625,-1.220703125,10.2886962890625,40.1275634765625,53.98681640625
1758184556.1434848,-0.634765625,0.13525390625,0.75439453125,-8.48388671875,2.197265625,-1.220703125,10.2008056640625,40.14404296875,53.975830078125
1758184556.1534276,-0.63623046875,0.1298828125,0.7578125,-3.7841796875,2.3193359375,-1.46484375,10.1568603515625,40.166015625,53.96484375
1758184556.163349,-0.63623046875,0.1298828125,0.7578125,-3.7841796875,2.3193359375,-1.46484375,10.1129150390625,40.18798828125,53.9483642578125
1758184556.173375,-0.630859375,0.1279296875,0.76025390625,0.0,2.25830078125,-1.708984375,10.1019287109375,40.2099609375,53.931884765625
1758184556.1837177,-0.630859375,0.1279296875,0.76025390625,0.0,2.25830078125,-1.708984375,10.0909423828125,40.23193359375,53.9154052734375
1758184556.1933813,-0.625,0.130859375,0.7626953125,0.67138671875,2.13623046875,-1.8310546875,10.08544921875,40.2484130859375,53.89892578125
1758184556.2034066,-0.625,0.130859375,0.7626953125,0.67138671875,2.13623046875,-1.8310546875,10.0799560546875,40.2703857421875,53.876953125
1758184556.21371,-0.626953125,0.1328125,0.77099609375,-1.5869140625,2.197265625,-1.77001953125,10.052490234375,40.286865234375,53.8604736328125
1758184556.2234726,-0.626953125,0.1328125,0.77099609375,-1.5869140625,2.197265625,-1.77001953125,10.0250244140625,40.308837890625,53.843994140625
1758184556.233489,-0.6318359375,0.14013671875,0.77392578125,-4.45556640625,2.38037109375,-1.77001953125,9.9700927734375,40.3253173828125,53.8330078125
1758184556.2437923,-0.6318359375,0.14013671875,0.77392578125,-4.45556640625,2.38037109375,-1.77001953125,9.9151611328125,40.3472900390625,53.8165283203125
1758184556.2535841,-0.63427734375,0.1318359375,0.75634765625,-4.5166015625,2.44140625,-1.8310546875,9.8602294921875,40.36376953125,53.800048828125
1758184556.2634487,-0.63427734375,0.1318359375,0.75634765625,-4.5166015625,2.44140625,-1.8310546875,9.8052978515625,40.3857421875,53.7835693359375
1758184556.2734828,-0.6328125,0.12890625,0.7509765625,-2.197265625,2.25830078125,-2.13623046875,9.766845703125,40.4022216796875,53.7615966796875
1758184556.2841291,-0.6328125,0.12890625,0.7509765625,-2.197265625,2.25830078125,-2.13623046875,9.73388671875,40.4241943359375,53.7451171875
1758184556.2935164,-0.634765625,0.1357421875,0.77587890625,-3.23486328125,1.953125,-2.25830078125,9.68994140625,40.440673828125,53.7176513671875
1758184556.30353,-0.634765625,0.1357421875,0.77587890625,-3.23486328125,1.953125,-2.25830078125,9.6405029296875,40.4571533203125,53.6956787109375
1758184556.314001,-0.638671875,0.1328125,0.76513671875,-4.638671875,1.89208984375,-2.38037109375,9.580078125,40.4736328125,53.6737060546875
1758184556.324017,-0.6513671875,0.12939453125,0.75439453125,-5.0048828125,2.01416015625,-2.62451171875,9.51416015625,40.4901123046875,53.6517333984375
1758184556.3336115,-0.6513671875,0.12939453125,0.75439453125,-5.0048828125,2.01416015625,-2.62451171875,9.4482421875,40.506591796875,53.624267578125
1758184556.3436866,-0.65625,0.10302734375,0.72998046875,-2.25830078125,2.197265625,-2.86865234375,9.393310546875,40.5230712890625,53.5968017578125
1758184556.3539166,-0.65625,0.10302734375,0.72998046875,-2.25830078125,2.197265625,-2.86865234375,9.3548583984375,40.5450439453125,53.5638427734375
1758184556.3637676,-0.6552734375,0.11328125,0.74560546875,1.708984375,1.8310546875,-2.99072265625,9.3328857421875,40.5670166015625,53.5308837890625
1758184556.3736682,-0.6552734375,0.11328125,0.74560546875,1.708984375,1.8310546875,-2.99072265625,9.327392578125,40.58349609375,53.4979248046875
1758184556.384869,-0.6552734375,0.11328125,0.74560546875,1.0986328125,1.46484375,-3.23486328125,9.31640625,40.60546875,53.45947265625
1758184556.3939729,-0.65283203125,0.1201171875,0.74853515625,1.0986328125,1.46484375,-3.23486328125,9.2999267578125,40.6219482421875,53.4210205078125
1758184556.4042864,-0.65673828125,0.12109375,0.73388671875,1.03759765625,1.40380859375,-3.35693359375,9.2889404296875,40.638427734375,53.382568359375
1758184556.4143536,-0.65673828125,0.12109375,0.73388671875,1.03759765625,1.40380859375,-3.35693359375,9.2724609375,40.6549072265625,53.3441162109375
1758184556.4242454,-0.67333984375,0.115234375,0.73291015625,2.99072265625,1.708984375,-3.5400390625,9.2669677734375,40.6768798828125,53.3001708984375
1758184556.4337802,-0.67333984375,0.115234375,0.73291015625,2.99072265625,1.708984375,-3.5400390625,9.2669677734375,40.6988525390625,53.2562255859375
1758184556.4445248,-0.6748046875,0.11083984375,0.72607421875,6.04248046875,2.01416015625,-3.7841796875,9.283447265625,40.7208251953125,53.2122802734375
1758184556.4537578,-0.6748046875,0.11083984375,0.72607421875,6.04248046875,2.01416015625,-3.7841796875,9.31640625,40.748291015625,53.162841796875
1758184556.4639053,-0.66650390625,0.1171875,0.72314453125,8.7890625,1.89208984375,-4.08935546875,9.3548583984375,40.7757568359375,53.1134033203125
1758184556.4740672,-0.66650390625,0.1171875,0.72314453125,8.7890625,1.89208984375,-4.08935546875,9.4097900390625,40.8087158203125,53.0584716796875
1758184556.4839525,-0.66064453125,0.1240234375,0.740234375,8.97216796875,1.64794921875,-4.08935546875,9.4647216796875,40.8306884765625,53.0035400390625
1758184556.493921,-0.66064453125,0.1240234375,0.740234375,8.97216796875,1.64794921875,-4.08935546875,9.5196533203125,40.858154296875,52.9486083984375
1758184556.5038183,-0.66064453125,0.1220703125,0.73876953125,8.4228515625,1.3427734375,-4.0283203125,9.5745849609375,40.8856201171875,52.899169921875
1758184556.5147543,-0.66064453125,0.1220703125,0.73876953125,8.4228515625,1.3427734375,-4.0283203125,9.6240234375,40.9075927734375,52.84423828125
1758184556.5237648,-0.6669921875,0.12109375,0.7333984375,8.1787109375,1.15966796875,-3.84521484375,9.6734619140625,40.9295654296875,52.789306640625
1758184556.5339925,-0.6669921875,0.12109375,0.7333984375,8.1787109375,1.15966796875,-3.84521484375,9.722900390625,40.946044921875,52.7398681640625
1758184556.543933,-0.66943359375,0.12158203125,0.74072265625,7.32421875,1.220703125,-3.662109375,9.766845703125,40.968017578125,52.6849365234375
1758184556.5539746,-0.66943359375,0.12158203125,0.74072265625,7.32421875,1.220703125,-3.662109375,9.8052978515625,40.989990234375,52.6409912109375
1758184556.5640461,-0.671875,0.1240234375,0.740234375,8.056640625,1.15966796875,-3.47900390625,9.8492431640625,41.011962890625,52.591552734375
1758184556.5744267,-0.671875,0.1240234375,0.740234375,8.056640625,1.15966796875,-3.47900390625,9.898681640625,41.033935546875,52.547607421875
1758184556.5839562,-0.669921875,0.1318359375,0.7333984375,9.3994140625,1.15966796875,-3.47900390625,9.95361328125,41.0504150390625,52.4981689453125
1758184556.5939589,-0.669921875,0.1318359375,0.7333984375,9.3994140625,1.15966796875,-3.47900390625,10.01953125,41.0723876953125,52.4542236328125
1758184556.6039097,-0.6689453125,0.1376953125,0.7353515625,7.9345703125,1.03759765625,-3.35693359375,10.074462890625,41.0943603515625,52.40478515625
1758184556.6151102,-0.6689453125,0.1376953125,0.7353515625,7.9345703125,1.03759765625,-3.35693359375,10.1239013671875,41.11083984375,52.36083984375
1758184556.6238608,-0.67138671875,0.1396484375,0.73779296875,3.96728515625,1.28173828125,-3.173828125,10.1568603515625,41.1328125,52.31689453125
1758184556.6341956,-0.67138671875,0.1396484375,0.73779296875,3.96728515625,1.28173828125,-3.173828125,10.1678466796875,41.15478515625,52.2784423828125
1758184556.6439328,-0.6748046875,0.13525390625,0.73876953125,1.77001953125,1.5869140625,-3.11279296875,10.1678466796875,41.1767578125,52.2344970703125
1758184556.6539803,-0.6748046875,0.13525390625,0.73876953125,1.77001953125,1.5869140625,-3.11279296875,10.162353515625,41.2042236328125,52.196044921875
1758184556.6641426,-0.67578125,0.1337890625,0.72998046875,2.8076171875,2.0751953125,-3.173828125,10.1568603515625,41.2261962890625,52.1575927734375
1758184556.6746416,-0.67578125,0.1337890625,0.72998046875,2.8076171875,2.0751953125,-3.173828125,10.162353515625,41.2591552734375,52.1136474609375
1758184556.6842625,-0.673828125,0.13330078125,0.72998046875,3.90625,2.3193359375,-3.0517578125,10.17333984375,41.28662109375,52.0751953125
1758184556.6942544,-0.673828125,0.13330078125,0.72998046875,3.90625,2.3193359375,-3.0517578125,10.184326171875,41.319580078125,52.0367431640625
1758184556.7040167,-0.67529296875,0.13330078125,0.73193359375,1.708984375,2.50244140625,-2.9296875,10.1898193359375,41.3525390625,51.998291015625
1758184556.7153378,-0.67529296875,0.13330078125,0.73193359375,1.708984375,2.50244140625,-2.9296875,10.1898193359375,41.385498046875,51.96533203125
1758184556.7240064,-0.677734375,0.12939453125,0.7177734375,0.8544921875,2.685546875,-2.8076171875,10.1788330078125,41.41845703125,51.9268798828125
1758184556.734323,-0.677734375,0.12939453125,0.7177734375,0.8544921875,2.685546875,-2.8076171875,10.1678466796875,41.4569091796875,51.8939208984375
1758184556.7441392,-0.66943359375,0.12646484375,0.7236328125,2.8076171875,2.50244140625,-2.62451171875,10.1678466796875,41.4898681640625,51.85546875
1758184556.7544577,-0.66943359375,0.12646484375,0.7236328125,2.8076171875,2.50244140625,-2.62451171875,10.17333984375,41.5228271484375,51.822509765625
1758184556.764242,-0.6669921875,0.12841796875,0.7353515625,2.3193359375,2.3193359375,-2.62451171875,10.1788330078125,41.5557861328125,51.78955078125
1758184556.775018,-0.6669921875,0.12841796875,0.7353515625,2.3193359375,2.3193359375,-2.62451171875,10.184326171875,41.583251953125,51.756591796875
1758184556.7840593,-0.66796875,0.13427734375,0.7294921875,1.5869140625,2.3193359375,-2.62451171875,10.184326171875,41.6162109375,51.7236328125
1758184556.7944338,-0.66796875,0.13427734375,0.7294921875,1.5869140625,2.3193359375,-2.62451171875,10.1788330078125,41.649169921875,51.690673828125
1758184556.8041594,-0.67236328125,0.13427734375,0.7294921875,1.89208984375,2.38037109375,-2.685546875,10.1788330078125,41.6766357421875,51.65771484375
1758184556.8153389,-0.67236328125,0.13427734375,0.7294921875,1.89208984375,2.38037109375,-2.685546875,10.1788330078125,41.7095947265625,51.624755859375
1758184556.8240674,-0.6640625,0.134765625,0.732421875,2.44140625,2.50244140625,-2.685546875,10.1788330078125,41.737060546875,51.591796875
1758184556.8347466,-0.6640625,0.134765625,0.732421875,2.44140625,2.50244140625,-2.685546875,10.184326171875,41.77001953125,51.558837890625
1758184556.8442144,-0.65966796875,0.134765625,0.74169921875,0.48828125,2.38037109375,-2.50244140625,10.1788330078125,41.7974853515625,51.5313720703125
1758184556.854739,-0.65966796875,0.134765625,0.74169921875,0.48828125,2.38037109375,-2.50244140625,10.1678466796875,41.8304443359375,51.4984130859375
1758184556.864674,-0.65478515625,0.13037109375,0.73388671875,-0.06103515625,2.13623046875,-2.50244140625,10.1513671875,41.8524169921875,51.470947265625
1758184556.8753498,-0.65478515625,0.13037109375,0.73388671875,-0.06103515625,2.13623046875,-2.50244140625,10.1348876953125,41.8798828125,51.4434814453125
1758184556.8842957,-0.6630859375,0.1318359375,0.73779296875,-0.54931640625,1.89208984375,-2.5634765625,10.1129150390625,41.90185546875,51.416015625
1758184556.89471,-0.6630859375,0.1318359375,0.73779296875,-0.54931640625,1.89208984375,-2.5634765625,10.08544921875,41.923828125,51.383056640625
1758184556.9041808,-0.6640625,0.12841796875,0.732421875,-1.15966796875,1.77001953125,-2.62451171875,10.0579833984375,41.94580078125,51.3555908203125
1758184556.9156659,-0.6640625,0.12841796875,0.732421875,-1.15966796875,1.77001953125,-2.62451171875,10.0250244140625,41.9677734375,51.3226318359375
1758184556.9242177,-0.66455078125,0.12939453125,0.73876953125,-2.01416015625,1.77001953125,-2.8076171875,9.9920654296875,41.98974609375,51.2896728515625
1758184556.9342108,-0.66455078125,0.12939453125,0.73876953125,-2.01416015625,1.77001953125,-2.8076171875,9.9481201171875,42.0062255859375,51.2567138671875
1758184556.944284,-0.6640625,0.1259765625,0.73388671875,-0.9765625,1.8310546875,-3.0517578125,9.9151611328125,42.0281982421875,51.2237548828125
1758184556.954289,-0.6640625,0.1259765625,0.73388671875,-0.9765625,1.8310546875,-3.0517578125,9.8822021484375,42.0501708984375,51.185302734375
1758184556.9647539,-0.67431640625,0.1171875,0.744140625,0.0,1.953125,-3.35693359375,9.8492431640625,42.0721435546875,51.1468505859375
1758184556.9746573,-0.67431640625,0.1171875,0.744140625,0.0,1.953125,-3.35693359375,9.82177734375,42.0941162109375,51.1083984375
1758184556.9843829,-0.68017578125,0.11328125,0.7158203125,0.3662109375,2.13623046875,-3.23486328125,9.7998046875,42.1160888671875,51.0699462890625
1758184556.9942627,-0.68017578125,0.11328125,0.7158203125,0.3662109375,2.13623046875,-3.23486328125,9.77783203125,42.1435546875,51.031494140625
1758184557.0045521,-0.6728515625,0.1240234375,0.71875,-0.1220703125,1.77001953125,-3.47900390625,9.7503662109375,42.16552734375,50.9930419921875
1758184557.0153675,-0.6728515625,0.1240234375,0.71875,-0.1220703125,1.77001953125,-3.47900390625,9.722900390625,42.1929931640625,50.9490966796875
1758184557.0243833,-0.6796875,0.13037109375,0.73095703125,-0.6103515625,1.8310546875,-3.662109375,9.68994140625,42.2149658203125,50.9051513671875
1758184557.0345485,-0.6796875,0.13037109375,0.73095703125,-0.6103515625,1.8310546875,-3.662109375,9.6514892578125,42.2369384765625,50.8612060546875
1758184557.044468,-0.67626953125,0.12744140625,0.7314453125,2.99072265625,1.77001953125,-3.84521484375,9.635009765625,42.2589111328125,50.8172607421875
1758184557.0543263,-0.67626953125,0.12744140625,0.7314453125,2.99072265625,1.77001953125,-3.84521484375,9.635009765625,42.286376953125,50.767822265625
1758184557.0643864,-0.67236328125,0.12353515625,0.72265625,4.82177734375,1.77001953125,-3.7841796875,9.6405029296875,42.308349609375,50.723876953125
1758184557.0746832,-0.67236328125,0.12353515625,0.72265625,4.82177734375,1.77001953125,-3.7841796875,9.6624755859375,42.330322265625,50.6744384765625
1758184557.0844069,-0.6708984375,0.119140625,0.72509765625,3.662109375,1.52587890625,-3.662109375,9.6734619140625,42.352294921875,50.6304931640625
1758184557.0943491,-0.6708984375,0.119140625,0.72509765625,3.662109375,1.52587890625,-3.662109375,9.678955078125,42.374267578125,50.5865478515625
1758184557.1044645,-0.673828125,0.1201171875,0.73046875,0.67138671875,1.28173828125,-3.2958984375,9.6734619140625,42.3907470703125,50.5426025390625
1758184557.1146812,-0.673828125,0.1201171875,0.73046875,0.67138671875,1.28173828125,-3.2958984375,9.6514892578125,42.4127197265625,50.4986572265625
1758184557.1244342,-0.673828125,0.1201171875,0.73046875,-0.67138671875,0.9765625,-3.0517578125,9.6240234375,42.4237060546875,50.460205078125
1758184557.1346548,-0.6748046875,0.12109375,0.724609375,-0.67138671875,0.9765625,-3.0517578125,9.591064453125,42.440185546875,50.4217529296875
1758184557.14459,-0.67724609375,0.11962890625,0.72314453125,0.3662109375,0.79345703125,-2.9296875,9.5635986328125,42.451171875,50.38330078125
1758184557.154446,-0.67724609375,0.11962890625,0.72314453125,0.3662109375,0.79345703125,-2.9296875,9.5416259765625,42.4676513671875,50.3448486328125
1758184557.1645288,-0.6767578125,0.1181640625,0.7353515625,2.62451171875,0.732421875,-2.74658203125,9.5306396484375,42.4786376953125,50.306396484375
1758184557.174814,-0.6767578125,0.1181640625,0.7353515625,2.62451171875,0.732421875,-2.74658203125,9.5361328125,42.4896240234375,50.2679443359375
1758184557.1850517,-0.669921875,0.11962890625,0.73095703125,2.25830078125,0.6103515625,-2.50244140625,9.5361328125,42.5006103515625,50.2349853515625
1758184557.1944773,-0.669921875,0.11962890625,0.73095703125,2.25830078125,0.6103515625,-2.50244140625,9.5361328125,42.506103515625,50.2020263671875
1758184557.20526,-0.677734375,0.1171875,0.72314453125,0.79345703125,0.1220703125,-2.197265625,9.5306396484375,42.51708984375,50.1690673828125
1758184557.2148201,-0.677734375,0.1171875,0.72314453125,0.79345703125,0.1220703125,-2.197265625,9.5196533203125,42.51708984375,50.1361083984375
1758184557.2247689,-0.68115234375,0.115234375,0.720703125,0.1220703125,-0.06103515625,-1.8310546875,9.503173828125,42.5225830078125,50.108642578125
1758184557.2348387,-0.68115234375,0.115234375,0.720703125,0.1220703125,-0.06103515625,-1.8310546875,9.4866943359375,42.5225830078125,50.0811767578125
1758184557.2453592,-0.689453125,0.1162109375,0.71875,0.0,-0.18310546875,-1.5869140625,9.47021484375,42.528076171875,50.0592041015625
1758184557.2545726,-0.689453125,0.1162109375,0.71875,0.0,-0.18310546875,-1.5869140625,9.459228515625,42.528076171875,50.03173828125
1758184557.2650018,-0.689453125,0.11279296875,0.70947265625,0.67138671875,0.0,-1.52587890625,9.4482421875,42.528076171875,50.009765625
1758184557.2756438,-0.689453125,0.11279296875,0.70947265625,0.67138671875,0.0,-1.52587890625,9.437255859375,42.5335693359375,49.98779296875
1758184557.2865448,-0.693359375,0.1240234375,0.72216796875,2.13623046875,0.244140625,-1.64794921875,9.437255859375,42.5390625,49.9603271484375
1758184557.2946165,-0.693359375,0.1240234375,0.72216796875,2.13623046875,0.244140625,-1.64794921875,9.4427490234375,42.550048828125,49.932861328125
1758184557.305237,-0.6962890625,0.12255859375,0.712890625,1.77001953125,0.48828125,-1.46484375,9.4482421875,42.5555419921875,49.910888671875
1758184557.3150866,-0.6962890625,0.12255859375,0.712890625,1.77001953125,0.48828125,-1.46484375,9.4537353515625,42.5665283203125,49.8834228515625
1758184557.3252382,-0.68798828125,0.11669921875,0.70361328125,2.5634765625,0.42724609375,-1.3427734375,9.4647216796875,42.5775146484375,49.8614501953125
1758184557.3346436,-0.68798828125,0.11669921875,0.70361328125,2.5634765625,0.42724609375,-1.3427734375,9.4757080078125,42.5885009765625,49.8394775390625
1758184557.3455403,-0.68310546875,0.1123046875,0.72412109375,2.8076171875,0.18310546875,-1.0986328125,9.4921875,42.5994873046875,49.8175048828125
1758184557.3547072,-0.68310546875,0.1123046875,0.72412109375,2.8076171875,0.18310546875,-1.0986328125,9.5086669921875,42.60498046875,49.801025390625
1758184557.3646784,-0.67578125,0.119140625,0.7236328125,1.8310546875,0.0,-0.8544921875,9.525146484375,42.6104736328125,49.7845458984375
1758184557.3752792,-0.67578125,0.119140625,0.7236328125,1.8310546875,0.0,-0.8544921875,9.5306396484375,42.615966796875,49.76806640625
1758184557.3851383,-0.67578125,0.119140625,0.7236328125,1.0986328125,-0.06103515625,-0.67138671875,9.5361328125,42.6214599609375,49.7515869140625
1758184557.3947482,-0.6796875,0.12060546875,0.7275390625,1.0986328125,-0.06103515625,-0.67138671875,9.5416259765625,42.6214599609375,49.7406005859375
1758184557.4049902,-0.68115234375,0.11962890625,0.72119140625,0.732421875,-0.1220703125,-0.54931640625,9.5416259765625,42.626953125,49.7296142578125
1758184557.4151852,-0.68115234375,0.11962890625,0.72119140625,0.732421875,-0.1220703125,-0.54931640625,9.5416259765625,42.626953125,49.7186279296875
1758184557.4247992,-0.68408203125,0.11376953125,0.7158203125,2.9296875,-0.18310546875,-0.48828125,9.5635986328125,42.6324462890625,49.7076416015625
1758184557.434762,-0.68408203125,0.11376953125,0.7158203125,2.9296875,-0.18310546875,-0.48828125,9.5855712890625,42.6324462890625,49.6966552734375
1758184557.4448636,-0.6865234375,0.11474609375,0.71630859375,4.2724609375,-0.3662109375,-0.48828125,9.6240234375,42.6324462890625,49.6856689453125
1758184557.4547212,-0.6865234375,0.11474609375,0.71630859375,4.2724609375,-0.3662109375,-0.48828125,9.656982421875,42.6324462890625,49.6746826171875
1758184557.4648578,-0.685546875,0.12353515625,0.71337890625,3.84521484375,-0.48828125,-0.54931640625,9.68994140625,42.6324462890625,49.6636962890625
1758184557.4751713,-0.685546875,0.12353515625,0.71337890625,3.84521484375,-0.48828125,-0.54931640625,9.7174072265625,42.6324462890625,49.6527099609375
1758184557.4848294,-0.68310546875,0.1259765625,0.7216796875,3.60107421875,-0.54931640625,-0.67138671875,9.744873046875,42.6324462890625,49.6417236328125
1758184557.494825,-0.68310546875,0.1259765625,0.7216796875,3.60107421875,-0.54931640625,-0.67138671875,9.7723388671875,42.6324462890625,49.625244140625
1758184557.5049262,-0.68115234375,0.1279296875,0.72021484375,4.21142578125,-0.48828125,-0.8544921875,9.8052978515625,42.6324462890625,49.6087646484375
1758184557.5152667,-0.68115234375,0.1279296875,0.72021484375,4.21142578125,-0.48828125,-0.8544921875,9.8382568359375,42.6324462890625,49.59228515625
1758184557.524852,-0.685546875,0.12939453125,0.724609375,4.69970703125,-0.48828125,-0.8544921875,9.876708984375,42.626953125,49.5758056640625
1758184557.534866,-0.685546875,0.12939453125,0.724609375,4.69970703125,-0.48828125,-0.8544921875,9.90966796875,42.626953125,49.559326171875
1758184557.5449598,-0.68359375,0.1259765625,0.7177734375,4.21142578125,-0.6103515625,-0.79345703125,9.942626953125,42.626953125,49.5428466796875
1758184557.5548627,-0.68359375,0.1259765625,0.7177734375,4.21142578125,-0.6103515625,-0.79345703125,9.9755859375,42.626953125,49.5263671875
1758184557.5649693,-0.6826171875,0.12451171875,0.70654296875,4.150390625,-0.8544921875,-0.79345703125,10.008544921875,42.6214599609375,49.5098876953125
1758184557.575732,-0.6826171875,0.12451171875,0.70654296875,4.150390625,-0.8544921875,-0.79345703125,10.04150390625,42.615966796875,49.493408203125
1758184557.5851202,-0.67822265625,0.12890625,0.72802734375,3.72314453125,-1.15966796875,-0.91552734375,10.0634765625,42.6104736328125,49.471435546875
1758184557.595226,-0.67822265625,0.12890625,0.72802734375,3.72314453125,-1.15966796875,-0.91552734375,10.0909423828125,42.60498046875,49.4549560546875
1758184557.6051707,-0.67919921875,0.13037109375,0.7265625,4.7607421875,-1.03759765625,-1.0986328125,10.1239013671875,42.5994873046875,49.4329833984375
1758184557.6160452,-0.67919921875,0.13037109375,0.7265625,4.7607421875,-1.03759765625,-1.0986328125,10.1568603515625,42.593994140625,49.41650390625
1758184557.6249619,-0.67138671875,0.13037109375,0.7236328125,7.38525390625,-1.220703125,-1.220703125,10.21728515625,42.5830078125,49.39453125
1758184557.6352742,-0.67138671875,0.13037109375,0.7236328125,7.38525390625,-1.220703125,-1.220703125,10.2777099609375,42.5775146484375,49.37255859375
1758184557.6451283,-0.65283203125,0.1435546875,0.73095703125,7.568359375,-1.5869140625,-0.91552734375,10.338134765625,42.5665283203125,49.3505859375
1758184557.6553445,-0.65283203125,0.1435546875,0.73095703125,7.568359375,-1.5869140625,-0.91552734375,10.404052734375,42.550048828125,49.3341064453125
1758184557.6649966,-0.6474609375,0.13330078125,0.74609375,4.21142578125,-2.38037109375,-0.67138671875,10.4315185546875,42.528076171875,49.317626953125
1758184557.6757817,-0.6474609375,0.13330078125,0.74609375,4.21142578125,-2.38037109375,-0.67138671875,10.4644775390625,42.506103515625,49.3011474609375
1758184557.6850438,-0.64404296875,0.12939453125,0.7509765625,0.79345703125,-2.9296875,-0.3662109375,10.4644775390625,42.47314453125,49.2901611328125
1758184557.6955884,-0.64404296875,0.12939453125,0.7509765625,0.79345703125,-2.9296875,-0.3662109375,10.458984375,42.440185546875,49.2791748046875
1758184557.7049956,-0.6474609375,0.12841796875,0.74658203125,1.15966796875,-3.2958984375,-0.30517578125,10.458984375,42.4072265625,49.273681640625
1758184557.7160738,-0.6474609375,0.12841796875,0.74658203125,1.15966796875,-3.2958984375,-0.30517578125,10.4644775390625,42.3687744140625,49.2626953125
1758184557.7250051,-0.642578125,0.13330078125,0.75537109375,2.9296875,-3.41796875,-0.30517578125,10.48095703125,42.330322265625,49.2572021484375
1758184557.73564,-0.642578125,0.13330078125,0.75537109375,2.9296875,-3.41796875,-0.30517578125,10.4974365234375,42.2918701171875,49.2462158203125
1758184557.7451065,-0.63671875,0.13525390625,0.7568359375,3.96728515625,-3.5400390625,-0.30517578125,10.52490234375,42.25341796875,49.2352294921875
1758184557.7556021,-0.63671875,0.13525390625,0.7568359375,3.96728515625,-3.5400390625,-0.30517578125,10.5523681640625,42.20947265625,49.229736328125
1758184557.7651324,-0.64013671875,0.13818359375,0.75439453125,3.35693359375,-3.60107421875,-0.244140625,10.5743408203125,42.16552734375,49.2242431640625
1758184557.7760956,-0.64013671875,0.13818359375,0.75439453125,3.35693359375,-3.60107421875,-0.244140625,10.601806640625,42.12158203125,49.2132568359375
1758184557.785145,-0.64453125,0.1357421875,0.75244140625,0.9765625,-3.47900390625,-0.3662109375,10.5963134765625,42.0831298828125,49.207763671875
1758184557.7956498,-0.64453125,0.1357421875,0.75244140625,0.9765625,-3.47900390625,-0.3662109375,10.5963134765625,42.0391845703125,49.19677734375
1758184557.8051906,-0.646484375,0.13525390625,0.74072265625,0.0,-3.35693359375,-0.6103515625,10.579833984375,42.000732421875,49.185791015625
1758184557.8162036,-0.646484375,0.13525390625,0.74072265625,0.0,-3.35693359375,-0.6103515625,10.56884765625,41.9622802734375,49.1748046875
1758184557.8252125,-0.646484375,0.14111328125,0.7412109375,1.89208984375,-3.11279296875,-0.8544921875,10.5743408203125,41.923828125,49.163818359375
1758184557.8351808,-0.646484375,0.14111328125,0.7412109375,1.89208984375,-3.11279296875,-0.8544921875,10.5743408203125,41.8853759765625,49.15283203125
1758184557.8456085,-0.64990234375,0.1416015625,0.75,3.72314453125,-2.74658203125,-1.03759765625,10.5963134765625,41.8524169921875,49.1363525390625
1758184557.8553655,-0.64990234375,0.1416015625,0.75,3.72314453125,-2.74658203125,-1.03759765625,10.6182861328125,41.8194580078125,49.119873046875
1758184557.8652208,-0.6533203125,0.12548828125,0.74951171875,4.94384765625,-2.5634765625,-0.91552734375,10.65673828125,41.7919921875,49.10888671875
1758184557.8757818,-0.6533203125,0.12548828125,0.74951171875,4.94384765625,-2.5634765625,-0.91552734375,10.689697265625,41.759033203125,49.097900390625
1758184557.8857858,-0.65478515625,0.12353515625,0.73486328125,5.37109375,-2.25830078125,-0.79345703125,10.7281494140625,41.7315673828125,49.0869140625
1758184557.895158,-0.65478515625,0.12353515625,0.73486328125,5.37109375,-2.25830078125,-0.79345703125,10.7666015625,41.7041015625,49.0704345703125
1758184557.9052927,-0.68017578125,0.12890625,0.73486328125,5.06591796875,-2.01416015625,-0.6103515625,10.8050537109375,41.68212890625,49.06494140625
1758184557.9156308,-0.68017578125,0.12890625,0.73486328125,5.06591796875,-2.01416015625,-0.6103515625,10.843505859375,41.66015625,49.053955078125
1758184557.9254472,-0.70068359375,0.1298828125,0.7138671875,4.8828125,-1.03759765625,-0.732421875,10.8819580078125,41.649169921875,49.04296875
1758184557.9352837,-0.70068359375,0.1298828125,0.7138671875,4.8828125,-1.03759765625,-0.732421875,10.9149169921875,41.63818359375,49.0264892578125
1758184557.9453926,-0.70263671875,0.14404296875,0.69970703125,9.58251953125,-0.18310546875,-1.0986328125,10.997314453125,41.6436767578125,49.0155029296875
1758184557.9552934,-0.70263671875,0.14404296875,0.69970703125,9.58251953125,-0.18310546875,-1.0986328125,11.0797119140625,41.6436767578125,48.9990234375
1758184557.9652953,-0.6748046875,0.15771484375,0.720703125,11.90185546875,0.42724609375,-1.03759765625,11.18408203125,41.6546630859375,48.9825439453125
1758184557.9759443,-0.6748046875,0.15771484375,0.720703125,11.90185546875,0.42724609375,-1.03759765625,11.2939453125,41.66015625,48.966064453125
1758184557.9853022,-0.65771484375,0.15771484375,0.7490234375,8.30078125,0.48828125,-0.79345703125,11.3653564453125,41.671142578125,48.955078125
1758184557.9952974,-0.65771484375,0.15771484375,0.7490234375,8.30078125,0.48828125,-0.79345703125,11.4422607421875,41.68212890625,48.9385986328125
1758184558.005314,-0.65283203125,0.15087890625,0.75048828125,3.96728515625,0.6103515625,-0.30517578125,11.4752197265625,41.6876220703125,48.9385986328125
1758184558.0157638,-0.65283203125,0.15087890625,0.75048828125,3.96728515625,0.6103515625,-0.30517578125,11.5081787109375,41.693115234375,48.93310546875
1758184558.0255332,-0.6591796875,0.14208984375,0.74169921875,1.3427734375,0.79345703125,0.06103515625,11.524658203125,41.6986083984375,48.93310546875
1758184558.0353196,-0.6591796875,0.14208984375,0.74169921875,1.3427734375,0.79345703125,0.06103515625,11.53564453125,41.7095947265625,48.93310546875
1758184558.046058,-0.66015625,0.14892578125,0.73388671875,1.89208984375,1.0986328125,0.1220703125,11.5521240234375,41.715087890625,48.93310546875
1758184558.055391,-0.66015625,0.14892578125,0.73388671875,1.89208984375,1.0986328125,0.1220703125,11.5740966796875,41.72607421875,48.9385986328125
1758184558.065641,-0.6611328125,0.1533203125,0.73828125,2.99072265625,0.8544921875,0.42724609375,11.6070556640625,41.7315673828125,48.944091796875
1758184558.0761502,-0.6611328125,0.1533203125,0.73828125,2.99072265625,0.8544921875,0.42724609375,11.6400146484375,41.737060546875,48.9495849609375
1758184558.086086,-0.6591796875,0.1533203125,0.7255859375,-0.54931640625,0.67138671875,0.8544921875,11.6400146484375,41.7425537109375,48.9605712890625
1758184558.0954194,-0.6591796875,0.1533203125,0.7255859375,-0.54931640625,0.67138671875,0.8544921875,11.6400146484375,41.7425537109375,48.97705078125
1758184558.1056807,-0.6650390625,0.1484375,0.7197265625,-3.23486328125,0.6103515625,0.79345703125,11.612548828125,41.748046875,48.988037109375
1758184558.1158848,-0.6650390625,0.1484375,0.7197265625,-3.23486328125,0.6103515625,0.79345703125,11.590576171875,41.7535400390625,48.9990234375
1758184558.1259277,-0.6650390625,0.1484375,0.7197265625,-1.40380859375,0.8544921875,0.48828125,11.57958984375,41.759033203125,49.0045166015625
1758184558.1354463,-0.6640625,0.15185546875,0.7392578125,-1.40380859375,0.8544921875,0.48828125,11.568603515625,41.7645263671875,49.0155029296875
1758184558.1463096,-0.6591796875,0.154296875,0.7431640625,1.89208984375,0.8544921875,0.1220703125,11.590576171875,41.77001953125,49.02099609375
1758184558.1554496,-0.6591796875,0.154296875,0.7431640625,1.89208984375,0.8544921875,0.1220703125,11.612548828125,41.7755126953125,49.0264892578125
1758184558.1657696,-0.65673828125,0.1552734375,0.720703125,3.662109375,0.30517578125,0.0,11.6510009765625,41.7755126953125,49.0264892578125
1758184558.177232,-0.65673828125,0.1552734375,0.720703125,3.662109375,0.30517578125,0.0,11.6839599609375,41.781005859375,49.0264892578125
1758184558.1868896,-0.65966796875,0.15771484375,0.7216796875,2.25830078125,-0.30517578125,-0.1220703125,11.7059326171875,41.7755126953125,49.0264892578125
1758184558.1955245,-0.65966796875,0.15771484375,0.7216796875,2.25830078125,-0.30517578125,-0.1220703125,11.7279052734375,41.77001953125,49.0264892578125
1758184558.2064376,-0.67626953125,0.16455078125,0.732421875,-3.47900390625,-0.244140625,-0.18310546875,11.689453125,41.77001953125,49.02099609375
1758184558.216056,-0.67626953125,0.16455078125,0.732421875,-3.47900390625,-0.244140625,-0.18310546875,11.656494140625,41.7645263671875,49.02099609375
1758184558.2263339,-0.69970703125,0.15673828125,0.7177734375,-7.2021484375,0.732421875,-0.48828125,11.5850830078125,41.7755126953125,49.0155029296875
1758184558.2355762,-0.69970703125,0.15673828125,0.7177734375,-7.2021484375,0.732421875,-0.48828125,11.5081787109375,41.781005859375,49.010009765625
1758184558.2468863,-0.6962890625,0.14697265625,0.71630859375,-2.44140625,1.77001953125,-1.28173828125,11.480712890625,41.802978515625,48.9990234375
1758184558.255579,-0.6962890625,0.14697265625,0.71630859375,-2.44140625,1.77001953125,-1.28173828125,11.4532470703125,41.824951171875,48.9825439453125
1758184558.2656126,-0.677734375,0.1533203125,0.7197265625,4.5166015625,2.13623046875,-1.77001953125,11.4862060546875,41.8524169921875,48.9605712890625
1758184558.2764814,-0.677734375,0.1533203125,0.7197265625,4.5166015625,2.13623046875,-1.77001953125,11.524658203125,41.8798828125,48.944091796875
1758184558.2856214,-0.65966796875,0.15576171875,0.72314453125,5.7373046875,1.5869140625,-1.8310546875,11.568603515625,41.90185546875,48.922119140625
1758184558.2956939,-0.65966796875,0.15576171875,0.72314453125,5.7373046875,1.5869140625,-1.8310546875,11.6180419921875,41.923828125,48.900146484375
1758184558.3060818,-0.65869140625,0.1533203125,0.7333984375,1.15966796875,0.8544921875,-1.28173828125,11.6180419921875,41.934814453125,48.8836669921875
1758184558.3161876,-0.65869140625,0.1533203125,0.7333984375,1.15966796875,0.8544921875,-1.28173828125,11.62353515625,41.9512939453125,48.8671875
1758184558.3262286,-0.66162109375,0.14306640625,0.72802734375,-3.662109375,0.1220703125,-0.6103515625,11.5850830078125,41.9512939453125,48.8616943359375
1758184558.3357728,-0.66162109375,0.14306640625,0.72802734375,-3.662109375,0.1220703125,-0.6103515625,11.5411376953125,41.956787109375,48.8507080078125
1758184558.3459113,-0.6669921875,0.1357421875,0.72119140625,-5.2490234375,0.0,-0.244140625,11.49169921875,41.956787109375,48.84521484375
1758184558.355724,-0.6669921875,0.1357421875,0.72119140625,-5.2490234375,0.0,-0.244140625,11.436767578125,41.956787109375,48.84521484375
1758184558.365751,-0.666015625,0.13916015625,0.73291015625,-3.60107421875,0.1220703125,-0.48828125,11.3983154296875,41.956787109375,48.8397216796875
1758184558.37676,-0.666015625,0.13916015625,0.73291015625,-3.60107421875,0.1220703125,-0.48828125,11.3543701171875,41.9622802734375,48.8287353515625
1758184558.3857682,-0.666015625,0.13916015625,0.73291015625,-0.91552734375,0.3662109375,-1.0986328125,11.337890625,41.9677734375,48.8177490234375
1758184558.3957238,-0.67333984375,0.154296875,0.73291015625,-0.91552734375,0.3662109375,-1.0986328125,11.3214111328125,41.9732666015625,48.80126953125
1758184558.4058008,-0.67529296875,0.16259765625,0.71630859375,0.79345703125,0.732421875,-1.52587890625,11.3214111328125,41.9842529296875,48.7847900390625
1758184558.4162264,-0.67529296875,0.16259765625,0.71630859375,0.79345703125,0.732421875,-1.52587890625,11.31591796875,41.9952392578125,48.7628173828125
1758184558.426324,-0.67431640625,0.162109375,0.72509765625,0.244140625,1.15966796875,-1.5869140625,11.3104248046875,42.01171875,48.7408447265625
1758184558.4358287,-0.6826171875,0.1484375,0.72998046875,-2.5634765625,1.8310546875,-1.708984375,11.2939453125,42.0281982421875,48.724365234375
1758184558.446188,-0.6826171875,0.1484375,0.72998046875,-2.5634765625,1.8310546875,-1.708984375,11.2554931640625,42.0501708984375,48.702392578125
1758184558.4558527,-0.6611328125,0.14111328125,0.736328125,-1.3427734375,1.8310546875,-1.52587890625,11.22802734375,42.0721435546875,48.6859130859375
1758184558.465853,-0.6611328125,0.14111328125,0.736328125,-1.3427734375,1.8310546875,-1.52587890625,11.2115478515625,42.0941162109375,48.66943359375
1758184558.4774313,-0.65771484375,0.13427734375,0.73046875,-2.9296875,1.708984375,-1.28173828125,11.1785888671875,42.110595703125,48.6529541015625
1758184558.4861262,-0.65771484375,0.13427734375,0.73046875,-2.9296875,1.708984375,-1.28173828125,11.1456298828125,42.132568359375,48.6419677734375
1758184558.4958565,-0.6552734375,0.1328125,0.72998046875,-2.0751953125,1.0986328125,-0.91552734375,11.1126708984375,42.1435546875,48.6309814453125
1758184558.5058684,-0.6552734375,0.1328125,0.72998046875,-2.0751953125,1.0986328125,-0.91552734375,11.0906982421875,42.154541015625,48.62548828125
1758184558.516832,-0.6591796875,0.1328125,0.734375,-3.35693359375,0.79345703125,-0.244140625,11.0577392578125,42.16552734375,48.6199951171875
1758184558.5258865,-0.6591796875,0.1328125,0.734375,-3.35693359375,0.79345703125,-0.244140625,11.0247802734375,42.1710205078125,48.6199951171875
1758184558.5362504,-0.65966796875,0.13916015625,0.72412109375,-6.53076171875,0.732421875,0.0,10.975341796875,42.176513671875,48.6199951171875
1758184558.546222,-0.65966796875,0.13916015625,0.72412109375,-6.53076171875,0.732421875,0.0,10.909423828125,42.1820068359375,48.62548828125
1758184558.5563707,-0.66162109375,0.1435546875,0.73388671875,-5.55419921875,0.91552734375,0.06103515625,10.8544921875,42.1875,48.62548828125
1758184558.566111,-0.66162109375,0.1435546875,0.73388671875,-5.55419921875,0.91552734375,0.06103515625,10.799560546875,42.1929931640625,48.6309814453125
1758184558.5777693,-0.6611328125,0.140625,0.74267578125,-3.41796875,1.0986328125,0.06103515625,10.7611083984375,42.198486328125,48.6309814453125
1758184558.5860367,-0.6611328125,0.140625,0.74267578125,-3.41796875,1.0986328125,0.06103515625,10.7281494140625,42.20947265625,48.636474609375
1758184558.5964582,-0.66162109375,0.1318359375,0.73193359375,-0.79345703125,1.15966796875,0.0,10.711669921875,42.2149658203125,48.6419677734375
1758184558.6061943,-0.66162109375,0.1318359375,0.73193359375,-0.79345703125,1.15966796875,0.0,10.7061767578125,42.2259521484375,48.6474609375
1758184558.6171358,-0.65771484375,0.1357421875,0.72412109375,-2.0751953125,0.91552734375,0.1220703125,10.6951904296875,42.2314453125,48.6474609375
1758184558.6261683,-0.65771484375,0.1357421875,0.72412109375,-2.0751953125,0.91552734375,0.1220703125,10.6787109375,42.2369384765625,48.658447265625
1758184558.6364555,-0.66015625,0.13232421875,0.728515625,-3.84521484375,0.48828125,0.42724609375,10.6512451171875,42.2369384765625,48.6639404296875
1758184558.6463482,-0.66015625,0.13232421875,0.728515625,-3.84521484375,0.48828125,0.42724609375,10.6182861328125,42.2369384765625,48.66943359375
1758184558.656686,-0.673828125,0.1416015625,0.75146484375,-6.103515625,0.48828125,0.54931640625,10.5743408203125,42.2369384765625,48.680419921875
1758184558.6661775,-0.673828125,0.1416015625,0.75146484375,-6.103515625,0.48828125,0.54931640625,10.5194091796875,42.2369384765625,48.69140625
1758184558.6769896,-0.671875,0.14794921875,0.734375,-7.32421875,0.732421875,0.48828125,10.458984375,42.242431640625,48.702392578125
1758184558.6864433,-0.671875,0.14794921875,0.734375,-7.32421875,0.732421875,0.48828125,10.39306640625,42.242431640625,48.71337890625
1758184558.696677,-0.66943359375,0.134765625,0.71337890625,-7.75146484375,0.91552734375,0.244140625,10.3271484375,42.2479248046875,48.7188720703125
1758184558.7062056,-0.66943359375,0.134765625,0.71337890625,-7.75146484375,0.91552734375,0.244140625,10.2557373046875,42.25341796875,48.724365234375
1758184558.7176855,-0.669921875,0.1376953125,0.7314453125,-5.9814453125,0.3662109375,0.42724609375,10.1953125,42.2589111328125,48.7298583984375
1758184558.7261477,-0.669921875,0.1376953125,0.7314453125,-5.9814453125,0.3662109375,0.42724609375,10.1458740234375,42.2589111328125,48.7353515625
1758184558.7361984,-0.65966796875,0.1220703125,0.73828125,-6.16455078125,-0.06103515625,0.67138671875,10.0909423828125,42.25341796875,48.7408447265625
1758184558.746351,-0.65966796875,0.1220703125,0.73828125,-6.16455078125,-0.06103515625,0.67138671875,10.04150390625,42.25341796875,48.7518310546875
1758184558.756149,-0.6572265625,0.12109375,0.7216796875,-6.53076171875,-0.48828125,0.67138671875,9.986572265625,42.242431640625,48.75732421875
1758184558.766212,-0.6572265625,0.12109375,0.7216796875,-6.53076171875,-0.48828125,0.67138671875,9.9261474609375,42.2369384765625,48.768310546875
1758184558.7763731,-0.66455078125,0.12890625,0.72900390625,-7.01904296875,-0.91552734375,0.54931640625,9.86572265625,42.2259521484375,48.7738037109375
1758184558.7862442,-0.66455078125,0.12890625,0.72900390625,-7.01904296875,-0.91552734375,0.54931640625,9.8052978515625,42.2149658203125,48.779296875
1758184558.7962303,-0.67138671875,0.125,0.73974609375,-5.126953125,-1.28173828125,0.54931640625,9.7503662109375,42.198486328125,48.7847900390625
1758184558.806643,-0.67138671875,0.125,0.73974609375,-5.126953125,-1.28173828125,0.54931640625,9.700927734375,42.1820068359375,48.790283203125
1758184558.8167343,-0.6806640625,0.1064453125,0.72412109375,-0.48828125,-1.15966796875,0.48828125,9.678955078125,42.1710205078125,48.790283203125
1758184558.8262558,-0.6806640625,0.1064453125,0.72412109375,-0.48828125,-1.15966796875,0.48828125,9.678955078125,42.154541015625,48.7957763671875
1758184558.8362896,-0.68408203125,0.10791015625,0.7080078125,3.23486328125,-1.0986328125,0.0,9.6954345703125,42.1435546875,48.7957763671875
1758184558.8469863,-0.68408203125,0.10791015625,0.7080078125,3.23486328125,-1.0986328125,0.0,9.722900390625,42.132568359375,48.790283203125
1758184558.8565025,-0.6845703125,0.11767578125,0.71435546875,6.2255859375,-1.03759765625,-0.42724609375,9.766845703125,42.12158203125,48.779296875
1758184558.8663056,-0.6845703125,0.11767578125,0.71435546875,6.2255859375,-1.03759765625,-0.42724609375,9.82177734375,42.1160888671875,48.768310546875
1758184558.8764534,-0.68603515625,0.1279296875,0.72705078125,7.87353515625,-1.15966796875,-0.732421875,9.8876953125,42.110595703125,48.7518310546875
1758184558.8867524,-0.68603515625,0.1279296875,0.72705078125,7.87353515625,-1.15966796875,-0.732421875,9.95361328125,42.099609375,48.7353515625
1758184558.8963091,-0.68603515625,0.1279296875,0.72705078125,8.4228515625,-1.0986328125,-0.79345703125,10.0250244140625,42.0941162109375,48.7188720703125
1758184558.906358,-0.67578125,0.13134765625,0.71826171875,8.4228515625,-1.0986328125,-0.79345703125,10.096435546875,42.088623046875,48.702392578125
1758184558.916812,-0.6845703125,0.1318359375,0.724609375,8.4228515625,-1.3427734375,-0.79345703125,10.17333984375,42.0831298828125,48.680419921875
1758184558.9263742,-0.6845703125,0.1318359375,0.724609375,8.4228515625,-1.3427734375,-0.79345703125,10.2447509765625,42.0721435546875,48.6639404296875
1758184558.936416,-0.68701171875,0.13330078125,0.72509765625,7.99560546875,-1.52587890625,-0.67138671875,10.316162109375,42.066650390625,48.6474609375
1758184558.9466767,-0.68701171875,0.13330078125,0.72509765625,7.99560546875,-1.52587890625,-0.67138671875,10.382080078125,42.0556640625,48.6309814453125
1758184558.9564533,-0.69140625,0.13671875,0.72265625,6.2255859375,-1.5869140625,-0.54931640625,10.4425048828125,42.044677734375,48.6199951171875
1758184558.966779,-0.69140625,0.13671875,0.72265625,6.2255859375,-1.5869140625,-0.54931640625,10.4974365234375,42.03369140625,48.603515625
1758184558.9763877,-0.6845703125,0.1416015625,0.71435546875,3.96728515625,-1.77001953125,-0.42724609375,10.535888671875,42.022705078125,48.5870361328125
1758184558.987419,-0.6845703125,0.1416015625,0.71435546875,3.96728515625,-1.77001953125,-0.42724609375,10.56884765625,42.01171875,48.5760498046875
1758184558.9964705,-0.67724609375,0.1455078125,0.7197265625,2.0751953125,-1.708984375,-0.42724609375,10.5908203125,42.000732421875,48.5650634765625
1758184559.0070722,-0.67724609375,0.1455078125,0.7197265625,2.0751953125,-1.708984375,-0.42724609375,10.6072998046875,41.98974609375,48.548583984375
1758184559.016926,-0.67626953125,0.1494140625,0.72802734375,2.86865234375,-1.77001953125,-0.244140625,10.623779296875,41.978759765625,48.53759765625
1758184559.0267873,-0.67626953125,0.1494140625,0.72802734375,2.86865234375,-1.77001953125,-0.244140625,10.645751953125,41.9677734375,48.526611328125
1758184559.0365064,-0.6806640625,0.12646484375,0.71923828125,4.08935546875,-1.77001953125,0.0,10.6787109375,41.956787109375,48.515625
1758184559.0473711,-0.6806640625,0.12646484375,0.71923828125,4.08935546875,-1.77001953125,0.0,10.7171630859375,41.94580078125,48.5101318359375
1758184559.0565856,-0.66650390625,0.1279296875,0.72216796875,3.2958984375,-1.89208984375,0.18310546875,10.7501220703125,41.9293212890625,48.4991455078125
1758184559.0669107,-0.66650390625,0.1279296875,0.72216796875,3.2958984375,-1.89208984375,0.18310546875,10.777587890625,41.9183349609375,48.49365234375
1758184559.077018,-0.66748046875,0.13623046875,0.72265625,1.28173828125,-1.8310546875,0.48828125,10.799560546875,41.90185546875,48.4881591796875
1758184559.0893235,-0.66748046875,0.13623046875,0.72265625,1.28173828125,-1.8310546875,0.48828125,10.810546875,41.8853759765625,48.482666015625
1758184559.0965827,-0.6708984375,0.1494140625,0.7373046875,-0.06103515625,-1.708984375,0.244140625,10.8160400390625,41.8743896484375,48.4771728515625
1758184559.1071906,-0.6708984375,0.1494140625,0.7373046875,-0.06103515625,-1.708984375,0.244140625,10.8160400390625,41.8634033203125,48.4716796875
1758184559.1172132,-0.6689453125,0.15185546875,0.7373046875,0.67138671875,-1.3427734375,0.18310546875,10.8160400390625,41.846923828125,48.4661865234375
1758184559.1271915,-0.6689453125,0.15185546875,0.7373046875,0.67138671875,-1.3427734375,0.18310546875,10.821533203125,41.8359375,48.460693359375
1758184559.136644,-0.66259765625,0.146484375,0.72998046875,2.0751953125,-1.03759765625,0.06103515625,10.8380126953125,41.8304443359375,48.4552001953125
1758184559.147479,-0.66259765625,0.146484375,0.72998046875,2.0751953125,-1.03759765625,0.06103515625,10.8544921875,41.8194580078125,48.44970703125
1758184559.156677,-0.658203125,0.13330078125,0.73583984375,2.197265625,-1.03759765625,0.18310546875,10.87646484375,41.81396484375,48.44970703125
1758184559.1667242,-0.658203125,0.13330078125,0.73583984375,2.197265625,-1.03759765625,0.18310546875,10.8984375,41.802978515625,48.4442138671875
1758184559.1772041,-0.6640625,0.134765625,0.74658203125,-0.18310546875,-1.03759765625,0.3662109375,10.909423828125,41.7919921875,48.4442138671875
1758184559.1870468,-0.6640625,0.134765625,0.74658203125,-0.18310546875,-1.03759765625,0.3662109375,10.909423828125,41.7864990234375,48.438720703125
1758184559.196732,-0.6669921875,0.138671875,0.72119140625,-2.8076171875,-0.91552734375,0.42724609375,10.8929443359375,41.7755126953125,48.438720703125
1758184559.2067661,-0.6669921875,0.138671875,0.72119140625,-2.8076171875,-0.91552734375,0.42724609375,10.865478515625,41.7645263671875,48.4442138671875
1758184559.2172322,-0.6689453125,0.15234375,0.74072265625,-3.0517578125,-1.15966796875,0.06103515625,10.8380126953125,41.759033203125,48.438720703125
1758184559.2266982,-0.6689453125,0.15234375,0.74072265625,-3.0517578125,-1.15966796875,0.06103515625,10.8050537109375,41.748046875,48.438720703125
1758184559.236766,-0.66259765625,0.1552734375,0.740234375,-3.35693359375,-0.732421875,0.18310546875,10.7720947265625,41.737060546875,48.4332275390625
1758184559.2470171,-0.66259765625,0.1552734375,0.740234375,-3.35693359375,-0.732421875,0.18310546875,10.74462890625,41.7315673828125,48.4332275390625
1758184559.2568276,-0.66162109375,0.14697265625,0.73095703125,-1.28173828125,-0.6103515625,0.1220703125,10.72265625,41.7205810546875,48.4332275390625
1758184559.266776,-0.66162109375,0.14697265625,0.73095703125,-1.28173828125,-0.6103515625,0.1220703125,10.711669921875,41.715087890625,48.4332275390625
1758184559.2768395,-0.66455078125,0.1416015625,0.73828125,-4.57763671875,-0.48828125,0.18310546875,10.6842041015625,41.7095947265625,48.4332275390625
1758184559.2873077,-0.66455078125,0.1416015625,0.73828125,-4.57763671875,-0.48828125,0.18310546875,10.6402587890625,41.7041015625,48.4332275390625
1758184559.2968745,-0.66552734375,0.1318359375,0.728515625,-6.53076171875,-0.48828125,0.18310546875,10.5908203125,41.6986083984375,48.4332275390625
1758184559.3068285,-0.66552734375,0.1318359375,0.728515625,-6.53076171875,-0.48828125,0.18310546875,10.5303955078125,41.693115234375,48.4332275390625
1758184559.3172562,-0.666015625,0.1337890625,0.72705078125,-5.126953125,-0.42724609375,0.1220703125,10.4754638671875,41.693115234375,48.4332275390625
1758184559.3268495,-0.666015625,0.1337890625,0.72705078125,-5.126953125,-0.42724609375,0.1220703125,10.426025390625,41.6876220703125,48.427734375
1758184559.3370264,-0.66552734375,0.13916015625,0.7353515625,-2.86865234375,-0.48828125,0.1220703125,10.3875732421875,41.68212890625,48.427734375
1758184559.347281,-0.66552734375,0.13916015625,0.7353515625,-2.86865234375,-0.48828125,0.1220703125,10.3656005859375,41.6766357421875,48.427734375
1758184559.3568985,-0.66650390625,0.13232421875,0.73681640625,-2.5634765625,-0.48828125,0.3662109375,10.338134765625,41.671142578125,48.427734375
1758184559.3668766,-0.66650390625,0.13232421875,0.73681640625,-2.5634765625,-0.48828125,0.3662109375,10.3216552734375,41.6656494140625,48.427734375
1758184559.377442,-0.66552734375,0.1318359375,0.7294921875,-3.5400390625,-0.54931640625,0.54931640625,10.294189453125,41.66015625,48.4332275390625
1758184559.3882072,-0.66552734375,0.1318359375,0.7294921875,-3.5400390625,-0.54931640625,0.54931640625,10.2667236328125,41.6546630859375,48.4332275390625
1758184559.3969762,-0.66845703125,0.12646484375,0.73388671875,-3.47900390625,-0.54931640625,0.67138671875,10.2337646484375,41.649169921875,48.438720703125
1758184559.406954,-0.66845703125,0.12646484375,0.73388671875,-3.47900390625,-0.54931640625,0.67138671875,10.206298828125,41.6436767578125,48.4442138671875
1758184559.4181986,-0.6748046875,0.12548828125,0.7373046875,-1.89208984375,-0.3662109375,0.79345703125,10.1898193359375,41.63818359375,48.44970703125
1758184559.4270144,-0.6748046875,0.12548828125,0.7373046875,-1.89208984375,-0.3662109375,0.79345703125,10.1788330078125,41.63818359375,48.4552001953125
1758184559.437704,-0.67431640625,0.1123046875,0.7255859375,0.8544921875,-0.244140625,0.9765625,10.1788330078125,41.6326904296875,48.4661865234375
1758184559.4471755,-0.67431640625,0.1123046875,0.7255859375,0.8544921875,-0.244140625,0.9765625,10.1953125,41.6326904296875,48.4716796875
1758184559.4575634,-0.67041015625,0.13134765625,0.7353515625,1.953125,-0.42724609375,1.03759765625,10.21728515625,41.627197265625,48.482666015625
1758184559.4670272,-0.67041015625,0.13134765625,0.7353515625,1.953125,-0.42724609375,1.03759765625,10.2447509765625,41.6217041015625,48.49365234375
1758184559.4774995,-0.6640625,0.12841796875,0.72705078125,-0.3662109375,-0.6103515625,1.15966796875,10.250244140625,41.6162109375,48.504638671875
1758184559.487946,-0.6640625,0.12841796875,0.72705078125,-0.3662109375,-0.6103515625,1.15966796875,10.250244140625,41.6107177734375,48.515625
1758184559.4975488,-0.66845703125,0.11767578125,0.73388671875,-1.3427734375,-0.67138671875,1.220703125,10.2447509765625,41.605224609375,48.526611328125
1758184559.507339,-0.66845703125,0.11767578125,0.73388671875,-1.3427734375,-0.67138671875,1.220703125,10.2392578125,41.5997314453125,48.53759765625
1758184559.5185597,-0.6708984375,0.126953125,0.734375,-0.3662109375,-0.42724609375,1.28173828125,10.2447509765625,41.59423828125,48.5540771484375
1758184559.5271106,-0.6708984375,0.126953125,0.734375,-0.3662109375,-0.42724609375,1.28173828125,10.250244140625,41.5887451171875,48.5650634765625
1758184559.5380287,-0.671875,0.13623046875,0.73583984375,2.13623046875,-0.48828125,1.0986328125,10.2777099609375,41.583251953125,48.5760498046875
1758184559.5475893,-0.671875,0.13623046875,0.73583984375,2.13623046875,-0.48828125,1.0986328125,10.30517578125,41.583251953125,48.5870361328125
1758184559.5578632,-0.671875,0.14111328125,0.73193359375,2.62451171875,-0.48828125,1.03759765625,10.338134765625,41.5777587890625,48.5980224609375
1758184559.5672364,-0.671875,0.14111328125,0.73193359375,2.62451171875,-0.48828125,1.03759765625,10.37109375,41.572265625,48.603515625
1758184559.5785189,-0.6650390625,0.1435546875,0.73388671875,2.685546875,-0.54931640625,1.0986328125,10.4095458984375,41.5667724609375,48.614501953125
1758184559.5878592,-0.6650390625,0.1435546875,0.73388671875,2.685546875,-0.54931640625,1.0986328125,10.4425048828125,41.561279296875,48.62548828125
1758184559.597225,-0.6669921875,0.13720703125,0.73779296875,1.220703125,-0.732421875,1.28173828125,10.4644775390625,41.5557861328125,48.6419677734375
1758184559.6072729,-0.6669921875,0.13720703125,0.73779296875,1.220703125,-0.732421875,1.28173828125,10.4864501953125,41.5447998046875,48.6529541015625
1758184559.617564,-0.66796875,0.13232421875,0.73193359375,0.79345703125,-0.79345703125,1.220703125,10.5029296875,41.539306640625,48.6639404296875
1758184559.627204,-0.66796875,0.13232421875,0.73193359375,0.79345703125,-0.79345703125,1.220703125,10.5194091796875,41.5338134765625,48.6749267578125
1758184559.637569,-0.6650390625,0.138671875,0.7333984375,0.67138671875,-0.79345703125,1.15966796875,10.5303955078125,41.5228271484375,48.6859130859375
1758184559.647887,-0.6650390625,0.138671875,0.7333984375,0.67138671875,-0.79345703125,1.15966796875,10.546875,41.517333984375,48.6968994140625
1758184559.6572983,-0.65576171875,0.14697265625,0.7392578125,0.42724609375,-0.8544921875,1.15966796875,10.557861328125,41.50634765625,48.7078857421875
1758184559.6672823,-0.65576171875,0.14697265625,0.7392578125,0.42724609375,-0.8544921875,1.15966796875,10.5743408203125,41.495361328125,48.7188720703125
1758184559.6773105,-0.65234375,0.142578125,0.740234375,0.3662109375,-0.8544921875,1.28173828125,10.5853271484375,41.4898681640625,48.7298583984375
1758184559.6881194,-0.65234375,0.142578125,0.740234375,0.3662109375,-0.8544921875,1.28173828125,10.5963134765625,41.4788818359375,48.746337890625
1758184559.6972885,-0.65380859375,0.1416015625,0.736328125,-1.46484375,-0.79345703125,1.15966796875,10.5908203125,41.4678955078125,48.75732421875
1758184559.7072637,-0.65380859375,0.1416015625,0.736328125,-1.46484375,-0.79345703125,1.15966796875,10.5853271484375,41.4569091796875,48.768310546875
1758184559.717639,-0.65576171875,0.14501953125,0.740234375,-4.150390625,-0.79345703125,0.91552734375,10.5523681640625,41.4459228515625,48.779296875
1758184559.727298,-0.65576171875,0.14501953125,0.740234375,-4.150390625,-0.79345703125,0.91552734375,10.5194091796875,41.4404296875,48.7847900390625
1758184559.7376742,-0.65576171875,0.14111328125,0.73583984375,-4.5166015625,-0.732421875,0.732421875,10.48095703125,41.429443359375,48.790283203125
1758184559.7478385,-0.65576171875,0.14111328125,0.73583984375,-4.5166015625,-0.732421875,0.732421875,10.4425048828125,41.41845703125,48.80126953125
1758184559.7574039,-0.66015625,0.1328125,0.7421875,-1.3427734375,-0.6103515625,0.54931640625,10.43701171875,41.4129638671875,48.8067626953125
1758184559.7673793,-0.66015625,0.1328125,0.7421875,-1.3427734375,-0.6103515625,0.54931640625,10.426025390625,41.407470703125,48.812255859375
1758184559.7774935,-0.6572265625,0.1240234375,0.73974609375,2.13623046875,-0.3662109375,0.3662109375,10.4534912109375,41.4019775390625,48.812255859375
1758184559.7883716,-0.6572265625,0.1240234375,0.73974609375,2.13623046875,-0.3662109375,0.3662109375,10.4754638671875,41.396484375,48.8177490234375
1758184559.7974312,-0.66357421875,0.12109375,0.7373046875,4.08935546875,-0.3662109375,0.244140625,10.5194091796875,41.3909912109375,48.8177490234375
1758184559.807596,-0.66357421875,0.12109375,0.7373046875,4.08935546875,-0.3662109375,0.244140625,10.557861328125,41.385498046875,48.8177490234375
1758184559.8178883,-0.6591796875,0.13671875,0.736328125,3.23486328125,-0.3662109375,0.18310546875,10.5908203125,41.3800048828125,48.8177490234375
1758184559.8274393,-0.6591796875,0.13671875,0.736328125,3.23486328125,-0.3662109375,0.18310546875,10.623779296875,41.3800048828125,48.8177490234375
1758184559.838093,-0.6640625,0.14306640625,0.7373046875,2.62451171875,-0.42724609375,0.18310546875,10.645751953125,41.37451171875,48.8177490234375
1758184559.8482676,-0.6640625,0.14306640625,0.7373046875,2.62451171875,-0.42724609375,0.18310546875,10.6732177734375,41.3690185546875,48.8177490234375
1758184559.857458,-0.6572265625,0.138671875,0.73046875,4.638671875,-0.244140625,0.1220703125,10.7171630859375,41.3690185546875,48.8177490234375
1758184559.867832,-0.6572265625,0.138671875,0.73046875,4.638671875,-0.244140625,0.1220703125,10.7611083984375,41.363525390625,48.8177490234375
1758184559.8775785,-0.66064453125,0.13623046875,0.7490234375,7.4462890625,-0.54931640625,0.06103515625,10.83251953125,41.3580322265625,48.8177490234375
1758184559.8887842,-0.66064453125,0.13623046875,0.7490234375,7.4462890625,-0.54931640625,0.06103515625,10.9039306640625,41.3525390625,48.812255859375
1758184559.8975635,-0.66552734375,0.1328125,0.73828125,8.1787109375,-0.6103515625,0.42724609375,10.986328125,41.3470458984375,48.8177490234375
1758184559.90853,-0.66552734375,0.1328125,0.73828125,8.1787109375,-0.6103515625,0.42724609375,11.0687255859375,41.341552734375,48.8177490234375
1758184559.9178448,-0.666015625,0.1435546875,0.71923828125,6.40869140625,-0.732421875,0.30517578125,11.129150390625,41.33056640625,48.8177490234375
1758184559.9278922,-0.666015625,0.1435546875,0.71923828125,6.40869140625,-0.732421875,0.30517578125,11.1895751953125,41.3250732421875,48.8177490234375
1758184559.9381676,-0.66943359375,0.1611328125,0.7353515625,3.72314453125,-0.732421875,0.42724609375,11.22802734375,41.319580078125,48.8177490234375
1758184559.948711,-0.66943359375,0.1611328125,0.7353515625,3.72314453125,-0.732421875,0.42724609375,11.2664794921875,41.3140869140625,48.8232421875
1758184559.9575667,-0.6640625,0.1650390625,0.73681640625,2.0751953125,-0.6103515625,0.54931640625,11.2884521484375,41.30859375,48.8232421875
1758184559.9679067,-0.6640625,0.1650390625,0.73681640625,2.0751953125,-0.6103515625,0.54931640625,11.3104248046875,41.3031005859375,48.8287353515625
1758184559.978149,-0.66162109375,0.1533203125,0.7353515625,1.52587890625,-0.67138671875,0.54931640625,11.3323974609375,41.2921142578125,48.834228515625
1758184559.9909656,-0.66162109375,0.1533203125,0.7353515625,1.52587890625,-0.67138671875,0.54931640625,11.348876953125,41.28662109375,48.834228515625
1758184559.9976752,-0.6611328125,0.1435546875,0.73388671875,1.15966796875,-0.6103515625,0.79345703125,11.3653564453125,41.2811279296875,48.8397216796875
1758184560.0083377,-0.6611328125,0.1435546875,0.73388671875,1.15966796875,-0.6103515625,0.79345703125,11.3818359375,41.275634765625,48.8507080078125
1758184560.0180418,-0.66162109375,0.13916015625,0.73095703125,2.3193359375,-0.67138671875,0.91552734375,11.4093017578125,41.2701416015625,48.856201171875
1758184560.0282497,-0.66162109375,0.13916015625,0.73095703125,2.3193359375,-0.67138671875,0.91552734375,11.4422607421875,41.2591552734375,48.8671875
1758184560.0377805,-0.6611328125,0.1494140625,0.740234375,3.96728515625,-0.732421875,1.03759765625,11.4862060546875,41.253662109375,48.878173828125
1758184560.048848,-0.6611328125,0.1494140625,0.740234375,3.96728515625,-0.732421875,1.03759765625,11.5301513671875,41.2481689453125,48.88916015625
1758184560.0576935,-0.66064453125,0.1630859375,0.7353515625,0.91552734375,-0.732421875,1.220703125,11.546630859375,41.2371826171875,48.900146484375
1758184560.0677092,-0.66064453125,0.1630859375,0.7353515625,0.91552734375,-0.732421875,1.220703125,11.568603515625,41.2261962890625,48.9166259765625
1758184560.077796,-0.662109375,0.15869140625,0.7255859375,-1.0986328125,-0.67138671875,1.28173828125,11.5631103515625,41.220703125,48.9276123046875
1758184560.0878162,-0.662109375,0.15869140625,0.7255859375,-1.0986328125,-0.67138671875,1.28173828125,11.5631103515625,41.2152099609375,48.9385986328125
1758184560.0977464,-0.66796875,0.14599609375,0.73291015625,0.18310546875,-0.48828125,1.15966796875,11.5740966796875,41.209716796875,48.955078125
1758184560.1077693,-0.66796875,0.14599609375,0.73291015625,0.18310546875,-0.48828125,1.15966796875,11.5850830078125,41.2042236328125,48.966064453125
1758184560.1180806,-0.66943359375,0.1455078125,0.7392578125,3.662109375,-0.244140625,1.03759765625,11.6290283203125,41.19873046875,48.97705078125
1758184560.1277673,-0.66943359375,0.1455078125,0.7392578125,3.662109375,-0.244140625,1.03759765625,11.6729736328125,41.19873046875,48.988037109375
1758184560.1379201,-0.66357421875,0.154296875,0.7265625,4.150390625,-0.244140625,1.03759765625,11.722412109375,41.1932373046875,48.9990234375
1758184560.1483433,-0.66357421875,0.154296875,0.7265625,4.150390625,-0.244140625,1.03759765625,11.7718505859375,41.1932373046875,49.010009765625
1758184560.1578422,-0.65869140625,0.1640625,0.732421875,2.13623046875,-0.42724609375,1.03759765625,11.79931640625,41.187744140625,49.02099609375
1758184560.1678464,-0.65869140625,0.1640625,0.732421875,2.13623046875,-0.42724609375,1.03759765625,11.8267822265625,41.187744140625,49.031982421875
1758184560.17797,-0.65869140625,0.1669921875,0.73828125,-0.79345703125,-0.48828125,1.220703125,11.832275390625,41.1822509765625,49.04296875
1758184560.187871,-0.65869140625,0.1669921875,0.73828125,-0.79345703125,-0.48828125,1.220703125,11.832275390625,41.1767578125,49.053955078125
1758184560.1978726,-0.6611328125,0.14990234375,0.7294921875,-0.732421875,-0.6103515625,1.28173828125,11.8377685546875,41.165771484375,49.0704345703125
1758184560.2079444,-0.6611328125,0.14990234375,0.7294921875,-0.732421875,-0.6103515625,1.28173828125,11.8377685546875,41.1602783203125,49.0814208984375
1758184560.2182243,-0.66796875,0.14599609375,0.7421875,1.3427734375,-0.67138671875,1.0986328125,11.8597412109375,41.15478515625,49.0924072265625
1758184560.227925,-0.66796875,0.14599609375,0.7421875,1.3427734375,-0.67138671875,1.0986328125,11.8817138671875,41.143798828125,49.1033935546875
1758184560.2379913,-0.6591796875,0.154296875,0.73779296875,3.662109375,-0.67138671875,1.0986328125,11.9256591796875,41.1383056640625,49.1143798828125
1758184560.2524526,-0.6591796875,0.154296875,0.73779296875,3.662109375,-0.67138671875,1.0986328125,11.9696044921875,41.1328125,49.1253662109375
1758184560.2593443,-0.6552734375,0.15625,0.73681640625,5.18798828125,-0.91552734375,1.15966796875,12.030029296875,41.121826171875,49.1363525390625
1758184560.2680283,-0.6552734375,0.15625,0.73681640625,5.18798828125,-0.91552734375,1.15966796875,12.0849609375,41.11083984375,49.1473388671875
1758184560.281079,-0.66015625,0.1630859375,0.7353515625,3.47900390625,-1.15966796875,1.28173828125,12.12890625,41.099853515625,49.1583251953125
1758184560.2915509,-0.66015625,0.1630859375,0.7353515625,3.47900390625,-1.15966796875,1.28173828125,12.1728515625,41.0888671875,49.1693115234375
1758184560.2982771,-0.66162109375,0.16552734375,0.72216796875,1.28173828125,-1.03759765625,1.28173828125,12.1893310546875,41.077880859375,49.1802978515625
1758184560.308005,-0.66162109375,0.16552734375,0.72216796875,1.28173828125,-1.03759765625,1.28173828125,12.2113037109375,41.06689453125,49.1912841796875
1758184560.3189607,-0.6552734375,0.17431640625,0.73193359375,0.0,-1.03759765625,1.220703125,12.2222900390625,41.055908203125,49.2022705078125
1758184560.3279788,-0.6552734375,0.17431640625,0.73193359375,0.0,-1.03759765625,1.220703125,12.227783203125,41.044921875,49.2132568359375
1758184560.338648,-0.650390625,0.1640625,0.74169921875,-0.6103515625,-1.0986328125,1.28173828125,12.2332763671875,41.033935546875,49.229736328125
1758184560.3481283,-0.650390625,0.1640625,0.74169921875,-0.6103515625,-1.0986328125,1.28173828125,12.23876953125,41.0174560546875,49.24072265625
1758184560.35858,-0.65087890625,0.1611328125,0.74560546875,-1.46484375,-1.28173828125,1.28173828125,12.2332763671875,41.0064697265625,49.251708984375
1758184560.368088,-0.65087890625,0.1611328125,0.74560546875,-1.46484375,-1.28173828125,1.28173828125,12.227783203125,40.989990234375,49.2626953125
1758184560.3789043,-0.646484375,0.16796875,0.73291015625,-1.77001953125,-1.40380859375,1.0986328125,12.216796875,40.9735107421875,49.273681640625
1758184560.3882236,-0.646484375,0.16796875,0.73291015625,-1.77001953125,-1.40380859375,1.0986328125,12.205810546875,40.95703125,49.28466796875
1758184560.3984401,-0.64306640625,0.171875,0.7451171875,-2.01416015625,-1.52587890625,1.03759765625,12.19482421875,40.9405517578125,49.2901611328125
1758184560.4083374,-0.64306640625,0.171875,0.7451171875,-2.01416015625,-1.52587890625,1.03759765625,12.183837890625,40.924072265625,49.3011474609375
1758184560.4191248,-0.64501953125,0.166015625,0.75048828125,-3.5400390625,-1.52587890625,1.52587890625,12.1563720703125,40.902099609375,49.317626953125
1758184560.4281216,-0.64501953125,0.166015625,0.75048828125,-3.5400390625,-1.52587890625,1.52587890625,12.1343994140625,40.8856201171875,49.3341064453125
1758184560.4392982,-0.6455078125,0.15087890625,0.7421875,-3.72314453125,-1.5869140625,1.708984375,12.1124267578125,40.8636474609375,49.3505859375
1758184560.4481726,-0.6455078125,0.15087890625,0.7421875,-3.72314453125,-1.5869140625,1.708984375,12.0904541015625,40.8416748046875,49.3670654296875
1758184560.4588468,-0.64501953125,0.15478515625,0.748046875,-5.92041015625,-1.40380859375,1.52587890625,12.041015625,40.8251953125,49.383544921875
1758184560.468254,-0.64501953125,0.15478515625,0.748046875,-5.92041015625,-1.40380859375,1.52587890625,11.9915771484375,40.8087158203125,49.4000244140625
1758184560.479456,-0.646484375,0.16064453125,0.74267578125,-7.50732421875,-1.220703125,1.64794921875,11.93115234375,40.792236328125,49.41650390625
1758184560.4883013,-0.646484375,0.16064453125,0.74267578125,-7.50732421875,-1.220703125,1.64794921875,11.8707275390625,40.7757568359375,49.4329833984375
1758184560.4989717,-0.6572265625,0.17236328125,0.74267578125,-8.48388671875,-0.91552734375,1.5869140625,11.79931640625,40.75927734375,49.4549560546875
1758184560.508343,-0.6630859375,0.16064453125,0.734375,-8.6669921875,-0.48828125,1.46484375,11.7279052734375,40.748291015625,49.471435546875
1758184560.5185506,-0.6630859375,0.16064453125,0.734375,-8.6669921875,-0.48828125,1.46484375,11.656494140625,40.7427978515625,49.4879150390625
1758184560.5283651,-0.66064453125,0.150390625,0.73974609375,-8.1787109375,-0.30517578125,1.15966796875,11.590576171875,40.7318115234375,49.4989013671875
1758184560.538479,-0.66064453125,0.150390625,0.73974609375,-8.1787109375,-0.30517578125,1.15966796875,11.5191650390625,40.726318359375,49.5098876953125
1758184560.5552056,-0.65283203125,0.15234375,0.734375,-8.056640625,-0.3662109375,0.91552734375,11.4532470703125,40.726318359375,49.5208740234375
1758184560.5619602,-0.65283203125,0.15234375,0.734375,-8.056640625,-0.3662109375,0.91552734375,11.3818359375,40.7208251953125,49.5318603515625
1758184560.5683444,-0.65283203125,0.150390625,0.73974609375,-6.65283203125,-0.54931640625,0.3662109375,11.31591796875,40.71533203125,49.5318603515625
1758184560.5784376,-0.65283203125,0.150390625,0.73974609375,-6.65283203125,-0.54931640625,0.3662109375,11.2554931640625,40.7098388671875,49.5318603515625
1758184560.5886025,-0.6484375,0.15087890625,0.75244140625,-4.33349609375,-0.732421875,0.30517578125,11.2115478515625,40.704345703125,49.5318603515625
1758184560.5984197,-0.6484375,0.15087890625,0.75244140625,-4.33349609375,-0.732421875,0.30517578125,11.173095703125,40.693359375,49.5318603515625
1758184560.6083908,-0.64697265625,0.138671875,0.74267578125,-3.2958984375,-0.91552734375,0.18310546875,11.14013671875,40.6878662109375,49.5318603515625
1758184560.618933,-0.64697265625,0.138671875,0.74267578125,-3.2958984375,-0.91552734375,0.18310546875,11.107177734375,40.6768798828125,49.5263671875
1758184560.6283646,-0.64453125,0.14599609375,0.7392578125,-3.5400390625,-1.220703125,-0.06103515625,11.07421875,40.6658935546875,49.5263671875
1758184560.638685,-0.64453125,0.14599609375,0.7392578125,-3.5400390625,-1.220703125,-0.06103515625,11.041259765625,40.6549072265625,49.5208740234375
1758184560.6489463,-0.64501953125,0.15673828125,0.74951171875,-5.4931640625,-1.46484375,-0.06103515625,10.997314453125,40.6439208984375,49.515380859375
1758184560.6586807,-0.64501953125,0.15673828125,0.74951171875,-5.4931640625,-1.46484375,-0.06103515625,10.9423828125,40.62744140625,49.5098876953125
1758184560.6684206,-0.6416015625,0.1455078125,0.75537109375,-6.2255859375,-1.708984375,0.0,10.887451171875,40.6109619140625,49.50439453125
1758184560.6784692,-0.6416015625,0.1455078125,0.75537109375,-6.2255859375,-1.708984375,0.0,10.8270263671875,40.594482421875,49.4989013671875
1758184560.6889384,-0.64111328125,0.130859375,0.7470703125,-3.60107421875,-1.8310546875,-0.244140625,10.777587890625,40.5780029296875,49.493408203125
1758184560.698495,-0.64111328125,0.130859375,0.7470703125,-3.60107421875,-1.8310546875,-0.244140625,10.7391357421875,40.5560302734375,49.482421875
1758184560.7085307,-0.6513671875,0.13720703125,0.74951171875,-1.953125,-1.89208984375,-0.48828125,10.7061767578125,40.53955078125,49.471435546875
1758184560.7189775,-0.6513671875,0.13720703125,0.74951171875,-1.953125,-1.89208984375,-0.48828125,10.6842041015625,40.5230712890625,49.4549560546875
1758184560.7293057,-0.65625,0.14404296875,0.7451171875,-2.5634765625,-1.77001953125,-0.6103515625,10.65673828125,40.5010986328125,49.4439697265625
1758184560.7385364,-0.65625,0.14404296875,0.7451171875,-2.5634765625,-1.77001953125,-0.6103515625,10.623779296875,40.484619140625,49.427490234375
1758184560.7488246,-0.658203125,0.15283203125,0.74658203125,-3.90625,-1.52587890625,-0.8544921875,10.5853271484375,40.4736328125,49.4110107421875
1758184560.7589755,-0.658203125,0.15283203125,0.74658203125,-3.90625,-1.52587890625,-0.8544921875,10.5413818359375,40.4571533203125,49.39453125
1758184560.7688801,-0.65625,0.1455078125,0.74755859375,-4.7607421875,-1.40380859375,-0.9765625,10.491943359375,40.4461669921875,49.3780517578125
1758184560.7785504,-0.65625,0.1455078125,0.74755859375,-4.7607421875,-1.40380859375,-0.9765625,10.43701171875,40.4351806640625,49.3560791015625
1758184560.7899992,-0.65478515625,0.1357421875,0.7470703125,-5.18798828125,-1.28173828125,-1.0986328125,10.382080078125,40.4241943359375,49.3341064453125
1758184560.7985184,-0.65478515625,0.1357421875,0.7470703125,-5.18798828125,-1.28173828125,-1.0986328125,10.3216552734375,40.418701171875,49.317626953125
1758184560.8089767,-0.66162109375,0.123046875,0.74169921875,-3.23486328125,-1.03759765625,-1.220703125,10.272216796875,40.40771484375,49.295654296875
1758184560.8189566,-0.66162109375,0.123046875,0.74169921875,-3.23486328125,-1.03759765625,-1.220703125,10.228271484375,40.4022216796875,49.273681640625
1758184560.829179,-0.66064453125,0.12890625,0.7392578125,-2.25830078125,-0.67138671875,-1.40380859375,10.1898193359375,40.396728515625,49.251708984375
1758184560.8386934,-0.66064453125,0.12890625,0.7392578125,-2.25830078125,-0.67138671875,-1.40380859375,10.162353515625,40.396728515625,49.2242431640625
1758184560.8505113,-0.6591796875,0.13232421875,0.73974609375,-0.732421875,-0.54931640625,-1.52587890625,10.1348876953125,40.396728515625,49.2022705078125
1758184560.8589113,-0.6591796875,0.13232421875,0.73974609375,-0.732421875,-0.54931640625,-1.52587890625,10.1129150390625,40.396728515625,49.1748046875
1758184560.869303,-0.64794921875,0.13818359375,0.7490234375,0.0,-0.6103515625,-1.5869140625,10.1019287109375,40.396728515625,49.1473388671875
1758184560.8840485,-0.64794921875,0.13818359375,0.7490234375,0.0,-0.6103515625,-1.5869140625,10.08544921875,40.396728515625,49.119873046875
1758184560.8952677,-0.64111328125,0.1337890625,0.7490234375,-1.0986328125,-0.732421875,-1.3427734375,10.0689697265625,40.396728515625,49.0924072265625
1758184560.9013326,-0.64111328125,0.1337890625,0.7490234375,-1.0986328125,-0.732421875,-1.3427734375,10.052490234375,40.3912353515625,49.06494140625
1758184560.9096863,-0.64990234375,0.12890625,0.75390625,-4.0283203125,-0.79345703125,-1.15966796875,10.0140380859375,40.3912353515625,49.04296875
1758184560.919004,-0.64990234375,0.12890625,0.75390625,-4.0283203125,-0.79345703125,-1.15966796875,9.964599609375,40.3857421875,49.02099609375
1758184560.9286954,-0.6513671875,0.12255859375,0.74755859375,-3.5400390625,-0.30517578125,-1.28173828125,9.920654296875,40.3802490234375,48.9935302734375
1758184560.9392848,-0.6513671875,0.12255859375,0.74755859375,-3.5400390625,-0.30517578125,-1.28173828125,9.8712158203125,40.3857421875,48.9715576171875
1758184560.9501646,-0.654296875,0.12353515625,0.74951171875,0.8544921875,0.06103515625,-1.46484375,9.8492431640625,40.3857421875,48.9495849609375
1758184560.9587789,-0.654296875,0.12353515625,0.74951171875,0.8544921875,0.06103515625,-1.46484375,9.8492431640625,40.3912353515625,48.922119140625
1758184560.9687839,-0.64306640625,0.1240234375,0.7509765625,4.638671875,0.18310546875,-1.5869140625,9.8602294921875,40.396728515625,48.8946533203125
1758184560.979027,-0.64306640625,0.1240234375,0.7509765625,4.638671875,0.18310546875,-1.5869140625,9.8931884765625,40.4022216796875,48.8726806640625
1758184560.9888008,-0.63330078125,0.13427734375,0.7578125,3.23486328125,0.1220703125,-1.40380859375,9.920654296875,40.40771484375,48.84521484375
1758184560.99893,-0.63330078125,0.13427734375,0.7578125,3.23486328125,0.1220703125,-1.40380859375,9.942626953125,40.4132080078125,48.8232421875
1758184561.009042,-0.63134765625,0.13037109375,0.75634765625,-0.54931640625,-0.06103515625,-1.03759765625,9.9481201171875,40.4132080078125,48.80126953125
1758184561.0207338,-0.63134765625,0.13037109375,0.75634765625,-0.54931640625,-0.06103515625,-1.03759765625,9.931640625,40.4132080078125,48.7847900390625
1758184561.028839,-0.6396484375,0.12255859375,0.76220703125,-1.03759765625,-0.18310546875,-0.8544921875,9.9151611328125,40.4132080078125,48.768310546875
1758184561.0395062,-0.6396484375,0.12255859375,0.76220703125,-1.03759765625,-0.18310546875,-0.8544921875,9.8931884765625,40.40771484375,48.75732421875
1758184561.050179,-0.64208984375,0.11328125,0.751953125,1.77001953125,0.06103515625,-0.8544921875,9.8931884765625,40.40771484375,48.7408447265625
1758184561.0590858,-0.64208984375,0.11328125,0.751953125,1.77001953125,0.06103515625,-0.8544921875,9.898681640625,40.40771484375,48.7298583984375
1758184561.0688298,-0.64208984375,0.1201171875,0.7529296875,5.18798828125,0.18310546875,-0.9765625,9.9261474609375,40.4132080078125,48.7188720703125
1758184561.0792687,-0.64208984375,0.1201171875,0.7529296875,5.18798828125,0.18310546875,-0.9765625,9.964599609375,40.4132080078125,48.702392578125
1758184561.0892186,-0.63427734375,0.13720703125,0.75341796875,4.82177734375,0.244140625,-1.15966796875,10.0030517578125,40.4132080078125,48.6859130859375
1758184561.0990648,-0.63427734375,0.13720703125,0.75341796875,4.82177734375,0.244140625,-1.15966796875,10.04150390625,40.418701171875,48.66943359375
1758184561.1089728,-0.63330078125,0.1416015625,0.7587890625,3.5400390625,0.18310546875,-1.15966796875,10.0689697265625,40.418701171875,48.6529541015625
1758184561.119301,-0.63330078125,0.1416015625,0.7587890625,3.5400390625,0.18310546875,-1.15966796875,10.0909423828125,40.418701171875,48.636474609375
1758184561.1289694,-0.63330078125,0.1416015625,0.7587890625,3.11279296875,0.1220703125,-1.0986328125,10.1129150390625,40.418701171875,48.6199951171875
1758184561.1389377,-0.626953125,0.1318359375,0.7626953125,3.11279296875,0.1220703125,-1.0986328125,10.1348876953125,40.418701171875,48.603515625
1758184561.1496704,-0.63330078125,0.126953125,0.77587890625,3.662109375,0.0,-1.03759765625,10.1568603515625,40.418701171875,48.592529296875
1758184561.1592817,-0.63330078125,0.126953125,0.77587890625,3.662109375,0.0,-1.03759765625,10.184326171875,40.4132080078125,48.5760498046875
1758184561.1690547,-0.634765625,0.12890625,0.75634765625,4.08935546875,0.18310546875,-1.220703125,10.2117919921875,40.4132080078125,48.5595703125
1758184561.1812012,-0.634765625,0.12890625,0.75634765625,4.08935546875,0.18310546875,-1.220703125,10.2392578125,40.4132080078125,48.548583984375
1758184561.1915877,-0.63232421875,0.1396484375,0.7587890625,4.94384765625,0.06103515625,-1.64794921875,10.2667236328125,40.40771484375,48.526611328125
1758184561.1989777,-0.63232421875,0.1396484375,0.7587890625,4.94384765625,0.06103515625,-1.64794921875,10.2996826171875,40.40771484375,48.5101318359375
1758184561.2092078,-0.634765625,0.14501953125,0.763671875,4.7607421875,-0.1220703125,-1.708984375,10.3326416015625,40.40771484375,48.4881591796875
1758184561.2203472,-0.634765625,0.14501953125,0.763671875,4.7607421875,-0.1220703125,-1.708984375,10.360107421875,40.4022216796875,48.4661865234375
1758184561.2290952,-0.6416015625,0.13623046875,0.75537109375,4.82177734375,-0.3662109375,-1.89208984375,10.39306640625,40.396728515625,48.4442138671875
1758184561.2398722,-0.6416015625,0.13623046875,0.75537109375,4.82177734375,-0.3662109375,-1.89208984375,10.4205322265625,40.3912353515625,48.416748046875
1758184561.2498877,-0.64794921875,0.13623046875,0.74951171875,4.5166015625,-0.48828125,-2.13623046875,10.447998046875,40.3857421875,48.3892822265625
1758184561.259602,-0.64794921875,0.13623046875,0.74951171875,4.5166015625,-0.48828125,-2.13623046875,10.469970703125,40.3802490234375,48.36181640625
1758184561.2691317,-0.6533203125,0.13623046875,0.748046875,3.41796875,-0.48828125,-2.25830078125,10.491943359375,40.374755859375,48.3343505859375
1758184561.2802806,-0.6533203125,0.13623046875,0.748046875,3.41796875,-0.48828125,-2.25830078125,10.5029296875,40.374755859375,48.3013916015625
1758184561.2891717,-0.6484375,0.1416015625,0.74609375,4.21142578125,-0.48828125,-2.62451171875,10.5194091796875,40.3692626953125,48.2684326171875
1758184561.2999637,-0.6484375,0.1416015625,0.74609375,4.21142578125,-0.48828125,-2.62451171875,10.535888671875,40.36376953125,48.2354736328125
1758184561.3091285,-0.640625,0.14111328125,0.75048828125,6.4697265625,-0.6103515625,-2.8076171875,10.5633544921875,40.36376953125,48.197021484375
1758184561.3206472,-0.640625,0.14111328125,0.75048828125,6.4697265625,-0.6103515625,-2.8076171875,10.601806640625,40.3582763671875,48.1585693359375
1758184561.329205,-0.6318359375,0.14013671875,0.76171875,7.01904296875,-0.8544921875,-2.74658203125,10.6402587890625,40.3582763671875,48.1201171875
1758184561.3398747,-0.6318359375,0.14013671875,0.76171875,7.01904296875,-0.8544921875,-2.74658203125,10.6842041015625,40.352783203125,48.0816650390625
1758184561.3500774,-0.6376953125,0.13720703125,0.76220703125,4.150390625,-1.0986328125,-2.5634765625,10.7171630859375,40.341796875,48.043212890625
1758184561.3592463,-0.6376953125,0.13720703125,0.76220703125,4.150390625,-1.0986328125,-2.5634765625,10.733642578125,40.330810546875,48.01025390625
1758184561.3692775,-0.6396484375,0.13671875,0.73974609375,3.0517578125,-1.220703125,-2.50244140625,10.74462890625,40.3253173828125,47.9718017578125
1758184561.3796268,-0.6396484375,0.13671875,0.73974609375,3.0517578125,-1.220703125,-2.50244140625,10.7501220703125,40.3143310546875,47.9388427734375
1758184561.3893278,-0.642578125,0.1435546875,0.74658203125,3.47900390625,-1.220703125,-2.50244140625,10.755615234375,40.3033447265625,47.900390625
1758184561.399757,-0.642578125,0.1435546875,0.74658203125,3.47900390625,-1.220703125,-2.50244140625,10.7666015625,40.2923583984375,47.867431640625
1758184561.4093268,-0.63427734375,0.1455078125,0.75439453125,4.33349609375,-1.40380859375,-2.5634765625,10.777587890625,40.2813720703125,47.8289794921875
1758184561.4196663,-0.63427734375,0.1455078125,0.75439453125,4.33349609375,-1.40380859375,-2.5634765625,10.7940673828125,40.2703857421875,47.79052734375
1758184561.4293368,-0.6318359375,0.1474609375,0.77001953125,3.35693359375,-1.5869140625,-2.3193359375,10.810546875,40.2593994140625,47.7520751953125
1758184561.439568,-0.6318359375,0.1474609375,0.77001953125,3.35693359375,-1.5869140625,-2.3193359375,10.821533203125,40.2484130859375,47.7191162109375
1758184561.4501631,-0.630859375,0.13671875,0.75146484375,0.48828125,-1.708984375,-2.197265625,10.8160400390625,40.23193359375,47.6861572265625
1758184561.4593337,-0.630859375,0.13671875,0.75146484375,0.48828125,-1.708984375,-2.197265625,10.799560546875,40.2154541015625,47.6531982421875
1758184561.4693782,-0.63134765625,0.13525390625,0.7509765625,1.40380859375,-1.89208984375,-2.44140625,10.7830810546875,40.198974609375,47.61474609375
1758184561.4797812,-0.63134765625,0.13525390625,0.7509765625,1.40380859375,-1.89208984375,-2.44140625,10.7720947265625,40.1824951171875,47.5762939453125
1758184561.4894102,-0.6328125,0.13720703125,0.75732421875,4.33349609375,-2.13623046875,-2.74658203125,10.777587890625,40.1605224609375,47.537841796875
1758184561.4999244,-0.6328125,0.13720703125,0.75732421875,4.33349609375,-2.13623046875,-2.74658203125,10.7940673828125,40.14404296875,47.493896484375
1758184561.5096953,-0.62548828125,0.14794921875,0.7705078125,6.103515625,-2.50244140625,-2.5634765625,10.8160400390625,40.1220703125,47.4554443359375
1758184561.5198238,-0.62548828125,0.14794921875,0.7705078125,6.103515625,-2.50244140625,-2.5634765625,10.8489990234375,40.10009765625,47.4114990234375
1758184561.5294847,-0.61279296875,0.15234375,0.775390625,2.685546875,-3.0517578125,-2.0751953125,10.8709716796875,40.0726318359375,47.3785400390625
1758184561.5397134,-0.61279296875,0.15234375,0.775390625,2.685546875,-3.0517578125,-2.0751953125,10.8709716796875,40.0396728515625,47.3455810546875
1758184561.5502746,-0.61767578125,0.14013671875,0.7744140625,0.244140625,-3.662109375,-1.708984375,10.8544921875,40.001220703125,47.3126220703125
1758184561.5596795,-0.61767578125,0.14013671875,0.7744140625,0.244140625,-3.662109375,-1.708984375,10.83251953125,39.9627685546875,47.28515625
1758184561.5694895,-0.62744140625,0.13916015625,0.7578125,-0.1220703125,-4.21142578125,-1.28173828125,10.810546875,39.9188232421875,47.2576904296875
