timestamp,acc_x,acc_y,acc_z,gyro_x,gyro_y,gyro_z,angle_x,angle_y,angle_z
1758877639.0151024,-0.70654296875,0.00341796875,0.7060546875,-1.03759765625,-2.62451171875,1.220703125,0.1153564453125,44.912109375,-78.33251953125
1758877639.0235496,-0.70654296875,0.00341796875,0.7060546875,-1.03759765625,-2.62451171875,1.220703125,0.1153564453125,44.8846435546875,-78.3160400390625
1758877639.0339046,-0.7109375,0.00732421875,0.70068359375,-0.244140625,-2.74658203125,0.9765625,0.120849609375,44.857177734375,-78.3050537109375
1758877639.043484,-0.7109375,0.00732421875,0.70068359375,-0.244140625,-2.74658203125,0.9765625,0.1318359375,44.835205078125,-78.2940673828125
1758877639.0548394,-0.716796875,0.00830078125,0.69580078125,-0.42724609375,-2.74658203125,0.79345703125,0.1373291015625,44.8077392578125,-78.2830810546875
1758877639.0636735,-0.716796875,0.00830078125,0.69580078125,-0.42724609375,-2.74658203125,0.79345703125,0.142822265625,44.7802734375,-78.2720947265625
1758877639.074689,-0.724609375,0.00341796875,0.6923828125,-1.03759765625,-2.38037109375,0.91552734375,0.142822265625,44.75830078125,-78.2611083984375
1758877639.0839918,-0.724609375,0.00341796875,0.6923828125,-1.03759765625,-2.38037109375,0.91552734375,0.142822265625,44.736328125,-78.2501220703125
1758877639.0936477,-0.72265625,-0.001953125,0.68701171875,-1.46484375,-1.953125,1.0986328125,0.142822265625,44.7198486328125,-78.233642578125
1758877639.1034217,-0.72265625,-0.001953125,0.68701171875,-1.46484375,-1.953125,1.0986328125,0.1373291015625,44.703369140625,-78.22265625
1758877639.1124227,-0.71435546875,0.00048828125,0.701171875,-0.67138671875,-1.40380859375,0.91552734375,0.1373291015625,44.6923828125,-78.211669921875
1758877639.1223853,-0.71435546875,0.00048828125,0.701171875,-0.67138671875,-1.40380859375,0.91552734375,0.142822265625,44.681396484375,-78.20068359375
1758877639.1324203,-0.70166015625,0.01171875,0.72021484375,0.244140625,-0.91552734375,0.54931640625,0.1483154296875,44.6759033203125,-78.189697265625
1758877639.1424024,-0.70166015625,0.01171875,0.72021484375,0.244140625,-0.91552734375,0.54931640625,0.1593017578125,44.67041015625,-78.1842041015625
1758877639.1524823,-0.68798828125,0.01220703125,0.72119140625,0.0,-0.67138671875,0.18310546875,0.164794921875,44.6649169921875,-78.1787109375
1758877639.162696,-0.68798828125,0.01220703125,0.72119140625,0.0,-0.67138671875,0.18310546875,0.164794921875,44.6649169921875,-78.1787109375
1758877639.172472,-0.6845703125,0.0078125,0.73095703125,-0.6103515625,-0.48828125,0.0,0.164794921875,44.659423828125,-78.1732177734375
1758877639.1830037,-0.6845703125,0.0078125,0.73095703125,-0.6103515625,-0.48828125,0.0,0.164794921875,44.6539306640625,-78.1732177734375
1758877639.1926367,-0.685546875,-0.0048828125,0.72900390625,-0.54931640625,-0.42724609375,0.18310546875,0.1593017578125,44.6484375,-78.1732177734375
1758877639.2026086,-0.685546875,-0.0048828125,0.72900390625,-0.54931640625,-0.42724609375,0.18310546875,0.1593017578125,44.6429443359375,-78.167724609375
1758877639.2125034,-0.68603515625,-0.0087890625,0.72119140625,0.3662109375,-0.42724609375,0.48828125,0.1593017578125,44.637451171875,-78.167724609375
1758877639.2224867,-0.68603515625,-0.0087890625,0.72119140625,0.3662109375,-0.42724609375,0.48828125,0.1702880859375,44.6319580078125,-78.1622314453125
1758877639.2325284,-0.68896484375,-0.00244140625,0.72509765625,1.15966796875,-0.3662109375,0.79345703125,0.1812744140625,44.62646484375,-78.1512451171875
1758877639.242512,-0.68896484375,-0.00244140625,0.72509765625,1.15966796875,-0.3662109375,0.79345703125,0.2032470703125,44.6209716796875,-78.145751953125
1758877639.2525337,-0.6796875,0.0078125,0.73193359375,1.3427734375,-0.244140625,1.03759765625,0.2197265625,44.615478515625,-78.134765625
1758877639.2625444,-0.6796875,0.0078125,0.73193359375,1.3427734375,-0.244140625,1.03759765625,0.2471923828125,44.6044921875,-78.123779296875
1758877639.2725608,-0.681640625,0.0029296875,0.74072265625,0.3662109375,0.0,1.52587890625,0.263671875,44.5989990234375,-78.1072998046875
1758877639.2825928,-0.681640625,0.0029296875,0.74072265625,0.3662109375,0.0,1.52587890625,0.28564453125,44.593505859375,-78.0853271484375
1758877639.2925737,-0.66552734375,-0.00439453125,0.740234375,1.28173828125,0.0,1.40380859375,0.3076171875,44.5880126953125,-78.06884765625
1758877639.302573,-0.66552734375,-0.00439453125,0.740234375,1.28173828125,0.0,1.40380859375,0.32958984375,44.58251953125,-78.0523681640625
1758877639.3126094,-0.6513671875,0.0009765625,0.7548828125,3.5400390625,-0.3662109375,1.15966796875,0.3680419921875,44.571533203125,-78.0413818359375
1758877639.322612,-0.6513671875,0.0009765625,0.7548828125,3.5400390625,-0.3662109375,1.15966796875,0.4119873046875,44.560546875,-78.02490234375
1758877639.3326213,-0.64697265625,0.01513671875,0.77880859375,3.5400390625,-1.03759765625,1.0986328125,0.4559326171875,44.5440673828125,-78.013916015625
1758877639.3426223,-0.64697265625,0.01513671875,0.77880859375,3.5400390625,-1.03759765625,1.0986328125,0.4998779296875,44.5220947265625,-78.0029296875
1758877639.3526342,-0.64599609375,0.02197265625,0.77197265625,1.708984375,-1.8310546875,1.220703125,0.538330078125,44.4891357421875,-77.9864501953125
1758877639.3626523,-0.64599609375,0.02197265625,0.77197265625,1.708984375,-1.8310546875,1.220703125,0.5657958984375,44.4561767578125,-77.969970703125
1758877639.3726616,-0.65185546875,0.009765625,0.76416015625,-1.220703125,-2.5634765625,1.89208984375,0.582275390625,44.417724609375,-77.947998046875
1758877639.3826866,-0.65185546875,0.009765625,0.76416015625,-1.220703125,-2.5634765625,1.89208984375,0.5877685546875,44.3792724609375,-77.926025390625
1758877639.3926878,-0.67578125,0.00146484375,0.7734375,-4.82177734375,-3.0517578125,2.50244140625,0.560302734375,44.329833984375,-77.89306640625
1758877639.4027066,-0.67578125,0.00146484375,0.7734375,-4.82177734375,-3.0517578125,2.50244140625,0.538330078125,44.285888671875,-77.8546142578125
1758877639.4127269,-0.67578125,0.00048828125,0.75537109375,-3.662109375,-3.5400390625,3.23486328125,0.5328369140625,44.23095703125,-77.8106689453125
1758877639.422754,-0.67578125,0.00048828125,0.75537109375,-3.662109375,-3.5400390625,3.23486328125,0.52734375,44.1815185546875,-77.772216796875
1758877639.4327223,-0.673828125,-0.02783203125,0.73828125,-1.220703125,-3.90625,3.23486328125,0.5438232421875,44.1265869140625,-77.728271484375
1758877639.44274,-0.673828125,-0.02783203125,0.73828125,-1.220703125,-3.90625,3.23486328125,0.560302734375,44.0716552734375,-77.6898193359375
1758877639.4527538,-0.72119140625,0.01416015625,0.7294921875,0.3662109375,-3.96728515625,3.72314453125,0.59326171875,44.022216796875,-77.6458740234375
1758877639.4627693,-0.72119140625,0.01416015625,0.7294921875,0.3662109375,-3.96728515625,3.72314453125,0.6317138671875,43.96728515625,-77.6019287109375
1758877639.4727929,-0.7001953125,0.0234375,0.759765625,2.25830078125,-4.82177734375,4.45556640625,0.692138671875,43.912353515625,-77.5469970703125
1758877639.4827926,-0.7001953125,0.0234375,0.759765625,2.25830078125,-4.82177734375,4.45556640625,0.7525634765625,43.8519287109375,-77.486572265625
1758877639.4928093,-0.7119140625,0.0234375,0.71484375,-8.36181640625,-4.45556640625,5.615234375,0.72509765625,43.802490234375,-77.4151611328125
1758877639.5028253,-0.7119140625,0.0234375,0.71484375,-8.36181640625,-4.45556640625,5.615234375,0.692138671875,43.74755859375,-77.34375
1758877639.5128608,-0.701171875,0.01708984375,0.7119140625,-13.5498046875,-4.150390625,6.591796875,0.6207275390625,43.70361328125,-77.255859375
1758877639.522841,-0.701171875,0.01708984375,0.7119140625,-13.5498046875,-4.150390625,6.591796875,0.54931640625,43.6541748046875,-77.16796875
1758877639.5328739,-0.69677734375,-0.00732421875,0.68603515625,-12.75634765625,-3.41796875,7.32421875,0.494384765625,43.6212158203125,-77.0745849609375
1758877639.5428882,-0.69677734375,-0.00732421875,0.68603515625,-12.75634765625,-3.41796875,7.32421875,0.4339599609375,43.582763671875,-76.9757080078125
1758877639.5528998,-0.6865234375,-0.0068359375,0.70458984375,-11.90185546875,-2.8076171875,7.75146484375,0.3900146484375,43.5552978515625,-76.8768310546875
1758877639.5629022,-0.6865234375,-0.0068359375,0.70458984375,-11.90185546875,-2.8076171875,7.75146484375,0.3460693359375,43.52783203125,-76.7779541015625
1758877639.5729399,-0.6943359375,-0.0068359375,0.71826171875,-11.3525390625,-2.44140625,8.544921875,0.3131103515625,43.505859375,-76.66259765625
1758877639.5829253,-0.6943359375,-0.0068359375,0.71826171875,-11.3525390625,-2.44140625,8.544921875,0.2801513671875,43.48388671875,-76.5582275390625
1758877639.592979,-0.693359375,-0.0048828125,0.71484375,-8.60595703125,-2.685546875,9.09423828125,0.2801513671875,43.4564208984375,-76.4373779296875
1758877639.6031184,-0.693359375,-0.0048828125,0.71484375,-8.60595703125,-2.685546875,9.09423828125,0.2801513671875,43.428955078125,-76.322021484375
1758877639.6136415,-0.68994140625,-0.009765625,0.69384765625,-4.8828125,-2.86865234375,9.46044921875,0.318603515625,43.406982421875,-76.2066650390625
1758877639.6230338,-0.68994140625,-0.009765625,0.69384765625,-4.8828125,-2.86865234375,9.46044921875,0.3570556640625,43.3795166015625,-76.0858154296875
1758877639.633061,-0.68505859375,0.00146484375,0.70068359375,-5.55419921875,-3.2958984375,9.82666015625,0.3900146484375,43.35205078125,-75.95947265625
1758877639.6431181,-0.68505859375,0.00146484375,0.70068359375,-5.55419921875,-3.2958984375,9.82666015625,0.4229736328125,43.319091796875,-75.838623046875
1758877639.6530757,-0.68212890625,0.0078125,0.71044921875,-4.2724609375,-2.99072265625,10.3759765625,0.4779052734375,43.2916259765625,-75.706787109375
1758877639.6630983,-0.68212890625,0.0078125,0.71044921875,-4.2724609375,-2.99072265625,10.3759765625,0.52734375,43.2696533203125,-75.5804443359375
1758877639.673119,-0.6875,0.00927734375,0.72412109375,-4.82177734375,-2.50244140625,10.7421875,0.5767822265625,43.2476806640625,-75.443115234375
1758877639.6830676,-0.6875,0.00927734375,0.72412109375,-4.82177734375,-2.50244140625,10.7421875,0.626220703125,43.2257080078125,-75.3057861328125
1758877639.6931283,-0.6875,0.00927734375,0.72412109375,-7.14111328125,-2.44140625,11.1083984375,0.6591796875,43.2037353515625,-75.16845703125
1758877639.7031052,-0.68017578125,0.0087890625,0.73583984375,-7.14111328125,-2.44140625,11.1083984375,0.6866455078125,43.1817626953125,-75.0311279296875
1758877639.7132735,-0.68115234375,0.017578125,0.7392578125,-8.72802734375,-2.197265625,11.29150390625,0.703125,43.1597900390625,-74.8883056640625
1758877639.7231653,-0.68115234375,0.017578125,0.7392578125,-8.72802734375,-2.197265625,11.29150390625,0.72509765625,43.1378173828125,-74.7454833984375
1758877639.7331572,-0.68505859375,0.02197265625,0.73046875,-10.19287109375,-2.13623046875,10.92529296875,0.7196044921875,43.1158447265625,-74.608154296875
1758877639.7432115,-0.68505859375,0.02197265625,0.73046875,-10.19287109375,-2.13623046875,10.92529296875,0.7196044921875,43.099365234375,-74.4708251953125
1758877639.753218,-0.69140625,0.02294921875,0.7314453125,-10.92529296875,-2.01416015625,10.68115234375,0.714111328125,43.077392578125,-74.33349609375
1758877639.7632003,-0.69140625,0.02294921875,0.7314453125,-10.92529296875,-2.01416015625,10.68115234375,0.703125,43.0609130859375,-74.1961669921875
1758877639.773471,-0.69091796875,0.0166015625,0.720703125,-9.765625,-1.708984375,10.31494140625,0.703125,43.04443359375,-74.06982421875
1758877639.783498,-0.69091796875,0.0166015625,0.720703125,-9.765625,-1.708984375,10.31494140625,0.703125,43.0279541015625,-73.93798828125
1758877639.7932227,-0.68798828125,0.00927734375,0.703125,-8.1787109375,-1.52587890625,10.07080078125,0.7196044921875,43.011474609375,-73.8116455078125
1758877639.8032253,-0.68798828125,0.00927734375,0.703125,-8.1787109375,-1.52587890625,10.07080078125,0.7305908203125,43.00048828125,-73.685302734375
1758877639.8136406,-0.69140625,0.0146484375,0.71826171875,-7.62939453125,-1.15966796875,9.70458984375,0.7470703125,42.9949951171875,-73.564453125
1758877639.8233526,-0.69140625,0.0146484375,0.71826171875,-7.62939453125,-1.15966796875,9.70458984375,0.7635498046875,42.9840087890625,-73.4381103515625
1758877639.833266,-0.69580078125,0.0185546875,0.71337890625,-8.6669921875,-0.79345703125,9.3994140625,0.7635498046875,42.978515625,-73.32275390625
1758877639.8433118,-0.69580078125,0.0185546875,0.71337890625,-8.6669921875,-0.79345703125,9.3994140625,0.76904296875,42.9730224609375,-73.2073974609375
1758877639.8535707,-0.69970703125,0.0302734375,0.7177734375,-8.97216796875,-0.79345703125,9.033203125,0.7635498046875,42.9730224609375,-73.092041015625
1758877639.8636239,-0.69970703125,0.0302734375,0.7177734375,-8.97216796875,-0.79345703125,9.033203125,0.7635498046875,42.967529296875,-72.9766845703125
1758877639.8734543,-0.69580078125,0.0224609375,0.7158203125,-5.0048828125,-0.6103515625,8.544921875,0.7965087890625,42.967529296875,-72.872314453125
1758877639.8833401,-0.69580078125,0.0224609375,0.7158203125,-5.0048828125,-0.6103515625,8.544921875,0.8294677734375,42.9620361328125,-72.762451171875
1758877639.8937902,-0.6884765625,0.0126953125,0.71484375,-1.708984375,-0.67138671875,7.75146484375,0.8843994140625,42.9620361328125,-72.6690673828125
1758877639.9036102,-0.6884765625,0.0126953125,0.71484375,-1.708984375,-0.67138671875,7.75146484375,0.94482421875,42.9620361328125,-72.57568359375
1758877639.9137151,-0.6865234375,0.01904296875,0.72216796875,0.18310546875,-0.67138671875,7.01904296875,1.0162353515625,42.95654296875,-72.48779296875
1758877639.923356,-0.6865234375,0.01904296875,0.72216796875,0.18310546875,-0.67138671875,7.01904296875,1.0821533203125,42.95654296875,-72.4053955078125
1758877639.9334261,-0.68798828125,0.0244140625,0.720703125,0.6103515625,-0.6103515625,6.591796875,1.153564453125,42.9510498046875,-72.3284912109375
1758877639.9437976,-0.68798828125,0.0244140625,0.720703125,0.6103515625,-0.6103515625,6.591796875,1.219482421875,42.9510498046875,-72.24609375
1758877639.953463,-0.68310546875,0.02978515625,0.72509765625,-0.9765625,-0.6103515625,6.16455078125,1.2689208984375,42.9510498046875,-72.1746826171875
1758877639.9634473,-0.68310546875,0.02978515625,0.72509765625,-0.9765625,-0.6103515625,6.16455078125,1.318359375,42.945556640625,-72.103271484375
1758877639.9734883,-0.6748046875,0.02783203125,0.7255859375,-1.8310546875,-0.732421875,5.9814453125,1.3568115234375,42.9400634765625,-72.0318603515625
1758877639.9837842,-0.6748046875,0.02783203125,0.7255859375,-1.8310546875,-0.732421875,5.9814453125,1.4007568359375,42.9345703125,-71.96044921875
1758877639.9934452,-0.66064453125,0.02001953125,0.7451171875,-1.0986328125,-0.9765625,5.615234375,1.439208984375,42.9290771484375,-71.89453125
1758877640.0034244,-0.66064453125,0.02001953125,0.7451171875,-1.0986328125,-0.9765625,5.615234375,1.483154296875,42.9180908203125,-71.82861328125
1758877640.013598,-0.6494140625,0.0146484375,0.75537109375,1.52587890625,-1.03759765625,5.126953125,1.549072265625,42.9071044921875,-71.7681884765625
1758877640.023852,-0.6494140625,0.0146484375,0.75537109375,1.52587890625,-1.03759765625,5.126953125,1.6094970703125,42.8961181640625,-71.7132568359375
1758877640.033441,-0.6357421875,0.01318359375,0.76904296875,1.5869140625,-1.15966796875,4.638671875,1.669921875,42.879638671875,-71.6583251953125
1758877640.0434804,-0.6357421875,0.01318359375,0.76904296875,1.5869140625,-1.15966796875,4.638671875,1.724853515625,42.8631591796875,-71.60888671875
1758877640.0537374,-0.62939453125,0.0322265625,0.7939453125,2.50244140625,-1.15966796875,4.21142578125,1.7852783203125,42.8466796875,-71.56494140625
1758877640.0638323,-0.62939453125,0.0322265625,0.7939453125,2.50244140625,-1.15966796875,4.21142578125,1.8511962890625,42.82470703125,-71.52099609375
1758877640.0735824,-0.61279296875,0.0458984375,0.80615234375,1.77001953125,-1.220703125,4.0283203125,1.900634765625,42.802734375,-71.47705078125
1758877640.0835705,-0.61279296875,0.0458984375,0.80615234375,1.77001953125,-1.220703125,4.0283203125,1.95556640625,42.7752685546875,-71.43310546875
1758877640.0935957,-0.62744140625,0.04736328125,0.80712890625,-2.25830078125,-1.0986328125,4.33349609375,1.9720458984375,42.747802734375,-71.3836669921875
1758877640.103969,-0.62744140625,0.04736328125,0.80712890625,-2.25830078125,-1.0986328125,4.33349609375,1.9940185546875,42.7203369140625,-71.334228515625
1758877640.1136103,-0.6494140625,0.044921875,0.80126953125,-3.11279296875,-0.732421875,4.7607421875,2.0050048828125,42.69287109375,-71.2738037109375
1758877640.1236093,-0.6494140625,0.044921875,0.80126953125,-3.11279296875,-0.732421875,4.7607421875,2.021484375,42.6708984375,-71.2188720703125
1758877640.1339464,-0.6396484375,0.005859375,0.76611328125,0.6103515625,-0.3662109375,4.7607421875,2.0709228515625,42.64892578125,-71.1639404296875
1758877640.143628,-0.6396484375,0.005859375,0.76611328125,0.6103515625,-0.3662109375,4.7607421875,2.120361328125,42.626953125,-71.1090087890625
1758877640.1536593,-0.64599609375,-0.01513671875,0.72802734375,4.5166015625,0.244140625,4.5166015625,2.208251953125,42.6104736328125,-71.0595703125
1758877640.1636212,-0.64599609375,-0.01513671875,0.72802734375,4.5166015625,0.244140625,4.5166015625,2.2906494140625,42.593994140625,-71.015625
1758877640.174054,-0.65283203125,0.01025390625,0.7412109375,14.83154296875,0.9765625,4.39453125,2.471923828125,42.5885009765625,-70.9716796875
1758877640.183639,-0.65283203125,0.01025390625,0.7412109375,14.83154296875,0.9765625,4.39453125,2.6531982421875,42.5830078125,-70.9332275390625
1758877640.1936839,-0.6611328125,0.01806640625,0.74267578125,22.27783203125,1.89208984375,4.82177734375,2.911376953125,42.5885009765625,-70.8837890625
1758877640.2037234,-0.6611328125,0.01806640625,0.74267578125,22.27783203125,1.89208984375,4.82177734375,3.1640625,42.593994140625,-70.83984375
1758877640.2139697,-0.65771484375,0.0341796875,0.7236328125,22.4609375,2.13623046875,5.2490234375,3.427734375,42.5994873046875,-70.7904052734375
1758877640.2237368,-0.65771484375,0.0341796875,0.7236328125,22.4609375,2.13623046875,5.2490234375,3.69140625,42.6104736328125,-70.740966796875
1758877640.2337205,-0.65673828125,0.0546875,0.708984375,21.66748046875,2.3193359375,5.615234375,3.944091796875,42.6214599609375,-70.68603515625
1758877640.2441883,-0.65673828125,0.0546875,0.708984375,21.66748046875,2.3193359375,5.615234375,4.2022705078125,42.6324462890625,-70.6365966796875
1758877640.2538862,-0.66259765625,0.080078125,0.7119140625,15.625,1.708984375,6.04248046875,4.405517578125,42.637939453125,-70.576171875
1758877640.26377,-0.66259765625,0.080078125,0.7119140625,15.625,1.708984375,6.04248046875,4.603271484375,42.6434326171875,-70.5157470703125
1758877640.2737775,-0.70166015625,0.1044921875,0.7158203125,4.2724609375,1.64794921875,6.53076171875,4.7021484375,42.64892578125,-70.4443359375
1758877640.2840757,-0.70166015625,0.1044921875,0.7158203125,4.2724609375,1.64794921875,6.53076171875,4.7955322265625,42.6544189453125,-70.3729248046875
1758877640.29389,-0.69775390625,0.0966796875,0.7060546875,-1.953125,1.28173828125,6.7138671875,4.8394775390625,42.659912109375,-70.2960205078125
1758877640.3038542,-0.69775390625,0.0966796875,0.7060546875,-1.953125,1.28173828125,6.7138671875,4.8779296875,42.6654052734375,-70.2191162109375
1758877640.31389,-0.69677734375,0.07080078125,0.69580078125,-2.86865234375,1.40380859375,6.591796875,4.910888671875,42.6763916015625,-70.1422119140625
1758877640.3242693,-0.69677734375,0.07080078125,0.69580078125,-2.86865234375,1.40380859375,6.591796875,4.94384765625,42.681884765625,-70.07080078125
1758877640.3339753,-0.693359375,0.0546875,0.6953125,-2.5634765625,1.5869140625,6.103515625,4.9713134765625,42.6983642578125,-69.9993896484375
1758877640.3439016,-0.693359375,0.0546875,0.6953125,-2.5634765625,1.5869140625,6.103515625,5.0042724609375,42.7093505859375,-69.9334716796875
1758877640.353936,-0.6787109375,0.078125,0.6904296875,0.732421875,2.0751953125,5.4931640625,5.0592041015625,42.7313232421875,-69.873046875
1758877640.3643477,-0.6787109375,0.078125,0.6904296875,0.732421875,2.0751953125,5.4931640625,5.11962890625,42.7532958984375,-69.8126220703125
1758877640.373938,-0.67626953125,0.07763671875,0.728515625,3.72314453125,2.62451171875,5.0048828125,5.20751953125,42.7752685546875,-69.7576904296875
1758877640.3838887,-0.67626953125,0.07763671875,0.728515625,3.72314453125,2.62451171875,5.0048828125,5.2899169921875,42.802734375,-69.7027587890625
1758877640.3939483,-0.6640625,0.08544921875,0.73779296875,2.25830078125,3.0517578125,4.45556640625,5.3558349609375,42.8302001953125,-69.6533203125
1758877640.4041815,-0.64501953125,0.083984375,0.70361328125,2.8076171875,3.35693359375,3.7841796875,5.4217529296875,42.857666015625,-69.609375
1758877640.414234,-0.64501953125,0.083984375,0.70361328125,2.8076171875,3.35693359375,3.7841796875,5.4931640625,42.890625,-69.5709228515625
1758877640.4239972,-0.65771484375,0.0810546875,0.73046875,4.638671875,3.173828125,2.99072265625,5.5645751953125,42.9180908203125,-69.532470703125
1758877640.4339955,-0.65771484375,0.0810546875,0.73046875,4.638671875,3.173828125,2.99072265625,5.6414794921875,42.945556640625,-69.49951171875
1758877640.4443219,-0.67626953125,0.05908203125,0.7724609375,10.80322265625,2.685546875,2.01416015625,5.745849609375,42.9730224609375,-69.4775390625
1758877640.4542823,-0.67626953125,0.05908203125,0.7724609375,10.80322265625,2.685546875,2.01416015625,5.8721923828125,42.9949951171875,-69.4610595703125
1758877640.4640436,-0.69287109375,0.0234375,0.75537109375,21.66748046875,2.197265625,0.67138671875,6.0479736328125,43.0169677734375,-69.45556640625
1758877640.4740407,-0.69287109375,0.0234375,0.75537109375,21.66748046875,2.197265625,0.67138671875,6.26220703125,43.033447265625,-69.466552734375
1758877640.4849463,-0.68701171875,0.03173828125,0.69921875,35.400390625,1.64794921875,-0.91552734375,6.5423583984375,43.0499267578125,-69.488525390625
1758877640.494108,-0.68701171875,0.03173828125,0.69921875,35.400390625,1.64794921875,-0.91552734375,6.8719482421875,43.06640625,-69.5269775390625
1758877640.5042622,-0.7001953125,0.091796875,0.72802734375,39.1845703125,0.91552734375,-2.38037109375,7.218017578125,43.077392578125,-69.576416015625
1758877640.5143754,-0.7001953125,0.091796875,0.72802734375,39.1845703125,0.91552734375,-2.38037109375,7.569580078125,43.08837890625,-69.6368408203125
1758877640.524515,-0.6611328125,0.1572265625,0.677734375,34.60693359375,0.48828125,-3.23486328125,7.899169921875,43.099365234375,-69.7027587890625
1758877640.5342562,-0.6611328125,0.1572265625,0.677734375,34.60693359375,0.48828125,-3.23486328125,8.2012939453125,43.1103515625,-69.7686767578125
1758877640.5441582,-0.64208984375,0.16064453125,0.71533203125,26.91650390625,-0.3662109375,-3.7841796875,8.4649658203125,43.1158447265625,-69.840087890625
1758877640.5541694,-0.64208984375,0.16064453125,0.71533203125,26.91650390625,-0.3662109375,-3.7841796875,8.690185546875,43.1158447265625,-69.906005859375
1758877640.564912,-0.67919921875,0.15673828125,0.77783203125,17.9443359375,-1.28173828125,-3.84521484375,8.8714599609375,43.1103515625,-69.9774169921875
1758877640.5742083,-0.67919921875,0.15673828125,0.77783203125,17.9443359375,-1.28173828125,-3.84521484375,9.0087890625,43.1048583984375,-70.048828125
1758877640.5842028,-0.6806640625,0.14892578125,0.71728515625,8.97216796875,-1.5869140625,-3.90625,9.1021728515625,43.08837890625,-70.1202392578125
1758877640.5942326,-0.6806640625,0.14892578125,0.71728515625,8.97216796875,-1.5869140625,-3.90625,9.151611328125,43.077392578125,-70.1861572265625
1758877640.6042063,-0.6767578125,0.14306640625,0.69775390625,1.64794921875,-1.8310546875,-3.96728515625,9.16259765625,43.0609130859375,-70.257568359375
1758877640.6141987,-0.6767578125,0.14306640625,0.69775390625,1.64794921875,-1.8310546875,-3.96728515625,9.140625,43.0499267578125,-70.323486328125
1758877640.6242259,-0.68896484375,0.13720703125,0.71728515625,-0.06103515625,-2.01416015625,-4.08935546875,9.107666015625,43.033447265625,-70.389404296875
1758877640.634276,-0.68896484375,0.13720703125,0.71728515625,-0.06103515625,-2.01416015625,-4.08935546875,9.0692138671875,43.0169677734375,-70.4608154296875
1758877640.6448247,-0.72021484375,0.1171875,0.7275390625,3.47900390625,-1.77001953125,-3.90625,9.052734375,43.0059814453125,-70.5267333984375
1758877640.6542983,-0.72021484375,0.1171875,0.7275390625,3.47900390625,-1.77001953125,-3.90625,9.052734375,42.9949951171875,-70.5926513671875
1758877640.6643236,-0.73583984375,0.05908203125,0.7138671875,17.27294921875,-1.52587890625,-3.662109375,9.11865234375,42.9840087890625,-70.6585693359375
1758877640.6743515,-0.73583984375,0.05908203125,0.7138671875,17.27294921875,-1.52587890625,-3.662109375,9.2559814453125,42.978515625,-70.7244873046875
1758877640.6842928,-0.71142578125,0.05517578125,0.69287109375,25.146484375,-1.3427734375,-4.21142578125,9.42626953125,42.9730224609375,-70.7958984375
1758877640.6943307,-0.71142578125,0.05517578125,0.69287109375,25.146484375,-1.3427734375,-4.21142578125,9.6295166015625,42.9730224609375,-70.8782958984375
1758877640.7044787,-0.685546875,0.109375,0.71044921875,34.5458984375,-1.52587890625,-3.662109375,9.876708984375,42.9730224609375,-70.960693359375
1758877640.7144475,-0.685546875,0.109375,0.71044921875,34.5458984375,-1.52587890625,-3.662109375,10.17333984375,42.9730224609375,-71.03759765625
1758877640.7243428,-0.6865234375,0.13818359375,0.7265625,30.76171875,-1.3427734375,-2.62451171875,10.458984375,42.967529296875,-71.1090087890625
1758877640.734376,-0.6865234375,0.13818359375,0.7265625,30.76171875,-1.3427734375,-2.62451171875,10.7281494140625,42.967529296875,-71.1749267578125
1758877640.7443914,-0.689453125,0.2001953125,0.71728515625,18.98193359375,-1.40380859375,-1.3427734375,10.9423828125,42.9620361328125,-71.2298583984375
1758877640.754366,-0.689453125,0.2001953125,0.71728515625,18.98193359375,-1.40380859375,-1.3427734375,11.107177734375,42.95654296875,-71.2738037109375
1758877640.7643352,-0.716796875,0.20068359375,0.744140625,2.01416015625,-1.3427734375,0.48828125,11.2005615234375,42.945556640625,-71.30126953125
1758877640.7743733,-0.716796875,0.20068359375,0.744140625,2.01416015625,-1.3427734375,0.48828125,11.217041015625,42.9345703125,-71.312255859375
1758877640.7847779,-0.7060546875,0.203125,0.71240234375,-16.2353515625,-1.3427734375,2.25830078125,11.1566162109375,42.923583984375,-71.3067626953125
1758877640.794389,-0.7060546875,0.203125,0.71240234375,-16.2353515625,-1.3427734375,2.25830078125,11.0137939453125,42.9071044921875,-71.290283203125
1758877640.804942,-0.70458984375,0.1357421875,0.697265625,-14.7705078125,-1.0986328125,3.72314453125,10.8929443359375,42.8961181640625,-71.2628173828125
1758877640.815285,-0.70458984375,0.1357421875,0.697265625,-14.7705078125,-1.0986328125,3.72314453125,10.7830810546875,42.879638671875,-71.2188720703125
1758877640.8245127,-0.734375,0.07666015625,0.73974609375,-13.671875,-1.15966796875,4.45556640625,10.6787109375,42.86865234375,-71.180419921875
1758877640.8344498,-0.734375,0.07666015625,0.73974609375,-13.671875,-1.15966796875,4.45556640625,10.5853271484375,42.857666015625,-71.136474609375
1758877640.8445897,-0.75830078125,0.13818359375,0.6494140625,-15.2587890625,-0.3662109375,5.18798828125,10.48095703125,42.8466796875,-71.0870361328125
1758877640.854629,-0.75830078125,0.13818359375,0.6494140625,-15.2587890625,-0.3662109375,5.18798828125,10.382080078125,42.8411865234375,-71.03759765625
1758877640.8645613,-0.69775390625,0.14990234375,0.6611328125,-8.9111328125,-0.3662109375,5.92041015625,10.3106689453125,42.8411865234375,-70.9771728515625
1758877640.8745751,-0.69775390625,0.14990234375,0.6611328125,-8.9111328125,-0.3662109375,5.92041015625,10.283203125,42.8411865234375,-70.9112548828125
1758877640.8845658,-0.75537109375,0.142578125,0.67919921875,-12.39013671875,0.732421875,6.65283203125,10.2392578125,42.8466796875,-70.83984375
1758877640.8948433,-0.75537109375,0.142578125,0.67919921875,-12.39013671875,0.732421875,6.65283203125,10.184326171875,42.8521728515625,-70.7574462890625
1758877640.904614,-0.71826171875,0.1357421875,0.65576171875,-14.95361328125,1.15966796875,7.26318359375,10.118408203125,42.86865234375,-70.675048828125
1758877640.914612,-0.71826171875,0.1357421875,0.65576171875,-14.95361328125,1.15966796875,7.26318359375,10.0469970703125,42.879638671875,-70.587158203125
1758877640.924584,-0.7265625,0.14599609375,0.6572265625,-16.11328125,2.25830078125,7.38525390625,9.9700927734375,42.901611328125,-70.4937744140625
1758877640.9346297,-0.7265625,0.14599609375,0.6572265625,-16.11328125,2.25830078125,7.38525390625,9.8876953125,42.9290771484375,-70.400390625
1758877640.9446216,-0.7275390625,0.14208984375,0.69921875,-12.20703125,3.0517578125,7.4462890625,9.832763671875,42.9620361328125,-70.301513671875
1758877640.9546049,-0.7275390625,0.14208984375,0.69921875,-12.20703125,3.0517578125,7.4462890625,9.7943115234375,43.00048828125,-70.20263671875
1758877640.9645853,-0.7080078125,0.13623046875,0.685546875,-15.68603515625,3.41796875,7.568359375,9.7393798828125,43.033447265625,-70.103759765625
1758877640.9746306,-0.7080078125,0.13623046875,0.685546875,-15.68603515625,3.41796875,7.568359375,9.66796875,43.0718994140625,-69.9993896484375
1758877640.9846358,-0.68603515625,0.140625,0.6923828125,-20.56884765625,3.41796875,7.62939453125,9.5745849609375,43.1103515625,-69.9005126953125
1758877640.994658,-0.68603515625,0.140625,0.6923828125,-20.56884765625,3.41796875,7.62939453125,9.4537353515625,43.143310546875,-69.796142578125
1758877641.004639,-0.6845703125,0.14453125,0.7158203125,-19.8974609375,3.7841796875,7.6904296875,9.3438720703125,43.1817626953125,-69.6917724609375
1758877641.0146837,-0.6845703125,0.14453125,0.7158203125,-19.8974609375,3.7841796875,7.6904296875,9.2340087890625,43.22021484375,-69.5819091796875
1758877641.0246277,-0.6669921875,0.1171875,0.7392578125,-21.17919921875,4.0283203125,8.11767578125,9.11865234375,43.253173828125,-69.4720458984375
1758877641.0348039,-0.6669921875,0.1171875,0.7392578125,-21.17919921875,4.0283203125,8.11767578125,9.0032958984375,43.2916259765625,-69.3621826171875
1758877641.0450778,-0.64013671875,0.10205078125,0.73779296875,-23.681640625,3.47900390625,8.11767578125,8.8714599609375,43.319091796875,-69.246826171875
1758877641.0548313,-0.64013671875,0.10205078125,0.73779296875,-23.681640625,3.47900390625,8.11767578125,8.7286376953125,43.3465576171875,-69.136962890625
1758877641.0647607,-0.6376953125,0.111328125,0.7470703125,-18.49365234375,2.99072265625,7.38525390625,8.602294921875,43.3685302734375,-69.0325927734375
1758877641.0750206,-0.6376953125,0.111328125,0.7470703125,-18.49365234375,2.99072265625,7.38525390625,8.50341796875,43.385009765625,-68.9337158203125
1758877641.0850284,-0.63623046875,0.1220703125,0.77197265625,-13.85498046875,3.41796875,6.04248046875,8.41552734375,43.406982421875,-68.8458251953125
1758877641.0948048,-0.63623046875,0.1220703125,0.77197265625,-13.85498046875,3.41796875,6.04248046875,8.349609375,43.428955078125,-68.763427734375
1758877641.1047733,-0.62255859375,0.1376953125,0.759765625,-13.427734375,3.96728515625,4.7607421875,8.2781982421875,43.450927734375,-68.6920166015625
1758877641.1152139,-0.62255859375,0.1376953125,0.759765625,-13.427734375,3.96728515625,4.7607421875,8.2012939453125,43.472900390625,-68.62060546875
1758877641.124889,-0.603515625,0.13232421875,0.76416015625,-16.66259765625,4.21142578125,3.662109375,8.10791015625,43.494873046875,-68.5601806640625
1758877641.1350546,-0.603515625,0.13232421875,0.76416015625,-16.66259765625,4.21142578125,3.662109375,7.9925537109375,43.516845703125,-68.5052490234375
1758877641.1448154,-0.59130859375,0.13037109375,0.78466796875,-21.91162109375,4.21142578125,2.86865234375,7.8497314453125,43.538818359375,-68.4503173828125
1758877641.1552413,-0.59130859375,0.13037109375,0.78466796875,-21.91162109375,4.21142578125,2.86865234375,7.6739501953125,43.560791015625,-68.40087890625
1758877641.1649277,-0.60595703125,0.12158203125,0.80029296875,-22.88818359375,4.2724609375,2.13623046875,7.49267578125,43.5772705078125,-68.35693359375
1758877641.1748488,-0.60595703125,0.12158203125,0.80029296875,-22.88818359375,4.2724609375,2.13623046875,7.305908203125,43.59375,-68.31298828125
1758877641.184867,-0.6591796875,0.09326171875,0.80224609375,-19.287109375,4.33349609375,0.9765625,7.130126953125,43.6102294921875,-68.280029296875
1758877641.1951947,-0.6591796875,0.09326171875,0.80224609375,-19.287109375,4.33349609375,0.9765625,6.96533203125,43.626708984375,-68.2525634765625
1758877641.2049365,-0.6806640625,0.087890625,0.77490234375,-10.55908203125,4.45556640625,0.0,6.8389892578125,43.648681640625,-68.236083984375
1758877641.2148664,-0.6806640625,0.087890625,0.77490234375,-10.55908203125,4.45556640625,0.0,6.7510986328125,43.6651611328125,-68.22509765625
1758877641.2249439,-0.685546875,0.06982421875,0.75830078125,0.30517578125,4.150390625,-0.79345703125,6.7071533203125,43.6871337890625,-68.2196044921875
1758877641.2349246,-0.685546875,0.06982421875,0.75830078125,0.30517578125,4.150390625,-0.79345703125,6.7181396484375,43.7091064453125,-68.22509765625
1758877641.2449234,-0.640625,0.0625,0.74169921875,11.3525390625,3.96728515625,-2.44140625,6.7730712890625,43.7310791015625,-68.2415771484375
1758877641.2549105,-0.640625,0.0625,0.74169921875,11.3525390625,3.96728515625,-2.44140625,6.8719482421875,43.74755859375,-68.2745361328125
1758877641.2652166,-0.6328125,0.08251953125,0.70947265625,4.94384765625,3.90625,-3.35693359375,6.932373046875,43.76953125,-68.31298828125
1758877641.2750444,-0.6328125,0.08251953125,0.70947265625,4.94384765625,3.90625,-3.35693359375,6.954345703125,43.7969970703125,-68.35693359375
1758877641.285024,-0.6494140625,0.12841796875,0.724609375,7.4462890625,3.90625,-4.21142578125,6.9873046875,43.8189697265625,-68.411865234375
1758877641.295015,-0.6494140625,0.12841796875,0.724609375,7.4462890625,3.90625,-4.21142578125,7.03125,43.8409423828125,-68.466796875
1758877641.3054774,-0.6650390625,0.09765625,0.71142578125,9.6435546875,4.33349609375,-5.2490234375,7.0806884765625,43.8739013671875,-68.5272216796875
1758877641.315039,-0.6650390625,0.09765625,0.71142578125,9.6435546875,4.33349609375,-5.2490234375,7.1356201171875,43.9013671875,-68.5931396484375
1758877641.3250194,-0.67041015625,0.0888671875,0.69970703125,4.45556640625,4.638671875,-6.103515625,7.1630859375,43.9398193359375,-68.66455078125
1758877641.335047,-0.67041015625,0.0888671875,0.69970703125,4.45556640625,4.638671875,-6.103515625,7.1575927734375,43.978271484375,-68.7469482421875
1758877641.3453841,-0.705078125,0.11865234375,0.77783203125,-4.5166015625,4.2724609375,-6.7138671875,7.1026611328125,44.01123046875,-68.829345703125
1758877641.3550332,-0.705078125,0.11865234375,0.77783203125,-4.5166015625,4.2724609375,-6.7138671875,7.0037841796875,44.0496826171875,-68.9117431640625
1758877641.3651032,-0.70654296875,0.1396484375,0.74853515625,-13.427734375,4.33349609375,-6.4697265625,6.8609619140625,44.088134765625,-68.994140625
1758877641.3753488,-0.70654296875,0.1396484375,0.74853515625,-13.427734375,4.33349609375,-6.4697265625,6.6796875,44.12109375,-69.0765380859375
1758877641.3852096,-0.640625,0.09521484375,0.70263671875,-10.92529296875,3.84521484375,-6.16455078125,6.514892578125,44.154052734375,-69.14794921875
1758877641.3951364,-0.640625,0.09521484375,0.70263671875,-10.92529296875,3.84521484375,-6.16455078125,6.361083984375,44.18701171875,-69.224853515625
1758877641.4057386,-0.6884765625,0.02392578125,0.6943359375,3.173828125,3.84521484375,-6.34765625,6.273193359375,44.219970703125,-69.2962646484375
1758877641.4164364,-0.6884765625,0.02392578125,0.6943359375,3.173828125,3.84521484375,-6.34765625,6.2567138671875,44.2529296875,-69.378662109375
1758877641.4252198,-0.70947265625,-0.0234375,0.6611328125,13.00048828125,4.638671875,-7.568359375,6.3226318359375,44.296875,-69.4830322265625
1758877641.4352522,-0.70947265625,-0.0234375,0.6611328125,13.00048828125,4.638671875,-7.568359375,6.383056640625,44.3463134765625,-69.5928955078125
1758877641.4452143,-0.6748046875,-0.0087890625,0.6416015625,20.1416015625,5.0048828125,-8.1787109375,6.50390625,44.395751953125,-69.7137451171875
1758877641.4554777,-0.6748046875,-0.0087890625,0.6416015625,20.1416015625,5.0048828125,-8.1787109375,6.6192626953125,44.45068359375,-69.840087890625
1758877641.4652262,-0.76806640625,0.03662109375,0.68408203125,31.005859375,4.82177734375,-8.23974609375,6.8389892578125,44.5111083984375,-69.9664306640625
1758877641.4753711,-0.76806640625,0.03662109375,0.68408203125,31.005859375,4.82177734375,-8.23974609375,7.0587158203125,44.5660400390625,-70.0982666015625
1758877641.4855826,-0.8505859375,0.123046875,0.75048828125,34.60693359375,3.662109375,-7.8125,7.3223876953125,44.615478515625,-70.224609375
1758877641.4952507,-0.8505859375,0.123046875,0.75048828125,34.60693359375,3.662109375,-7.8125,7.58056640625,44.6649169921875,-70.345458984375
1758877641.5056386,-0.7919921875,0.166015625,0.70263671875,26.611328125,2.38037109375,-6.9580078125,7.7728271484375,44.703369140625,-70.455322265625
1758877641.5152893,-0.7919921875,0.166015625,0.70263671875,26.611328125,2.38037109375,-6.9580078125,7.965087890625,44.747314453125,-70.5596923828125
1758877641.5256505,-0.73681640625,0.1533203125,0.64208984375,14.6484375,2.01416015625,-5.67626953125,8.052978515625,44.7802734375,-70.6475830078125
1758877641.535286,-0.73681640625,0.1533203125,0.64208984375,14.6484375,2.01416015625,-5.67626953125,8.1463623046875,44.8187255859375,-70.72998046875
1758877641.5453646,-0.72607421875,0.107421875,0.6376953125,8.4228515625,1.953125,-4.39453125,8.1903076171875,44.8516845703125,-70.7904052734375
1758877641.5555117,-0.72607421875,0.107421875,0.6376953125,8.4228515625,1.953125,-4.39453125,8.2342529296875,44.89013671875,-70.8563232421875
1758877641.5657175,-0.74609375,0.08935546875,0.66455078125,2.9296875,1.5869140625,-3.2958984375,8.2342529296875,44.923095703125,-70.90576171875
1758877641.5753226,-0.74609375,0.08935546875,0.66455078125,2.9296875,1.5869140625,-3.2958984375,8.2342529296875,44.9505615234375,-70.9552001953125
1758877641.5853763,-0.720703125,0.09423828125,0.6416015625,1.15966796875,1.28173828125,-2.13623046875,8.2232666015625,44.9835205078125,-70.9881591796875
1758877641.595862,-0.720703125,0.09423828125,0.6416015625,1.15966796875,1.28173828125,-2.13623046875,8.2177734375,45.010986328125,-71.026611328125
1758877641.6058562,-0.7255859375,0.08349609375,0.62109375,-5.126953125,1.52587890625,-2.01416015625,8.1463623046875,45.0384521484375,-71.0595703125
1758877641.6154191,-0.7255859375,0.08349609375,0.62109375,-5.126953125,1.52587890625,-2.01416015625,8.0804443359375,45.0714111328125,-71.092529296875
1758877641.6254344,-0.7119140625,0.11962890625,0.65478515625,-7.26318359375,2.74658203125,-2.44140625,7.987060546875,45.1153564453125,-71.1309814453125
1758877641.6358268,-0.7119140625,0.11962890625,0.65478515625,-7.26318359375,2.74658203125,-2.44140625,7.899169921875,45.164794921875,-71.1639404296875
1758877641.6455295,-0.70263671875,0.119140625,0.66796875,-12.51220703125,3.90625,-2.86865234375,7.75634765625,45.2197265625,-71.202392578125
1758877641.6554155,-0.70263671875,0.119140625,0.66796875,-12.51220703125,3.90625,-2.86865234375,7.613525390625,45.2691650390625,-71.2353515625
1758877641.6655028,-0.693359375,0.15625,0.70751953125,-27.52685546875,4.33349609375,-3.0517578125,7.3223876953125,45.32958984375,-71.2738037109375
1758877641.6756046,-0.693359375,0.15625,0.70751953125,-27.52685546875,4.33349609375,-3.0517578125,7.0367431640625,45.384521484375,-71.30126953125
1758877641.685485,-0.712890625,0.15185546875,0.7421875,-39.36767578125,4.94384765625,-3.90625,6.624755859375,45.439453125,-71.3397216796875
1758877641.6954591,-0.712890625,0.15185546875,0.7421875,-39.36767578125,4.94384765625,-3.90625,6.2237548828125,45.4998779296875,-71.3726806640625
1758877641.7057679,-0.6923828125,0.12744140625,0.73486328125,-51.025390625,5.2490234375,-4.21142578125,5.6964111328125,45.5548095703125,-71.4111328125
1758877641.715927,-0.6923828125,0.12744140625,0.73486328125,-51.025390625,5.2490234375,-4.21142578125,5.1800537109375,45.6097412109375,-71.444091796875
1758877641.725594,-0.67919921875,0.11279296875,0.69873046875,-59.6923828125,4.8828125,-3.35693359375,4.581298828125,45.6591796875,-71.4605712890625
1758877641.7355137,-0.67919921875,0.11279296875,0.69873046875,-59.6923828125,4.8828125,-3.35693359375,3.988037109375,45.7086181640625,-71.47705078125
1758877641.745724,-0.67919921875,0.11279296875,0.69873046875,-68.115234375,4.57763671875,-2.3193359375,3.3233642578125,45.7525634765625,-71.47705078125
1758877641.7557065,-0.68115234375,0.07568359375,0.6806640625,-68.115234375,4.57763671875,-2.3193359375,2.65869140625,45.7965087890625,-71.47705078125
1758877641.7656069,-0.72509765625,0.0185546875,0.69921875,-67.2607421875,3.662109375,-1.28173828125,2.0159912109375,45.8294677734375,-71.4605712890625
1758877641.7756782,-0.72509765625,0.0185546875,0.69921875,-67.2607421875,3.662109375,-1.28173828125,1.3677978515625,45.8624267578125,-71.4495849609375
1758877641.785634,-0.7470703125,-0.044921875,0.650390625,-49.1943359375,3.35693359375,-1.46484375,0.90087890625,45.8953857421875,-71.444091796875
1758877641.796045,-0.7470703125,-0.044921875,0.650390625,-49.1943359375,3.35693359375,-1.46484375,0.4229736328125,45.933837890625,-71.444091796875
1758877641.8059976,-0.76806640625,-0.0791015625,0.59130859375,-27.40478515625,2.99072265625,-1.89208984375,0.1593017578125,45.966796875,-71.455078125
1758877641.815746,-0.76806640625,-0.0791015625,0.59130859375,-27.40478515625,2.99072265625,-1.89208984375,-0.1043701171875,45.999755859375,-71.4715576171875
1758877641.825802,-0.806640625,-0.07470703125,0.6044921875,-3.35693359375,2.9296875,-2.38037109375,-0.1483154296875,46.043701171875,-71.4990234375
1758877641.8359063,-0.806640625,-0.07470703125,0.6044921875,-3.35693359375,2.9296875,-2.38037109375,-0.1922607421875,46.0821533203125,-71.531982421875
1758877641.8457317,-0.80908203125,-0.05517578125,0.658203125,14.09912109375,2.5634765625,-2.74658203125,-0.0714111328125,46.1260986328125,-71.575927734375
1758877641.8557034,-0.80908203125,-0.05517578125,0.658203125,14.09912109375,2.5634765625,-2.74658203125,0.0384521484375,46.16455078125,-71.619873046875
1758877641.8657568,-0.81396484375,-0.01171875,0.6630859375,16.4794921875,1.28173828125,-2.5634765625,0.17578125,46.197509765625,-71.663818359375
1758877641.8760796,-0.81396484375,-0.01171875,0.6630859375,16.4794921875,1.28173828125,-2.5634765625,0.318603515625,46.2249755859375,-71.7132568359375
1758877641.885741,-0.80078125,0.025390625,0.67919921875,15.31982421875,0.42724609375,-2.62451171875,0.439453125,46.2469482421875,-71.7572021484375
1758877641.8957736,-0.80078125,0.025390625,0.67919921875,15.31982421875,0.42724609375,-2.62451171875,0.5657958984375,46.2744140625,-71.8011474609375
1758877641.9060671,-0.76513671875,0.01513671875,0.646484375,15.07568359375,-0.42724609375,-2.685546875,0.692138671875,46.285400390625,-71.839599609375
1758877641.916173,-0.76513671875,0.01513671875,0.646484375,15.07568359375,-0.42724609375,-2.685546875,0.81298828125,46.3018798828125,-71.883544921875
1758877641.925753,-0.7392578125,0.01513671875,0.63525390625,11.16943359375,-0.9765625,-2.86865234375,0.8953857421875,46.3128662109375,-71.9329833984375
1758877641.9359515,-0.7392578125,0.01513671875,0.63525390625,11.16943359375,-0.9765625,-2.86865234375,0.9722900390625,46.318359375,-71.9769287109375
1758877641.9459195,-0.72607421875,0.01220703125,0.64404296875,10.19287109375,-0.79345703125,-3.47900390625,1.0382080078125,46.329345703125,-72.0318603515625
1758877641.9558961,-0.72607421875,0.01220703125,0.64404296875,10.19287109375,-0.79345703125,-3.47900390625,1.1041259765625,46.34033203125,-72.0867919921875
1758877641.965878,-0.71044921875,0.02001953125,0.66552734375,8.85009765625,-0.67138671875,-3.96728515625,1.1480712890625,46.351318359375,-72.147216796875
1758877641.9759424,-0.71044921875,0.02001953125,0.66552734375,8.85009765625,-0.67138671875,-3.96728515625,1.197509765625,46.3623046875,-72.2076416015625
1758877641.9859385,-0.69091796875,0.033203125,0.70166015625,4.21142578125,-0.91552734375,-4.5166015625,1.1920166015625,46.3677978515625,-72.2735595703125
1758877641.9958923,-0.69091796875,0.033203125,0.70166015625,4.21142578125,-0.91552734375,-4.5166015625,1.1865234375,46.3677978515625,-72.3394775390625
1758877642.0062652,-0.69091796875,0.04296875,0.7255859375,-3.60107421875,-1.03759765625,-4.57763671875,1.1041259765625,46.3677978515625,-72.4053955078125
1758877642.0162716,-0.69091796875,0.04296875,0.7255859375,-3.60107421875,-1.03759765625,-4.57763671875,1.021728515625,46.3623046875,-72.4658203125
1758877642.0258913,-0.6982421875,0.0419921875,0.74951171875,-10.009765625,-1.3427734375,-4.8828125,0.87890625,46.351318359375,-72.53173828125
1758877642.0359309,-0.6982421875,0.0419921875,0.74951171875,-10.009765625,-1.3427734375,-4.8828125,0.736083984375,46.34033203125,-72.59765625
1758877642.0460145,-0.7099609375,0.0322265625,0.75341796875,-13.0615234375,-1.5869140625,-4.94384765625,0.560302734375,46.3238525390625,-72.6580810546875
1758877642.0560808,-0.7099609375,0.0322265625,0.75341796875,-13.0615234375,-1.5869140625,-4.94384765625,0.3900146484375,46.307373046875,-72.718505859375
1758877642.0659308,-0.70556640625,0.03564453125,0.751953125,-20.20263671875,-2.0751953125,-4.94384765625,0.1483154296875,46.2799072265625,-72.7789306640625
1758877642.0759938,-0.70556640625,0.03564453125,0.751953125,-20.20263671875,-2.0751953125,-4.94384765625,-0.087890625,46.2579345703125,-72.8338623046875
1758877642.086196,-0.69873046875,0.02099609375,0.732421875,-25.32958984375,-2.38037109375,-4.82177734375,-0.3790283203125,46.2249755859375,-72.88330078125
1758877642.0960107,-0.69873046875,0.02099609375,0.732421875,-25.32958984375,-2.38037109375,-4.82177734375,-0.6646728515625,46.1920166015625,-72.938232421875
1758877642.1060781,-0.69140625,-0.01171875,0.70166015625,-25.45166015625,-2.0751953125,-4.638671875,-0.9503173828125,46.16455078125,-72.982177734375
1758877642.1163175,-0.69140625,-0.01171875,0.70166015625,-25.45166015625,-2.0751953125,-4.638671875,-1.23046875,46.1370849609375,-73.0316162109375
1758877642.1260836,-0.70458984375,-0.03271484375,0.7041015625,-23.49853515625,-1.64794921875,-4.69970703125,-1.4996337890625,46.109619140625,-73.0810546875
1758877642.1360013,-0.70458984375,-0.03271484375,0.7041015625,-23.49853515625,-1.64794921875,-4.69970703125,-1.768798828125,46.087646484375,-73.1304931640625
1758877642.1462684,-0.70166015625,-0.0400390625,0.7197265625,-21.91162109375,-1.15966796875,-4.94384765625,-2.021484375,46.065673828125,-73.1854248046875
1758877642.1563373,-0.70166015625,-0.0400390625,0.7197265625,-21.91162109375,-1.15966796875,-4.94384765625,-2.2796630859375,46.0491943359375,-73.2403564453125
1758877642.1660588,-0.72900390625,-0.03271484375,0.72216796875,-24.2919921875,-1.15966796875,-4.69970703125,-2.5543212890625,46.0272216796875,-73.2952880859375
1758877642.1760755,-0.72900390625,-0.03271484375,0.72216796875,-24.2919921875,-1.15966796875,-4.69970703125,-2.8289794921875,46.0052490234375,-73.3447265625
1758877642.1862025,-0.7724609375,-0.03857421875,0.72802734375,-23.25439453125,-1.708984375,-3.96728515625,-3.087158203125,45.9832763671875,-73.3831787109375
1758877642.1961138,-0.7724609375,-0.03857421875,0.72802734375,-23.25439453125,-1.708984375,-3.96728515625,-3.3453369140625,45.955810546875,-73.421630859375
1758877642.2062223,-0.7607421875,-0.05078125,0.6533203125,-17.9443359375,-2.01416015625,-3.2958984375,-3.5430908203125,45.933837890625,-73.45458984375
1758877642.2161872,-0.7607421875,-0.05078125,0.6533203125,-17.9443359375,-2.01416015625,-3.2958984375,-3.7408447265625,45.911865234375,-73.487548828125
1758877642.2263622,-0.76220703125,-0.08837890625,0.640625,-9.09423828125,-2.5634765625,-3.0517578125,-3.8507080078125,45.8843994140625,-73.5205078125
1758877642.2361252,-0.76220703125,-0.08837890625,0.640625,-9.09423828125,-2.5634765625,-3.0517578125,-3.966064453125,45.8624267578125,-73.553466796875
1758877642.2462282,-0.7421875,-0.0986328125,0.64404296875,1.15966796875,-2.9296875,-2.25830078125,-3.9715576171875,45.8404541015625,-73.575439453125
1758877642.2564588,-0.7421875,-0.0986328125,0.64404296875,1.15966796875,-2.9296875,-2.25830078125,-3.97705078125,45.81298828125,-73.6083984375
1758877642.266219,-0.7197265625,-0.08984375,0.63720703125,7.01904296875,-3.23486328125,-2.25830078125,-3.9276123046875,45.791015625,-73.6358642578125
1758877642.276174,-0.7197265625,-0.08984375,0.63720703125,7.01904296875,-3.23486328125,-2.25830078125,-3.878173828125,45.7635498046875,-73.6688232421875
1758877642.2862654,-0.70947265625,-0.06640625,0.6669921875,5.55419921875,-3.662109375,-1.89208984375,-3.84521484375,45.736083984375,-73.6962890625
1758877642.2967246,-0.70947265625,-0.06640625,0.6669921875,5.55419921875,-3.662109375,-1.89208984375,-3.812255859375,45.7086181640625,-73.729248046875
1758877642.3066168,-0.73779296875,-0.0439453125,0.6884765625,7.14111328125,-3.60107421875,-1.708984375,-3.7628173828125,45.68115234375,-73.7567138671875
1758877642.3164504,-0.73779296875,-0.0439453125,0.6884765625,7.14111328125,-3.60107421875,-1.708984375,-3.7078857421875,45.648193359375,-73.7786865234375
1758877642.3263555,-0.7421875,-0.056640625,0.66748046875,10.498046875,-3.41796875,-1.77001953125,-3.62548828125,45.626220703125,-73.80615234375
1758877642.3366466,-0.7421875,-0.056640625,0.66748046875,10.498046875,-3.41796875,-1.77001953125,-3.5430908203125,45.5987548828125,-73.8336181640625
1758877642.3463204,-0.74169921875,-0.046875,0.67236328125,13.916015625,-3.47900390625,-2.0751953125,-3.427734375,45.5712890625,-73.8665771484375
1758877642.356462,-0.74169921875,-0.046875,0.67236328125,13.916015625,-3.47900390625,-2.0751953125,-3.3123779296875,45.54931640625,-73.8995361328125
1758877642.3664012,-0.74609375,-0.0576171875,0.64306640625,15.869140625,-2.9296875,-2.44140625,-3.18603515625,45.52734375,-73.93798828125
1758877642.3763046,-0.74609375,-0.0576171875,0.64306640625,15.869140625,-2.9296875,-2.44140625,-3.0596923828125,45.5108642578125,-73.98193359375
1758877642.3867242,-0.76708984375,-0.046875,0.64404296875,18.61572265625,-2.685546875,-2.62451171875,-2.9058837890625,45.4998779296875,-74.02587890625
1758877642.3964508,-0.76708984375,-0.046875,0.64404296875,18.61572265625,-2.685546875,-2.62451171875,-2.757568359375,45.4833984375,-74.06982421875
1758877642.4066458,-0.74560546875,-0.0546875,0.6474609375,23.98681640625,-1.953125,-2.50244140625,-2.548828125,45.4833984375,-74.11376953125
1758877642.4164093,-0.74560546875,-0.0546875,0.6474609375,23.98681640625,-1.953125,-2.50244140625,-2.3455810546875,45.4779052734375,-74.1632080078125
1758877642.4264786,-0.73828125,-0.06005859375,0.64306640625,28.1982421875,-1.52587890625,-2.197265625,-2.1038818359375,45.4779052734375,-74.2071533203125
1758877642.4368737,-0.72412109375,-0.06689453125,0.6767578125,28.86962890625,-0.91552734375,-2.0751953125,-1.8511962890625,45.4833984375,-74.2510986328125
1758877642.4464717,-0.72412109375,-0.06689453125,0.6767578125,28.86962890625,-0.91552734375,-2.0751953125,-1.60400390625,45.4888916015625,-74.300537109375
1758877642.4564552,-0.71044921875,-0.03466796875,0.6826171875,29.4189453125,-0.244140625,-1.8310546875,-1.351318359375,45.4998779296875,-74.344482421875
1758877642.4667652,-0.71044921875,-0.03466796875,0.6826171875,29.4189453125,-0.244140625,-1.8310546875,-1.0931396484375,45.5108642578125,-74.388427734375
1758877642.476685,-0.69677734375,-0.0068359375,0.70263671875,28.564453125,-0.42724609375,-1.28173828125,-0.8404541015625,45.5218505859375,-74.432373046875
1758877642.4864979,-0.69677734375,-0.0068359375,0.70263671875,28.564453125,-0.42724609375,-1.28173828125,-0.5877685546875,45.52734375,-74.46533203125
1758877642.4964945,-0.6865234375,0.00341796875,0.734375,26.611328125,-0.54931640625,-0.3662109375,-0.340576171875,45.5328369140625,-74.4927978515625
1758877642.5070007,-0.6865234375,0.00341796875,0.734375,26.611328125,-0.54931640625,-0.3662109375,-0.0933837890625,45.5328369140625,-74.5147705078125
1758877642.5165253,-0.6826171875,0.0107421875,0.75634765625,20.6298828125,-0.9765625,0.48828125,0.120849609375,45.52734375,-74.53125
1758877642.5265691,-0.6826171875,0.0107421875,0.75634765625,20.6298828125,-0.9765625,0.48828125,0.3131103515625,45.5218505859375,-74.5367431640625
1758877642.5365562,-0.66357421875,0.0107421875,0.75830078125,14.46533203125,-1.15966796875,1.46484375,0.4833984375,45.5108642578125,-74.5367431640625
1758877642.5468795,-0.66357421875,0.0107421875,0.75830078125,14.46533203125,-1.15966796875,1.46484375,0.6317138671875,45.4998779296875,-74.5257568359375
1758877642.5565732,-0.65185546875,0.00830078125,0.74853515625,12.14599609375,-1.40380859375,1.708984375,0.7635498046875,45.4779052734375,-74.5147705078125
1758877642.5666015,-0.65185546875,0.00830078125,0.74853515625,12.14599609375,-1.40380859375,1.708984375,0.889892578125,45.4559326171875,-74.498291015625
1758877642.5770023,-0.6630859375,0.0107421875,0.7431640625,9.27734375,-1.28173828125,1.953125,1.0052490234375,45.4339599609375,-74.4873046875
1758877642.5866158,-0.6630859375,0.0107421875,0.7431640625,9.27734375,-1.28173828125,1.953125,1.1041259765625,45.4119873046875,-74.46533203125
1758877642.5966256,-0.64306640625,0.029296875,0.7578125,5.55419921875,-1.15966796875,1.5869140625,1.1865234375,45.3900146484375,-74.454345703125
1758877642.6084082,-0.64306640625,0.029296875,0.7578125,5.55419921875,-1.15966796875,1.5869140625,1.2469482421875,45.3680419921875,-74.4378662109375
1758877642.617418,-0.65185546875,0.03515625,0.73974609375,5.06591796875,-0.67138671875,1.3427734375,1.3018798828125,45.340576171875,-74.4268798828125
1758877642.627342,-0.65185546875,0.03515625,0.73974609375,5.06591796875,-0.67138671875,1.3427734375,1.3623046875,45.318603515625,-74.410400390625
1758877642.6366758,-0.66552734375,0.03466796875,0.75146484375,2.197265625,-0.67138671875,0.8544921875,1.4007568359375,45.296630859375,-74.3994140625
1758877642.6468718,-0.66552734375,0.03466796875,0.75146484375,2.197265625,-0.67138671875,0.8544921875,1.42822265625,45.274658203125,-74.388427734375
1758877642.6568258,-0.68798828125,0.03955078125,0.77685546875,-2.99072265625,-0.91552734375,0.54931640625,1.42822265625,45.2471923828125,-74.37744140625
1758877642.6668348,-0.68798828125,0.03955078125,0.77685546875,-2.99072265625,-0.91552734375,0.54931640625,1.4007568359375,45.2252197265625,-74.366455078125
1758877642.6771607,-0.669921875,0.03125,0.75244140625,-5.43212890625,-1.46484375,0.1220703125,1.3623046875,45.1922607421875,-74.3609619140625
1758877642.6869407,-0.669921875,0.03125,0.75244140625,-5.43212890625,-1.46484375,0.1220703125,1.307373046875,45.1593017578125,-74.35546875
1758877642.6968145,-0.669921875,0.03125,0.75244140625,-8.056640625,-1.46484375,-0.06103515625,1.241455078125,45.1318359375,-74.35546875
1758877642.706875,-0.65576171875,0.017578125,0.7314453125,-8.056640625,-1.46484375,-0.06103515625,1.1590576171875,45.098876953125,-74.3499755859375
1758877642.7170162,-0.6396484375,0.013671875,0.70654296875,-9.8876953125,-0.9765625,-0.30517578125,1.0711669921875,45.06591796875,-74.3499755859375
1758877642.7268624,-0.6396484375,0.013671875,0.70654296875,-9.8876953125,-0.9765625,-0.30517578125,0.9722900390625,45.0384521484375,-74.3499755859375
1758877642.7368224,-0.65087890625,0.01171875,0.7001953125,-4.08935546875,0.244140625,-0.79345703125,0.90087890625,45.0164794921875,-74.3499755859375
1758877642.746899,-0.65087890625,0.01171875,0.7001953125,-4.08935546875,0.244140625,-0.79345703125,0.8514404296875,45.0054931640625,-74.35546875
1758877642.757159,-0.69287109375,-0.00634765625,0.732421875,0.0,0.79345703125,-1.5869140625,0.823974609375,44.9945068359375,-74.366455078125
1758877642.7668657,-0.69287109375,-0.00634765625,0.732421875,0.0,0.79345703125,-1.5869140625,0.8074951171875,44.989013671875,-74.388427734375
1758877642.777099,-0.720703125,-0.00146484375,0.7109375,11.71875,1.220703125,-2.685546875,0.845947265625,44.9835205078125,-74.4158935546875
1758877642.7871032,-0.720703125,-0.00146484375,0.7109375,11.71875,1.220703125,-2.685546875,0.9393310546875,44.9835205078125,-74.4488525390625
1758877642.7968764,-0.73583984375,-0.01416015625,0.724609375,11.23046875,0.06103515625,-2.62451171875,1.021728515625,44.97802734375,-74.4873046875
1758877642.8069277,-0.73583984375,-0.01416015625,0.724609375,11.23046875,0.06103515625,-2.62451171875,1.1041259765625,44.967041015625,-74.5257568359375
1758877642.8171167,-0.74365234375,0.01806640625,0.69580078125,4.94384765625,-0.18310546875,-2.5634765625,1.1590576171875,44.9615478515625,-74.564208984375
1758877642.827077,-0.74365234375,0.01806640625,0.69580078125,4.94384765625,-0.18310546875,-2.5634765625,1.175537109375,44.9505615234375,-74.6026611328125
1758877642.8369303,-0.72216796875,-0.01416015625,0.642578125,9.521484375,-0.54931640625,-2.44140625,1.219482421875,44.945068359375,-74.64111328125
1758877642.8470662,-0.72216796875,-0.01416015625,0.642578125,9.521484375,-0.54931640625,-2.44140625,1.285400390625,44.9395751953125,-74.6795654296875
1758877642.857313,-0.73583984375,-0.02392578125,0.640625,15.93017578125,-0.30517578125,-2.38037109375,1.38427734375,44.93408203125,-74.7235107421875
1758877642.867062,-0.73583984375,-0.02392578125,0.640625,15.93017578125,-0.30517578125,-2.38037109375,1.5106201171875,44.93408203125,-74.7674560546875
1758877642.877028,-0.7236328125,-0.00537109375,0.63720703125,22.52197265625,0.0,-2.99072265625,1.6644287109375,44.9395751953125,-74.81689453125
1758877642.8872263,-0.7236328125,-0.00537109375,0.63720703125,22.52197265625,0.0,-2.99072265625,1.845703125,44.945068359375,-74.871826171875
1758877642.8971605,-0.7333984375,0.03662109375,0.64208984375,26.18408203125,0.1220703125,-3.41796875,2.0489501953125,44.9560546875,-74.9322509765625
1758877642.9070683,-0.7333984375,0.03662109375,0.64208984375,26.18408203125,0.1220703125,-3.41796875,2.26318359375,44.967041015625,-74.99267578125
1758877642.9170616,-0.73486328125,0.0439453125,0.63623046875,29.96826171875,0.30517578125,-4.39453125,2.493896484375,44.9835205078125,-75.05859375
1758877642.9274158,-0.73486328125,0.0439453125,0.63623046875,29.96826171875,0.30517578125,-4.39453125,2.7410888671875,45.0,-75.1300048828125
1758877642.9371216,-0.7578125,0.04443359375,0.68212890625,28.99169921875,0.0,-4.82177734375,2.977294921875,45.0164794921875,-75.2069091796875
1758877642.94712,-0.7578125,0.04443359375,0.68212890625,28.99169921875,0.0,-4.82177734375,3.2080078125,45.032958984375,-75.2838134765625
1758877642.9571724,-0.7470703125,0.07373046875,0.69970703125,26.123046875,-0.30517578125,-5.79833984375,3.4222412109375,45.0494384765625,-75.3662109375
1758877642.967379,-0.7470703125,0.07373046875,0.69970703125,26.123046875,-0.30517578125,-5.79833984375,3.614501953125,45.0604248046875,-75.4541015625
1758877642.9771771,-0.72705078125,0.07470703125,0.68212890625,21.3623046875,-0.8544921875,-6.4697265625,3.7847900390625,45.0714111328125,-75.5474853515625
1758877642.98712,-0.72705078125,0.07470703125,0.68212890625,21.3623046875,-0.8544921875,-6.4697265625,3.9276123046875,45.0823974609375,-75.6463623046875
1758877642.9972215,-0.75537109375,0.0751953125,0.70703125,12.51220703125,-1.953125,-6.77490234375,4.0264892578125,45.0823974609375,-75.73974609375
1758877643.0076804,-0.75537109375,0.0751953125,0.70703125,12.51220703125,-1.953125,-6.77490234375,4.075927734375,45.0823974609375,-75.838623046875
1758877643.017158,-0.7822265625,0.08203125,0.7041015625,6.28662109375,-2.9296875,-6.8359375,4.097900390625,45.0714111328125,-75.9375
1758877643.0271502,-0.7822265625,0.08203125,0.7041015625,6.28662109375,-2.9296875,-6.8359375,4.0924072265625,45.0604248046875,-76.036376953125
1758877643.0372224,-0.78515625,0.08740234375,0.66552734375,-2.5634765625,-4.08935546875,-6.34765625,4.04296875,45.0439453125,-76.1297607421875
1758877643.0474677,-0.78515625,0.08740234375,0.66552734375,-2.5634765625,-4.08935546875,-6.34765625,3.955078125,45.02197265625,-76.2176513671875
1758877643.0572371,-0.76806640625,0.07763671875,0.646484375,-12.8173828125,-5.18798828125,-5.18798828125,3.8232421875,44.9945068359375,-76.300048828125
1758877643.0672255,-0.76806640625,0.07763671875,0.646484375,-12.8173828125,-5.18798828125,-5.18798828125,3.6474609375,44.9615478515625,-76.365966796875
1758877643.0777783,-0.76806640625,0.029296875,0.642578125,-13.5498046875,-5.9814453125,-4.5166015625,3.4716796875,44.9285888671875,-76.431884765625
1758877643.0873282,-0.76806640625,0.029296875,0.642578125,-13.5498046875,-5.9814453125,-4.5166015625,3.2958984375,44.8956298828125,-76.497802734375
1758877643.0972948,-0.74853515625,-0.01416015625,0.6474609375,-7.080078125,-6.591796875,-3.96728515625,3.1585693359375,44.857177734375,-76.552734375
1758877643.107288,-0.74853515625,-0.01416015625,0.6474609375,-7.080078125,-6.591796875,-3.96728515625,3.0487060546875,44.813232421875,-76.6131591796875
1758877643.1173704,-0.73974609375,-0.00927734375,0.6494140625,-0.18310546875,-6.8359375,-3.5400390625,2.977294921875,44.769287109375,-76.673583984375
1758877643.1272767,-0.73974609375,-0.00927734375,0.6494140625,-0.18310546875,-6.8359375,-3.5400390625,2.9388427734375,44.725341796875,-76.728515625
1758877643.137316,-0.734375,0.0244140625,0.66455078125,4.94384765625,-6.7138671875,-3.11279296875,2.92236328125,44.6868896484375,-76.7889404296875
1758877643.1474009,-0.734375,0.0244140625,0.66455078125,4.94384765625,-6.7138671875,-3.11279296875,2.9388427734375,44.6429443359375,-76.83837890625
1758877643.1576931,-0.73095703125,0.04541015625,0.67919921875,2.44140625,-6.34765625,-2.50244140625,2.9443359375,44.5989990234375,-76.8878173828125
1758877643.1673808,-0.73095703125,0.04541015625,0.67919921875,2.44140625,-6.34765625,-2.50244140625,2.9388427734375,44.560546875,-76.9317626953125
1758877643.1774445,-0.71240234375,0.05322265625,0.6904296875,-2.86865234375,-6.40869140625,-1.89208984375,2.911376953125,44.5220947265625,-76.97021484375
1758877643.1876216,-0.71240234375,0.05322265625,0.6904296875,-2.86865234375,-6.40869140625,-1.89208984375,2.8619384765625,44.4781494140625,-77.003173828125
1758877643.1977272,-0.70556640625,0.04541015625,0.708984375,-3.173828125,-6.40869140625,-1.64794921875,2.8125,44.4342041015625,-77.0306396484375
1758877643.2079785,-0.70556640625,0.04541015625,0.708984375,-3.173828125,-6.40869140625,-1.64794921875,2.7685546875,44.3902587890625,-77.05810546875
1758877643.2176993,-0.7001953125,0.0283203125,0.7138671875,-1.953125,-6.2255859375,-1.64794921875,2.724609375,44.3463134765625,-77.080078125
1758877643.2276587,-0.7001953125,0.0283203125,0.7138671875,-1.953125,-6.2255859375,-1.64794921875,2.691650390625,44.296875,-77.1075439453125
1758877643.2374718,-0.7001953125,0.0283203125,0.7138671875,-0.54931640625,-5.92041015625,-1.5869140625,2.65869140625,44.2529296875,-77.135009765625
1758877643.247514,-0.6943359375,0.02001953125,0.71630859375,-0.54931640625,-5.92041015625,-1.5869140625,2.63671875,44.208984375,-77.1624755859375
1758877643.2576942,-0.68994140625,0.0244140625,0.7216796875,0.9765625,-5.67626953125,-1.77001953125,2.625732421875,44.1595458984375,-77.18994140625
1758877643.2675157,-0.68994140625,0.0244140625,0.7216796875,0.9765625,-5.67626953125,-1.77001953125,2.61474609375,44.1156005859375,-77.2174072265625
1758877643.277556,-0.68212890625,0.0361328125,0.73046875,3.11279296875,-5.615234375,-2.0751953125,2.61474609375,44.0716552734375,-77.2503662109375
1758877643.287544,-0.68212890625,0.0361328125,0.73046875,3.11279296875,-5.615234375,-2.0751953125,2.6202392578125,44.022216796875,-77.2833251953125
1758877643.2977834,-0.6728515625,0.041015625,0.732421875,3.7841796875,-6.28662109375,-2.38037109375,2.6312255859375,43.9727783203125,-77.3162841796875
1758877643.3076956,-0.6728515625,0.041015625,0.732421875,3.7841796875,-6.28662109375,-2.38037109375,2.647705078125,43.9178466796875,-77.3492431640625
1758877643.3179548,-0.6669921875,0.03955078125,0.7294921875,2.44140625,-7.2021484375,-2.62451171875,2.647705078125,43.857421875,-77.3876953125
1758877643.327609,-0.6669921875,0.03955078125,0.7294921875,2.44140625,-7.2021484375,-2.62451171875,2.647705078125,43.7860107421875,-77.4261474609375
1758877643.3380318,-0.67724609375,0.0419921875,0.734375,0.91552734375,-8.056640625,-2.8076171875,2.63671875,43.714599609375,-77.4700927734375
1758877643.3475688,-0.67724609375,0.0419921875,0.734375,0.91552734375,-8.056640625,-2.8076171875,2.61474609375,43.6376953125,-77.508544921875
1758877643.3576126,-0.69189453125,0.03564453125,0.73388671875,1.28173828125,-7.87353515625,-2.685546875,2.5982666015625,43.5662841796875,-77.5469970703125
1758877643.3680415,-0.69189453125,0.03564453125,0.73388671875,1.28173828125,-7.87353515625,-2.685546875,2.5872802734375,43.4893798828125,-77.58544921875
1758877643.3777444,-0.69287109375,0.0263671875,0.7119140625,0.18310546875,-7.50732421875,-2.13623046875,2.57080078125,43.41796875,-77.6239013671875
1758877643.38767,-0.69287109375,0.0263671875,0.7119140625,0.18310546875,-7.50732421875,-2.13623046875,2.548828125,43.3465576171875,-77.6513671875
1758877643.3977323,-0.6962890625,0.0244140625,0.71484375,-1.52587890625,-6.7138671875,-1.28173828125,2.5213623046875,43.2806396484375,-77.6788330078125
1758877643.4082534,-0.6962890625,0.0244140625,0.71484375,-1.52587890625,-6.7138671875,-1.28173828125,2.493896484375,43.2147216796875,-77.7008056640625
1758877643.4177263,-0.69873046875,0.0166015625,0.71533203125,-3.11279296875,-5.79833984375,0.18310546875,2.4664306640625,43.1597900390625,-77.706298828125
1758877643.4277353,-0.69873046875,0.0166015625,0.71533203125,-3.11279296875,-5.79833984375,0.18310546875,2.4334716796875,43.1048583984375,-77.7117919921875
1758877643.4381025,-0.68896484375,0.01171875,0.72509765625,-2.99072265625,-4.7607421875,1.64794921875,2.406005859375,43.0609130859375,-77.7008056640625
1758877643.4478567,-0.68896484375,0.01171875,0.72509765625,-2.99072265625,-4.7607421875,1.64794921875,2.3895263671875,43.0169677734375,-77.684326171875
1758877643.4577298,-0.67626953125,0.0087890625,0.7392578125,-3.11279296875,-4.0283203125,3.0517578125,2.384033203125,42.978515625,-77.6458740234375
1758877643.4677532,-0.67626953125,0.0087890625,0.7392578125,-3.11279296875,-4.0283203125,3.0517578125,2.3785400390625,42.945556640625,-77.607421875
1758877643.478197,-0.66357421875,0.01708984375,0.75341796875,-3.84521484375,-3.5400390625,4.08935546875,2.373046875,42.91259765625,-77.5579833984375
1758877643.4878213,-0.66357421875,0.01708984375,0.75341796875,-3.84521484375,-3.5400390625,4.08935546875,2.3675537109375,42.8741455078125,-77.508544921875
1758877643.4978344,-0.65673828125,0.02880859375,0.76025390625,-3.60107421875,-3.11279296875,4.69970703125,2.3675537109375,42.8411865234375,-77.45361328125
1758877643.5090005,-0.65673828125,0.02880859375,0.76025390625,-3.60107421875,-3.11279296875,4.69970703125,2.373046875,42.8082275390625,-77.3931884765625
1758877643.5181656,-0.65771484375,0.03369140625,0.75732421875,-4.5166015625,-2.62451171875,4.8828125,2.3675537109375,42.78076171875,-77.332763671875
1758877643.5283031,-0.65771484375,0.03369140625,0.75732421875,-4.5166015625,-2.62451171875,4.8828125,2.3675537109375,42.7532958984375,-77.2723388671875
1758877643.5378096,-0.6611328125,0.03662109375,0.75341796875,-5.7373046875,-1.89208984375,4.7607421875,2.35107421875,42.7313232421875,-77.2119140625
1758877643.5479846,-0.6611328125,0.03662109375,0.75341796875,-5.7373046875,-1.89208984375,4.7607421875,2.3345947265625,42.703857421875,-77.1514892578125
1758877643.558192,-0.65869140625,0.03466796875,0.7587890625,-3.7841796875,-1.15966796875,4.08935546875,2.3345947265625,42.6873779296875,-77.0965576171875
1758877643.567941,-0.65869140625,0.03466796875,0.7587890625,-3.7841796875,-1.15966796875,4.08935546875,2.3291015625,42.6708984375,-77.0416259765625
1758877643.577968,-0.64208984375,0.03564453125,0.76806640625,-2.50244140625,-0.67138671875,3.41796875,2.3345947265625,42.659912109375,-76.9976806640625
1758877643.5881643,-0.64208984375,0.03564453125,0.76806640625,-2.50244140625,-0.67138671875,3.41796875,2.3455810546875,42.6434326171875,-76.9537353515625
1758877643.5980601,-0.630859375,0.037109375,0.7724609375,-1.3427734375,-1.220703125,2.685546875,2.35107421875,42.6214599609375,-76.9207763671875
1758877643.6079392,-0.630859375,0.037109375,0.7724609375,-1.3427734375,-1.220703125,2.685546875,2.362060546875,42.5994873046875,-76.88232421875
1758877643.6180072,-0.62646484375,0.025390625,0.775390625,-1.40380859375,-1.77001953125,1.89208984375,2.3675537109375,42.572021484375,-76.8603515625
1758877643.6281645,-0.62646484375,0.025390625,0.775390625,-1.40380859375,-1.77001953125,1.89208984375,2.3675537109375,42.5445556640625,-76.8328857421875
1758877643.6379712,-0.64697265625,0.03564453125,0.77392578125,-0.06103515625,-1.89208984375,1.28173828125,2.3785400390625,42.5115966796875,-76.81640625
1758877643.6479683,-0.64697265625,0.03564453125,0.77392578125,-0.06103515625,-1.89208984375,1.28173828125,2.3895263671875,42.484130859375,-76.7999267578125
1758877643.6580615,-0.6357421875,0.01953125,0.78662109375,2.86865234375,-1.708984375,0.8544921875,2.4224853515625,42.451171875,-76.7889404296875
1758877643.6679938,-0.6357421875,0.01953125,0.78662109375,2.86865234375,-1.708984375,0.8544921875,2.4609375,42.4237060546875,-76.783447265625
1758877643.678027,-0.6611328125,0.02734375,0.74560546875,4.82177734375,-1.3427734375,0.18310546875,2.5048828125,42.396240234375,-76.7779541015625
1758877643.6880927,-0.6611328125,0.02734375,0.74560546875,4.82177734375,-1.3427734375,0.18310546875,2.5543212890625,42.374267578125,-76.783447265625
1758877643.6981843,-0.6611328125,0.02734375,0.74560546875,7.32421875,-2.13623046875,-0.79345703125,2.61474609375,42.34130859375,-76.79443359375
1758877643.7080762,-0.6337890625,0.03125,0.75537109375,7.32421875,-2.13623046875,-0.79345703125,2.6806640625,42.308349609375,-76.8109130859375
1758877643.7181418,-0.6396484375,0.05078125,0.783203125,3.7841796875,-2.8076171875,-1.5869140625,2.6971435546875,42.2698974609375,-76.8328857421875
1758877643.7286491,-0.6396484375,0.05078125,0.783203125,3.7841796875,-2.8076171875,-1.5869140625,2.7191162109375,42.2314453125,-76.8548583984375
1758877643.7381847,-0.6201171875,0.06005859375,0.77392578125,2.685546875,-2.86865234375,-2.44140625,2.7191162109375,42.1875,-76.8878173828125
1758877643.7461042,-0.6201171875,0.06005859375,0.77392578125,2.685546875,-2.86865234375,-2.44140625,114.3731689453125,-6.976318359375,0.6756591796875
1758877643.7481382,-0.6201171875,0.06005859375,0.77392578125,2.685546875,-2.86865234375,-2.44140625,2.724609375,42.1490478515625,-76.9207763671875
1758877643.758157,-0.62158203125,0.05029296875,0.76513671875,2.38037109375,-2.3193359375,-3.11279296875,2.7191162109375,42.110595703125,-76.959228515625
1758877643.768226,-0.62158203125,0.05029296875,0.76513671875,2.38037109375,-2.3193359375,-3.11279296875,2.7191162109375,42.07763671875,-77.003173828125
1758877643.7781808,-0.61572265625,0.04443359375,0.78759765625,6.40869140625,-2.0751953125,-4.08935546875,2.74658203125,42.044677734375,-77.0526123046875
1758877643.7881396,-0.61572265625,0.04443359375,0.78759765625,6.40869140625,-2.0751953125,-4.08935546875,2.7740478515625,42.01171875,-77.10205078125
1758877643.7983904,-0.62744140625,0.03955078125,0.78955078125,7.9345703125,-1.77001953125,-5.31005859375,2.8070068359375,41.978759765625,-77.16796875
1758877643.8085089,-0.62744140625,0.03955078125,0.78955078125,7.9345703125,-1.77001953125,-5.31005859375,2.8399658203125,41.94580078125,-77.2393798828125
1758877643.8182375,-0.63720703125,0.04931640625,0.7685546875,9.521484375,-1.64794921875,-6.34765625,2.87841796875,41.9183349609375,-77.3162841796875
1758877643.8282816,-0.63720703125,0.04931640625,0.7685546875,9.521484375,-1.64794921875,-6.34765625,2.9168701171875,41.890869140625,-77.398681640625
1758877643.8382454,-0.6611328125,0.0185546875,0.76171875,11.16943359375,-1.28173828125,-7.50732421875,2.9608154296875,41.8634033203125,-77.4920654296875
1758877643.8482656,-0.6611328125,0.0185546875,0.76171875,11.16943359375,-1.28173828125,-7.50732421875,3.0047607421875,41.8414306640625,-77.5909423828125
1758877643.858266,-0.70849609375,0.02734375,0.732421875,12.39013671875,-0.79345703125,-7.8125,3.0596923828125,41.824951171875,-77.6953125
1758877643.8684697,-0.70849609375,0.02734375,0.732421875,12.39013671875,-0.79345703125,-7.8125,3.109130859375,41.81396484375,-77.794189453125
1758877643.8783555,-0.703125,0.02490234375,0.71923828125,16.6015625,0.1220703125,-7.6904296875,3.2025146484375,41.81396484375,-77.8985595703125
1758877643.8882782,-0.703125,0.02490234375,0.71923828125,16.6015625,0.1220703125,-7.6904296875,3.2958984375,41.81396484375,-78.0029296875
1758877643.8984494,-0.7275390625,0.0322265625,0.71435546875,15.869140625,1.220703125,-7.14111328125,3.3892822265625,41.8304443359375,-78.0963134765625
1758877643.9087627,-0.7275390625,0.0322265625,0.71435546875,15.869140625,1.220703125,-7.14111328125,3.4771728515625,41.846923828125,-78.1951904296875
1758877643.9184034,-0.70556640625,0.0517578125,0.6982421875,10.25390625,1.89208984375,-6.53076171875,3.515625,41.868896484375,-78.2830810546875
1758877643.9284089,-0.70556640625,0.0517578125,0.6982421875,10.25390625,1.89208984375,-6.53076171875,3.5595703125,41.8963623046875,-78.3709716796875
1758877643.9385355,-0.69384765625,0.07080078125,0.69189453125,3.47900390625,1.953125,-5.615234375,3.5430908203125,41.923828125,-78.4478759765625
1758877643.9484878,-0.69384765625,0.07080078125,0.69189453125,3.47900390625,1.953125,-5.615234375,3.526611328125,41.956787109375,-78.519287109375
1758877643.958409,-0.69384765625,0.0732421875,0.7138671875,-2.9296875,1.77001953125,-4.57763671875,3.4552001953125,41.978759765625,-78.57421875
1758877643.9684203,-0.69384765625,0.0732421875,0.7138671875,-2.9296875,1.77001953125,-4.57763671875,3.3892822265625,42.0062255859375,-78.6346435546875
1758877643.978527,-0.6943359375,0.0625,0.71435546875,-9.27734375,1.77001953125,-3.2958984375,3.2684326171875,42.03369140625,-78.6676025390625
1758877643.9884257,-0.6943359375,0.0625,0.71435546875,-9.27734375,1.77001953125,-3.2958984375,3.153076171875,42.0611572265625,-78.7060546875
1758877643.9985144,-0.68798828125,0.03369140625,0.7138671875,-12.39013671875,1.953125,-2.01416015625,3.021240234375,42.0941162109375,-78.72802734375
1758877644.0099385,-0.68798828125,0.03369140625,0.7138671875,-12.39013671875,1.953125,-2.01416015625,2.8839111328125,42.12158203125,-78.7445068359375
1758877644.0185645,-0.68798828125,0.01171875,0.7158203125,-11.962890625,1.953125,-1.03759765625,2.757568359375,42.1490478515625,-78.7554931640625
1758877644.0285077,-0.68798828125,0.01171875,0.7158203125,-11.962890625,1.953125,-1.03759765625,2.63671875,42.176513671875,-78.7664794921875
1758877644.0387592,-0.6865234375,-0.00048828125,0.7353515625,-5.79833984375,2.13623046875,-0.244140625,2.5762939453125,42.2039794921875,-78.7664794921875
1758877644.0494354,-0.6865234375,-0.00048828125,0.7353515625,-5.79833984375,2.13623046875,-0.244140625,2.5213623046875,42.2369384765625,-78.7664794921875
1758877644.058865,-0.66748046875,-0.00048828125,0.72314453125,0.3662109375,2.13623046875,0.1220703125,2.52685546875,42.264404296875,-78.7664794921875
1758877644.06939,-0.66748046875,-0.00048828125,0.72314453125,0.3662109375,2.13623046875,0.1220703125,2.52685546875,42.2918701171875,-78.7664794921875
1758877644.0789096,-0.65625,0.01708984375,0.7373046875,2.99072265625,2.197265625,0.30517578125,2.559814453125,42.3193359375,-78.760986328125
1758877644.088564,-0.65625,0.01708984375,0.7373046875,2.99072265625,2.197265625,0.30517578125,2.5927734375,42.3468017578125,-78.760986328125
1758877644.098994,-0.658203125,0.02880859375,0.7607421875,3.662109375,2.5634765625,0.67138671875,2.6312255859375,42.374267578125,-78.7554931640625
1758877644.1100655,-0.658203125,0.02880859375,0.7607421875,3.662109375,2.5634765625,0.67138671875,2.669677734375,42.4017333984375,-78.75
1758877644.1190417,-0.6435546875,0.04052734375,0.77099609375,4.2724609375,2.86865234375,0.9765625,2.7191162109375,42.42919921875,-78.739013671875
1758877644.1287012,-0.6435546875,0.04052734375,0.77099609375,4.2724609375,2.86865234375,0.9765625,2.7685546875,42.451171875,-78.7225341796875
1758877644.139023,-0.63671875,0.0419921875,0.765625,3.60107421875,3.11279296875,1.03759765625,2.8125,42.4786376953125,-78.7115478515625
1758877644.1493793,-0.63671875,0.0419921875,0.765625,3.60107421875,3.11279296875,1.03759765625,2.8564453125,42.506103515625,-78.695068359375
1758877644.158959,-0.63623046875,0.04150390625,0.76171875,3.662109375,3.11279296875,0.79345703125,2.900390625,42.5335693359375,-78.68408203125
1758877644.1687367,-0.63623046875,0.04150390625,0.76171875,3.662109375,3.11279296875,0.79345703125,2.9443359375,42.5555419921875,-78.673095703125
1758877644.1794367,-0.63525390625,0.03857421875,0.765625,4.69970703125,3.173828125,0.06103515625,2.98828125,42.5775146484375,-78.6676025390625
1758877644.1890147,-0.63525390625,0.03857421875,0.765625,4.69970703125,3.173828125,0.06103515625,3.0377197265625,42.5994873046875,-78.6676025390625
1758877644.1991065,-0.640625,0.0390625,0.77197265625,4.7607421875,3.5400390625,-0.67138671875,3.076171875,42.626953125,-78.673095703125
1758877644.209085,-0.640625,0.0390625,0.77197265625,4.7607421875,3.5400390625,-0.67138671875,3.1146240234375,42.64892578125,-78.6785888671875
1758877644.219513,-0.6376953125,0.0576171875,0.76513671875,1.8310546875,3.90625,-1.15966796875,3.1256103515625,42.6763916015625,-78.6895751953125
1758877644.2289917,-0.6376953125,0.0576171875,0.76513671875,1.8310546875,3.90625,-1.15966796875,3.131103515625,42.703857421875,-78.7005615234375
1758877644.2390475,-0.62744140625,0.0771484375,0.76513671875,-1.708984375,3.84521484375,-1.64794921875,3.1036376953125,42.7313232421875,-78.717041015625
1758877644.2493749,-0.62744140625,0.0771484375,0.76513671875,-1.708984375,3.84521484375,-1.64794921875,3.076171875,42.7532958984375,-78.72802734375
1758877644.2592025,-0.603515625,0.0771484375,0.77783203125,-7.50732421875,3.5400390625,-1.953125,2.98828125,42.7752685546875,-78.7445068359375
1758877644.2688353,-0.603515625,0.0771484375,0.77783203125,-7.50732421875,3.5400390625,-1.953125,2.900390625,42.7972412109375,-78.7554931640625
1758877644.2792006,-0.615234375,0.0703125,0.76904296875,-13.97705078125,3.5400390625,-2.44140625,2.74658203125,42.813720703125,-78.77197265625
1758877644.28945,-0.615234375,0.0703125,0.76904296875,-13.97705078125,3.5400390625,-2.44140625,2.5982666015625,42.8302001953125,-78.7884521484375
1758877644.2991457,-0.61865234375,0.06591796875,0.76416015625,-18.5546875,3.662109375,-2.99072265625,2.4005126953125,42.8466796875,-78.8104248046875
1758877644.3088923,-0.61865234375,0.06591796875,0.76416015625,-18.5546875,3.662109375,-2.99072265625,2.197265625,42.86865234375,-78.8323974609375
1758877644.319823,-0.61767578125,0.041015625,0.79443359375,-22.0947265625,3.47900390625,-3.96728515625,1.95556640625,42.879638671875,-78.85986328125
1758877644.3291075,-0.61767578125,0.041015625,0.79443359375,-22.0947265625,3.47900390625,-3.96728515625,1.7138671875,42.8961181640625,-78.892822265625
1758877644.3391616,-0.67626953125,0.04443359375,0.783203125,-31.982421875,4.08935546875,-4.2724609375,1.373291015625,42.9180908203125,-78.9312744140625
1758877644.348981,-0.67626953125,0.04443359375,0.783203125,-31.982421875,4.08935546875,-4.2724609375,1.03271484375,42.9400634765625,-78.9642333984375
1758877644.359881,-0.75,0.05029296875,0.74853515625,-40.283203125,5.79833984375,-4.33349609375,0.6097412109375,42.978515625,-78.9971923828125
1758877644.3689795,-0.75,0.05029296875,0.74853515625,-40.283203125,5.79833984375,-4.33349609375,0.1922607421875,43.0224609375,-79.024658203125
1758877644.379363,-0.74951171875,-0.0087890625,0.71337890625,-41.44287109375,8.48388671875,-4.21142578125,-0.2362060546875,43.0938720703125,-79.0576171875
1758877644.3895662,-0.74951171875,-0.0087890625,0.71337890625,-41.44287109375,8.48388671875,-4.21142578125,-0.6646728515625,43.1707763671875,-79.090576171875
1758877644.3994524,-0.74658203125,-0.033203125,0.68896484375,-41.1376953125,11.1083984375,-4.39453125,-1.0986328125,43.275146484375,-79.1290283203125
1758877644.4094045,-0.74658203125,-0.033203125,0.68896484375,-41.1376953125,11.1083984375,-4.39453125,-1.5325927734375,43.3795166015625,-79.1729736328125
1758877644.419381,-0.75537109375,-0.03076171875,0.673828125,-34.7900390625,12.75634765625,-4.57763671875,-1.9061279296875,43.505859375,-79.2169189453125
1758877644.4292843,-0.75537109375,-0.03076171875,0.673828125,-34.7900390625,12.75634765625,-4.57763671875,-2.2796630859375,43.6322021484375,-79.266357421875
1758877644.4392896,-0.76220703125,-0.04296875,0.66552734375,-20.3857421875,13.36669921875,-5.0048828125,-2.515869140625,43.7640380859375,-79.3212890625
1758877644.449043,-0.7626953125,-0.08154296875,0.65185546875,-11.23046875,12.6953125,-4.69970703125,-2.7081298828125,43.8958740234375,-79.376220703125
1758877644.4601357,-0.7626953125,-0.08154296875,0.65185546875,-11.23046875,12.6953125,-4.69970703125,-2.8564453125,44.0277099609375,-79.4366455078125
1758877644.469266,-0.75341796875,-0.0732421875,0.64697265625,-3.5400390625,11.1083984375,-4.150390625,-2.96630859375,44.154052734375,-79.4915771484375
1758877644.4794238,-0.75341796875,-0.0732421875,0.64697265625,-3.5400390625,11.1083984375,-4.150390625,-3.0377197265625,44.27490234375,-79.5465087890625
1758877644.4897976,-0.74267578125,-0.07275390625,0.6484375,4.33349609375,9.46044921875,-3.2958984375,-3.065185546875,44.384765625,-79.6014404296875
1758877644.4994066,-0.74267578125,-0.07275390625,0.6484375,4.33349609375,9.46044921875,-3.2958984375,-3.05419921875,44.4891357421875,-79.6453857421875
1758877644.5091624,-0.736328125,-0.068359375,0.642578125,7.38525390625,7.6904296875,-2.25830078125,-3.0267333984375,44.5880126953125,-79.683837890625
1758877644.5196722,-0.736328125,-0.068359375,0.642578125,7.38525390625,7.6904296875,-2.25830078125,-2.977294921875,44.6759033203125,-79.7222900390625
1758877644.5292392,-0.73291015625,-0.060546875,0.65478515625,7.14111328125,6.40869140625,-0.9765625,-2.9278564453125,44.75830078125,-79.7442626953125
1758877644.5394292,-0.73291015625,-0.060546875,0.65478515625,7.14111328125,6.40869140625,-0.9765625,-2.8729248046875,44.835205078125,-79.7607421875
1758877644.5498664,-0.74755859375,-0.04296875,0.65380859375,6.2255859375,6.4697265625,0.1220703125,-2.8179931640625,44.912109375,-79.771728515625
1758877644.5595286,-0.74755859375,-0.04296875,0.65380859375,6.2255859375,6.4697265625,0.1220703125,-2.7630615234375,44.9945068359375,-79.7772216796875
1758877644.569251,-0.73193359375,-0.044921875,0.6865234375,6.2255859375,7.080078125,0.91552734375,-2.70263671875,45.076904296875,-79.7772216796875
1758877644.57995,-0.73193359375,-0.044921875,0.6865234375,6.2255859375,7.080078125,0.91552734375,-2.6422119140625,45.1593017578125,-79.7662353515625
1758877644.5894616,-0.7158203125,-0.0478515625,0.69580078125,6.34765625,7.87353515625,1.28173828125,-2.5762939453125,45.2471923828125,-79.7552490234375
1758877644.599499,-0.7158203125,-0.0478515625,0.69580078125,6.34765625,7.87353515625,1.28173828125,-2.5103759765625,45.340576171875,-79.7442626953125
1758877644.6095586,-0.697265625,-0.03662109375,0.69775390625,8.544921875,8.30078125,0.67138671875,-2.4334716796875,45.428466796875,-79.73876953125
1758877644.6197767,-0.697265625,-0.03662109375,0.69775390625,8.544921875,8.30078125,0.67138671875,-2.35107421875,45.5218505859375,-79.7332763671875
1758877644.6293833,-0.68115234375,-0.0244140625,0.712890625,13.24462890625,8.48388671875,-0.3662109375,-2.252197265625,45.6097412109375,-79.73876953125
1758877644.639498,-0.68115234375,-0.0244140625,0.712890625,13.24462890625,8.48388671875,-0.3662109375,-2.1368408203125,45.6976318359375,-79.749755859375
1758877644.649893,-0.6689453125,-0.02294921875,0.732421875,15.2587890625,8.30078125,-1.52587890625,-2.010498046875,45.7855224609375,-79.7662353515625
1758877644.65958,-0.6689453125,-0.02294921875,0.732421875,15.2587890625,8.30078125,-1.52587890625,-1.8841552734375,45.8624267578125,-79.793701171875
1758877644.6693914,-0.6591796875,-0.013671875,0.74267578125,15.44189453125,8.30078125,-2.62451171875,-1.7633056640625,45.94482421875,-79.82666015625
1758877644.6800046,-0.6591796875,-0.013671875,0.74267578125,15.44189453125,8.30078125,-2.62451171875,-1.6424560546875,46.021728515625,-79.8651123046875
1758877644.6894486,-0.6572265625,-0.01416015625,0.74462890625,15.380859375,9.033203125,-3.2958984375,-1.527099609375,46.0986328125,-79.903564453125
1758877644.699582,-0.6572265625,-0.01416015625,0.74462890625,15.380859375,9.033203125,-3.2958984375,-1.417236328125,46.175537109375,-79.9530029296875
1758877644.70998,-0.65673828125,-0.02197265625,0.7314453125,15.07568359375,10.07080078125,-3.84521484375,-1.3128662109375,46.2579345703125,-80.00244140625
1758877644.71957,-0.65673828125,-0.02197265625,0.7314453125,15.07568359375,10.07080078125,-3.84521484375,-1.20849609375,46.34033203125,-80.0518798828125
1758877644.7294068,-0.63818359375,-0.0302734375,0.72900390625,17.63916015625,10.92529296875,-4.7607421875,-1.0986328125,46.42822265625,-80.1177978515625
1758877644.7399936,-0.63818359375,-0.0302734375,0.72900390625,17.63916015625,10.92529296875,-4.7607421875,-0.9832763671875,46.51611328125,-80.1837158203125
1758877644.7496803,-0.62255859375,-0.0322265625,0.728515625,25.08544921875,11.1083984375,-6.103515625,-0.8349609375,46.6094970703125,-80.2606201171875
1758877644.7595553,-0.62255859375,-0.0322265625,0.728515625,25.08544921875,11.1083984375,-6.103515625,-0.6591796875,46.6973876953125,-80.3485107421875
1758877644.7698903,-0.607421875,-0.02734375,0.73095703125,33.50830078125,10.25390625,-7.32421875,-0.450439453125,46.7742919921875,-80.4473876953125
1758877644.7797728,-0.607421875,-0.02734375,0.73095703125,33.50830078125,10.25390625,-7.32421875,-0.208740234375,46.8511962890625,-80.5572509765625
1758877644.789531,-0.6357421875,-0.005859375,0.72119140625,35.46142578125,8.97216796875,-7.99560546875,0.0384521484375,46.9171142578125,-80.6671142578125
1758877644.799598,-0.6357421875,-0.005859375,0.72119140625,35.46142578125,8.97216796875,-7.99560546875,0.2911376953125,46.9830322265625,-80.7879638671875
1758877644.810028,-0.68017578125,0.0283203125,0.76904296875,27.40478515625,7.2021484375,-7.87353515625,0.50537109375,47.032470703125,-80.9033203125
1758877644.8195488,-0.68017578125,0.0283203125,0.76904296875,27.40478515625,7.2021484375,-7.87353515625,0.6866455078125,47.076416015625,-81.01318359375
1758877644.8295817,-0.73095703125,0.07421875,0.7734375,4.45556640625,5.43212890625,-6.40869140625,0.758056640625,47.109375,-81.1175537109375
1758877644.8397355,-0.73095703125,0.07421875,0.7734375,4.45556640625,5.43212890625,-6.40869140625,0.72509765625,47.13134765625,-81.199951171875
1758877644.8496358,-0.7890625,0.072265625,0.7216796875,-12.14599609375,3.47900390625,-5.06591796875,0.626220703125,47.1478271484375,-81.265869140625
1758877644.8599672,-0.7890625,0.072265625,0.7216796875,-12.14599609375,3.47900390625,-5.06591796875,0.4559326171875,47.1588134765625,-81.3262939453125
1758877644.870607,-0.84765625,-0.00830078125,0.71044921875,-7.14111328125,1.708984375,-4.150390625,0.3131103515625,47.164306640625,-81.3702392578125
1758877644.8796675,-0.84765625,-0.00830078125,0.71044921875,-7.14111328125,1.708984375,-4.150390625,0.2032470703125,47.164306640625,-81.4141845703125
1758877644.889712,-0.82470703125,-0.0869140625,0.6220703125,5.126953125,1.28173828125,-4.39453125,0.1483154296875,47.164306640625,-81.463623046875
1758877644.8999426,-0.82470703125,-0.0869140625,0.6220703125,5.126953125,1.28173828125,-4.39453125,0.15380859375,47.164306640625,-81.5240478515625
1758877644.9096894,-0.80078125,-0.05810546875,0.53564453125,16.78466796875,1.3427734375,-5.0048828125,0.2032470703125,47.17529296875,-81.5899658203125
1758877644.9196222,-0.80078125,-0.05810546875,0.53564453125,16.78466796875,1.3427734375,-5.0048828125,0.3131103515625,47.1917724609375,-81.6668701171875
1758877644.930324,-0.82861328125,-0.0361328125,0.57373046875,33.203125,1.8310546875,-5.2490234375,0.494384765625,47.2137451171875,-81.749267578125
1758877644.9397597,-0.82861328125,-0.0361328125,0.57373046875,33.203125,1.8310546875,-5.2490234375,0.758056640625,47.2412109375,-81.8316650390625
1758877644.9496865,-0.79541015625,-0.02001953125,0.5908203125,42.1142578125,1.89208984375,-5.06591796875,1.0601806640625,47.274169921875,-81.9140625
1758877644.9598494,-0.79541015625,-0.02001953125,0.5908203125,42.1142578125,1.89208984375,-5.06591796875,1.4117431640625,47.30712890625,-82.001953125
1758877644.970737,-0.76953125,0.00634765625,0.58447265625,38.87939453125,1.8310546875,-4.57763671875,1.7413330078125,47.3455810546875,-82.0843505859375
1758877644.9798052,-0.76953125,0.00634765625,0.58447265625,38.87939453125,1.8310546875,-4.57763671875,2.0654296875,47.384033203125,-82.1612548828125
1758877644.989838,-0.75341796875,0.04150390625,0.611328125,29.72412109375,1.708984375,-3.90625,2.340087890625,47.4224853515625,-82.2381591796875
1758877645.0007012,-0.75341796875,0.04150390625,0.611328125,29.72412109375,1.708984375,-3.90625,2.5762939453125,47.4609375,-82.3040771484375
1758877645.0114243,-0.75732421875,0.06494140625,0.6591796875,21.17919921875,1.77001953125,-3.35693359375,2.7740478515625,47.493896484375,-82.364501953125
1758877645.0199187,-0.75732421875,0.06494140625,0.6591796875,21.17919921875,1.77001953125,-3.35693359375,2.9388427734375,47.5323486328125,-82.41943359375
1758877645.0299237,-0.75732421875,0.068359375,0.67919921875,13.7939453125,2.01416015625,-2.685546875,3.0706787109375,47.57080078125,-82.46337890625
1758877645.0403647,-0.75732421875,0.068359375,0.67919921875,13.7939453125,2.01416015625,-2.685546875,3.1695556640625,47.603759765625,-82.50732421875
1758877645.049899,-0.75,0.05419921875,0.65673828125,5.615234375,2.685546875,-1.46484375,3.2354736328125,47.6422119140625,-82.5347900390625
1758877645.0598974,-0.75,0.05419921875,0.65673828125,5.615234375,2.685546875,-1.46484375,3.2684326171875,47.6861572265625,-82.55126953125
1758877645.070226,-0.74853515625,0.0439453125,0.6552734375,0.0,3.90625,-0.244140625,3.284912109375,47.7301025390625,-82.562255859375
1758877645.0802891,-0.74853515625,0.0439453125,0.6552734375,0.0,3.90625,-0.244140625,3.2794189453125,47.779541015625,-82.562255859375
1758877645.0899296,-0.76171875,0.0224609375,0.67822265625,2.197265625,5.31005859375,0.732421875,3.2904052734375,47.83447265625,-82.55126953125
1758877645.0999312,-0.76171875,0.0224609375,0.67822265625,2.197265625,5.31005859375,0.732421875,3.31787109375,47.8948974609375,-82.5347900390625
1758877645.1100698,-0.748046875,-0.01025390625,0.65771484375,6.34765625,5.79833984375,1.953125,3.3782958984375,47.9608154296875,-82.5128173828125
1758877645.119972,-0.748046875,-0.01025390625,0.65771484375,6.34765625,5.79833984375,1.953125,3.4552001953125,48.021240234375,-82.4798583984375
1758877645.129943,-0.73876953125,0.0029296875,0.64990234375,7.14111328125,5.79833984375,2.74658203125,3.5430908203125,48.087158203125,-82.4468994140625
1758877645.140226,-0.73876953125,0.0029296875,0.64990234375,7.14111328125,5.79833984375,2.74658203125,3.636474609375,48.1475830078125,-82.408447265625
1758877645.1502702,-0.7509765625,0.03662109375,0.6669921875,9.8876953125,6.04248046875,3.662109375,3.7518310546875,48.2080078125,-82.364501953125
1758877645.1599653,-0.7509765625,0.03662109375,0.6669921875,9.8876953125,6.04248046875,3.662109375,3.8836669921875,48.27392578125,-82.3095703125
1758877645.1700466,-0.75537109375,0.05322265625,0.662109375,10.25390625,6.89697265625,4.638671875,4.02099609375,48.33984375,-82.2491455078125
1758877645.1802807,-0.75537109375,0.05322265625,0.662109375,10.25390625,6.89697265625,4.638671875,4.1693115234375,48.40576171875,-82.1832275390625
1758877645.1900795,-0.7451171875,0.0546875,0.66259765625,4.94384765625,7.50732421875,5.67626953125,4.3011474609375,48.4771728515625,-82.100830078125
1758877645.2000334,-0.7451171875,0.0546875,0.66259765625,4.94384765625,7.50732421875,5.67626953125,4.4110107421875,48.548583984375,-82.012939453125
1758877645.2103117,-0.7392578125,0.06494140625,0.66796875,-2.13623046875,7.9345703125,6.7138671875,4.4879150390625,48.6199951171875,-81.9195556640625
1758877645.220411,-0.7392578125,0.06494140625,0.66796875,-2.13623046875,7.9345703125,6.7138671875,4.5428466796875,48.6968994140625,-81.815185546875
1758877645.2301836,-0.7333984375,0.0712890625,0.66796875,-7.32421875,8.23974609375,7.568359375,4.5758056640625,48.768310546875,-81.6998291015625
1758877645.2401745,-0.7333984375,0.0712890625,0.66796875,-7.32421875,8.23974609375,7.568359375,4.59228515625,48.84521484375,-81.5789794921875
1758877645.2511127,-0.73583984375,0.07470703125,0.65771484375,-12.939453125,7.99560546875,8.11767578125,4.581298828125,48.9166259765625,-81.45263671875
1758877645.2601779,-0.73583984375,0.07470703125,0.65771484375,-12.939453125,7.99560546875,8.11767578125,4.5538330078125,48.9825439453125,-81.32080078125
1758877645.2709887,-0.73876953125,0.0712890625,0.67333984375,-18.310546875,7.8125,8.97216796875,4.4989013671875,49.053955078125,-81.177978515625
1758877645.2802563,-0.73876953125,0.0712890625,0.67333984375,-18.310546875,7.8125,8.97216796875,4.427490234375,49.119873046875,-81.0296630859375
1758877645.2902021,-0.72998046875,0.0625,0.6728515625,-23.01025390625,7.75146484375,9.70458984375,4.339599609375,49.1802978515625,-80.8758544921875
1758877645.3001971,-0.72998046875,0.0625,0.6728515625,-23.01025390625,7.75146484375,9.70458984375,4.229736328125,49.2462158203125,-80.716552734375
1758877645.3124332,-0.7119140625,0.04833984375,0.67626953125,-27.28271484375,7.50732421875,10.498046875,4.1033935546875,49.306640625,-80.5462646484375
1758877645.3203878,-0.7119140625,0.04833984375,0.67626953125,-27.28271484375,7.50732421875,10.498046875,3.966064453125,49.3670654296875,-80.3759765625
1758877645.3302271,-0.73046875,0.05615234375,0.69384765625,-33.0810546875,7.2021484375,10.7421875,3.7957763671875,49.4219970703125,-80.2001953125
1758877645.340499,-0.73046875,0.05615234375,0.69384765625,-33.0810546875,7.2021484375,10.7421875,3.603515625,49.4769287109375,-80.0189208984375
1758877645.351312,-0.7197265625,0.06982421875,0.68701171875,-38.51318359375,7.080078125,10.986328125,3.3837890625,49.5263671875,-79.8431396484375
1758877645.3602,-0.7197265625,0.06982421875,0.68701171875,-38.51318359375,7.080078125,10.986328125,3.14208984375,49.5758056640625,-79.6563720703125
1758877645.370266,-0.68603515625,0.0751953125,0.673828125,-43.27392578125,7.14111328125,11.23046875,2.8839111328125,49.625244140625,-79.464111328125
1758877645.3802702,-0.68603515625,0.0751953125,0.673828125,-43.27392578125,7.14111328125,11.23046875,2.5982666015625,49.68017578125,-79.2718505859375
1758877645.3910198,-0.69140625,0.05615234375,0.69140625,-47.05810546875,7.14111328125,11.3525390625,2.3016357421875,49.7296142578125,-79.0740966796875
1758877645.400325,-0.69140625,0.05615234375,0.69140625,-47.05810546875,7.14111328125,11.3525390625,1.988525390625,49.7735595703125,-78.8763427734375
1758877645.4106963,-0.72314453125,0.01416015625,0.70654296875,-44.921875,7.38525390625,10.68115234375,1.680908203125,49.822998046875,-78.6785888671875
1758877645.4209404,-0.72314453125,0.01416015625,0.70654296875,-44.921875,7.38525390625,10.68115234375,1.38427734375,49.8779296875,-78.4918212890625
1758877645.4307573,-0.767578125,-0.021484375,0.67724609375,-28.9306640625,8.23974609375,9.21630859375,1.153564453125,49.932861328125,-78.3160400390625
1758877645.440352,-0.767578125,-0.021484375,0.67724609375,-28.9306640625,8.23974609375,9.21630859375,0.9942626953125,49.9932861328125,-78.15673828125
1758877645.450843,-0.74365234375,-0.05517578125,0.64599609375,-7.62939453125,8.6669921875,7.4462890625,1.0162353515625,50.0592041015625,-78.02490234375
1758877645.46102,-0.74365234375,-0.05517578125,0.64599609375,-7.62939453125,8.6669921875,7.4462890625,1.0382080078125,50.1251220703125,-77.8985595703125
1758877645.470694,-0.71826171875,-0.04296875,0.65625,11.29150390625,8.6669921875,5.92041015625,1.23046875,50.196533203125,-77.80517578125
1758877645.480385,-0.71826171875,-0.04296875,0.65625,11.29150390625,8.6669921875,5.92041015625,1.4117431640625,50.262451171875,-77.7117919921875
1758877645.4911842,-0.70068359375,-0.0234375,0.646484375,23.92578125,9.27734375,5.31005859375,1.7138671875,50.3338623046875,-77.62939453125
1758877645.5006309,-0.70068359375,-0.0234375,0.646484375,23.92578125,9.27734375,5.31005859375,2.010498046875,50.4052734375,-77.5469970703125
1758877645.5107791,-0.7216796875,0.02978515625,0.6669921875,19.10400390625,9.09423828125,5.126953125,2.2576904296875,50.4766845703125,-77.4700927734375
1758877645.5204391,-0.7216796875,0.02978515625,0.6669921875,19.10400390625,9.09423828125,5.126953125,2.5048828125,50.5426025390625,-77.3931884765625
1758877645.5309048,-0.787109375,0.0537109375,0.79541015625,1.77001953125,7.9345703125,4.45556640625,2.57080078125,50.60302734375,-77.32177734375
1758877645.5405805,-0.787109375,0.0537109375,0.79541015625,1.77001953125,7.9345703125,4.45556640625,2.63671875,50.6524658203125,-77.2503662109375
1758877645.5508323,-0.77880859375,0.12744140625,0.69775390625,-12.20703125,7.080078125,5.615234375,2.5872802734375,50.701904296875,-77.1514892578125
1758877645.5605593,-0.77880859375,0.12744140625,0.69775390625,-12.20703125,7.080078125,5.615234375,2.537841796875,50.745849609375,-77.0526123046875
1758877645.5710654,-0.73876953125,0.099609375,0.62451171875,-10.986328125,5.43212890625,5.79833984375,2.5103759765625,50.7733154296875,-76.9427490234375
1758877645.5805082,-0.73876953125,0.099609375,0.62451171875,-10.986328125,5.43212890625,5.79833984375,2.48291015625,50.8062744140625,-76.827392578125
1758877645.5908546,-0.86279296875,0.029296875,0.68115234375,-24.96337890625,4.5166015625,5.126953125,2.3126220703125,50.833740234375,-76.728515625
1758877645.6012468,-0.86279296875,0.029296875,0.68115234375,-24.96337890625,4.5166015625,5.126953125,2.1368408203125,50.855712890625,-76.629638671875
1758877645.6110497,-0.8466796875,0.07861328125,0.6572265625,-34.5458984375,3.173828125,5.615234375,1.878662109375,50.8721923828125,-76.519775390625
1758877645.620587,-0.8466796875,0.07861328125,0.6572265625,-34.5458984375,3.173828125,5.615234375,1.6204833984375,50.8941650390625,-76.409912109375
1758877645.6309466,-0.73779296875,0.05419921875,0.611328125,-35.64453125,1.5869140625,6.28662109375,1.3568115234375,50.8941650390625,-76.2890625
1758877645.641086,-0.73779296875,0.05419921875,0.611328125,-35.64453125,1.5869140625,6.28662109375,1.0986328125,50.899658203125,-76.168212890625
1758877645.6509888,-0.8388671875,0.0341796875,0.63818359375,-35.5224609375,0.67138671875,7.26318359375,0.85693359375,50.899658203125,-76.0308837890625
1758877645.6606133,-0.8388671875,0.0341796875,0.63818359375,-35.5224609375,0.67138671875,7.26318359375,0.615234375,50.899658203125,-75.8935546875
1758877645.6718383,-0.89794921875,-0.00439453125,0.6162109375,-20.8740234375,0.54931640625,6.53076171875,0.50537109375,50.899658203125,-75.772705078125
1758877645.6808732,-0.89794921875,-0.00439453125,0.6162109375,-20.8740234375,0.54931640625,6.53076171875,0.3955078125,50.9051513671875,-75.65185546875
1758877645.6909719,-0.82763671875,-0.03955078125,0.5673828125,-24.96337890625,-0.79345703125,5.31005859375,0.2252197265625,50.899658203125,-75.552978515625
1758877645.7008586,-0.82763671875,-0.03955078125,0.5673828125,-24.96337890625,-0.79345703125,5.31005859375,0.054931640625,50.8941650390625,-75.4595947265625
1758877645.71106,-0.7109375,0.02978515625,0.556640625,-40.283203125,-1.77001953125,5.06591796875,-0.263671875,50.8831787109375,-75.3717041015625
1758877645.7207472,-0.7109375,0.02978515625,0.556640625,-40.283203125,-1.77001953125,5.06591796875,-0.5877685546875,50.8721923828125,-75.2783203125
1758877645.7312374,-0.70458984375,0.08984375,0.525390625,-52.79541015625,-1.15966796875,6.04248046875,-1.021728515625,50.8721923828125,-75.1629638671875
1758877645.7409751,-0.70458984375,0.08984375,0.525390625,-52.79541015625,-1.15966796875,6.04248046875,-1.4447021484375,50.86669921875,-75.0421142578125
1758877645.7510884,-0.6962890625,0.08154296875,0.609375,-64.697265625,-0.732421875,6.7138671875,-1.9775390625,50.86669921875,-74.90478515625
1758877645.7611847,-0.6962890625,0.08154296875,0.609375,-64.697265625,-0.732421875,6.7138671875,-2.4993896484375,50.86669921875,-74.761962890625
1758877645.7713482,-0.65673828125,0.06884765625,0.5966796875,-74.15771484375,-0.42724609375,7.14111328125,-3.109130859375,50.8721923828125,-74.608154296875
1758877645.7807956,-0.65673828125,0.06884765625,0.5966796875,-74.15771484375,-0.42724609375,7.14111328125,-3.71337890625,50.8721923828125,-74.4488525390625
1758877645.7911193,-0.671875,0.0302734375,0.60009765625,-74.5849609375,-0.67138671875,7.01904296875,-4.3231201171875,50.8721923828125,-74.2840576171875
1758877645.8012035,-0.671875,0.0302734375,0.60009765625,-74.5849609375,-0.67138671875,7.01904296875,-4.9273681640625,50.8721923828125,-74.1192626953125
1758877645.8111277,-0.80126953125,-0.05712890625,0.70751953125,-61.03515625,-1.3427734375,6.89697265625,-5.394287109375,50.8612060546875,-73.9544677734375
1758877645.8208983,-0.80126953125,-0.05712890625,0.70751953125,-61.03515625,-1.3427734375,6.89697265625,-5.86669921875,50.855712890625,-73.795166015625
1758877645.831447,-0.8583984375,-0.14306640625,0.78466796875,-39.48974609375,-2.9296875,6.16455078125,-6.1358642578125,50.8282470703125,-73.65234375
1758877645.8412082,-0.8583984375,-0.14306640625,0.78466796875,-39.48974609375,-2.9296875,6.16455078125,-6.416015625,50.7952880859375,-73.5150146484375
1758877645.8512259,-0.81787109375,-0.1630859375,0.68212890625,-36.1328125,-4.45556640625,5.55419921875,-6.668701171875,50.7513427734375,-73.388671875
1758877645.8609045,-0.81787109375,-0.1630859375,0.68212890625,-36.1328125,-4.45556640625,5.55419921875,-6.932373046875,50.7073974609375,-73.267822265625
1758877645.871767,-0.85888671875,-0.0791015625,0.625,-37.90283203125,-5.37109375,5.4931640625,-7.2125244140625,50.657958984375,-73.1524658203125
1758877645.8812327,-0.85888671875,-0.0791015625,0.625,-37.90283203125,-5.37109375,5.4931640625,-7.49267578125,50.6085205078125,-73.037109375
1758877645.8912306,-0.892578125,-0.03857421875,0.5615234375,-35.15625,-5.18798828125,6.103515625,-7.7398681640625,50.570068359375,-72.9107666015625
1758877645.9010417,-0.892578125,-0.03857421875,0.5615234375,-35.15625,-5.18798828125,6.103515625,-7.987060546875,50.537109375,-72.784423828125
1758877645.911704,-0.83642578125,-0.02587890625,0.53125,-41.8701171875,-6.7138671875,6.591796875,-8.28369140625,50.4876708984375,-72.6470947265625
1758877645.9210885,-0.83642578125,-0.02587890625,0.53125,-41.8701171875,-6.7138671875,6.591796875,-8.5858154296875,50.4437255859375,-72.5042724609375
1758877645.9310756,-0.9296875,-0.06396484375,0.4794921875,-46.2646484375,-6.103515625,6.77490234375,-8.9263916015625,50.416259765625,-72.366943359375
1758877645.9410763,-0.9296875,-0.06396484375,0.4794921875,-46.2646484375,-6.103515625,6.77490234375,-9.2724609375,50.3887939453125,-72.22412109375
1758877645.9518425,-0.958984375,-0.08740234375,0.443359375,-44.3115234375,-2.8076171875,5.31005859375,-9.6185302734375,50.4052734375,-72.1197509765625
1758877645.961029,-0.958984375,-0.08740234375,0.443359375,-44.3115234375,-2.8076171875,5.31005859375,-9.964599609375,50.4217529296875,-72.015380859375
1758877645.9714096,-0.9033203125,-0.111328125,0.388671875,-37.4755859375,1.89208984375,4.2724609375,-10.272216796875,50.4876708984375,-71.9439697265625
1758877645.9819815,-0.9033203125,-0.111328125,0.388671875,-37.4755859375,1.89208984375,4.2724609375,-10.579833984375,50.55908203125,-71.8780517578125
1758877645.9914007,-0.84716796875,-0.13525390625,0.3896484375,-32.77587890625,4.2724609375,3.173828125,-10.8599853515625,50.657958984375,-71.8341064453125
1758877646.001087,-0.84716796875,-0.13525390625,0.3896484375,-32.77587890625,4.2724609375,3.173828125,-11.1456298828125,50.7568359375,-71.8011474609375
1758877646.0115793,-0.8251953125,-0.16748046875,0.47314453125,-18.5546875,4.5166015625,2.44140625,-11.2994384765625,50.855712890625,-71.7791748046875
1758877646.0219588,-0.8251953125,-0.16748046875,0.47314453125,-18.5546875,4.5166015625,2.44140625,-11.4642333984375,50.95458984375,-71.7681884765625
1758877646.0314991,-0.8388671875,-0.20751953125,0.51708984375,2.44140625,3.2958984375,2.0751953125,-11.4202880859375,51.04248046875,-71.7572021484375
1758877646.041211,-0.8388671875,-0.20751953125,0.51708984375,2.44140625,3.2958984375,2.0751953125,-11.3818359375,51.1248779296875,-71.7572021484375
1758877646.0518446,-0.828125,-0.19873046875,0.51904296875,14.7705078125,1.8310546875,2.50244140625,-11.217041015625,51.1907958984375,-71.7462158203125
1758877646.061424,-0.828125,-0.19873046875,0.51904296875,14.7705078125,1.8310546875,2.50244140625,-11.0577392578125,51.26220703125,-71.74072265625
1758877646.0716457,-0.84326171875,-0.1669921875,0.49267578125,17.9443359375,0.732421875,2.62451171875,-10.865478515625,51.317138671875,-71.729736328125
1758877646.0812936,-0.84326171875,-0.1669921875,0.49267578125,17.9443359375,0.732421875,2.62451171875,-10.6732177734375,51.3720703125,-71.7242431640625
1758877646.0918024,-0.85888671875,-0.11328125,0.47900390625,18.310546875,0.6103515625,2.50244140625,-10.4864501953125,51.427001953125,-71.71875
1758877646.1013222,-0.85888671875,-0.11328125,0.47900390625,18.310546875,0.6103515625,2.50244140625,-10.294189453125,51.48193359375,-71.7132568359375
1758877646.1120563,-0.861328125,-0.08154296875,0.47412109375,15.31982421875,1.03759765625,2.0751953125,-10.1348876953125,51.536865234375,-71.7132568359375
1758877646.1220877,-0.861328125,-0.08154296875,0.47412109375,15.31982421875,1.03759765625,2.0751953125,-9.9810791015625,51.5972900390625,-71.7132568359375
1758877646.1317,-0.84716796875,-0.0751953125,0.51123046875,12.5732421875,1.3427734375,1.220703125,-9.8602294921875,51.65771484375,-71.7242431640625
1758877646.1413355,-0.84716796875,-0.0751953125,0.51123046875,12.5732421875,1.3427734375,1.220703125,-9.73388671875,51.7181396484375,-71.729736328125
1758877646.1521282,-0.82568359375,-0.09814453125,0.55322265625,15.80810546875,1.953125,-0.18310546875,-9.5965576171875,51.778564453125,-71.7626953125
1758877646.1613903,-0.82568359375,-0.09814453125,0.55322265625,15.80810546875,1.953125,-0.18310546875,-9.459228515625,51.8389892578125,-71.7901611328125
1758877646.171739,-0.7978515625,-0.1171875,0.5634765625,20.93505859375,2.197265625,-1.77001953125,-9.29443359375,51.8939208984375,-71.8450927734375
1758877646.1819701,-0.7978515625,-0.1171875,0.5634765625,20.93505859375,2.197265625,-1.77001953125,-9.1241455078125,51.9488525390625,-71.9000244140625
1758877646.1917486,-0.77783203125,-0.1064453125,0.591796875,26.91650390625,1.708984375,-3.0517578125,-8.9154052734375,51.9927978515625,-71.9769287109375
1758877646.201371,-0.77783203125,-0.1064453125,0.591796875,26.91650390625,1.708984375,-3.0517578125,-8.701171875,52.0367431640625,-72.04833984375
1758877646.2131271,-0.78759765625,-0.10546875,0.61083984375,30.57861328125,1.0986328125,-3.47900390625,-8.45947265625,52.0697021484375,-72.125244140625
1758877646.2222948,-0.78759765625,-0.10546875,0.61083984375,30.57861328125,1.0986328125,-3.47900390625,-8.2177734375,52.09716796875,-72.2021484375
1758877646.2319486,-0.7783203125,-0.0869140625,0.63623046875,26.4892578125,0.244140625,-3.60107421875,-8.0145263671875,52.1136474609375,-72.279052734375
1758877646.2416153,-0.7783203125,-0.0869140625,0.63623046875,26.4892578125,0.244140625,-3.60107421875,-7.811279296875,52.130126953125,-72.35595703125
1758877646.2539563,-0.7734375,-0.05908203125,0.65185546875,18.4326171875,-0.30517578125,-3.7841796875,-7.6904296875,52.1356201171875,-72.4273681640625
1758877646.2617795,-0.7734375,-0.05908203125,0.65185546875,18.4326171875,-0.30517578125,-3.7841796875,-7.5640869140625,52.1356201171875,-72.498779296875
1758877646.2718403,-0.7578125,-0.0439453125,0.66650390625,12.8173828125,-1.03759765625,-4.0283203125,-7.49267578125,52.130126953125,-72.5701904296875
1758877646.281624,-0.7578125,-0.0439453125,0.66650390625,12.8173828125,-1.03759765625,-4.0283203125,-7.4212646484375,52.119140625,-72.6361083984375
1758877646.2923481,-0.740234375,-0.05908203125,0.68603515625,10.25390625,-1.708984375,-4.2724609375,-7.3773193359375,52.09716796875,-72.7020263671875
1758877646.3015082,-0.740234375,-0.05908203125,0.68603515625,10.25390625,-1.708984375,-4.2724609375,-7.327880859375,52.0751953125,-72.762451171875
1758877646.311843,-0.734375,-0.087890625,0.70068359375,6.34765625,-2.74658203125,-3.96728515625,-7.3114013671875,52.0367431640625,-72.8173828125
1758877646.3223195,-0.734375,-0.087890625,0.70068359375,6.34765625,-2.74658203125,-3.96728515625,-7.294921875,51.998291015625,-72.872314453125
1758877646.33189,-0.7412109375,-0.09765625,0.68212890625,2.3193359375,-3.41796875,-3.41796875,-7.3114013671875,51.954345703125,-72.916259765625
1758877646.3416665,-0.7412109375,-0.09765625,0.68212890625,2.3193359375,-3.41796875,-3.41796875,-7.327880859375,51.9049072265625,-72.960205078125
1758877646.3524609,-0.744140625,-0.09423828125,0.66650390625,1.220703125,-3.96728515625,-2.86865234375,-7.3443603515625,51.8499755859375,-72.9931640625
1758877646.3618937,-0.744140625,-0.09423828125,0.66650390625,1.220703125,-3.96728515625,-2.86865234375,-7.3663330078125,51.7950439453125,-73.026123046875
1758877646.3718443,-0.7607421875,-0.099609375,0.6494140625,3.60107421875,-4.21142578125,-2.38037109375,-7.3553466796875,51.734619140625,-73.0535888671875
1758877646.3817656,-0.7607421875,-0.099609375,0.6494140625,3.60107421875,-4.21142578125,-2.38037109375,-7.3443603515625,51.6796875,-73.0865478515625
1758877646.3924959,-0.75927734375,-0.10107421875,0.64111328125,9.3994140625,-4.638671875,-2.3193359375,-7.2784423828125,51.6192626953125,-73.114013671875
1758877646.4017565,-0.75927734375,-0.10107421875,0.64111328125,9.3994140625,-4.638671875,-2.3193359375,-7.2125244140625,51.5533447265625,-73.1414794921875
1758877646.4118712,-0.77294921875,-0.10302734375,0.6181640625,19.287109375,-4.57763671875,-2.50244140625,-7.0477294921875,51.4984130859375,-73.1744384765625
1758877646.4220471,-0.77685546875,-0.11181640625,0.59423828125,28.50341796875,-4.5166015625,-2.44140625,-6.844482421875,51.43798828125,-73.212890625
1758877646.431822,-0.77685546875,-0.11181640625,0.59423828125,28.50341796875,-4.5166015625,-2.44140625,-6.591796875,51.383056640625,-73.2513427734375
1758877646.4418485,-0.7744140625,-0.1044921875,0.595703125,36.1328125,-3.90625,-2.86865234375,-6.3116455078125,51.328125,-73.2952880859375
1758877646.4523635,-0.7744140625,-0.1044921875,0.595703125,36.1328125,-3.90625,-2.86865234375,-5.99853515625,51.2841796875,-73.3502197265625
1758877646.4621365,-0.7568359375,-0.0859375,0.625,44.43359375,-3.60107421875,-3.41796875,-5.64697265625,51.240234375,-73.4051513671875
1758877646.4718273,-0.7568359375,-0.0859375,0.625,44.43359375,-3.60107421875,-3.41796875,-5.262451171875,51.1962890625,-73.4710693359375
1758877646.4821053,-0.771484375,-0.064453125,0.64111328125,48.03466796875,-3.662109375,-3.5400390625,-4.8614501953125,51.15234375,-73.54248046875
1758877646.492393,-0.771484375,-0.064453125,0.64111328125,48.03466796875,-3.662109375,-3.5400390625,-4.4439697265625,51.1083984375,-73.6083984375
1758877646.501921,-0.75341796875,-0.03759765625,0.68310546875,46.0205078125,-3.60107421875,-3.662109375,-4.04296875,51.064453125,-73.6798095703125
1758877646.5123935,-0.75341796875,-0.03759765625,0.68310546875,46.0205078125,-3.60107421875,-3.662109375,-3.6474609375,51.0205078125,-73.751220703125
1758877646.5221667,-0.7734375,-0.013671875,0.68505859375,40.4052734375,-3.41796875,-3.7841796875,-3.2794189453125,50.9765625,-73.8226318359375
1758877646.5319545,-0.7734375,-0.013671875,0.68505859375,40.4052734375,-3.41796875,-3.7841796875,-2.9388427734375,50.9381103515625,-73.89404296875
1758877646.542086,-0.748046875,0.01416015625,0.65380859375,41.32080078125,-3.35693359375,-5.06591796875,-2.603759765625,50.8941650390625,-73.970947265625
1758877646.552871,-0.748046875,0.01416015625,0.65380859375,41.32080078125,-3.35693359375,-5.06591796875,-2.2686767578125,50.8502197265625,-74.058837890625
1758877646.5619419,-0.76953125,0.01318359375,0.646484375,42.90771484375,-3.90625,-5.126953125,-1.922607421875,50.8062744140625,-74.146728515625
1758877646.5719836,-0.76953125,0.01318359375,0.646484375,42.90771484375,-3.90625,-5.126953125,-1.571044921875,50.7568359375,-74.2291259765625
1758877646.5832574,-0.76611328125,-0.00927734375,0.669921875,35.64453125,-4.08935546875,-4.94384765625,-1.25244140625,50.7073974609375,-74.3170166015625
1758877646.5920022,-0.76611328125,-0.00927734375,0.669921875,35.64453125,-4.08935546875,-4.94384765625,-0.966796875,50.657958984375,-74.3994140625
1758877646.6020787,-0.78173828125,0.0,0.6552734375,26.79443359375,-4.08935546875,-4.82177734375,-0.72509765625,50.614013671875,-74.476318359375
1758877646.6126008,-0.78173828125,0.0,0.6552734375,26.79443359375,-4.08935546875,-4.82177734375,-0.5328369140625,50.5645751953125,-74.5587158203125
1758877646.6222653,-0.77197265625,0.0048828125,0.62939453125,30.1513671875,-3.7841796875,-4.69970703125,-0.3131103515625,50.5206298828125,-74.64111328125
1758877646.6320353,-0.77197265625,0.0048828125,0.62939453125,30.1513671875,-3.7841796875,-4.69970703125,-0.0823974609375,50.4766845703125,-74.7235107421875
1758877646.6421547,-0.77587890625,-0.013671875,0.61474609375,33.69140625,-3.60107421875,-4.39453125,0.164794921875,50.438232421875,-74.8004150390625
1758877646.6527843,-0.77587890625,-0.013671875,0.61474609375,33.69140625,-3.60107421875,-4.39453125,0.4339599609375,50.3997802734375,-74.8773193359375
1758877646.662088,-0.77099609375,-0.017578125,0.634765625,36.376953125,-3.5400390625,-4.150390625,0.714111328125,50.361328125,-74.959716796875
1758877646.6721807,-0.77099609375,-0.017578125,0.634765625,36.376953125,-3.5400390625,-4.150390625,1.0107421875,50.328369140625,-75.03662109375
1758877646.6836684,-0.76708984375,-0.01123046875,0.64990234375,35.33935546875,-3.5400390625,-3.90625,1.3018798828125,50.2899169921875,-75.113525390625
1758877646.6922321,-0.76708984375,-0.01123046875,0.64990234375,35.33935546875,-3.5400390625,-3.90625,1.5875244140625,50.2569580078125,-75.1959228515625
1758877646.7022228,-0.76708984375,-0.01123046875,0.64990234375,35.70556640625,-3.90625,-4.2724609375,1.8731689453125,50.218505859375,-75.2783203125
1758877646.712576,-0.76123046875,0.02490234375,0.65625,35.70556640625,-3.90625,-4.2724609375,2.1588134765625,50.1800537109375,-75.3662109375
1758877646.7224405,-0.74609375,0.0439453125,0.6572265625,41.3818359375,-3.96728515625,-4.2724609375,2.471923828125,50.1416015625,-75.4486083984375
1758877646.732212,-0.74609375,0.0439453125,0.6572265625,41.3818359375,-3.96728515625,-4.2724609375,2.8125,50.1031494140625,-75.5364990234375
1758877646.7422786,-0.72900390625,0.04345703125,0.68115234375,35.64453125,-4.39453125,-3.41796875,3.131103515625,50.064697265625,-75.6134033203125
1758877646.7524772,-0.72900390625,0.04345703125,0.68115234375,35.64453125,-4.39453125,-3.41796875,3.427734375,50.0152587890625,-75.684814453125
1758877646.7623377,-0.73876953125,0.04931640625,0.732421875,15.625,-4.69970703125,-2.8076171875,3.62548828125,49.9713134765625,-75.7452392578125
1758877646.772286,-0.73876953125,0.04931640625,0.732421875,15.625,-4.69970703125,-2.8076171875,3.7298583984375,49.9163818359375,-75.8056640625
1758877646.783329,-0.732421875,0.0849609375,0.73046875,3.0517578125,-5.18798828125,-2.62451171875,3.7738037109375,49.8614501953125,-75.8660888671875
1758877646.7926557,-0.732421875,0.0849609375,0.73046875,3.0517578125,-5.18798828125,-2.62451171875,3.75732421875,49.801025390625,-75.9210205078125
1758877646.8024611,-0.72509765625,0.0712890625,0.7001953125,3.72314453125,-5.859375,-2.50244140625,3.746337890625,49.735107421875,-75.970458984375
1758877646.8131237,-0.72509765625,0.0712890625,0.7001953125,3.72314453125,-5.859375,-2.50244140625,3.746337890625,49.6636962890625,-76.014404296875
1758877646.8229213,-0.72021484375,0.03564453125,0.6875,5.31005859375,-5.92041015625,-2.50244140625,3.7518310546875,49.59228515625,-76.0638427734375
1758877646.8325071,-0.72021484375,0.03564453125,0.6875,5.31005859375,-5.92041015625,-2.50244140625,3.768310546875,49.5208740234375,-76.1077880859375
1758877646.8425019,-0.71142578125,0.029296875,0.7001953125,-5.67626953125,-6.2255859375,-2.0751953125,3.7298583984375,49.449462890625,-76.1517333984375
1758877646.8533053,-0.71142578125,0.029296875,0.7001953125,-5.67626953125,-6.2255859375,-2.0751953125,3.6419677734375,49.37255859375,-76.1956787109375
1758877646.8625247,-0.73388671875,0.056640625,0.7412109375,-25.0244140625,-7.26318359375,-1.52587890625,3.4552001953125,49.295654296875,-76.2286376953125
1758877646.8724704,-0.73388671875,0.056640625,0.7412109375,-25.0244140625,-7.26318359375,-1.52587890625,3.1805419921875,49.207763671875,-76.2615966796875
1758877646.8824894,-0.74853515625,0.083984375,0.7314453125,-36.1328125,-7.62939453125,-1.5869140625,2.8564453125,49.1143798828125,-76.2890625
1758877646.8931458,-0.74853515625,0.083984375,0.7314453125,-36.1328125,-7.62939453125,-1.5869140625,2.4774169921875,49.0264892578125,-76.31103515625
1758877646.9024823,-0.72705078125,0.07666015625,0.68798828125,-39.24560546875,-8.11767578125,-2.197265625,2.08740234375,48.93310546875,-76.3330078125
1758877646.912718,-0.72705078125,0.07666015625,0.68798828125,-39.24560546875,-8.11767578125,-2.197265625,1.680908203125,48.834228515625,-76.35498046875
1758877646.923502,-0.72119140625,0.0302734375,0.67724609375,-38.9404296875,-7.75146484375,-2.38037109375,1.2799072265625,48.7408447265625,-76.376953125
1758877646.932487,-0.72119140625,0.0302734375,0.67724609375,-38.9404296875,-7.75146484375,-2.38037109375,0.8843994140625,48.6529541015625,-76.3934326171875
1758877646.9425504,-0.7158203125,0.00439453125,0.66650390625,-30.1513671875,-7.32421875,-2.685546875,0.52734375,48.5650634765625,-76.4154052734375
1758877646.953089,-0.7158203125,0.00439453125,0.66650390625,-30.1513671875,-7.32421875,-2.685546875,0.2142333984375,48.4771728515625,-76.4373779296875
1758877646.9625974,-0.708984375,-0.0126953125,0.64453125,-18.6767578125,-6.53076171875,-2.9296875,-0.032958984375,48.4002685546875,-76.4593505859375
1758877646.9725986,-0.708984375,-0.0126953125,0.64453125,-18.6767578125,-6.53076171875,-2.9296875,-0.2362060546875,48.3233642578125,-76.48681640625
1758877646.982958,-0.708984375,-0.0126953125,0.64453125,-15.56396484375,-5.2490234375,-2.685546875,-0.41748046875,48.2574462890625,-76.5142822265625
1758877646.9932866,-0.71435546875,-0.025390625,0.62158203125,-15.56396484375,-5.2490234375,-2.685546875,-0.5877685546875,48.197021484375,-76.541748046875
1758877647.002925,-0.7490234375,-0.02734375,0.66796875,-10.6201171875,-4.5166015625,-2.8076171875,-0.736083984375,48.14208984375,-76.5692138671875
1758877647.0126736,-0.7490234375,-0.02734375,0.66796875,-10.6201171875,-4.5166015625,-2.8076171875,-0.85693359375,48.0926513671875,-76.5966796875
1758877647.0233247,-0.7294921875,-0.03515625,0.65966796875,-5.18798828125,-4.08935546875,-2.62451171875,-0.955810546875,48.043212890625,-76.629638671875
1758877647.0327811,-0.7294921875,-0.03515625,0.65966796875,-5.18798828125,-4.08935546875,-2.62451171875,-1.0272216796875,47.999267578125,-76.6571044921875
