timestamp,acc_x,acc_y,acc_z,gyro_x,gyro_y,gyro_z,angle_x,angle_y,angle_z
1758180297.1554468,0.953125,-0.05224609375,0.31884765625,0.54931640625,-0.67138671875,-0.1220703125,-8.7615966796875,-71.3177490234375,70.3509521484375
1758180297.1647527,0.9599609375,-0.05029296875,0.322265625,0.42724609375,-0.732421875,-0.42724609375,-8.7451171875,-71.3287353515625,70.345458984375
1758180297.1746926,0.9599609375,-0.05029296875,0.322265625,0.42724609375,-0.732421875,-0.42724609375,-8.734130859375,-71.334228515625,70.33447265625
1758180297.1848297,0.95263671875,-0.046875,0.31640625,0.3662109375,-0.91552734375,-0.54931640625,-8.7176513671875,-71.34521484375,70.3289794921875
1758180297.1945946,0.95263671875,-0.046875,0.31640625,0.3662109375,-0.91552734375,-0.54931640625,-8.701171875,-71.356201171875,70.3179931640625
1758180297.2047548,0.93994140625,-0.046875,0.3095703125,0.732421875,-1.0986328125,-0.67138671875,-8.6846923828125,-71.3671875,70.301513671875
1758180297.214592,0.93994140625,-0.046875,0.3095703125,0.732421875,-1.0986328125,-0.67138671875,-8.6627197265625,-71.378173828125,70.29052734375
1758180297.2247555,0.93994140625,-0.052734375,0.3115234375,1.64794921875,-1.3427734375,-0.91552734375,-8.624267578125,-71.3946533203125,70.2685546875
1758180297.2337046,0.93994140625,-0.052734375,0.3115234375,1.64794921875,-1.3427734375,-0.91552734375,-8.5858154296875,-71.4111328125,70.2520751953125
1758180297.2435222,0.94775390625,-0.052734375,0.31689453125,1.89208984375,-1.28173828125,-1.03759765625,-8.54736328125,-71.422119140625,70.2301025390625
1758180297.253473,0.94775390625,-0.052734375,0.31689453125,1.89208984375,-1.28173828125,-1.03759765625,-8.50341796875,-71.4385986328125,70.2081298828125
1758180297.2634985,0.955078125,-0.04736328125,0.3193359375,1.3427734375,-0.9765625,-1.03759765625,-8.470458984375,-71.4495849609375,70.1861572265625
1758180297.2735307,0.955078125,-0.04736328125,0.3193359375,1.3427734375,-0.9765625,-1.03759765625,-8.4320068359375,-71.4605712890625,70.1641845703125
1758180297.2834957,0.955078125,-0.044921875,0.3203125,0.8544921875,-0.8544921875,-0.8544921875,-8.404541015625,-71.466064453125,70.1422119140625
1758180297.2935367,0.955078125,-0.044921875,0.3203125,0.8544921875,-0.8544921875,-0.8544921875,-8.3770751953125,-71.47705078125,70.125732421875
1758180297.3035834,0.94775390625,-0.046875,0.31103515625,0.54931640625,-0.91552734375,-0.67138671875,-8.3551025390625,-71.488037109375,70.1092529296875
1758180297.313545,0.94775390625,-0.046875,0.31103515625,0.54931640625,-0.91552734375,-0.67138671875,-8.338623046875,-71.4935302734375,70.0982666015625
1758180297.3238,0.9443359375,-0.05029296875,0.31201171875,0.8544921875,-1.03759765625,-0.67138671875,-8.316650390625,-71.5045166015625,70.0872802734375
1758180297.3339372,0.9443359375,-0.05029296875,0.31201171875,0.8544921875,-1.03759765625,-0.67138671875,-8.294677734375,-71.5155029296875,70.0762939453125
1758180297.343579,0.9443359375,-0.05126953125,0.3115234375,0.8544921875,-1.03759765625,-0.67138671875,-8.272705078125,-71.5264892578125,70.0653076171875
1758180297.3535857,0.9443359375,-0.05126953125,0.3115234375,0.8544921875,-1.03759765625,-0.67138671875,-8.2562255859375,-71.5374755859375,70.059814453125
1758180297.3635952,0.95361328125,-0.046875,0.31591796875,0.30517578125,-0.91552734375,-0.6103515625,-8.23974609375,-71.5484619140625,70.048828125
1758180297.3736048,0.95361328125,-0.046875,0.31591796875,0.30517578125,-0.91552734375,-0.6103515625,-8.228759765625,-71.5594482421875,70.0433349609375
1758180297.3836098,0.95654296875,-0.0419921875,0.3193359375,-0.18310546875,-0.67138671875,-0.54931640625,-8.2177734375,-71.56494140625,70.0323486328125
1758180297.3936281,0.95654296875,-0.0419921875,0.3193359375,-0.18310546875,-0.67138671875,-0.54931640625,-8.2122802734375,-71.5704345703125,70.02685546875
1758180297.4036376,0.955078125,-0.046875,0.3134765625,0.0,-0.48828125,-0.48828125,-8.2012939453125,-71.575927734375,70.015869140625
1758180297.4136527,0.955078125,-0.046875,0.3134765625,0.0,-0.48828125,-0.48828125,-8.1903076171875,-71.5814208984375,70.0048828125
1758180297.423672,0.9560546875,-0.05224609375,0.3154296875,0.732421875,-0.42724609375,-0.54931640625,-8.1683349609375,-71.5869140625,69.993896484375
1758180297.4336786,0.9560546875,-0.05224609375,0.3154296875,0.732421875,-0.42724609375,-0.54931640625,-8.15185546875,-71.5869140625,69.9884033203125
1758180297.4436898,0.95263671875,-0.05078125,0.31494140625,1.0986328125,-0.3662109375,-0.6103515625,-8.1298828125,-71.5924072265625,69.9774169921875
1758180297.4536915,0.95263671875,-0.05078125,0.31494140625,1.0986328125,-0.3662109375,-0.6103515625,-8.1024169921875,-71.597900390625,69.9664306640625
1758180297.463753,0.94140625,-0.0458984375,0.31005859375,0.79345703125,-0.244140625,-0.42724609375,-8.0859375,-71.597900390625,69.9609375
1758180297.473724,0.94140625,-0.0458984375,0.31005859375,0.79345703125,-0.244140625,-0.42724609375,-8.074951171875,-71.6033935546875,69.9554443359375
1758180297.4837327,0.9345703125,-0.04248046875,0.306640625,0.1220703125,-0.3662109375,-0.18310546875,-8.0694580078125,-71.6033935546875,69.9554443359375
1758180297.493764,0.9345703125,-0.04248046875,0.306640625,0.1220703125,-0.3662109375,-0.18310546875,-8.0694580078125,-71.60888671875,69.9554443359375
1758180297.503755,0.9453125,-0.04345703125,0.3125,-0.42724609375,-0.30517578125,-0.06103515625,-8.074951171875,-71.60888671875,69.9554443359375
1758180297.513848,0.9453125,-0.04345703125,0.3125,-0.42724609375,-0.30517578125,-0.06103515625,-8.0804443359375,-71.6143798828125,69.9609375
1758180297.523757,0.95458984375,-0.04443359375,0.31494140625,-0.8544921875,-0.1220703125,0.0,-8.0914306640625,-71.6143798828125,69.9609375
1758180297.5338166,0.95458984375,-0.04443359375,0.31494140625,-0.8544921875,-0.1220703125,0.0,-8.1024169921875,-71.6143798828125,69.9664306640625
1758180297.5437937,0.95166015625,-0.0458984375,0.314453125,-0.79345703125,0.0,0.0,-8.1134033203125,-71.6143798828125,69.9664306640625
1758180297.5537727,0.95166015625,-0.0458984375,0.314453125,-0.79345703125,0.0,0.0,-8.1243896484375,-71.6143798828125,69.9664306640625
1758180297.5638387,0.953125,-0.048828125,0.3134765625,-0.42724609375,0.06103515625,-0.1220703125,-8.1243896484375,-71.6143798828125,69.9664306640625
1758180297.5738344,0.953125,-0.048828125,0.3134765625,-0.42724609375,0.06103515625,-0.1220703125,-8.1243896484375,-71.6143798828125,69.9664306640625
1758180297.5838823,0.94873046875,-0.048828125,0.31005859375,-0.3662109375,0.06103515625,-0.06103515625,-8.1298828125,-71.6143798828125,69.9664306640625
1758180297.5938668,0.94873046875,-0.048828125,0.31005859375,-0.3662109375,0.06103515625,-0.06103515625,-8.1353759765625,-71.60888671875,69.9664306640625
1758180297.6038306,0.9453125,-0.046875,0.31201171875,-0.3662109375,0.0,0.0,-8.140869140625,-71.60888671875,69.971923828125
1758180297.6138668,0.9453125,-0.046875,0.31201171875,-0.3662109375,0.0,0.0,-8.1463623046875,-71.60888671875,69.971923828125
1758180297.623962,0.94580078125,-0.0439453125,0.3095703125,-0.91552734375,0.0,0.06103515625,-8.1573486328125,-71.60888671875,69.9774169921875
1758180297.6339216,0.94580078125,-0.0439453125,0.3095703125,-0.91552734375,0.0,0.06103515625,-8.173828125,-71.60888671875,69.98291015625
1758180297.6439695,0.9453125,-0.0439453125,0.3134765625,-1.46484375,0.0,0.18310546875,-8.19580078125,-71.60888671875,69.993896484375
1758180297.6539364,0.9453125,-0.0439453125,0.3134765625,-1.46484375,0.0,0.18310546875,-8.2177734375,-71.60888671875,69.9993896484375
1758180297.6639602,0.94873046875,-0.04736328125,0.3125,-1.220703125,0.18310546875,0.244140625,-8.2342529296875,-71.60888671875,70.0103759765625
1758180297.6739812,0.94873046875,-0.04736328125,0.3125,-1.220703125,0.18310546875,0.244140625,-8.2562255859375,-71.6033935546875,70.0213623046875
1758180297.6840165,0.94873046875,-0.04736328125,0.3125,-0.6103515625,0.48828125,0.30517578125,-8.2672119140625,-71.597900390625,70.0323486328125
1758180297.6940272,0.95654296875,-0.0517578125,0.31396484375,-0.6103515625,0.48828125,0.30517578125,-8.28369140625,-71.5924072265625,70.0433349609375
1758180297.7040172,0.9619140625,-0.05224609375,0.3203125,-0.244140625,0.6103515625,0.30517578125,-8.294677734375,-71.5869140625,70.0543212890625
1758180297.7140646,0.9619140625,-0.05224609375,0.3203125,-0.244140625,0.6103515625,0.30517578125,-8.3056640625,-71.5814208984375,70.0653076171875
1758180297.7240274,0.97021484375,-0.0498046875,0.3173828125,-0.06103515625,0.54931640625,0.42724609375,-8.316650390625,-71.575927734375,70.081787109375
1758180297.7340658,0.97021484375,-0.0498046875,0.3173828125,-0.06103515625,0.54931640625,0.42724609375,-8.3331298828125,-71.5704345703125,70.0982666015625
1758180297.7441502,0.9658203125,-0.04833984375,0.31884765625,0.244140625,0.54931640625,0.6103515625,-8.349609375,-71.5594482421875,70.1202392578125
1758180297.754348,0.9658203125,-0.04833984375,0.31884765625,0.244140625,0.54931640625,0.6103515625,-8.3660888671875,-71.553955078125,70.1422119140625
1758180297.764086,0.95166015625,-0.04736328125,0.31396484375,-0.3662109375,0.42724609375,0.732421875,-8.3880615234375,-71.5484619140625,70.1641845703125
1758180297.7742586,0.95166015625,-0.04736328125,0.31396484375,-0.3662109375,0.42724609375,0.732421875,-8.41552734375,-71.54296875,70.191650390625
1758180297.7840612,0.94921875,-0.0439453125,0.3154296875,-1.3427734375,0.30517578125,0.8544921875,-8.4539794921875,-71.54296875,70.213623046875
1758180297.800403,0.94921875,-0.0439453125,0.3154296875,-1.3427734375,0.30517578125,0.8544921875,-8.492431640625,-71.5374755859375,70.2410888671875
1758180297.8071225,0.943359375,-0.04736328125,0.306640625,-0.91552734375,0.244140625,0.79345703125,-8.525390625,-71.531982421875,70.2630615234375
1758180297.8141882,0.943359375,-0.04736328125,0.306640625,-0.91552734375,0.244140625,0.79345703125,-8.5528564453125,-71.531982421875,70.29052734375
1758180297.824228,0.94189453125,-0.052734375,0.3134765625,-0.1220703125,0.30517578125,0.732421875,-8.5748291015625,-71.5264892578125,70.3125
1758180297.8396144,0.94189453125,-0.052734375,0.3134765625,-0.1220703125,0.30517578125,0.732421875,-8.602294921875,-71.52099609375,70.33447265625
1758180297.8460603,0.9375,-0.04931640625,0.3115234375,-0.54931640625,0.30517578125,0.48828125,-8.6187744140625,-71.5155029296875,70.3509521484375
1758180297.8542492,0.9375,-0.04931640625,0.3115234375,-0.54931640625,0.30517578125,0.48828125,-8.6407470703125,-71.5155029296875,70.367431640625
1758180297.8642433,0.93896484375,-0.04443359375,0.30615234375,-0.6103515625,0.30517578125,0.244140625,-8.6517333984375,-71.510009765625,70.3729248046875
1758180297.874209,0.93896484375,-0.04443359375,0.30615234375,-0.6103515625,0.30517578125,0.244140625,-8.6627197265625,-71.510009765625,70.37841796875
1758180297.8842092,0.94140625,-0.0458984375,0.3115234375,-0.3662109375,0.244140625,0.1220703125,-8.668212890625,-71.5045166015625,70.3839111328125
1758180297.8945196,0.94140625,-0.0458984375,0.3115234375,-0.3662109375,0.244140625,0.1220703125,-8.67919921875,-71.5045166015625,70.3839111328125
1758180297.9044702,0.9453125,-0.04833984375,0.3115234375,-0.67138671875,0.06103515625,-0.06103515625,-8.67919921875,-71.5045166015625,70.3839111328125
1758180297.914541,0.953125,-0.0478515625,0.3125,-0.244140625,-0.06103515625,-0.30517578125,-8.67919921875,-71.5045166015625,70.37841796875
1758180297.9243722,0.953125,-0.0478515625,0.3125,-0.244140625,-0.06103515625,-0.30517578125,-8.6737060546875,-71.5045166015625,70.367431640625
1758180297.9349918,0.958984375,-0.05078125,0.31640625,0.9765625,-0.1220703125,-0.6103515625,-8.6572265625,-71.5045166015625,70.3564453125
1758180297.944507,0.958984375,-0.05078125,0.31640625,0.9765625,-0.1220703125,-0.6103515625,-8.6297607421875,-71.510009765625,70.3399658203125
1758180297.9554832,0.95166015625,-0.05078125,0.31591796875,1.28173828125,-0.18310546875,-0.79345703125,-8.602294921875,-71.510009765625,70.3179931640625
1758180297.9647706,0.95166015625,-0.05078125,0.31591796875,1.28173828125,-0.18310546875,-0.79345703125,-8.5638427734375,-71.5155029296875,70.2960205078125
1758180297.97477,0.94189453125,-0.044921875,0.30859375,0.79345703125,-0.18310546875,-0.79345703125,-8.536376953125,-71.52099609375,70.2740478515625
1758180297.98497,0.94189453125,-0.044921875,0.30859375,0.79345703125,-0.18310546875,-0.79345703125,-8.50341796875,-71.52099609375,70.2520751953125
1758180297.9946573,0.9443359375,-0.04443359375,0.31201171875,0.6103515625,-0.244140625,-0.8544921875,-8.4759521484375,-71.5264892578125,70.2301025390625
1758180298.0045238,0.9443359375,-0.04443359375,0.31201171875,0.6103515625,-0.244140625,-0.8544921875,-8.448486328125,-71.5264892578125,70.2081298828125
1758180298.0148466,0.9521484375,-0.04931640625,0.314453125,1.03759765625,-0.30517578125,-0.91552734375,-8.41552734375,-71.531982421875,70.1806640625
1758180298.0245924,0.9521484375,-0.04931640625,0.314453125,1.03759765625,-0.30517578125,-0.91552734375,-8.382568359375,-71.5374755859375,70.15869140625
1758180298.0348067,0.95458984375,-0.05078125,0.31640625,1.03759765625,-0.1220703125,-0.91552734375,-8.3441162109375,-71.54296875,70.1312255859375
1758180298.0450773,0.95458984375,-0.05078125,0.31640625,1.03759765625,-0.1220703125,-0.91552734375,-8.3111572265625,-71.54296875,70.1092529296875
1758180298.054806,0.94677734375,-0.048828125,0.31494140625,1.77001953125,0.0,-0.8544921875,-8.272705078125,-71.54296875,70.081787109375
1758180298.0646348,0.94677734375,-0.048828125,0.31494140625,1.77001953125,0.0,-0.8544921875,-8.2342529296875,-71.5484619140625,70.059814453125
1758180298.0747824,0.94775390625,-0.05029296875,0.3095703125,1.8310546875,0.18310546875,-0.79345703125,-8.19580078125,-71.5484619140625,70.037841796875
1758180298.0848835,0.94775390625,-0.05029296875,0.3095703125,1.8310546875,0.18310546875,-0.79345703125,-8.1573486328125,-71.5484619140625,70.0213623046875
1758180298.0948226,0.95751953125,-0.0458984375,0.3212890625,1.0986328125,0.244140625,-0.48828125,-8.1243896484375,-71.54296875,70.0048828125
1758180298.1046371,0.95751953125,-0.0458984375,0.3212890625,1.0986328125,0.244140625,-0.48828125,-8.1024169921875,-71.54296875,69.993896484375
1758180298.1165955,0.9482421875,-0.044921875,0.3154296875,1.0986328125,0.244140625,-0.244140625,-8.0859375,-71.54296875,69.9884033203125
1758180298.1253111,0.9482421875,-0.044921875,0.3154296875,1.0986328125,0.244140625,-0.244140625,-8.0694580078125,-71.5374755859375,69.9884033203125
1758180298.1348217,0.94384765625,-0.04736328125,0.310546875,0.48828125,0.30517578125,0.0,-8.0584716796875,-71.5374755859375,69.9884033203125
1758180298.145008,0.94384765625,-0.04736328125,0.310546875,0.48828125,0.30517578125,0.0,-8.0584716796875,-71.531982421875,69.9884033203125
1758180298.154966,0.951171875,-0.04638671875,0.3173828125,-0.42724609375,0.48828125,0.1220703125,-8.0584716796875,-71.5264892578125,69.993896484375
1758180298.164725,0.951171875,-0.04638671875,0.3173828125,-0.42724609375,0.48828125,0.1220703125,-8.0694580078125,-71.52099609375,69.9993896484375
1758180298.17487,0.955078125,-0.04541015625,0.3173828125,-0.732421875,0.6103515625,0.30517578125,-8.0804443359375,-71.5155029296875,70.0103759765625
1758180298.1855693,0.955078125,-0.04541015625,0.3173828125,-0.732421875,0.6103515625,0.30517578125,-8.096923828125,-71.510009765625,70.0213623046875
1758180298.1949596,0.9501953125,-0.04638671875,0.3134765625,-1.52587890625,0.54931640625,0.48828125,-8.118896484375,-71.5045166015625,70.037841796875
1758180298.2047942,0.9501953125,-0.04638671875,0.3134765625,-1.52587890625,0.54931640625,0.48828125,-8.15185546875,-71.4990234375,70.0543212890625
1758180298.2152042,0.95654296875,-0.046875,0.3154296875,-1.708984375,0.30517578125,0.67138671875,-8.184814453125,-71.4935302734375,70.07080078125
1758180298.2250454,0.95654296875,-0.046875,0.3154296875,-1.708984375,0.30517578125,0.67138671875,-8.2177734375,-71.488037109375,70.0982666015625
1758180298.235007,0.962890625,-0.05322265625,0.3173828125,-0.48828125,0.18310546875,0.79345703125,-8.250732421875,-71.4825439453125,70.1202392578125
1758180298.2450964,0.962890625,-0.05322265625,0.3173828125,-0.48828125,0.18310546875,0.79345703125,-8.28369140625,-71.4825439453125,70.1531982421875
1758180298.2549877,0.96337890625,-0.0537109375,0.3232421875,-0.244140625,0.18310546875,0.8544921875,-8.3111572265625,-71.47705078125,70.1806640625
1758180298.264754,0.96337890625,-0.0537109375,0.3232421875,-0.244140625,0.18310546875,0.8544921875,-8.3441162109375,-71.47705078125,70.213623046875
1758180298.2749565,0.96142578125,-0.048828125,0.31591796875,0.06103515625,0.244140625,0.8544921875,-8.37158203125,-71.4715576171875,70.24658203125
1758180298.2854257,0.96142578125,-0.048828125,0.31591796875,0.06103515625,0.244140625,0.8544921875,-8.3935546875,-71.466064453125,70.2740478515625
1758180298.2950609,0.95751953125,-0.048828125,0.31591796875,0.42724609375,0.18310546875,0.8544921875,-8.4210205078125,-71.466064453125,70.3070068359375
1758180298.3049047,0.95751953125,-0.048828125,0.31591796875,0.42724609375,0.18310546875,0.8544921875,-8.4429931640625,-71.4605712890625,70.3399658203125
1758180298.3151634,0.951171875,-0.046875,0.31689453125,-0.18310546875,0.0,0.9765625,-8.470458984375,-71.4605712890625,70.367431640625
1758180298.3248808,0.951171875,-0.046875,0.31689453125,-0.18310546875,0.0,0.9765625,-8.50341796875,-71.4605712890625,70.4058837890625
1758180298.3352718,0.9638671875,-0.044921875,0.318359375,-0.91552734375,-0.06103515625,1.03759765625,-8.536376953125,-71.455078125,70.4388427734375
1758180298.3452058,0.9638671875,-0.044921875,0.318359375,-0.91552734375,-0.06103515625,1.03759765625,-8.580322265625,-71.455078125,70.4718017578125
1758180298.3551161,0.9619140625,-0.0458984375,0.318359375,0.244140625,-0.1220703125,1.15966796875,-8.61328125,-71.455078125,70.5047607421875
1758180298.3648727,0.9619140625,-0.0458984375,0.318359375,0.244140625,-0.1220703125,1.15966796875,-8.646240234375,-71.455078125,70.543212890625
1758180298.375094,0.9599609375,-0.05859375,0.3154296875,0.9765625,-0.18310546875,0.9765625,-8.6737060546875,-71.455078125,70.576171875
1758180298.3856075,0.9599609375,-0.05859375,0.3154296875,0.9765625,-0.18310546875,0.9765625,-8.690185546875,-71.455078125,70.609130859375
1758180298.3951411,0.95361328125,-0.0498046875,0.3173828125,0.42724609375,-0.3662109375,0.732421875,-8.712158203125,-71.4605712890625,70.64208984375
1758180298.404963,0.95361328125,-0.0498046875,0.3173828125,0.42724609375,-0.3662109375,0.732421875,-8.734130859375,-71.4605712890625,70.6640625
1758180298.4164844,0.9482421875,-0.04443359375,0.31005859375,0.732421875,-0.54931640625,0.67138671875,-8.7506103515625,-71.466064453125,70.6915283203125
1758180298.425201,0.9482421875,-0.04443359375,0.31005859375,0.732421875,-0.54931640625,0.67138671875,-8.76708984375,-71.4715576171875,70.718994140625
1758180298.435181,0.94873046875,-0.048828125,0.314453125,1.15966796875,-0.67138671875,0.54931640625,-8.778076171875,-71.47705078125,70.740966796875
1758180298.4456408,0.94873046875,-0.048828125,0.314453125,1.15966796875,-0.67138671875,0.54931640625,-8.7835693359375,-71.4825439453125,70.7574462890625
1758180298.4555535,0.951171875,-0.05224609375,0.3134765625,1.708984375,-0.67138671875,0.244140625,-8.7835693359375,-71.488037109375,70.77392578125
1758180298.4649162,0.951171875,-0.05224609375,0.3134765625,1.708984375,-0.67138671875,0.244140625,-8.778076171875,-71.4935302734375,70.7904052734375
1758180298.4752498,0.9462890625,-0.05029296875,0.31396484375,1.89208984375,-0.79345703125,0.06103515625,-8.76708984375,-71.4990234375,70.7958984375
1758180298.4856756,0.9462890625,-0.05029296875,0.31396484375,1.89208984375,-0.79345703125,0.06103515625,-8.756103515625,-71.510009765625,70.806884765625
1758180298.4952645,0.9423828125,-0.0439453125,0.31103515625,1.15966796875,-0.8544921875,-0.06103515625,-8.7451171875,-71.5155029296875,70.806884765625
1758180298.5050812,0.9423828125,-0.0439453125,0.31103515625,1.15966796875,-0.8544921875,-0.06103515625,-8.7396240234375,-71.5264892578125,70.8123779296875
1758180298.515604,0.9482421875,-0.0458984375,0.310546875,1.40380859375,-0.91552734375,-0.18310546875,-8.72314453125,-71.531982421875,70.8123779296875
1758180298.525059,0.9482421875,-0.0458984375,0.310546875,1.40380859375,-0.91552734375,-0.18310546875,-8.712158203125,-71.54296875,70.806884765625
1758180298.5354695,0.953125,-0.05126953125,0.3154296875,1.77001953125,-0.8544921875,-0.3662109375,-8.690185546875,-71.553955078125,70.8013916015625
1758180298.545568,0.953125,-0.05126953125,0.3154296875,1.77001953125,-0.8544921875,-0.3662109375,-8.668212890625,-71.5594482421875,70.7958984375
1758180298.5554342,0.95166015625,-0.05029296875,0.31689453125,2.01416015625,-0.79345703125,-0.48828125,-8.6407470703125,-71.5704345703125,70.7904052734375
1758180298.565133,0.95166015625,-0.05029296875,0.31689453125,2.01416015625,-0.79345703125,-0.48828125,-8.6077880859375,-71.575927734375,70.7794189453125
1758180298.5754032,0.947265625,-0.05029296875,0.30517578125,2.99072265625,-0.8544921875,-0.6103515625,-8.5748291015625,-71.5869140625,70.7684326171875
1758180298.586057,0.947265625,-0.05029296875,0.30517578125,2.99072265625,-0.8544921875,-0.6103515625,-8.5308837890625,-71.5924072265625,70.751953125
1758180298.5953996,0.9521484375,-0.05126953125,0.3134765625,3.173828125,-1.03759765625,-0.732421875,-8.4869384765625,-71.6033935546875,70.740966796875
1758180298.6051624,0.9521484375,-0.05126953125,0.3134765625,3.173828125,-1.03759765625,-0.732421875,-8.4429931640625,-71.6143798828125,70.7244873046875
1758180298.6157627,0.94873046875,-0.0439453125,0.31201171875,2.01416015625,-1.220703125,-0.67138671875,-8.404541015625,-71.6253662109375,70.7135009765625
1758180298.625227,0.94873046875,-0.0439453125,0.31201171875,2.01416015625,-1.220703125,-0.67138671875,-8.37158203125,-71.641845703125,70.697021484375
1758180298.6355004,0.95556640625,-0.03857421875,0.31103515625,1.03759765625,-1.28173828125,-0.6103515625,-8.3441162109375,-71.65283203125,70.68603515625
1758180298.6456351,0.95556640625,-0.03857421875,0.31103515625,1.03759765625,-1.28173828125,-0.6103515625,-8.3221435546875,-71.663818359375,70.675048828125
1758180298.6554844,0.962890625,-0.04638671875,0.3193359375,1.40380859375,-1.28173828125,-0.67138671875,-8.3001708984375,-71.6802978515625,70.6585693359375
1758180298.665239,0.962890625,-0.04638671875,0.3193359375,1.40380859375,-1.28173828125,-0.67138671875,-8.272705078125,-71.6912841796875,70.64208984375
1758180298.67547,0.958984375,-0.0576171875,0.30712890625,2.86865234375,-1.3427734375,-0.8544921875,-8.2342529296875,-71.707763671875,70.6256103515625
1758180298.6858473,0.958984375,-0.0576171875,0.30712890625,2.86865234375,-1.3427734375,-0.8544921875,-8.1903076171875,-71.71875,70.6036376953125
1758180298.6955237,0.96533203125,-0.05419921875,0.31884765625,3.5400390625,-1.28173828125,-1.220703125,-8.1353759765625,-71.7352294921875,70.5816650390625
1758180298.7053096,0.96533203125,-0.05419921875,0.31884765625,3.5400390625,-1.28173828125,-1.220703125,-8.074951171875,-71.7462158203125,70.55419921875
1758180298.7158496,0.96533203125,-0.05419921875,0.31884765625,2.38037109375,-1.3427734375,-1.40380859375,-8.0145263671875,-71.7626953125,70.521240234375
1758180298.725392,0.966796875,-0.0390625,0.31494140625,2.38037109375,-1.3427734375,-1.40380859375,-7.9595947265625,-71.7791748046875,70.48828125
1758180298.7355824,0.966796875,-0.03125,0.3076171875,1.5869140625,-1.40380859375,-1.3427734375,-7.91015625,-71.7901611328125,70.455322265625
1758180298.7458036,0.966796875,-0.03125,0.3076171875,1.5869140625,-1.40380859375,-1.3427734375,-7.8607177734375,-71.806640625,70.4168701171875
1758180298.7556987,0.9619140625,-0.03857421875,0.3212890625,2.197265625,-1.52587890625,-1.28173828125,-7.811279296875,-71.8231201171875,70.3839111328125
1758180298.7653859,0.9619140625,-0.03857421875,0.3212890625,2.197265625,-1.52587890625,-1.28173828125,-7.75634765625,-71.839599609375,70.345458984375
1758180298.7756145,0.970703125,-0.05419921875,0.30810546875,3.84521484375,-1.708984375,-1.5869140625,-7.6904296875,-71.8560791015625,70.3070068359375
1758180298.7860134,0.970703125,-0.05419921875,0.30810546875,3.84521484375,-1.708984375,-1.5869140625,-7.613525390625,-71.87255859375,70.2630615234375
1758180298.795634,0.96533203125,-0.044921875,0.31787109375,3.7841796875,-1.5869140625,-2.01416015625,-7.53662109375,-71.89453125,70.213623046875
1758180298.8056583,0.96533203125,-0.044921875,0.31787109375,3.7841796875,-1.5869140625,-2.01416015625,-7.44873046875,-71.9110107421875,70.15869140625
1758180298.8158932,0.95458984375,-0.02978515625,0.30859375,2.13623046875,-1.77001953125,-1.8310546875,-7.371826171875,-71.927490234375,70.1092529296875
1758180298.825664,0.95458984375,-0.02978515625,0.30859375,2.13623046875,-1.77001953125,-1.8310546875,-7.3004150390625,-71.949462890625,70.0543212890625
1758180298.8356855,0.9453125,-0.029296875,0.2998046875,0.8544921875,-1.953125,-1.5869140625,-7.2454833984375,-71.9659423828125,70.0048828125
1758180298.8459766,0.9453125,-0.029296875,0.2998046875,0.8544921875,-1.953125,-1.5869140625,-7.196044921875,-71.9879150390625,69.9609375
1758180298.8556652,0.93701171875,-0.04296875,0.30078125,1.64794921875,-2.197265625,-1.5869140625,-7.1466064453125,-72.0098876953125,69.9114990234375
1758180298.8654447,0.93701171875,-0.04296875,0.30078125,1.64794921875,-2.197265625,-1.5869140625,-7.0916748046875,-72.0318603515625,69.8675537109375
1758180298.8755987,0.93798828125,-0.0517578125,0.298828125,2.5634765625,-2.25830078125,-1.708984375,-7.03125,-72.059326171875,69.8236083984375
1758180298.8862667,0.93798828125,-0.0517578125,0.298828125,2.5634765625,-2.25830078125,-1.708984375,-6.96533203125,-72.081298828125,69.7796630859375
1758180298.8956373,0.935546875,-0.03662109375,0.30322265625,1.46484375,-2.01416015625,-1.77001953125,-6.9049072265625,-72.103271484375,69.7357177734375
1758180298.9055712,0.935546875,-0.03662109375,0.30322265625,1.46484375,-2.01416015625,-1.77001953125,-6.8499755859375,-72.125244140625,69.6917724609375
1758180298.9159832,0.9345703125,-0.02587890625,0.30126953125,1.40380859375,-1.8310546875,-1.64794921875,-6.7950439453125,-72.1417236328125,69.6478271484375
1758180298.925623,0.9345703125,-0.02587890625,0.30126953125,1.40380859375,-1.8310546875,-1.64794921875,-6.7401123046875,-72.1636962890625,69.6038818359375
1758180298.9357169,0.9384765625,-0.03564453125,0.2978515625,1.953125,-1.64794921875,-1.52587890625,-6.6851806640625,-72.18017578125,69.5599365234375
1758180298.9455323,0.9384765625,-0.03564453125,0.2978515625,1.953125,-1.64794921875,-1.52587890625,-6.6302490234375,-72.1966552734375,69.5159912109375
1758180298.956128,0.94140625,-0.04345703125,0.3017578125,1.8310546875,-1.52587890625,-1.52587890625,-6.56982421875,-72.213134765625,69.4720458984375
1758180298.965613,0.94140625,-0.04345703125,0.3017578125,1.8310546875,-1.52587890625,-1.52587890625,-6.514892578125,-72.2296142578125,69.43359375
1758180298.9757159,0.939453125,-0.04052734375,0.296875,2.197265625,-1.40380859375,-1.52587890625,-6.4599609375,-72.24609375,69.3896484375
1758180298.9863825,0.939453125,-0.04052734375,0.296875,2.197265625,-1.40380859375,-1.52587890625,-6.3995361328125,-72.257080078125,69.3511962890625
1758180298.9956696,0.95166015625,-0.033203125,0.30615234375,2.3193359375,-1.15966796875,-1.40380859375,-6.3446044921875,-72.26806640625,69.312744140625
1758180299.0058427,0.95166015625,-0.033203125,0.30615234375,2.3193359375,-1.15966796875,-1.40380859375,-6.2896728515625,-72.2845458984375,69.27978515625
1758180299.0198135,0.94970703125,-0.02392578125,0.30224609375,0.732421875,-0.9765625,-1.220703125,-6.251220703125,-72.2900390625,69.2413330078125
1758180299.027108,0.94970703125,-0.02392578125,0.30224609375,0.732421875,-0.9765625,-1.220703125,-6.2127685546875,-72.301025390625,69.2083740234375
1758180299.0357585,0.95849609375,-0.02978515625,0.29931640625,0.30517578125,-0.91552734375,-1.03759765625,-6.1798095703125,-72.31201171875,69.1754150390625
1758180299.045776,0.95849609375,-0.02978515625,0.29931640625,0.30517578125,-0.91552734375,-1.03759765625,-6.15234375,-72.322998046875,69.1424560546875
1758180299.0565302,0.96435546875,-0.03955078125,0.310546875,0.244140625,-0.79345703125,-0.8544921875,-6.13037109375,-72.3284912109375,69.114990234375
1758180299.065726,0.96435546875,-0.03955078125,0.310546875,0.244140625,-0.79345703125,-0.8544921875,-6.1029052734375,-72.333984375,69.0875244140625
1758180299.07601,0.96142578125,-0.0380859375,0.3017578125,0.6103515625,-0.79345703125,-0.8544921875,-6.0809326171875,-72.344970703125,69.06005859375
1758180299.0870154,0.96142578125,-0.0380859375,0.3017578125,0.6103515625,-0.79345703125,-0.8544921875,-6.053466796875,-72.3504638671875,69.0325927734375
1758180299.095731,0.958984375,-0.0322265625,0.30224609375,0.91552734375,-0.79345703125,-0.79345703125,-6.0260009765625,-72.3614501953125,69.005126953125
1758180299.1061265,0.958984375,-0.0322265625,0.30224609375,0.91552734375,-0.79345703125,-0.79345703125,-5.99853515625,-72.366943359375,68.983154296875
1758180299.1162918,0.9658203125,-0.02783203125,0.30419921875,0.18310546875,-0.8544921875,-0.732421875,-5.9820556640625,-72.3779296875,68.961181640625
1758180299.1259346,0.9658203125,-0.02783203125,0.30419921875,0.18310546875,-0.8544921875,-0.732421875,-5.9600830078125,-72.3834228515625,68.9337158203125
1758180299.1364563,0.96240234375,-0.0302734375,0.30517578125,0.1220703125,-0.79345703125,-0.732421875,-5.943603515625,-72.3944091796875,68.90625
1758180299.1459343,0.96240234375,-0.0302734375,0.30517578125,0.1220703125,-0.79345703125,-0.732421875,-5.921630859375,-72.39990234375,68.8787841796875
1758180299.1564784,0.95361328125,-0.0302734375,0.2998046875,0.244140625,-0.79345703125,-0.79345703125,-5.899658203125,-72.410888671875,68.851318359375
1758180299.1659632,0.95361328125,-0.0302734375,0.2998046875,0.244140625,-0.79345703125,-0.79345703125,-5.877685546875,-72.4163818359375,68.818359375
1758180299.175812,0.95361328125,-0.02978515625,0.30029296875,-0.1220703125,-0.79345703125,-0.732421875,-5.855712890625,-72.4273681640625,68.7908935546875
1758180299.1863692,0.95361328125,-0.02978515625,0.30029296875,-0.1220703125,-0.79345703125,-0.732421875,-5.8392333984375,-72.432861328125,68.763427734375
1758180299.1966503,0.95703125,-0.029296875,0.2998046875,-0.06103515625,-0.732421875,-0.79345703125,-5.8172607421875,-72.44384765625,68.7359619140625
1758180299.2058616,0.95703125,-0.029296875,0.2998046875,-0.06103515625,-0.732421875,-0.79345703125,-5.80078125,-72.4493408203125,68.7030029296875
1758180299.2167056,0.95458984375,-0.03271484375,0.30126953125,0.48828125,-0.67138671875,-0.79345703125,-5.7733154296875,-72.454833984375,68.675537109375
1758180299.2261415,0.95458984375,-0.03271484375,0.30126953125,0.48828125,-0.67138671875,-0.79345703125,-5.745849609375,-72.4658203125,68.642578125
1758180299.2359388,0.9521484375,-0.03466796875,0.29541015625,0.91552734375,-0.732421875,-0.79345703125,-5.7183837890625,-72.4713134765625,68.6151123046875
1758180299.2462454,0.9521484375,-0.03466796875,0.29541015625,0.91552734375,-0.732421875,-0.79345703125,-5.6854248046875,-72.476806640625,68.587646484375
1758180299.256562,0.9501953125,-0.03076171875,0.298828125,0.8544921875,-0.67138671875,-0.79345703125,-5.657958984375,-72.48779296875,68.5601806640625
1758180299.265932,0.9501953125,-0.03076171875,0.298828125,0.8544921875,-0.67138671875,-0.79345703125,-5.6304931640625,-72.4932861328125,68.5272216796875
1758180299.276368,0.9462890625,-0.02734375,0.29736328125,0.30517578125,-0.6103515625,-0.732421875,-5.6085205078125,-72.498779296875,68.5052490234375
1758180299.2872837,0.9462890625,-0.02734375,0.29736328125,0.30517578125,-0.6103515625,-0.732421875,-5.5865478515625,-72.5042724609375,68.4722900390625
1758180299.296007,0.939453125,-0.02392578125,0.29296875,-0.54931640625,-0.54931640625,-0.67138671875,-5.5755615234375,-72.509765625,68.44482421875
1758180299.30673,0.939453125,-0.02392578125,0.29296875,-0.54931640625,-0.54931640625,-0.67138671875,-5.55908203125,-72.5152587890625,68.4173583984375
1758180299.3177288,0.9404296875,-0.0263671875,0.29296875,-0.79345703125,-0.48828125,-0.6103515625,-5.5535888671875,-72.520751953125,68.389892578125
1758180299.3262904,0.9404296875,-0.0263671875,0.29296875,-0.79345703125,-0.48828125,-0.6103515625,-5.5426025390625,-72.5262451171875,68.3624267578125
1758180299.3361316,0.9453125,-0.03271484375,0.29541015625,-0.1220703125,-0.3662109375,-0.6103515625,-5.526123046875,-72.53173828125,68.3349609375
1758180299.3461242,0.9453125,-0.03271484375,0.29541015625,-0.1220703125,-0.3662109375,-0.6103515625,-5.5096435546875,-72.5372314453125,68.3074951171875
1758180299.3573823,0.94482421875,-0.03759765625,0.2978515625,0.79345703125,-0.1220703125,-0.91552734375,-5.4766845703125,-72.5372314453125,68.26904296875
1758180299.3660553,0.94482421875,-0.03759765625,0.2978515625,0.79345703125,-0.1220703125,-0.91552734375,-5.4437255859375,-72.542724609375,68.236083984375
1758180299.3763008,0.94580078125,-0.0302734375,0.29443359375,0.8544921875,0.0,-1.03759765625,-5.4052734375,-72.542724609375,68.1976318359375
1758180299.3872583,0.94580078125,-0.0302734375,0.29443359375,0.8544921875,0.0,-1.03759765625,-5.3668212890625,-72.542724609375,68.1536865234375
1758180299.3962197,0.9521484375,-0.021484375,0.29638671875,0.244140625,0.1220703125,-1.15966796875,-5.328369140625,-72.542724609375,68.1097412109375
1758180299.4061635,0.9521484375,-0.021484375,0.29638671875,0.244140625,0.1220703125,-1.15966796875,-5.2899169921875,-72.542724609375,68.0657958984375
1758180299.4164925,0.951171875,-0.02197265625,0.30029296875,0.0,0.244140625,-1.15966796875,-5.2569580078125,-72.5372314453125,68.016357421875
1758180299.426365,0.951171875,-0.02197265625,0.30029296875,0.0,0.244140625,-1.15966796875,-5.218505859375,-72.5372314453125,67.972412109375
1758180299.4363112,0.94677734375,-0.02490234375,0.29443359375,-0.42724609375,0.1220703125,-0.91552734375,-5.196533203125,-72.5372314453125,67.9339599609375
1758180299.4461462,0.94677734375,-0.02490234375,0.29443359375,-0.42724609375,0.1220703125,-0.91552734375,-5.1690673828125,-72.5372314453125,67.8955078125
1758180299.456824,0.9482421875,-0.03466796875,0.2919921875,0.0,0.06103515625,-0.9765625,-5.1416015625,-72.5372314453125,67.8570556640625
1758180299.4661736,0.9482421875,-0.03466796875,0.2919921875,0.0,0.06103515625,-0.9765625,-5.1141357421875,-72.5372314453125,67.818603515625
1758180299.4765925,0.95068359375,-0.0283203125,0.2978515625,0.30517578125,0.18310546875,-0.9765625,-5.0811767578125,-72.5372314453125,67.7801513671875
1758180299.4873493,0.95068359375,-0.0283203125,0.2978515625,0.30517578125,0.18310546875,-0.9765625,-5.0482177734375,-72.5372314453125,67.7471923828125
1758180299.496283,0.95849609375,-0.02783203125,0.2998046875,0.0,0.3662109375,-0.9765625,-5.020751953125,-72.5372314453125,67.708740234375
1758180299.506947,0.95849609375,-0.02783203125,0.2998046875,0.0,0.3662109375,-0.9765625,-4.9932861328125,-72.53173828125,67.6702880859375
1758180299.5166183,0.9609375,-0.021484375,0.3046875,0.06103515625,0.6103515625,-1.03759765625,-4.9603271484375,-72.5262451171875,67.6318359375
1758180299.5264635,0.9609375,-0.021484375,0.3046875,0.06103515625,0.6103515625,-1.03759765625,-4.9273681640625,-72.520751953125,67.587890625
1758180299.5364316,0.95166015625,-0.0205078125,0.29931640625,0.0,0.54931640625,-0.9765625,-4.8944091796875,-72.5152587890625,67.5494384765625
1758180299.5462508,0.95166015625,-0.0205078125,0.29931640625,0.0,0.54931640625,-0.9765625,-4.8614501953125,-72.5152587890625,67.5054931640625
1758180299.5569274,0.95068359375,-0.02783203125,0.291015625,-0.06103515625,0.3662109375,-0.79345703125,-4.8394775390625,-72.509765625,67.467041015625
1758180299.5663166,0.95068359375,-0.02783203125,0.291015625,-0.06103515625,0.3662109375,-0.79345703125,-4.81201171875,-72.509765625,67.43408203125
1758180299.5766032,0.95458984375,-0.02978515625,0.3017578125,-0.30517578125,0.3662109375,-0.732421875,-4.7955322265625,-72.5042724609375,67.4066162109375
1758180299.5872934,0.95458984375,-0.02978515625,0.3017578125,-0.30517578125,0.3662109375,-0.732421875,-4.779052734375,-72.5042724609375,67.3736572265625
1758180299.596382,0.95947265625,-0.0244140625,0.3046875,-0.3662109375,0.42724609375,-0.8544921875,-4.7515869140625,-72.498779296875,67.3406982421875
1758180299.6067076,0.95947265625,-0.0244140625,0.3046875,-0.3662109375,0.42724609375,-0.8544921875,-4.7296142578125,-72.4932861328125,67.30224609375
1758180299.6168158,0.9541015625,-0.0205078125,0.2939453125,0.18310546875,0.48828125,-0.91552734375,-4.7021484375,-72.4932861328125,67.2637939453125
1758180299.6264195,0.9541015625,-0.0205078125,0.2939453125,0.18310546875,0.48828125,-0.91552734375,-4.669189453125,-72.48779296875,67.225341796875
1758180299.6364212,0.9501953125,-0.017578125,0.30078125,-0.18310546875,0.48828125,-0.91552734375,-4.6417236328125,-72.4822998046875,67.181396484375
1758180299.6463592,0.9501953125,-0.017578125,0.30078125,-0.18310546875,0.48828125,-0.91552734375,-4.6142578125,-72.4822998046875,67.137451171875
1758180299.656828,0.9521484375,-0.025390625,0.29443359375,0.0,0.42724609375,-0.8544921875,-4.5867919921875,-72.476806640625,67.0989990234375
1758180299.6663785,0.9521484375,-0.025390625,0.29443359375,0.0,0.42724609375,-0.8544921875,-4.559326171875,-72.476806640625,67.060546875
1758180299.67647,0.95703125,-0.02734375,0.3046875,0.48828125,0.42724609375,-0.9765625,-4.5208740234375,-72.4713134765625,67.0166015625
1758180299.686938,0.95703125,-0.02734375,0.3046875,0.48828125,0.42724609375,-0.9765625,-4.4879150390625,-72.4713134765625,66.9781494140625
1758180299.696453,0.94921875,-0.02294921875,0.29833984375,0.244140625,0.30517578125,-1.0986328125,-4.449462890625,-72.4658203125,66.9342041015625
1758180299.706667,0.94921875,-0.02294921875,0.29833984375,0.244140625,0.30517578125,-1.0986328125,-4.41650390625,-72.4658203125,66.8902587890625
1758180299.7165172,0.94921875,-0.02294921875,0.29833984375,0.0,0.18310546875,-1.220703125,-4.3780517578125,-72.4658203125,66.8463134765625
1758180299.726551,0.953125,-0.025390625,0.29833984375,0.0,0.18310546875,-1.220703125,-4.339599609375,-72.4658203125,66.796875
1758180299.736701,0.95458984375,-0.021484375,0.29736328125,0.6103515625,0.18310546875,-1.220703125,-4.295654296875,-72.4658203125,66.7529296875
1758180299.746485,0.95458984375,-0.021484375,0.29736328125,0.6103515625,0.18310546875,-1.220703125,-4.2572021484375,-72.4603271484375,66.7034912109375
1758180299.7568872,0.951171875,-0.021484375,0.30029296875,0.91552734375,0.1220703125,-1.0986328125,-4.2132568359375,-72.4603271484375,66.6595458984375
1758180299.7665195,0.951171875,-0.021484375,0.30029296875,0.91552734375,0.1220703125,-1.0986328125,-4.1693115234375,-72.4603271484375,66.62109375
1758180299.7765067,0.943359375,-0.0205078125,0.294921875,0.244140625,-0.06103515625,-1.03759765625,-4.1363525390625,-72.4658203125,66.5771484375
1758180299.7870102,0.943359375,-0.0205078125,0.294921875,0.244140625,-0.06103515625,-1.03759765625,-4.1033935546875,-72.4658203125,66.5386962890625
1758180299.7966056,0.943359375,-0.02099609375,0.29638671875,0.6103515625,-0.1220703125,-1.0986328125,-4.06494140625,-72.4713134765625,66.4947509765625
1758180299.806695,0.943359375,-0.02099609375,0.29638671875,0.6103515625,-0.1220703125,-1.0986328125,-4.0264892578125,-72.4713134765625,66.4508056640625
1758180299.8166366,0.94677734375,-0.0224609375,0.294921875,1.28173828125,-0.18310546875,-1.220703125,-3.97705078125,-72.476806640625,66.4068603515625
1758180299.8266692,0.94677734375,-0.0224609375,0.294921875,1.28173828125,-0.18310546875,-1.220703125,-3.9276123046875,-72.476806640625,66.357421875
1758180299.8366306,0.94921875,-0.0166015625,0.30078125,0.91552734375,-0.06103515625,-1.15966796875,-3.8836669921875,-72.476806640625,66.3134765625
1758180299.846715,0.94921875,-0.0166015625,0.30078125,0.91552734375,-0.06103515625,-1.15966796875,-3.8397216796875,-72.4822998046875,66.2640380859375
1758180299.8566546,0.9453125,-0.015625,0.29833984375,0.1220703125,0.0,-0.9765625,-3.812255859375,-72.4822998046875,66.2200927734375
1758180299.8666475,0.9453125,-0.015625,0.29833984375,0.1220703125,0.0,-0.9765625,-3.779296875,-72.4822998046875,66.1761474609375
1758180299.8767726,0.94384765625,-0.02001953125,0.2939453125,-0.06103515625,-0.18310546875,-0.91552734375,-3.7518310546875,-72.48779296875,66.1376953125
1758180299.8871472,0.94384765625,-0.02001953125,0.2939453125,-0.06103515625,-0.18310546875,-0.91552734375,-3.724365234375,-72.48779296875,66.0992431640625
1758180299.8967211,0.94775390625,-0.02490234375,0.29833984375,0.732421875,-0.244140625,-1.0986328125,-3.6859130859375,-72.4932861328125,66.0552978515625
1758180299.9074645,0.94775390625,-0.02490234375,0.29833984375,0.732421875,-0.244140625,-1.0986328125,-3.6474609375,-72.4932861328125,66.016845703125
1758180299.9203591,0.94873046875,-0.02099609375,0.296875,1.03759765625,-0.30517578125,-1.220703125,-3.603515625,-72.498779296875,65.9674072265625
1758180299.9278393,0.94873046875,-0.02099609375,0.296875,1.03759765625,-0.30517578125,-1.220703125,-3.5540771484375,-72.5042724609375,65.9234619140625
1758180299.936765,0.94482421875,-0.01318359375,0.296875,1.03759765625,-0.48828125,-1.220703125,-3.5101318359375,-72.509765625,65.8740234375
1758180299.9470477,0.94482421875,-0.01318359375,0.296875,1.03759765625,-0.48828125,-1.220703125,-3.4661865234375,-72.5152587890625,65.830078125
1758180299.9570718,0.94970703125,-0.0146484375,0.29736328125,0.79345703125,-0.48828125,-1.15966796875,-3.4222412109375,-72.520751953125,65.7861328125
1758180299.9671211,0.96240234375,-0.01953125,0.30078125,0.6103515625,-0.42724609375,-1.220703125,-3.3782958984375,-72.5262451171875,65.7366943359375
1758180299.9767723,0.96240234375,-0.01953125,0.30078125,0.6103515625,-0.42724609375,-1.220703125,-3.33984375,-72.53173828125,65.6927490234375
1758180299.9877603,0.96435546875,-0.0205078125,0.30419921875,1.52587890625,-0.42724609375,-1.40380859375,-3.2904052734375,-72.5372314453125,65.643310546875
1758180299.9967864,0.96435546875,-0.0205078125,0.30419921875,1.52587890625,-0.42724609375,-1.40380859375,-3.22998046875,-72.542724609375,65.58837890625
1758180300.0074406,0.95947265625,-0.015625,0.29833984375,1.77001953125,-0.48828125,-1.52587890625,-3.175048828125,-72.5482177734375,65.5389404296875
1758180300.0169063,0.95947265625,-0.015625,0.29833984375,1.77001953125,-0.48828125,-1.52587890625,-3.109130859375,-72.5537109375,65.4840087890625
1758180300.027744,0.96044921875,-0.01025390625,0.296875,1.15966796875,-0.6103515625,-1.5869140625,-3.0487060546875,-72.5592041015625,65.423583984375
1758180300.0369024,0.96044921875,-0.01025390625,0.296875,1.15966796875,-0.6103515625,-1.5869140625,-2.9937744140625,-72.564697265625,65.36865234375
1758180300.0475297,0.97265625,-0.01025390625,0.30859375,1.15966796875,-0.67138671875,-1.64794921875,-2.933349609375,-72.57568359375,65.3082275390625
1758180300.0570126,0.97265625,-0.01025390625,0.30859375,1.15966796875,-0.67138671875,-1.64794921875,-2.867431640625,-72.5811767578125,65.247802734375
1758180300.0680006,0.9677734375,-0.01513671875,0.296875,1.220703125,-0.79345703125,-1.5869140625,-2.8070068359375,-72.586669921875,65.19287109375
1758180300.0769064,0.9677734375,-0.01513671875,0.296875,1.220703125,-0.79345703125,-1.5869140625,-2.74658203125,-72.59765625,65.1324462890625
1758180300.0878646,0.97607421875,-0.0146484375,0.3056640625,0.91552734375,-0.732421875,-1.64794921875,-2.6861572265625,-72.608642578125,65.072021484375
1758180300.0969257,0.97607421875,-0.0146484375,0.3056640625,0.91552734375,-0.732421875,-1.64794921875,-2.6312255859375,-72.6141357421875,65.0115966796875
1758180300.106982,0.98193359375,-0.02099609375,0.30908203125,1.5869140625,-0.67138671875,-2.01416015625,-2.559814453125,-72.6251220703125,64.9456787109375
1758180300.1173496,0.98193359375,-0.02099609375,0.30908203125,1.5869140625,-0.67138671875,-2.01416015625,-2.4884033203125,-72.630615234375,64.874267578125
1758180300.126953,0.9755859375,-0.0107421875,0.30029296875,2.44140625,-0.732421875,-2.13623046875,-2.406005859375,-72.6361083984375,64.8028564453125
1758180300.1372452,0.9755859375,-0.0107421875,0.30029296875,2.44140625,-0.732421875,-2.13623046875,-2.318115234375,-72.6470947265625,64.7314453125
1758180300.1470287,0.96142578125,-0.00927734375,0.30126953125,1.77001953125,-0.8544921875,-1.77001953125,-2.2412109375,-72.652587890625,64.66552734375
1758180300.1572945,0.96142578125,-0.00927734375,0.30126953125,1.77001953125,-0.8544921875,-1.77001953125,-2.1697998046875,-72.66357421875,64.599609375
1758180300.1670094,0.95458984375,-0.0078125,0.29150390625,0.8544921875,-1.03759765625,-1.40380859375,-2.109375,-72.674560546875,64.544677734375
1758180300.1770582,0.95458984375,-0.0078125,0.29150390625,0.8544921875,-1.03759765625,-1.40380859375,-2.0599365234375,-72.685546875,64.4952392578125
1758180300.1873884,0.95166015625,-0.01513671875,0.29833984375,0.8544921875,-0.9765625,-1.28173828125,-2.010498046875,-72.696533203125,64.44580078125
1758180300.1970444,0.95166015625,-0.01513671875,0.29833984375,0.8544921875,-0.9765625,-1.28173828125,-1.966552734375,-72.70751953125,64.3963623046875
1758180300.2073662,0.95166015625,-0.01513671875,0.29833984375,0.8544921875,-0.9765625,-1.220703125,-1.922607421875,-72.7130126953125,64.3524169921875
1758180300.217493,0.9462890625,-0.01123046875,0.29638671875,0.8544921875,-0.9765625,-1.220703125,-1.878662109375,-72.7239990234375,64.302978515625
1758180300.2271268,0.94384765625,-0.013671875,0.291015625,0.79345703125,-0.91552734375,-0.9765625,-1.8402099609375,-72.7349853515625,64.2645263671875
1758180300.2370985,0.94384765625,-0.013671875,0.291015625,0.79345703125,-0.91552734375,-0.9765625,-1.8072509765625,-72.7459716796875,64.22607421875
1758180300.2475784,0.93505859375,-0.0234375,0.29150390625,-0.42724609375,-0.8544921875,-0.91552734375,-1.77978515625,-72.75146484375,64.193115234375
1758180300.2572029,0.93505859375,-0.0234375,0.29150390625,-0.42724609375,-0.8544921875,-0.91552734375,-1.7633056640625,-72.762451171875,64.16015625
1758180300.2671764,0.93994140625,-0.029296875,0.28662109375,0.06103515625,-0.732421875,-1.15966796875,-1.7413330078125,-72.7679443359375,64.127197265625
1758180300.2775998,0.93994140625,-0.029296875,0.28662109375,0.06103515625,-0.732421875,-1.15966796875,-1.7138671875,-72.7734375,64.0997314453125
1758180300.2876709,0.9443359375,-0.00537109375,0.302734375,1.52587890625,-0.67138671875,-1.28173828125,-1.6754150390625,-72.784423828125,64.061279296875
1758180300.2972116,0.9443359375,-0.00537109375,0.302734375,1.52587890625,-0.67138671875,-1.28173828125,-1.6259765625,-72.7899169921875,64.0228271484375
1758180300.3072484,0.94140625,0.01904296875,0.28662109375,3.41796875,-0.6103515625,-0.9765625,-1.5765380859375,-72.79541015625,63.9898681640625
1758180300.3176072,0.94140625,0.01904296875,0.28662109375,3.41796875,-0.6103515625,-0.9765625,-1.51611328125,-72.8009033203125,63.951416015625
1758180300.3272173,0.93896484375,0.01513671875,0.287109375,0.91552734375,-0.48828125,-0.48828125,-1.47216796875,-72.806396484375,63.91845703125
1758180300.3373737,0.93896484375,0.01513671875,0.287109375,0.91552734375,-0.48828125,-0.48828125,-1.4447021484375,-72.8118896484375,63.885498046875
1758180300.3472416,0.94287109375,0.0,0.2919921875,-1.46484375,-0.3662109375,-0.244140625,-1.4337158203125,-72.8173828125,63.8580322265625
1758180300.357783,0.94287109375,0.0,0.2919921875,-1.46484375,-0.3662109375,-0.244140625,-1.4337158203125,-72.8173828125,63.8360595703125
1758180300.3672466,0.955078125,-0.0146484375,0.29345703125,-1.40380859375,-0.3662109375,-0.18310546875,-1.439208984375,-72.8228759765625,63.80859375
1758180300.377641,0.955078125,-0.0146484375,0.29345703125,-1.40380859375,-0.3662109375,-0.18310546875,-1.4447021484375,-72.828369140625,63.7921142578125
1758180300.387578,0.96435546875,-0.01513671875,0.29931640625,-0.3662109375,-0.30517578125,-0.3662109375,-1.4447021484375,-72.828369140625,63.7701416015625
1758180300.3977082,0.96435546875,-0.01513671875,0.29931640625,-0.3662109375,-0.30517578125,-0.3662109375,-1.4337158203125,-72.8338623046875,63.74267578125
1758180300.4073787,0.966796875,-0.00927734375,0.29638671875,1.0986328125,-0.3662109375,-0.48828125,-1.417236328125,-72.8338623046875,63.720703125
1758180300.4186044,0.966796875,-0.00927734375,0.29638671875,1.0986328125,-0.3662109375,-0.48828125,-1.3897705078125,-72.83935546875,63.6932373046875
1758180300.427434,0.97900390625,-0.00390625,0.29833984375,0.79345703125,-0.244140625,-0.54931640625,-1.3677978515625,-72.8448486328125,63.665771484375
1758180300.4377522,0.97900390625,-0.00390625,0.29833984375,0.79345703125,-0.244140625,-0.54931640625,-1.34033203125,-72.8448486328125,63.6383056640625
1758180300.4474032,0.98486328125,0.00048828125,0.30859375,0.244140625,-0.30517578125,-0.3662109375,-1.3238525390625,-72.850341796875,63.61083984375
1758180300.458076,0.98486328125,0.00048828125,0.30859375,0.244140625,-0.30517578125,-0.3662109375,-1.307373046875,-72.850341796875,63.5833740234375
1758180300.4677453,0.9794921875,-0.00634765625,0.296875,0.18310546875,-0.42724609375,-0.3662109375,-1.2908935546875,-72.8558349609375,63.5614013671875
1758180300.4773617,0.9794921875,-0.00634765625,0.296875,0.18310546875,-0.42724609375,-0.3662109375,-1.2744140625,-72.861328125,63.533935546875
1758180300.487738,0.97021484375,-0.00830078125,0.30126953125,0.06103515625,-0.54931640625,-0.30517578125,-1.263427734375,-72.8668212890625,63.5064697265625
1758180300.4980824,0.97021484375,-0.00830078125,0.30126953125,0.06103515625,-0.54931640625,-0.30517578125,-1.25244140625,-72.872314453125,63.4844970703125
1758180300.507471,0.966796875,-0.00830078125,0.29443359375,0.54931640625,-0.732421875,-0.30517578125,-1.241455078125,-72.8778076171875,63.4625244140625
1758180300.518129,0.966796875,-0.00830078125,0.29443359375,0.54931640625,-0.732421875,-0.30517578125,-1.2249755859375,-72.88330078125,63.4405517578125
1758180300.5275488,0.9658203125,-0.0078125,0.296875,0.6103515625,-0.67138671875,-0.30517578125,-1.2139892578125,-72.8887939453125,63.424072265625
1758180300.5375278,0.9658203125,-0.0078125,0.296875,0.6103515625,-0.67138671875,-0.30517578125,-1.197509765625,-72.8997802734375,63.402099609375
1758180300.5475392,0.962890625,-0.01171875,0.29833984375,0.18310546875,-0.67138671875,-0.42724609375,-1.1810302734375,-72.9052734375,63.380126953125
1758180300.5576077,0.962890625,-0.01171875,0.29833984375,0.18310546875,-0.67138671875,-0.42724609375,-1.1700439453125,-72.9107666015625,63.358154296875
1758180300.567498,0.9609375,0.0009765625,0.29638671875,0.6103515625,-0.6103515625,-0.6103515625,-1.1480712890625,-72.916259765625,63.3306884765625
1758180300.5774903,0.9609375,0.0009765625,0.29638671875,0.6103515625,-0.6103515625,-0.6103515625,-1.1260986328125,-72.9217529296875,63.30322265625
1758180300.5878785,0.95068359375,0.00048828125,0.28857421875,1.03759765625,-0.48828125,-0.48828125,-1.0986328125,-72.92724609375,63.270263671875
1758180300.5975714,0.95068359375,0.00048828125,0.28857421875,1.03759765625,-0.48828125,-0.48828125,-1.0711669921875,-72.9327392578125,63.2427978515625
1758180300.6077495,0.9501953125,-0.00390625,0.28955078125,0.48828125,-0.54931640625,-0.3662109375,-1.0491943359375,-72.938232421875,63.2098388671875
1758180300.6176424,0.9501953125,-0.00390625,0.28955078125,0.48828125,-0.54931640625,-0.3662109375,-1.03271484375,-72.9437255859375,63.182373046875
1758180300.6277115,0.94921875,-0.0029296875,0.28857421875,-0.30517578125,-0.6103515625,-0.18310546875,-1.021728515625,-72.94921875,63.160400390625
1758180300.6376135,0.94921875,-0.0029296875,0.28857421875,-0.30517578125,-0.6103515625,-0.18310546875,-1.021728515625,-72.9547119140625,63.138427734375
1758180300.6477501,0.95458984375,-0.001953125,0.29296875,-0.67138671875,-0.54931640625,-0.18310546875,-1.0162353515625,-72.960205078125,63.1219482421875
1758180300.6577585,0.95458984375,-0.001953125,0.29296875,-0.67138671875,-0.54931640625,-0.18310546875,-1.0162353515625,-72.9656982421875,63.0999755859375
1758180300.6676524,0.953125,-0.001953125,0.2919921875,-0.79345703125,-0.42724609375,-0.18310546875,-1.0162353515625,-72.97119140625,63.0780029296875
1758180300.67761,0.953125,-0.001953125,0.2919921875,-0.79345703125,-0.42724609375,-0.18310546875,-1.0162353515625,-72.9766845703125,63.0560302734375
1758180300.687914,0.953125,-0.001953125,0.2919921875,0.0,-0.42724609375,-0.244140625,-1.0162353515625,-72.982177734375,63.0340576171875
1758180300.6976464,0.94921875,-0.00732421875,0.2900390625,0.0,-0.42724609375,-0.244140625,-1.0052490234375,-72.982177734375,63.006591796875
1758180300.7076855,0.95166015625,-0.01025390625,0.28759765625,0.3662109375,-0.3662109375,-0.30517578125,-0.9942626953125,-72.9876708984375,62.984619140625
1758180300.717757,0.95166015625,-0.01025390625,0.28759765625,0.3662109375,-0.3662109375,-0.30517578125,-0.977783203125,-72.9931640625,62.962646484375
1758180300.7277787,0.95654296875,-0.0048828125,0.2919921875,0.244140625,-0.30517578125,-0.3662109375,-0.966796875,-72.9931640625,62.9351806640625
1758180300.7377758,0.95654296875,-0.0048828125,0.2919921875,0.244140625,-0.30517578125,-0.3662109375,-0.955810546875,-72.9986572265625,62.9132080078125
1758180300.7478366,0.96044921875,0.001953125,0.29345703125,-0.79345703125,-0.30517578125,-0.18310546875,-0.94482421875,-73.004150390625,62.8857421875
1758180300.757836,0.96044921875,0.001953125,0.29345703125,-0.79345703125,-0.30517578125,-0.18310546875,-0.9503173828125,-73.004150390625,62.86376953125
1758180300.7677472,0.95947265625,0.0009765625,0.29150390625,-1.220703125,-0.244140625,-0.06103515625,-0.955810546875,-73.0096435546875,62.841796875
1758180300.777761,0.95947265625,0.0009765625,0.29150390625,-1.220703125,-0.244140625,-0.06103515625,-0.9613037109375,-73.0096435546875,62.8253173828125
1758180300.7883008,0.9599609375,-0.00927734375,0.29248046875,-0.54931640625,-0.244140625,0.06103515625,-0.9722900390625,-73.01513671875,62.808837890625
1758180300.797863,0.9599609375,-0.00927734375,0.29248046875,-0.54931640625,-0.244140625,0.06103515625,-0.977783203125,-73.01513671875,62.7923583984375
1758180300.8089309,0.95947265625,-0.01171875,0.291015625,-0.3662109375,-0.244140625,0.0,-0.9832763671875,-73.01513671875,62.7813720703125
1758180300.8194225,0.95947265625,-0.01171875,0.291015625,-0.3662109375,-0.244140625,0.0,-0.9832763671875,-73.0206298828125,62.764892578125
1758180300.8283947,0.96240234375,-0.00732421875,0.294921875,0.732421875,-0.244140625,0.0,-0.9832763671875,-73.0206298828125,62.75390625
1758180300.8380103,0.96240234375,-0.00732421875,0.294921875,0.732421875,-0.244140625,0.0,-0.977783203125,-73.026123046875,62.742919921875
1758180300.848291,0.96923828125,-0.0048828125,0.29638671875,0.6103515625,-0.06103515625,0.0,-0.9722900390625,-73.026123046875,62.73193359375
1758180300.8579829,0.96923828125,-0.0048828125,0.29638671875,0.6103515625,-0.06103515625,0.0,-0.966796875,-73.026123046875,62.7264404296875
1758180300.868128,0.96435546875,0.00439453125,0.29345703125,-1.220703125,0.0,0.1220703125,-0.9722900390625,-73.026123046875,62.7154541015625
1758180300.8778553,0.96435546875,0.00439453125,0.29345703125,-1.220703125,0.0,0.1220703125,-0.98876953125,-73.026123046875,62.7099609375
1758180300.8895683,0.96337890625,0.0,0.2919921875,-0.8544921875,0.0,0.30517578125,-1.0052490234375,-73.026123046875,62.7044677734375
1758180300.8978999,0.96337890625,0.0,0.2919921875,-0.8544921875,0.0,0.30517578125,-1.021728515625,-73.026123046875,62.698974609375
1758180300.908824,0.96630859375,-0.0126953125,0.29638671875,0.06103515625,-0.06103515625,0.18310546875,-1.0272216796875,-73.026123046875,62.6934814453125
1758180300.9179351,0.96630859375,-0.0126953125,0.29638671875,0.06103515625,-0.06103515625,0.18310546875,-1.03271484375,-73.0316162109375,62.68798828125
1758180300.9285593,0.966796875,-0.01171875,0.294921875,0.48828125,0.0,0.06103515625,-1.03271484375,-73.0316162109375,62.677001953125
1758180300.9382813,0.966796875,-0.01171875,0.294921875,0.48828125,0.0,0.06103515625,-1.03271484375,-73.0316162109375,62.6715087890625
1758180300.94909,0.95849609375,-0.0009765625,0.28857421875,-0.244140625,0.0,0.06103515625,-1.03271484375,-73.0316162109375,62.666015625
1758180300.9585586,0.95849609375,-0.0009765625,0.28857421875,-0.244140625,0.0,0.06103515625,-1.0382080078125,-73.0316162109375,62.655029296875
1758180300.9679718,0.9609375,0.00244140625,0.29150390625,-0.91552734375,0.06103515625,0.06103515625,-1.0491943359375,-73.0316162109375,62.6495361328125
1758180300.9780185,0.9609375,0.00244140625,0.29150390625,-0.91552734375,0.06103515625,0.06103515625,-1.0546875,-73.0316162109375,62.6385498046875
1758180300.9886243,0.958984375,-0.00537109375,0.29443359375,-0.30517578125,0.0,0.1220703125,-1.065673828125,-73.0316162109375,62.6275634765625
1758180300.9980268,0.958984375,-0.00537109375,0.29443359375,-0.30517578125,0.0,0.1220703125,-1.0711669921875,-73.0316162109375,62.6165771484375
1758180301.0081499,0.95556640625,-0.00927734375,0.28955078125,-0.18310546875,0.0,0.06103515625,-1.0711669921875,-73.0316162109375,62.6055908203125
1758180301.0190175,0.95556640625,-0.00927734375,0.28955078125,-0.18310546875,0.0,0.06103515625,-1.07666015625,-73.0316162109375,62.5946044921875
1758180301.0284436,0.95654296875,-0.00634765625,0.28857421875,0.42724609375,0.0,-0.06103515625,-1.065673828125,-73.0316162109375,62.5836181640625
1758180301.0381253,0.95654296875,-0.00634765625,0.28857421875,0.42724609375,0.0,-0.06103515625,-1.0601806640625,-73.0316162109375,62.567138671875
1758180301.0481808,0.95654296875,-0.00341796875,0.2939453125,0.30517578125,0.0,-0.06103515625,-1.0546875,-73.0316162109375,62.55615234375
1758180301.0585701,0.95654296875,-0.00341796875,0.2939453125,0.30517578125,0.0,-0.06103515625,-1.0491943359375,-73.0316162109375,62.5396728515625
1758180301.0680647,0.9580078125,-0.001953125,0.287109375,0.18310546875,0.0,-0.1220703125,-1.043701171875,-73.0316162109375,62.523193359375
1758180301.0782568,0.9580078125,-0.001953125,0.287109375,0.18310546875,0.0,-0.1220703125,-1.0382080078125,-73.0316162109375,62.5067138671875
1758180301.0888617,0.95361328125,-0.005859375,0.29150390625,0.9765625,-0.06103515625,-0.18310546875,-1.021728515625,-73.0316162109375,62.4847412109375
1758180301.0981088,0.95361328125,-0.005859375,0.29150390625,0.9765625,-0.06103515625,-0.18310546875,-1.0052490234375,-73.0316162109375,62.46826171875
1758180301.1087148,0.95654296875,-0.0087890625,0.28759765625,1.8310546875,-0.244140625,-0.30517578125,-0.977783203125,-73.037109375,62.4462890625
1758180301.1184943,0.95654296875,-0.0087890625,0.28759765625,1.8310546875,-0.244140625,-0.30517578125,-0.9503173828125,-73.037109375,62.42431640625
1758180301.1284654,0.9638671875,-0.00537109375,0.2958984375,1.8310546875,-0.18310546875,-0.48828125,-0.9173583984375,-73.0426025390625,62.3968505859375
1758180301.1381898,0.9638671875,-0.00537109375,0.2958984375,1.8310546875,-0.18310546875,-0.48828125,-0.87890625,-73.0426025390625,62.369384765625
1758180301.1492999,0.966796875,0.0,0.2958984375,1.52587890625,-0.06103515625,-0.54931640625,-0.8514404296875,-73.0426025390625,62.3419189453125
1758180301.1583264,0.966796875,0.0,0.2958984375,1.52587890625,-0.06103515625,-0.54931640625,-0.8184814453125,-73.048095703125,62.3089599609375
1758180301.168188,0.96826171875,0.0029296875,0.29296875,0.3662109375,0.1220703125,-0.42724609375,-0.7965087890625,-73.0426025390625,62.281494140625
1758180301.1782126,0.96826171875,0.0029296875,0.29296875,0.3662109375,0.1220703125,-0.42724609375,-0.780029296875,-73.0426025390625,62.24853515625
1758180301.18868,0.958984375,-0.0009765625,0.29541015625,0.48828125,0.06103515625,-0.30517578125,-0.7635498046875,-73.0426025390625,62.2210693359375
1758180301.1982152,0.958984375,-0.0009765625,0.29541015625,0.48828125,0.06103515625,-0.30517578125,-0.7470703125,-73.0426025390625,62.193603515625
1758180301.208192,0.95166015625,-0.00439453125,0.287109375,1.52587890625,-0.18310546875,-0.1220703125,-0.72509765625,-73.0426025390625,62.171630859375
1758180301.2185755,0.95166015625,-0.00439453125,0.287109375,1.52587890625,-0.18310546875,-0.1220703125,-0.7086181640625,-73.048095703125,62.1551513671875
1758180301.228392,0.9541015625,-0.0107421875,0.28564453125,0.48828125,-0.18310546875,-0.06103515625,-0.6976318359375,-73.048095703125,62.138671875
1758180301.2382822,0.9541015625,-0.0107421875,0.28564453125,0.48828125,-0.18310546875,-0.06103515625,-0.692138671875,-73.0535888671875,62.1221923828125
1758180301.2483015,0.95654296875,0.0029296875,0.29443359375,-0.3662109375,-0.06103515625,0.0,-0.6976318359375,-73.0535888671875,62.1112060546875
1758180301.258927,0.95654296875,0.0029296875,0.29443359375,-0.3662109375,-0.06103515625,0.0,-0.703125,-73.0535888671875,62.0947265625
1758180301.2683134,0.951171875,0.00341796875,0.28955078125,-1.0986328125,-0.06103515625,0.30517578125,-0.7196044921875,-73.0535888671875,62.0892333984375
1758180301.2783287,0.951171875,0.00341796875,0.28955078125,-1.0986328125,-0.06103515625,0.30517578125,-0.7415771484375,-73.0535888671875,62.083740234375
1758180301.2888315,0.94677734375,-0.00341796875,0.28564453125,-1.0986328125,0.06103515625,0.42724609375,-0.7635498046875,-73.0535888671875,62.0782470703125
1758180301.2983897,0.94677734375,-0.00341796875,0.28564453125,-1.0986328125,0.06103515625,0.42724609375,-0.7855224609375,-73.0535888671875,62.0782470703125
1758180301.3085074,0.94384765625,-0.01220703125,0.2880859375,0.30517578125,0.0,0.42724609375,-0.7965087890625,-73.0535888671875,62.07275390625
1758180301.3185208,0.94384765625,-0.01220703125,0.2880859375,0.30517578125,0.0,0.42724609375,-0.8074951171875,-73.0535888671875,62.07275390625
1758180301.3284087,0.9443359375,-0.01025390625,0.28466796875,0.3662109375,0.0,0.42724609375,-0.8184814453125,-73.0535888671875,62.0782470703125
1758180301.3385518,0.9443359375,-0.01025390625,0.28466796875,0.3662109375,0.0,0.42724609375,-0.8294677734375,-73.0535888671875,62.083740234375
1758180301.3493695,0.9423828125,-0.001953125,0.28564453125,0.6103515625,0.0,0.48828125,-0.8404541015625,-73.0535888671875,62.0892333984375
1758180301.3592682,0.9423828125,-0.001953125,0.28564453125,0.6103515625,0.0,0.48828125,-0.8514404296875,-73.0535888671875,62.0947265625
1758180301.3683698,0.94677734375,-0.001953125,0.2880859375,0.54931640625,0.06103515625,0.67138671875,-0.867919921875,-73.0535888671875,62.105712890625
1758180301.3787215,0.94677734375,-0.001953125,0.2880859375,0.54931640625,0.06103515625,0.67138671875,-0.8843994140625,-73.0535888671875,62.11669921875
1758180301.3889816,0.95068359375,0.0,0.28857421875,-0.91552734375,0.1220703125,0.8544921875,-0.9173583984375,-73.0535888671875,62.127685546875
1758180301.3985465,0.95068359375,0.0,0.28857421875,-0.91552734375,0.1220703125,0.8544921875,-0.955810546875,-73.0535888671875,62.1441650390625
1758180301.4086843,0.95361328125,0.0,0.28955078125,-1.5869140625,0.244140625,0.9765625,-0.999755859375,-73.048095703125,62.16064453125
1758180301.4189346,0.95361328125,0.0,0.28955078125,-1.5869140625,0.244140625,0.9765625,-1.043701171875,-73.048095703125,62.1771240234375
1758180301.4285398,0.953125,-0.0068359375,0.29150390625,-1.0986328125,0.244140625,1.03759765625,-1.087646484375,-73.0426025390625,62.193603515625
1758180301.4386108,0.953125,-0.0068359375,0.29150390625,-1.0986328125,0.244140625,1.03759765625,-1.1260986328125,-73.0426025390625,62.215576171875
1758180301.4493616,0.95263671875,-0.013671875,0.28955078125,-0.732421875,0.18310546875,0.91552734375,-1.16455078125,-73.0426025390625,62.2265625
1758180301.4586766,0.95263671875,-0.013671875,0.28955078125,-0.732421875,0.18310546875,0.91552734375,-1.197509765625,-73.037109375,62.2430419921875
1758180301.4685175,0.95166015625,-0.01171875,0.28759765625,-0.06103515625,0.06103515625,0.67138671875,-1.2249755859375,-73.037109375,62.2540283203125
1758180301.4785168,0.95166015625,-0.01171875,0.28759765625,-0.06103515625,0.06103515625,0.67138671875,-1.2469482421875,-73.037109375,62.2650146484375
1758180301.489134,0.95458984375,-0.00537109375,0.2919921875,0.48828125,0.0,0.6103515625,-1.2579345703125,-73.037109375,62.2760009765625
1758180301.4985468,0.95458984375,-0.00537109375,0.2919921875,0.48828125,0.0,0.6103515625,-1.2744140625,-73.037109375,62.2869873046875
1758180301.508626,0.962890625,0.0,0.2880859375,-0.48828125,0.0,0.54931640625,-1.29638671875,-73.037109375,62.29248046875
1758180301.5188215,0.962890625,0.0,0.2880859375,-0.48828125,0.0,0.54931640625,-1.318359375,-73.037109375,62.29248046875
1758180301.5286384,0.96923828125,0.0,0.296875,-1.220703125,0.0,0.48828125,-1.3458251953125,-73.0426025390625,62.2979736328125
1758180301.5386732,0.96923828125,0.0,0.296875,-1.220703125,0.0,0.48828125,-1.3677978515625,-73.0426025390625,62.2979736328125
1758180301.549432,0.9658203125,-0.0087890625,0.296875,-0.42724609375,-0.06103515625,0.3662109375,-1.38427734375,-73.0426025390625,62.29248046875
1758180301.5593631,0.9658203125,-0.0087890625,0.296875,-0.42724609375,-0.06103515625,0.3662109375,-1.395263671875,-73.0426025390625,62.2869873046875
1758180301.5686688,0.9609375,-0.00634765625,0.2861328125,0.1220703125,-0.18310546875,0.244140625,-1.4007568359375,-73.0426025390625,62.281494140625
1758180301.578631,0.9609375,-0.00634765625,0.2861328125,0.1220703125,-0.18310546875,0.244140625,-1.40625,-73.048095703125,62.2760009765625
1758180301.589256,0.96630859375,-0.01220703125,0.29443359375,0.42724609375,-0.30517578125,0.1220703125,-1.40625,-73.048095703125,62.2650146484375
1758180301.5987873,0.96630859375,-0.01220703125,0.29443359375,0.42724609375,-0.30517578125,0.1220703125,-1.40625,-73.0535888671875,62.2540283203125
1758180301.6087422,0.96826171875,-0.00732421875,0.29296875,0.1220703125,-0.42724609375,0.1220703125,-1.40625,-73.05908203125,62.24853515625
1758180301.6189651,0.96826171875,-0.00732421875,0.29296875,0.1220703125,-0.42724609375,0.1220703125,-1.4117431640625,-73.0645751953125,62.237548828125
1758180301.6288242,0.96240234375,-0.0048828125,0.29150390625,-0.3662109375,-0.6103515625,0.30517578125,-1.4227294921875,-73.070068359375,62.2320556640625
1758180301.6389122,0.96240234375,-0.0048828125,0.29150390625,-0.3662109375,-0.6103515625,0.30517578125,-1.4337158203125,-73.0755615234375,62.2320556640625
1758180301.6494992,0.95556640625,-0.00390625,0.287109375,-0.30517578125,-0.79345703125,0.48828125,-1.4556884765625,-73.0810546875,62.2320556640625
1758180301.6595762,0.95556640625,-0.00390625,0.287109375,-0.30517578125,-0.79345703125,0.48828125,-1.47216796875,-73.092041015625,62.2320556640625
1758180301.6688025,0.96044921875,-0.009765625,0.2900390625,0.0,-0.91552734375,0.6103515625,-1.4886474609375,-73.10302734375,62.237548828125
1758180301.6788752,0.96044921875,-0.009765625,0.2900390625,0.0,-0.91552734375,0.6103515625,-1.5106201171875,-73.1085205078125,62.2430419921875
1758180301.689217,0.96044921875,-0.009765625,0.2900390625,-0.48828125,-0.9765625,0.48828125,-1.5325927734375,-73.1195068359375,62.2430419921875
1758180301.698896,0.962890625,-0.01220703125,0.29052734375,-0.48828125,-0.9765625,0.48828125,-1.5545654296875,-73.1304931640625,62.24853515625
1758180301.709993,0.95703125,-0.00732421875,0.2890625,-0.91552734375,-1.03759765625,0.42724609375,-1.5765380859375,-73.1414794921875,62.24853515625
1758180301.7193623,0.95703125,-0.00732421875,0.2890625,-0.91552734375,-1.03759765625,0.42724609375,-1.5985107421875,-73.1524658203125,62.24853515625
1758180301.7290926,0.951171875,-0.00244140625,0.28515625,-0.8544921875,-0.9765625,0.48828125,-1.6259765625,-73.157958984375,62.24853515625
1758180301.739015,0.951171875,-0.00244140625,0.28515625,-0.8544921875,-0.9765625,0.48828125,-1.64794921875,-73.1689453125,62.24853515625
1758180301.7494552,0.94970703125,-0.01416015625,0.2890625,0.244140625,-0.91552734375,0.48828125,-1.6644287109375,-73.179931640625,62.24853515625
1758180301.7590868,0.94970703125,-0.01416015625,0.2890625,0.244140625,-0.91552734375,0.48828125,-1.6754150390625,-73.1854248046875,62.2540283203125
1758180301.7689452,0.953125,-0.01611328125,0.28857421875,0.1220703125,-0.91552734375,0.3662109375,-1.6864013671875,-73.1964111328125,62.2540283203125
1758180301.7790236,0.953125,-0.01611328125,0.28857421875,0.1220703125,-0.91552734375,0.3662109375,-1.702880859375,-73.2073974609375,62.2540283203125
1758180301.789565,0.9521484375,-0.005859375,0.28662109375,-0.42724609375,-0.79345703125,0.30517578125,-1.7138671875,-73.212890625,62.2540283203125
1758180301.7995105,0.9521484375,-0.005859375,0.28662109375,-0.42724609375,-0.79345703125,0.30517578125,-1.7303466796875,-73.2183837890625,62.2540283203125
1758180301.8092022,0.94677734375,-0.00048828125,0.28564453125,-0.244140625,-0.79345703125,0.3662109375,-1.746826171875,-73.2293701171875,62.2540283203125
1758180301.819248,0.94677734375,-0.00048828125,0.28564453125,-0.244140625,-0.79345703125,0.3662109375,-1.7578125,-73.23486328125,62.24853515625
1758180301.8291194,0.955078125,-0.01220703125,0.28369140625,0.18310546875,-0.732421875,0.30517578125,-1.768798828125,-73.2403564453125,62.24853515625
1758180301.8391724,0.955078125,-0.01220703125,0.28369140625,0.18310546875,-0.732421875,0.30517578125,-1.7742919921875,-73.2513427734375,62.24853515625
1758180301.849613,0.9619140625,-0.01708984375,0.29248046875,0.42724609375,-0.6103515625,0.1220703125,-1.7742919921875,-73.2568359375,62.237548828125
1758180301.860027,0.9619140625,-0.01708984375,0.29248046875,0.42724609375,-0.6103515625,0.1220703125,-1.77978515625,-73.2623291015625,62.2320556640625
1758180301.869121,0.9609375,-0.00732421875,0.2900390625,0.0,-0.6103515625,0.06103515625,-1.77978515625,-73.267822265625,62.2265625
1758180301.8791149,0.9609375,-0.00732421875,0.2900390625,0.0,-0.6103515625,0.06103515625,-1.7852783203125,-73.2733154296875,62.215576171875
1758180301.892158,0.95947265625,-0.00390625,0.283203125,0.0,-0.732421875,0.18310546875,-1.790771484375,-73.27880859375,62.2100830078125
1758180301.8991055,0.95947265625,-0.00390625,0.283203125,0.0,-0.732421875,0.18310546875,-1.7962646484375,-73.2843017578125,62.20458984375
1758180301.9090788,0.96630859375,-0.01171875,0.2890625,0.0,-0.8544921875,0.30517578125,-1.8072509765625,-73.2952880859375,62.20458984375
1758180301.9249036,0.96630859375,-0.01171875,0.2890625,0.0,-0.8544921875,0.30517578125,-1.8182373046875,-73.30078125,62.1990966796875
1758180301.9309883,0.97412109375,-0.01416015625,0.291015625,-0.18310546875,-0.91552734375,0.3662109375,-1.834716796875,-73.311767578125,62.20458984375
1758180301.9391315,0.97412109375,-0.01416015625,0.291015625,-0.18310546875,-0.91552734375,0.3662109375,-1.8511962890625,-73.32275390625,62.20458984375
1758180301.9495451,0.9736328125,-0.00927734375,0.29248046875,-0.18310546875,-0.91552734375,0.3662109375,-1.8621826171875,-73.3282470703125,62.20458984375
1758180301.9591928,0.9736328125,-0.00927734375,0.29248046875,-0.18310546875,-0.91552734375,0.3662109375,-1.878662109375,-73.3392333984375,62.20458984375
1758180301.969175,0.96728515625,-0.0078125,0.28955078125,-0.18310546875,-0.9765625,0.3662109375,-1.8951416015625,-73.3502197265625,62.2100830078125
1758180301.9791946,0.96728515625,-0.0078125,0.28955078125,-0.18310546875,-0.9765625,0.3662109375,-1.91162109375,-73.355712890625,62.20458984375
1758180301.9896364,0.96435546875,-0.0126953125,0.28271484375,0.30517578125,-1.03759765625,0.3662109375,-1.922607421875,-73.36669921875,62.2100830078125
1758180301.9992216,0.96435546875,-0.0126953125,0.28271484375,0.30517578125,-1.03759765625,0.3662109375,-1.93359375,-73.377685546875,62.2100830078125
1758180302.011553,0.96630859375,-0.01318359375,0.28857421875,0.42724609375,-1.03759765625,0.42724609375,-1.944580078125,-73.388671875,62.215576171875
1758180302.0248723,0.96630859375,-0.01318359375,0.28857421875,0.42724609375,-1.03759765625,0.42724609375,-1.95556640625,-73.399658203125,62.215576171875
1758180302.0310206,0.9658203125,-0.00732421875,0.28759765625,0.0,-1.15966796875,0.48828125,-1.9720458984375,-73.41064453125,62.2210693359375
1758180302.0392447,0.9560546875,-0.0078125,0.28173828125,-0.244140625,-1.28173828125,0.48828125,-1.9940185546875,-73.421630859375,62.2265625
1758180302.0495737,0.9560546875,-0.0078125,0.28173828125,-0.244140625,-1.28173828125,0.48828125,-2.010498046875,-73.4326171875,62.2320556640625
1758180302.059291,0.95166015625,-0.0126953125,0.27734375,-0.1220703125,-1.46484375,0.6103515625,-2.032470703125,-73.443603515625,62.237548828125
1758180302.0693195,0.95166015625,-0.0126953125,0.27734375,-0.1220703125,-1.46484375,0.6103515625,-2.0599365234375,-73.4600830078125,62.24853515625
1758180302.0793278,0.9599609375,-0.0126953125,0.28515625,0.0,-1.40380859375,0.48828125,-2.076416015625,-73.4765625,62.259521484375
1758180302.0897264,0.9599609375,-0.0126953125,0.28515625,0.0,-1.40380859375,0.48828125,-2.098388671875,-73.487548828125,62.2650146484375
1758180302.099353,0.9609375,-0.00830078125,0.28564453125,-0.06103515625,-1.3427734375,0.30517578125,-2.1148681640625,-73.5040283203125,62.2650146484375
1758180302.109374,0.9609375,-0.00830078125,0.28564453125,-0.06103515625,-1.3427734375,0.30517578125,-2.1258544921875,-73.5150146484375,62.2650146484375
1758180302.1195035,0.958984375,-0.0107421875,0.28271484375,0.54931640625,-1.220703125,0.18310546875,-2.13134765625,-73.5260009765625,62.259521484375
1758180302.1293693,0.958984375,-0.0107421875,0.28271484375,0.54931640625,-1.220703125,0.18310546875,-2.13134765625,-73.5369873046875,62.2540283203125
1758180302.1393883,0.95556640625,-0.0126953125,0.28076171875,0.42724609375,-1.0986328125,0.18310546875,-2.1368408203125,-73.5479736328125,62.24853515625
1758180302.1496372,0.95556640625,-0.0126953125,0.28076171875,0.42724609375,-1.0986328125,0.18310546875,-2.142333984375,-73.5589599609375,62.2430419921875
1758180302.1594486,0.9560546875,-0.01171875,0.27783203125,0.54931640625,-1.0986328125,0.1220703125,-2.142333984375,-73.5699462890625,62.237548828125
1758180302.1693704,0.9560546875,-0.01171875,0.27783203125,0.54931640625,-1.0986328125,0.1220703125,-2.142333984375,-73.5809326171875,62.2265625
1758180302.1794808,0.9560546875,-0.01123046875,0.28173828125,0.79345703125,-1.15966796875,0.18310546875,-2.142333984375,-73.5919189453125,62.2210693359375
1758180302.1899455,0.9560546875,-0.01123046875,0.28173828125,0.79345703125,-1.15966796875,0.18310546875,-2.142333984375,-73.6029052734375,62.215576171875
1758180302.1995385,0.94970703125,-0.0087890625,0.27880859375,0.6103515625,-1.03759765625,0.30517578125,-2.1478271484375,-73.6138916015625,62.2100830078125
1758180302.2094975,0.94970703125,-0.0087890625,0.27880859375,0.6103515625,-1.03759765625,0.30517578125,-2.1533203125,-73.6248779296875,62.2100830078125
1758180302.2197146,0.94873046875,-0.01318359375,0.27294921875,0.9765625,-1.03759765625,0.3662109375,-2.1588134765625,-73.6358642578125,62.2100830078125
1758180302.2294767,0.94873046875,-0.01318359375,0.27294921875,0.9765625,-1.03759765625,0.3662109375,-2.1588134765625,-73.641357421875,62.2100830078125
1758180302.2396066,0.96337890625,-0.013671875,0.28369140625,0.3662109375,-1.0986328125,0.30517578125,-2.1697998046875,-73.65234375,62.2100830078125
1758180302.249651,0.96337890625,-0.013671875,0.28369140625,0.3662109375,-1.0986328125,0.30517578125,-2.17529296875,-73.663330078125,62.2100830078125
1758180302.259564,0.96044921875,-0.00732421875,0.27587890625,0.18310546875,-0.9765625,0.30517578125,-2.186279296875,-73.67431640625,62.215576171875
1758180302.2695312,0.96044921875,-0.00732421875,0.27587890625,0.18310546875,-0.9765625,0.30517578125,-2.197265625,-73.685302734375,62.2100830078125
1758180302.2795758,0.95947265625,-0.00927734375,0.283203125,0.18310546875,-0.732421875,0.30517578125,-2.208251953125,-73.6907958984375,62.2100830078125
1758180302.2900577,0.95947265625,-0.00927734375,0.283203125,0.18310546875,-0.732421875,0.30517578125,-2.2137451171875,-73.7017822265625,62.2100830078125
1758180302.299607,0.9521484375,-0.01416015625,0.2783203125,0.67138671875,-0.732421875,0.30517578125,-2.2247314453125,-73.707275390625,62.2100830078125
1758180302.3095982,0.9521484375,-0.01416015625,0.2783203125,0.67138671875,-0.732421875,0.30517578125,-2.2247314453125,-73.7127685546875,62.20458984375
1758180302.319758,0.95068359375,-0.017578125,0.27294921875,1.5869140625,-0.67138671875,0.244140625,-2.2247314453125,-73.71826171875,62.20458984375
1758180302.3295975,0.95068359375,-0.017578125,0.27294921875,1.5869140625,-0.67138671875,0.244140625,-2.21923828125,-73.729248046875,62.20458984375
1758180302.3396735,0.94873046875,-0.01025390625,0.27978515625,0.244140625,-0.54931640625,0.30517578125,-2.2247314453125,-73.7347412109375,62.20458984375
1758180302.3496728,0.94873046875,-0.01025390625,0.27978515625,0.244140625,-0.54931640625,0.30517578125,-2.2357177734375,-73.740234375,62.2100830078125
1758180302.3596785,0.9521484375,-0.00439453125,0.2744140625,-0.3662109375,-0.42724609375,0.42724609375,-2.2467041015625,-73.740234375,62.215576171875
1758180302.3696208,0.9521484375,-0.00439453125,0.2744140625,-0.3662109375,-0.42724609375,0.42724609375,-2.2686767578125,-73.7457275390625,62.2210693359375
1758180302.3796399,0.958984375,-0.0107421875,0.28076171875,-0.06103515625,-0.18310546875,0.54931640625,-2.28515625,-73.751220703125,62.2265625
1758180302.3901155,0.958984375,-0.0107421875,0.28076171875,-0.06103515625,-0.18310546875,0.54931640625,-2.30712890625,-73.751220703125,62.2320556640625
1758180302.3996778,0.96337890625,-0.01416015625,0.28173828125,-0.18310546875,-0.06103515625,0.54931640625,-2.3236083984375,-73.751220703125,62.2430419921875
1758180302.4096656,0.96337890625,-0.01416015625,0.28173828125,-0.18310546875,-0.06103515625,0.54931640625,-2.3455810546875,-73.751220703125,62.24853515625
1758180302.4199111,0.962890625,-0.0185546875,0.27685546875,0.3662109375,0.0,0.48828125,-2.362060546875,-73.751220703125,62.2540283203125
1758180302.4297686,0.962890625,-0.0185546875,0.27685546875,0.3662109375,0.0,0.48828125,-2.3785400390625,-73.751220703125,62.259521484375
1758180302.4397478,0.962890625,-0.01708984375,0.279296875,0.6103515625,-0.06103515625,0.54931640625,-2.3895263671875,-73.751220703125,62.2650146484375
1758180302.4499006,0.962890625,-0.01708984375,0.279296875,0.6103515625,-0.06103515625,0.54931640625,-2.406005859375,-73.751220703125,62.2705078125
1758180302.4598699,0.966796875,-0.01123046875,0.2763671875,0.06103515625,-0.1220703125,0.67138671875,-2.4224853515625,-73.751220703125,62.281494140625
1758180302.4698024,0.966796875,-0.01123046875,0.2763671875,0.06103515625,-0.1220703125,0.67138671875,-2.449951171875,-73.751220703125,62.2979736328125
1758180302.4797783,0.97802734375,-0.01025390625,0.28564453125,-0.42724609375,-0.06103515625,0.79345703125,-2.4774169921875,-73.7567138671875,62.3089599609375
1758180302.4902098,0.97802734375,-0.01025390625,0.28564453125,-0.42724609375,-0.06103515625,0.79345703125,-2.5103759765625,-73.7567138671875,62.325439453125
1758180302.4998026,0.97607421875,-0.00830078125,0.2880859375,-1.0986328125,-0.06103515625,0.8544921875,-2.5433349609375,-73.7567138671875,62.33642578125
1758180302.509792,0.97607421875,-0.00830078125,0.2880859375,-1.0986328125,-0.06103515625,0.8544921875,-2.5872802734375,-73.7567138671875,62.3529052734375
1758180302.5199523,0.9677734375,-0.0146484375,0.27587890625,-0.42724609375,-0.06103515625,0.8544921875,-2.6202392578125,-73.7567138671875,62.3638916015625
1758180302.529795,0.9677734375,-0.0146484375,0.27587890625,-0.42724609375,-0.06103515625,0.8544921875,-2.6531982421875,-73.7567138671875,62.38037109375
1758180302.5398593,0.9609375,-0.0185546875,0.2685546875,1.46484375,-0.30517578125,0.79345703125,-2.6751708984375,-73.7567138671875,62.3968505859375
1758180302.5499458,0.9609375,-0.0185546875,0.2685546875,1.46484375,-0.30517578125,0.79345703125,-2.6861572265625,-73.76220703125,62.413330078125
1758180302.5599668,0.96044921875,-0.02294921875,0.29345703125,0.54931640625,-0.54931640625,0.732421875,-2.7081298828125,-73.7677001953125,62.4298095703125
1758180302.569882,0.96044921875,-0.02294921875,0.29345703125,0.54931640625,-0.54931640625,0.732421875,-2.7301025390625,-73.773193359375,62.4517822265625
1758180302.5799527,0.96337890625,-0.009765625,0.27294921875,0.06103515625,-0.54931640625,0.732421875,-2.7520751953125,-73.7786865234375,62.46826171875
1758180302.5903547,0.96337890625,-0.009765625,0.27294921875,0.06103515625,-0.54931640625,0.732421875,-2.779541015625,-73.7786865234375,62.4847412109375
1758180302.599984,0.95947265625,-0.0078125,0.27978515625,0.67138671875,-0.3662109375,0.67138671875,-2.801513671875,-73.7841796875,62.4957275390625
1758180302.6107373,0.95947265625,-0.0078125,0.27978515625,0.67138671875,-0.3662109375,0.67138671875,-2.8179931640625,-73.7896728515625,62.501220703125
1758180302.6216786,0.95458984375,-0.01513671875,0.279296875,0.79345703125,-0.30517578125,0.54931640625,-2.8289794921875,-73.7896728515625,62.5067138671875
1758180302.629944,0.95458984375,-0.01513671875,0.279296875,0.79345703125,-0.30517578125,0.54931640625,-2.8399658203125,-73.795166015625,62.51220703125
1758180302.640231,0.94580078125,-0.01904296875,0.27099609375,1.0986328125,-0.18310546875,0.3662109375,-2.8509521484375,-73.795166015625,62.51220703125
1758180302.650015,0.94580078125,-0.01904296875,0.27099609375,1.0986328125,-0.18310546875,0.3662109375,-2.8509521484375,-73.8006591796875,62.51220703125
1758180302.6602218,0.93994140625,-0.01318359375,0.27197265625,1.03759765625,-0.1220703125,0.18310546875,-2.8509521484375,-73.8006591796875,62.5067138671875
1758180302.6699567,0.93994140625,-0.01318359375,0.27197265625,1.03759765625,-0.1220703125,0.18310546875,-2.845458984375,-73.8006591796875,62.501220703125
1758180302.6802294,0.9404296875,-0.01171875,0.2666015625,1.46484375,-0.30517578125,0.1220703125,-2.8399658203125,-73.8006591796875,62.4957275390625
1758180302.6905067,0.9404296875,-0.01171875,0.2666015625,1.46484375,-0.30517578125,0.1220703125,-2.8289794921875,-73.80615234375,62.490234375
1758180302.700262,0.9462890625,-0.0146484375,0.27294921875,1.28173828125,-0.30517578125,0.1220703125,-2.823486328125,-73.8116455078125,62.4847412109375
1758180302.710074,0.9462890625,-0.0146484375,0.27294921875,1.28173828125,-0.30517578125,0.1220703125,-2.8125,-73.8116455078125,62.479248046875
1758180302.720245,0.95458984375,-0.01416015625,0.27734375,0.8544921875,-0.244140625,0.1220703125,-2.8070068359375,-73.817138671875,62.4737548828125
1758180302.7300804,0.95458984375,-0.01416015625,0.27734375,0.8544921875,-0.244140625,0.1220703125,-2.8070068359375,-73.817138671875,62.46826171875
1758180302.7400846,0.95751953125,-0.01171875,0.27783203125,0.1220703125,-0.1220703125,0.244140625,-2.8070068359375,-73.8226318359375,62.4627685546875
1758180302.7502785,0.95751953125,-0.01171875,0.27783203125,0.1220703125,-0.1220703125,0.244140625,-2.8179931640625,-73.8226318359375,62.457275390625
1758180302.76017,0.958984375,-0.01171875,0.27490234375,-0.48828125,-0.1220703125,0.3662109375,-2.8289794921875,-73.8226318359375,62.457275390625
1758180302.7701063,0.958984375,-0.01171875,0.27490234375,-0.48828125,-0.1220703125,0.3662109375,-2.845458984375,-73.8226318359375,62.457275390625
1758180302.7801383,0.958984375,-0.01708984375,0.27685546875,-0.3662109375,-0.06103515625,0.42724609375,-2.8619384765625,-73.828125,62.457275390625
1758180302.791155,0.958984375,-0.01708984375,0.27685546875,-0.3662109375,-0.06103515625,0.42724609375,-2.8839111328125,-73.828125,62.4627685546875
1758180302.8001754,0.96142578125,-0.0205078125,0.2783203125,0.3662109375,0.0,0.42724609375,-2.8948974609375,-73.828125,62.46826171875
1758180302.8101892,0.96142578125,-0.0205078125,0.2783203125,0.3662109375,0.0,0.42724609375,-2.9058837890625,-73.828125,62.4737548828125
1758180302.8202534,0.966796875,-0.017578125,0.2763671875,0.42724609375,-0.06103515625,0.3662109375,-2.9168701171875,-73.828125,62.479248046875
1758180302.8301857,0.966796875,-0.017578125,0.2763671875,0.42724609375,-0.06103515625,0.3662109375,-2.9278564453125,-73.828125,62.490234375
1758180302.840175,0.97021484375,-0.01220703125,0.27685546875,0.18310546875,-0.1220703125,0.3662109375,-2.9388427734375,-73.828125,62.4957275390625
1758180302.8502345,0.97021484375,-0.01220703125,0.27685546875,0.18310546875,-0.1220703125,0.3662109375,-2.955322265625,-73.828125,62.501220703125
1758180302.860223,0.97216796875,-0.0146484375,0.28173828125,0.3662109375,-0.18310546875,0.42724609375,-2.96630859375,-73.8336181640625,62.5067138671875
1758180302.8702257,0.97216796875,-0.0146484375,0.28173828125,0.3662109375,-0.18310546875,0.42724609375,-2.977294921875,-73.8336181640625,62.5177001953125
1758180302.8801901,0.97900390625,-0.01806640625,0.28125,-0.244140625,-0.18310546875,0.54931640625,-2.9937744140625,-73.839111328125,62.523193359375
1758180302.8906808,0.97900390625,-0.01806640625,0.28125,-0.244140625,-0.18310546875,0.54931640625,-3.0157470703125,-73.839111328125,62.5341796875
1758180302.9003887,0.98193359375,-0.015625,0.28173828125,-0.732421875,-0.3662109375,0.6103515625,-3.043212890625,-73.839111328125,62.5506591796875
1758180302.9127748,0.98193359375,-0.015625,0.28173828125,-0.732421875,-0.3662109375,0.6103515625,-3.0706787109375,-73.8446044921875,62.5616455078125
1758180302.9221659,0.98193359375,-0.01611328125,0.28271484375,0.244140625,-0.48828125,0.6103515625,-3.09814453125,-73.85009765625,62.578125
1758180302.9303102,0.98193359375,-0.01611328125,0.28271484375,0.244140625,-0.48828125,0.6103515625,-3.1201171875,-73.8555908203125,62.5946044921875
1758180302.940301,0.97802734375,-0.0234375,0.2822265625,1.03759765625,-0.54931640625,0.54931640625,-3.131103515625,-73.861083984375,62.6055908203125
1758180302.9504032,0.97802734375,-0.0234375,0.2822265625,1.03759765625,-0.54931640625,0.54931640625,-3.14208984375,-73.8665771484375,62.6220703125
1758180302.9603362,0.97412109375,-0.0205078125,0.27734375,1.40380859375,-0.732421875,0.48828125,-3.153076171875,-73.8720703125,62.633056640625
1758180302.9703562,0.97412109375,-0.0205078125,0.27734375,1.40380859375,-0.732421875,0.48828125,-3.1585693359375,-73.8775634765625,62.6495361328125
1758180302.9803314,0.970703125,-0.01904296875,0.279296875,1.77001953125,-0.9765625,0.54931640625,-3.1640625,-73.8885498046875,62.666015625
1758180302.9907875,0.970703125,-0.01904296875,0.279296875,1.77001953125,-0.9765625,0.54931640625,-3.175048828125,-73.8995361328125,62.6824951171875
1758180303.0003328,0.96875,-0.015625,0.2734375,1.52587890625,-1.0986328125,0.67138671875,-3.1805419921875,-73.905029296875,62.698974609375
1758180303.0103915,0.96875,-0.015625,0.2734375,1.52587890625,-1.0986328125,0.67138671875,-3.197021484375,-73.916015625,62.720947265625
1758180303.0203304,0.96484375,-0.01416015625,0.2783203125,0.9765625,-1.0986328125,0.67138671875,-3.2080078125,-73.927001953125,62.7374267578125
1758180303.0303802,0.96484375,-0.01416015625,0.2783203125,0.9765625,-1.0986328125,0.67138671875,-3.22998046875,-73.93798828125,62.7593994140625
1758180303.0403764,0.96142578125,-0.01123046875,0.2724609375,1.15966796875,-1.28173828125,0.79345703125,-3.2464599609375,-73.948974609375,62.7813720703125
1758180303.0504565,0.96142578125,-0.01123046875,0.2724609375,1.15966796875,-1.28173828125,0.79345703125,-3.262939453125,-73.9654541015625,62.8033447265625
1758180303.0604208,0.96142578125,-0.0185546875,0.27587890625,0.67138671875,-1.28173828125,0.8544921875,-3.284912109375,-73.9764404296875,62.8253173828125
1758180303.070478,0.96142578125,-0.0185546875,0.27587890625,0.67138671875,-1.28173828125,0.8544921875,-3.3123779296875,-73.9874267578125,62.8472900390625
1758180303.0804257,0.9580078125,-0.01708984375,0.2744140625,0.3662109375,-1.15966796875,0.8544921875,-3.33984375,-73.9984130859375,62.874755859375
1758180303.0908933,0.9580078125,-0.01708984375,0.2744140625,0.3662109375,-1.15966796875,0.8544921875,-3.3673095703125,-74.0093994140625,62.896728515625
1758180303.1004975,0.95361328125,-0.01708984375,0.271484375,1.03759765625,-1.0986328125,0.9765625,-3.394775390625,-74.0203857421875,62.9241943359375
1758180303.110534,0.95361328125,-0.01708984375,0.271484375,1.03759765625,-1.0986328125,0.9765625,-3.4222412109375,-74.0313720703125,62.9571533203125
1758180303.1205475,0.9521484375,-0.01220703125,0.2666015625,1.46484375,-1.15966796875,1.15966796875,-3.44970703125,-74.0423583984375,62.9901123046875
1758180303.1305325,0.9521484375,-0.01220703125,0.2666015625,1.46484375,-1.15966796875,1.15966796875,-3.4771728515625,-74.0533447265625,63.0230712890625
1758180303.1404984,0.94921875,-0.017578125,0.26806640625,0.0,-1.0986328125,1.15966796875,-3.5211181640625,-74.0643310546875,63.0560302734375
1758180303.1505666,0.94921875,-0.017578125,0.26806640625,0.0,-1.0986328125,1.15966796875,-3.5595703125,-74.0753173828125,63.0889892578125
1758180303.16051,0.95361328125,-0.013671875,0.2705078125,-1.46484375,-0.9765625,1.0986328125,-3.614501953125,-74.080810546875,63.1219482421875
1758180303.1705506,0.95361328125,-0.013671875,0.2705078125,-1.46484375,-0.9765625,1.0986328125,-3.66943359375,-74.091796875,63.1494140625
1758180303.1806018,0.95263671875,-0.01953125,0.27001953125,0.1220703125,-1.03759765625,1.0986328125,-3.702392578125,-74.102783203125,63.1768798828125
1758180303.1910174,0.95263671875,-0.01953125,0.27001953125,0.1220703125,-1.03759765625,1.0986328125,-3.7408447265625,-74.11376953125,63.2098388671875
1758180303.2005806,0.9541015625,-0.02685546875,0.27001953125,0.732421875,-0.91552734375,0.91552734375,-3.768310546875,-74.1192626953125,63.2318115234375
1758180303.2108414,0.9541015625,-0.02685546875,0.27001953125,0.732421875,-0.91552734375,0.91552734375,-3.7957763671875,-74.1302490234375,63.25927734375
1758180303.2206674,0.958984375,-0.02294921875,0.2685546875,0.9765625,-0.79345703125,0.79345703125,-3.8177490234375,-74.1357421875,63.28125
1758180303.2306504,0.958984375,-0.02294921875,0.2685546875,0.9765625,-0.79345703125,0.79345703125,-3.8397216796875,-74.1412353515625,63.30322265625
1758180303.2406774,0.9609375,-0.0166015625,0.271484375,1.220703125,-0.732421875,0.732421875,-3.8507080078125,-74.1522216796875,63.3197021484375
1758180303.2509563,0.9609375,-0.0166015625,0.271484375,1.220703125,-0.732421875,0.732421875,-3.8671875,-74.15771484375,63.3416748046875
1758180303.260645,0.9638671875,-0.01416015625,0.27099609375,0.30517578125,-0.732421875,0.79345703125,-3.8946533203125,-74.1632080078125,63.358154296875
1758180303.2706876,0.9638671875,-0.01416015625,0.27099609375,0.30517578125,-0.732421875,0.79345703125,-3.922119140625,-74.168701171875,63.380126953125
1758180303.2806416,0.966796875,-0.01806640625,0.2705078125,0.3662109375,-0.79345703125,0.732421875,-3.944091796875,-74.1796875,63.3966064453125
1758180303.2910712,0.966796875,-0.01806640625,0.2705078125,0.3662109375,-0.79345703125,0.732421875,-3.966064453125,-74.1851806640625,63.4185791015625
1758180303.300666,0.974609375,-0.02734375,0.275390625,1.28173828125,-0.732421875,0.67138671875,-3.97705078125,-74.190673828125,63.43505859375
1758180303.3109703,0.974609375,-0.02734375,0.275390625,1.28173828125,-0.732421875,0.67138671875,-3.9935302734375,-74.20166015625,63.45703125
1758180303.320773,0.97412109375,-0.02099609375,0.275390625,0.79345703125,-0.79345703125,0.48828125,-4.0045166015625,-74.2071533203125,63.468017578125
1758180303.3308363,0.97412109375,-0.02099609375,0.275390625,0.79345703125,-0.79345703125,0.48828125,-4.0155029296875,-74.212646484375,63.4844970703125
1758180303.3408031,0.9697265625,-0.0146484375,0.2685546875,0.732421875,-0.8544921875,0.3662109375,-4.0264892578125,-74.2236328125,63.489990234375
1758180303.3507848,0.9697265625,-0.0146484375,0.2685546875,0.732421875,-0.8544921875,0.3662109375,-4.031982421875,-74.2291259765625,63.5009765625
1758180303.3610494,0.97119140625,-0.0205078125,0.2685546875,1.64794921875,-1.15966796875,0.42724609375,-4.031982421875,-74.2401123046875,63.511962890625
1758180303.3707788,0.97119140625,-0.0205078125,0.2685546875,1.64794921875,-1.15966796875,0.42724609375,-4.0374755859375,-74.2510986328125,63.52294921875
1758180303.3807752,0.9716796875,-0.0263671875,0.2734375,2.197265625,-1.40380859375,0.42724609375,-4.031982421875,-74.267578125,63.533935546875
1758180303.3915439,0.9716796875,-0.0263671875,0.2734375,2.197265625,-1.40380859375,0.42724609375,-4.031982421875,-74.278564453125,63.544921875
1758180303.4007874,0.96923828125,-0.0205078125,0.27001953125,0.9765625,-1.46484375,0.42724609375,-4.04296875,-74.2950439453125,63.5614013671875
1758180303.410879,0.96923828125,-0.0205078125,0.27001953125,0.9765625,-1.46484375,0.42724609375,-4.053955078125,-74.3115234375,63.5723876953125
1758180303.420904,0.96484375,-0.01318359375,0.26806640625,0.3662109375,-1.46484375,0.48828125,-4.0704345703125,-74.322509765625,63.5888671875
1758180303.430921,0.96484375,-0.01318359375,0.26806640625,0.3662109375,-1.46484375,0.48828125,-4.0869140625,-74.3389892578125,63.599853515625
1758180303.4409063,0.95166015625,-0.021484375,0.2626953125,1.03759765625,-1.3427734375,0.48828125,-4.097900390625,-74.3499755859375,63.6163330078125
1758180303.450881,0.95166015625,-0.021484375,0.2626953125,1.03759765625,-1.3427734375,0.48828125,-4.10888671875,-74.366455078125,63.6273193359375
1758180303.4611208,0.95166015625,-0.021484375,0.2626953125,0.244140625,-1.28173828125,0.54931640625,-4.130859375,-74.37744140625,63.643798828125
1758180303.4709442,0.95361328125,-0.01953125,0.26220703125,0.244140625,-1.28173828125,0.54931640625,-4.15283203125,-74.388427734375,63.6602783203125
1758180303.4810348,0.953125,-0.025390625,0.2666015625,0.0,-1.15966796875,0.3662109375,-4.1693115234375,-74.3994140625,63.665771484375
1758180303.4914014,0.953125,-0.025390625,0.2666015625,0.0,-1.15966796875,0.3662109375,-4.185791015625,-74.410400390625,63.6767578125
1758180303.5009265,0.94970703125,-0.0205078125,0.259765625,0.48828125,-1.0986328125,0.3662109375,-4.19677734375,-74.42138671875,63.687744140625
1758180303.5128632,0.94970703125,-0.0205078125,0.259765625,0.48828125,-1.0986328125,0.3662109375,-4.207763671875,-74.432373046875,63.69873046875
1758180303.5217943,0.96142578125,-0.0244140625,0.26953125,0.30517578125,-0.9765625,0.42724609375,-4.2242431640625,-74.443359375,63.709716796875
1758180303.5309806,0.96142578125,-0.0244140625,0.26953125,0.30517578125,-0.9765625,0.42724609375,-4.24072265625,-74.4488525390625,63.7261962890625
1758180303.5409832,0.96240234375,-0.02001953125,0.263671875,-0.1220703125,-0.79345703125,0.42724609375,-4.2626953125,-74.4598388671875,63.7371826171875
1758180303.5510323,0.96240234375,-0.02001953125,0.263671875,-0.1220703125,-0.79345703125,0.42724609375,-4.28466796875,-74.46533203125,63.7481689453125
1758180303.5612135,0.9609375,-0.01953125,0.26904296875,-0.42724609375,-0.6103515625,0.54931640625,-4.3121337890625,-74.4708251953125,63.7646484375
1758180303.571081,0.9609375,-0.01953125,0.26904296875,-0.42724609375,-0.6103515625,0.54931640625,-4.339599609375,-74.476318359375,63.775634765625
1758180303.5810785,0.95947265625,-0.0244140625,0.26171875,-0.54931640625,-0.42724609375,0.732421875,-4.37255859375,-74.4818115234375,63.797607421875
1758180303.595299,0.95947265625,-0.0244140625,0.26171875,-0.54931640625,-0.42724609375,0.732421875,-4.405517578125,-74.4818115234375,63.819580078125
1758180303.601709,0.962890625,-0.02490234375,0.26611328125,-0.9765625,-0.30517578125,0.8544921875,-4.449462890625,-74.4873046875,63.8470458984375
1758180303.611292,0.962890625,-0.02490234375,0.26611328125,-0.9765625,-0.30517578125,0.8544921875,-4.493408203125,-74.4873046875,63.87451171875
1758180303.6254878,0.96533203125,-0.021484375,0.26611328125,-1.220703125,-0.244140625,0.91552734375,-4.537353515625,-74.4927978515625,63.9019775390625
1758180303.6322496,0.96533203125,-0.021484375,0.26611328125,-1.220703125,-0.244140625,0.91552734375,-4.5867919921875,-74.4927978515625,63.929443359375
1758180303.64114,0.96533203125,-0.02294921875,0.26513671875,-0.9765625,-0.18310546875,0.9765625,-4.6307373046875,-74.4927978515625,63.96240234375
1758180303.6536002,0.96533203125,-0.02294921875,0.26513671875,-0.9765625,-0.18310546875,0.9765625,-4.6746826171875,-74.4927978515625,63.9898681640625
1758180303.661503,0.96875,-0.02734375,0.2646484375,-0.91552734375,-0.30517578125,1.0986328125,-4.7296142578125,-74.498291015625,64.0283203125
1758180303.671375,0.96875,-0.02734375,0.2646484375,-0.91552734375,-0.30517578125,1.0986328125,-4.779052734375,-74.498291015625,64.0667724609375
1758180303.6813815,0.97216796875,-0.02734375,0.26953125,-0.67138671875,-0.3662109375,1.220703125,-4.8284912109375,-74.5037841796875,64.1107177734375
1758180303.693162,0.97216796875,-0.02734375,0.26953125,-0.67138671875,-0.3662109375,1.220703125,-4.8834228515625,-74.5037841796875,64.1546630859375
1758180303.7012255,0.9736328125,-0.02099609375,0.267578125,-1.40380859375,-0.18310546875,1.28173828125,-4.94384765625,-74.5037841796875,64.1986083984375
1758180303.7117634,0.9736328125,-0.02099609375,0.267578125,-1.40380859375,-0.18310546875,1.28173828125,-5.0042724609375,-74.5037841796875,64.2425537109375
1758180303.7214198,0.96923828125,-0.02099609375,0.2666015625,-1.77001953125,0.0,1.3427734375,-5.0701904296875,-74.5037841796875,64.281005859375
1758180303.7318337,0.96923828125,-0.02099609375,0.2666015625,-1.77001953125,0.0,1.3427734375,-5.1361083984375,-74.5037841796875,64.324951171875
1758180303.7413495,0.96875,-0.02978515625,0.265625,-1.28173828125,-0.06103515625,1.46484375,-5.2020263671875,-74.5037841796875,64.3743896484375
1758180303.7518058,0.96875,-0.02978515625,0.265625,-1.28173828125,-0.06103515625,1.46484375,-5.2679443359375,-74.5037841796875,64.4183349609375
1758180303.761824,0.97021484375,-0.0322265625,0.2646484375,-0.9765625,-0.18310546875,1.40380859375,-5.328369140625,-74.5037841796875,64.4677734375
1758180303.771825,0.97021484375,-0.0322265625,0.2646484375,-0.9765625,-0.18310546875,1.40380859375,-5.3887939453125,-74.5037841796875,64.51171875
1758180303.7812595,0.97314453125,-0.02587890625,0.2705078125,-1.0986328125,-0.18310546875,1.28173828125,-5.44921875,-74.5037841796875,64.5556640625
1758180303.791987,0.97314453125,-0.02587890625,0.2705078125,-1.0986328125,-0.18310546875,1.28173828125,-5.504150390625,-74.5037841796875,64.5941162109375
1758180303.8013477,0.96826171875,-0.02392578125,0.26318359375,-1.220703125,-0.18310546875,1.28173828125,-5.5645751953125,-74.50927734375,64.6380615234375
1758180303.8120217,0.96826171875,-0.02392578125,0.26318359375,-1.220703125,-0.18310546875,1.28173828125,-5.6195068359375,-74.50927734375,64.676513671875
1758180303.821792,0.96728515625,-0.0283203125,0.26318359375,-1.40380859375,-0.3662109375,1.3427734375,-5.6854248046875,-74.50927734375,64.7149658203125
1758180303.8317118,0.96728515625,-0.0283203125,0.26318359375,-1.40380859375,-0.3662109375,1.3427734375,-5.745849609375,-74.5147705078125,64.7589111328125
1758180303.8413553,0.966796875,-0.02978515625,0.26318359375,-1.5869140625,-0.54931640625,1.3427734375,-5.811767578125,-74.5147705078125,64.8028564453125
1758180303.8516815,0.966796875,-0.02978515625,0.26318359375,-1.5869140625,-0.54931640625,1.3427734375,-5.877685546875,-74.520263671875,64.8468017578125
1758180303.8616827,0.966796875,-0.02490234375,0.26416015625,-1.15966796875,-0.54931640625,1.28173828125,-5.9326171875,-74.5257568359375,64.8907470703125
1758180303.8716843,0.966796875,-0.02490234375,0.26416015625,-1.15966796875,-0.54931640625,1.28173828125,-5.9930419921875,-74.53125,64.92919921875
1758180303.8815467,0.9697265625,-0.03173828125,0.2646484375,-1.0986328125,-0.54931640625,1.0986328125,-6.04248046875,-74.5367431640625,64.962158203125
1758180303.8919816,0.9697265625,-0.03173828125,0.2646484375,-1.0986328125,-0.54931640625,1.0986328125,-6.097412109375,-74.542236328125,65.0006103515625
1758180303.90146,0.97119140625,-0.03125,0.26708984375,-0.732421875,-0.67138671875,0.8544921875,-6.1358642578125,-74.5477294921875,65.0225830078125
1758180303.9118783,0.97119140625,-0.03125,0.26708984375,-0.732421875,-0.67138671875,0.8544921875,-6.17431640625,-74.55322265625,65.050048828125
1758180303.9221547,0.9638671875,-0.02734375,0.2626953125,0.244140625,-0.9765625,0.732421875,-6.2017822265625,-74.564208984375,65.072021484375
1758180303.9318297,0.9638671875,-0.02734375,0.2626953125,0.244140625,-0.9765625,0.732421875,-6.229248046875,-74.5697021484375,65.093994140625
1758180303.9418502,0.95703125,-0.03076171875,0.25830078125,0.6103515625,-1.0986328125,0.54931640625,-6.2457275390625,-74.5806884765625,65.1104736328125
1758180303.9518955,0.95703125,-0.03076171875,0.25830078125,0.6103515625,-1.0986328125,0.54931640625,-6.26220703125,-74.5916748046875,65.126953125
1758180303.9622605,0.95703125,-0.025390625,0.25732421875,-0.1220703125,-1.15966796875,0.3662109375,-6.2786865234375,-74.6026611328125,65.137939453125
1758180303.9717958,0.95703125,-0.025390625,0.25732421875,-0.1220703125,-1.15966796875,0.3662109375,-6.295166015625,-74.6136474609375,65.14892578125
1758180303.9820027,0.95947265625,-0.0283203125,0.2626953125,-0.3662109375,-1.15966796875,0.30517578125,-6.317138671875,-74.630126953125,65.1544189453125
1758180303.9920928,0.95947265625,-0.0283203125,0.2626953125,-0.3662109375,-1.15966796875,0.30517578125,-6.3336181640625,-74.64111328125,65.159912109375
1758180304.001551,0.958984375,-0.03466796875,0.259765625,0.06103515625,-1.03759765625,0.244140625,-6.3446044921875,-74.6466064453125,65.1654052734375
1758180304.0122156,0.958984375,-0.03466796875,0.259765625,0.06103515625,-1.03759765625,0.244140625,-6.3555908203125,-74.6575927734375,65.1708984375
1758180304.0220659,0.95703125,-0.03466796875,0.25634765625,0.244140625,-0.9765625,0.06103515625,-6.361083984375,-74.6685791015625,65.1708984375
1758180304.031899,0.95703125,-0.03466796875,0.25634765625,0.244140625,-0.9765625,0.06103515625,-6.3665771484375,-74.6795654296875,65.1708984375
1758180304.0419495,0.95458984375,-0.03125,0.2578125,0.0,-1.03759765625,0.0,-6.3720703125,-74.6905517578125,65.1763916015625
1758180304.051944,0.95458984375,-0.03125,0.2578125,0.0,-1.03759765625,0.0,-6.3775634765625,-74.7015380859375,65.1763916015625
1758180304.0623438,0.95849609375,-0.02880859375,0.2587890625,0.0,-1.0986328125,0.06103515625,-6.3885498046875,-74.7125244140625,65.1763916015625
1758180304.0719526,0.95849609375,-0.02880859375,0.2587890625,0.0,-1.0986328125,0.06103515625,-6.39404296875,-74.7235107421875,65.1763916015625
1758180304.082076,0.962890625,-0.0302734375,0.259765625,-0.18310546875,-1.03759765625,0.1220703125,-6.405029296875,-74.7344970703125,65.181884765625
1758180304.092252,0.96533203125,-0.03564453125,0.26123046875,0.0,-0.8544921875,0.18310546875,-6.416015625,-74.739990234375,65.181884765625
1758180304.1018412,0.96533203125,-0.03564453125,0.26123046875,0.0,-0.8544921875,0.18310546875,-6.4324951171875,-74.7509765625,65.1873779296875
1758180304.11211,0.97607421875,-0.03955078125,0.26416015625,0.9765625,-0.79345703125,0.06103515625,-6.43798828125,-74.7564697265625,65.19287109375
1758180304.1224806,0.97607421875,-0.03955078125,0.26416015625,0.9765625,-0.79345703125,0.06103515625,-6.4324951171875,-74.7674560546875,65.1983642578125
1758180304.1320689,0.9716796875,-0.03515625,0.263671875,1.46484375,-0.67138671875,-0.06103515625,-6.4324951171875,-74.77294921875,65.203857421875
1758180304.1422637,0.9716796875,-0.03515625,0.263671875,1.46484375,-0.67138671875,-0.06103515625,-6.4215087890625,-74.7784423828125,65.203857421875
1758180304.1521032,0.9697265625,-0.0244140625,0.26123046875,1.15966796875,-0.67138671875,-0.06103515625,-6.4105224609375,-74.783935546875,65.203857421875
1758180304.162509,0.9697265625,-0.0244140625,0.26123046875,1.15966796875,-0.67138671875,-0.06103515625,-6.405029296875,-74.7894287109375,65.203857421875
1758180304.1720665,0.9677734375,-0.0205078125,0.25390625,0.0,-0.67138671875,0.06103515625,-6.405029296875,-74.8004150390625,65.1983642578125
1758180304.18193,0.9677734375,-0.0205078125,0.25390625,0.0,-0.67138671875,0.06103515625,-6.4105224609375,-74.805908203125,65.1983642578125
1758180304.1924298,0.96875,-0.02783203125,0.2587890625,-0.91552734375,-0.79345703125,0.30517578125,-6.427001953125,-74.8114013671875,65.203857421875
1758180304.201972,0.96875,-0.02783203125,0.2587890625,-0.91552734375,-0.79345703125,0.30517578125,-6.448974609375,-74.8223876953125,65.2093505859375
1758180304.2121813,0.96630859375,-0.03857421875,0.26123046875,-0.48828125,-0.8544921875,0.42724609375,-6.470947265625,-74.827880859375,65.2203369140625
1758180304.222587,0.96630859375,-0.03857421875,0.26123046875,-0.48828125,-0.8544921875,0.42724609375,-6.4984130859375,-74.8388671875,65.2313232421875
1758180304.2322161,0.96484375,-0.041015625,0.25439453125,-0.18310546875,-0.79345703125,0.42724609375,-6.5203857421875,-74.8443603515625,65.247802734375
1758180304.24191,0.96484375,-0.041015625,0.25439453125,-0.18310546875,-0.79345703125,0.42724609375,-6.5478515625,-74.849853515625,65.2642822265625
1758180304.252281,0.9677734375,-0.0341796875,0.26220703125,0.1220703125,-0.6103515625,0.3662109375,-6.56982421875,-74.8553466796875,65.2862548828125
1758180304.262424,0.9677734375,-0.0341796875,0.26220703125,0.1220703125,-0.6103515625,0.3662109375,-6.5863037109375,-74.8663330078125,65.302734375
1758180304.2722087,0.96484375,-0.025390625,0.2587890625,-0.06103515625,-0.48828125,0.30517578125,-6.602783203125,-74.8663330078125,65.313720703125
1758180304.2820241,0.96484375,-0.025390625,0.2587890625,-0.06103515625,-0.48828125,0.30517578125,-6.6192626953125,-74.871826171875,65.32470703125
1758180304.2925243,0.96240234375,-0.0244140625,0.25390625,-0.6103515625,-0.3662109375,0.244140625,-6.6412353515625,-74.8773193359375,65.335693359375
1758180304.3019783,0.96240234375,-0.0244140625,0.25390625,-0.6103515625,-0.3662109375,0.244140625,-6.65771484375,-74.8828125,65.335693359375
1758180304.312334,0.9599609375,-0.0302734375,0.25537109375,-1.03759765625,-0.3662109375,0.244140625,-6.6741943359375,-74.8828125,65.3411865234375
1758180304.322644,0.9599609375,-0.0302734375,0.25537109375,-1.03759765625,-0.3662109375,0.244140625,-6.6961669921875,-74.8883056640625,65.3466796875
1758180304.3322406,0.95947265625,-0.0361328125,0.25537109375,-0.91552734375,-0.3662109375,0.30517578125,-6.7181396484375,-74.893798828125,65.3521728515625
1758180304.3422544,0.95947265625,-0.0361328125,0.25537109375,-0.91552734375,-0.3662109375,0.30517578125,-6.7401123046875,-74.893798828125,65.357666015625
1758180304.3523085,0.9580078125,-0.03662109375,0.25537109375,-0.91552734375,-0.244140625,0.3662109375,-6.7620849609375,-74.8992919921875,65.36865234375
1758180304.3624983,0.9580078125,-0.03662109375,0.25537109375,-0.91552734375,-0.244140625,0.3662109375,-6.78955078125,-74.8992919921875,65.379638671875
1758180304.3723114,0.9609375,-0.03369140625,0.2548828125,-0.8544921875,-0.18310546875,0.30517578125,-6.8170166015625,-74.8992919921875,65.390625
1758180304.3820176,0.9609375,-0.03369140625,0.2548828125,-0.8544921875,-0.18310546875,0.30517578125,-6.8389892578125,-74.90478515625,65.401611328125
1758180304.3927193,0.96826171875,-0.037109375,0.26123046875,0.244140625,-0.18310546875,0.30517578125,-6.85546875,-74.90478515625,65.41259765625
1758180304.4020605,0.96826171875,-0.037109375,0.26123046875,0.244140625,-0.18310546875,0.30517578125,-6.866455078125,-74.90478515625,65.423583984375
1758180304.4131262,0.9716796875,-0.03662109375,0.26123046875,0.67138671875,0.0,0.1220703125,-6.8719482421875,-74.90478515625,65.4345703125
1758180304.4226174,0.9716796875,-0.03662109375,0.26123046875,0.67138671875,0.0,0.1220703125,-6.87744140625,-74.90478515625,65.4345703125
1758180304.4323854,0.96630859375,-0.029296875,0.2568359375,0.42724609375,0.18310546875,-0.06103515625,-6.8719482421875,-74.90478515625,65.4345703125
1758180304.4422643,0.96630859375,-0.029296875,0.2568359375,0.42724609375,0.18310546875,-0.06103515625,-6.8719482421875,-74.90478515625,65.4290771484375
1758180304.4524229,0.955078125,-0.0283203125,0.2509765625,0.18310546875,0.0,0.06103515625,-6.866455078125,-74.90478515625,65.4290771484375
1758180304.4625316,0.955078125,-0.0283203125,0.2509765625,0.18310546875,0.0,0.06103515625,-6.8719482421875,-74.90478515625,65.423583984375
1758180304.4724913,0.95556640625,-0.0361328125,0.2490234375,-0.06103515625,-0.3662109375,0.42724609375,-6.8829345703125,-74.90478515625,65.4290771484375
1758180304.4822326,0.95556640625,-0.0361328125,0.2490234375,-0.06103515625,-0.3662109375,0.42724609375,-6.9049072265625,-74.9102783203125,65.445556640625
1758180304.492768,0.9599609375,-0.03955078125,0.25537109375,-0.67138671875,-0.30517578125,0.732421875,-6.932373046875,-74.9102783203125,65.467529296875
1758180304.5022542,0.9599609375,-0.03955078125,0.25537109375,-0.67138671875,-0.30517578125,0.732421875,-6.9708251953125,-74.915771484375,65.4949951171875
1758180304.5127988,0.970703125,-0.03125,0.2607421875,-1.46484375,-0.06103515625,0.732421875,-7.0147705078125,-74.915771484375,65.5224609375
1758180304.5267637,0.970703125,-0.03125,0.2607421875,-1.46484375,-0.06103515625,0.732421875,-7.0587158203125,-74.915771484375,65.5499267578125
1758180304.5339286,0.97216796875,-0.02587890625,0.2626953125,-1.5869140625,0.244140625,0.6103515625,-7.09716796875,-74.915771484375,65.5718994140625
1758180304.5422382,0.97216796875,-0.02587890625,0.2626953125,-1.5869140625,0.244140625,0.6103515625,-7.1356201171875,-74.9102783203125,65.58837890625
1758180304.5544384,0.97021484375,-0.03515625,0.26025390625,-0.79345703125,0.54931640625,0.48828125,-7.1685791015625,-74.9102783203125,65.599365234375
1758180304.5623128,0.97021484375,-0.03515625,0.26025390625,-0.79345703125,0.54931640625,0.48828125,-7.1905517578125,-74.90478515625,65.6103515625
1758180304.5724657,0.96875,-0.0439453125,0.25634765625,-0.30517578125,0.6103515625,0.244140625,-7.20703125,-74.893798828125,65.6103515625
1758180304.582222,0.96875,-0.0439453125,0.25634765625,-0.30517578125,0.6103515625,0.244140625,-7.218017578125,-74.8883056640625,65.6158447265625
1758180304.593763,0.966796875,-0.041015625,0.25439453125,-0.06103515625,0.48828125,0.18310546875,-7.22900390625,-74.8828125,65.621337890625
1758180304.6023161,0.966796875,-0.041015625,0.25439453125,-0.06103515625,0.48828125,0.18310546875,-7.239990234375,-74.8828125,65.6268310546875
1758180304.6125915,0.96533203125,-0.03466796875,0.2578125,0.1220703125,0.3662109375,0.30517578125,-7.2509765625,-74.8773193359375,65.63232421875
1758180304.6227865,0.96533203125,-0.03466796875,0.2578125,0.1220703125,0.3662109375,0.30517578125,-7.261962890625,-74.871826171875,65.643310546875
1758180304.6326368,0.96630859375,-0.0302734375,0.2568359375,-0.3662109375,0.42724609375,0.42724609375,-7.2784423828125,-74.8663330078125,65.654296875
1758180304.6424909,0.96630859375,-0.0302734375,0.2568359375,-0.3662109375,0.42724609375,0.42724609375,-7.3004150390625,-74.8663330078125,65.6707763671875
1758180304.6527243,0.97314453125,-0.02978515625,0.2578125,-1.15966796875,0.54931640625,0.48828125,-7.3223876953125,-74.86083984375,65.6817626953125
1758180304.662603,0.97314453125,-0.02978515625,0.2578125,-1.15966796875,0.54931640625,0.48828125,-7.349853515625,-74.8553466796875,65.6927490234375
1758180304.6726234,0.9794921875,-0.03466796875,0.26513671875,-1.3427734375,0.67138671875,0.48828125,-7.3773193359375,-74.849853515625,65.7037353515625
1758180304.6824262,0.9794921875,-0.03466796875,0.26513671875,-1.3427734375,0.67138671875,0.48828125,-7.40478515625,-74.8443603515625,65.7147216796875
1758180304.6931107,0.9794921875,-0.03466796875,0.26513671875,-0.42724609375,0.79345703125,0.30517578125,-7.4267578125,-74.8333740234375,65.72021484375
1758180304.702462,0.9775390625,-0.04248046875,0.26171875,-0.42724609375,0.79345703125,0.30517578125,-7.4432373046875,-74.827880859375,65.7257080078125
1758180304.7133248,0.97705078125,-0.04296875,0.255859375,0.30517578125,0.67138671875,0.1220703125,-7.44873046875,-74.8223876953125,65.731201171875
1758180304.7228305,0.97705078125,-0.04296875,0.255859375,0.30517578125,0.67138671875,0.1220703125,-7.44873046875,-74.8114013671875,65.731201171875
1758180304.732553,0.97802734375,-0.037109375,0.2626953125,0.48828125,0.42724609375,0.06103515625,-7.44873046875,-74.8114013671875,65.731201171875
1758180304.742486,0.97802734375,-0.037109375,0.2626953125,0.48828125,0.42724609375,0.06103515625,-7.44873046875,-74.805908203125,65.7366943359375
1758180304.752556,0.9716796875,-0.0322265625,0.259765625,0.3662109375,0.244140625,0.244140625,-7.4542236328125,-74.8004150390625,65.7421875
1758180304.7627516,0.9716796875,-0.0322265625,0.259765625,0.3662109375,0.244140625,0.244140625,-7.459716796875,-74.8004150390625,65.7476806640625
1758180304.7724981,0.96826171875,-0.03466796875,0.255859375,0.0,0.244140625,0.42724609375,-7.470703125,-74.8004150390625,65.7586669921875
1758180304.7824953,0.96826171875,-0.03466796875,0.255859375,0.0,0.244140625,0.42724609375,-7.4871826171875,-74.794921875,65.7696533203125
1758180304.793123,0.97265625,-0.0400390625,0.25927734375,-0.1220703125,0.244140625,0.48828125,-7.5091552734375,-74.794921875,65.7861328125
1758180304.8024614,0.97265625,-0.0400390625,0.25927734375,-0.1220703125,0.244140625,0.48828125,-7.525634765625,-74.794921875,65.797119140625
1758180304.812715,0.97705078125,-0.0361328125,0.26416015625,-0.6103515625,0.30517578125,0.42724609375,-7.547607421875,-74.7894287109375,65.80810546875
1758180304.823024,0.97705078125,-0.0361328125,0.26416015625,-0.6103515625,0.30517578125,0.42724609375,-7.5750732421875,-74.7894287109375,65.819091796875
1758180304.8326638,0.9697265625,-0.03173828125,0.26123046875,-0.8544921875,0.30517578125,0.42724609375,-7.5970458984375,-74.783935546875,65.830078125
1758180304.8429127,0.9697265625,-0.03173828125,0.26123046875,-0.8544921875,0.30517578125,0.42724609375,-7.6190185546875,-74.783935546875,65.8355712890625
1758180304.8527846,0.96240234375,-0.037109375,0.255859375,-0.244140625,0.18310546875,0.3662109375,-7.6409912109375,-74.7784423828125,65.8465576171875
1758180304.8628447,0.96240234375,-0.037109375,0.255859375,-0.244140625,0.18310546875,0.3662109375,-7.657470703125,-74.7784423828125,65.85205078125
1758180304.8726006,0.9619140625,-0.0458984375,0.255859375,0.0,0.06103515625,0.42724609375,-7.6739501953125,-74.7784423828125,65.863037109375
1758180304.8826432,0.9619140625,-0.0458984375,0.255859375,0.0,0.06103515625,0.42724609375,-7.6904296875,-74.7784423828125,65.8795166015625
1758180304.893254,0.9599609375,-0.04150390625,0.25732421875,-0.42724609375,-0.06103515625,0.48828125,-7.71240234375,-74.7784423828125,65.89599609375
1758180304.902651,0.9599609375,-0.04150390625,0.25732421875,-0.42724609375,-0.06103515625,0.48828125,-7.7398681640625,-74.7784423828125,65.91796875
1758180304.9129217,0.96337890625,-0.03515625,0.25927734375,-0.48828125,-0.1220703125,0.67138671875,-7.7728271484375,-74.7784423828125,65.93994140625
1758180304.9229355,0.96337890625,-0.03515625,0.25927734375,-0.48828125,-0.1220703125,0.67138671875,-7.8057861328125,-74.7784423828125,65.9674072265625
1758180304.9327667,0.96044921875,-0.033203125,0.25830078125,-0.79345703125,-0.1220703125,0.79345703125,-7.8387451171875,-74.7784423828125,65.994873046875
1758180304.942699,0.96044921875,-0.033203125,0.25830078125,-0.79345703125,-0.1220703125,0.79345703125,-7.8826904296875,-74.7784423828125,66.0223388671875
1758180304.9538949,0.96044921875,-0.033203125,0.25830078125,-0.42724609375,-0.1220703125,0.79345703125,-7.9156494140625,-74.7784423828125,66.0498046875
1758180304.9630108,0.95703125,-0.0390625,0.2568359375,-0.42724609375,-0.1220703125,0.79345703125,-7.9541015625,-74.783935546875,66.0772705078125
1758180304.9727147,0.9580078125,-0.04541015625,0.25634765625,-0.244140625,-0.1220703125,0.79345703125,-7.987060546875,-74.783935546875,66.104736328125
1758180304.982806,0.9580078125,-0.04541015625,0.25634765625,-0.244140625,-0.1220703125,0.79345703125,-8.02001953125,-74.783935546875,66.1322021484375
1758180304.993429,0.9580078125,-0.03955078125,0.25634765625,-0.54931640625,-0.18310546875,0.8544921875,-8.0584716796875,-74.783935546875,66.1651611328125
1758180305.0028715,0.9580078125,-0.03955078125,0.25634765625,-0.54931640625,-0.18310546875,0.8544921875,-8.1024169921875,-74.783935546875,66.1981201171875
1758180305.012859,0.9609375,-0.03662109375,0.255859375,-0.30517578125,-0.30517578125,0.91552734375,-8.140869140625,-74.783935546875,66.2310791015625
1758180305.023276,0.9609375,-0.03662109375,0.255859375,-0.30517578125,-0.30517578125,0.91552734375,-8.1793212890625,-74.7894287109375,66.2640380859375
1758180305.0329266,0.96240234375,-0.0380859375,0.25732421875,-0.54931640625,-0.30517578125,0.9765625,-8.2232666015625,-74.7894287109375,66.2969970703125
1758180305.0429385,0.96240234375,-0.0380859375,0.25732421875,-0.54931640625,-0.30517578125,0.9765625,-8.2672119140625,-74.7894287109375,66.3299560546875
1758180305.0531907,0.962890625,-0.04248046875,0.2587890625,-0.54931640625,-0.3662109375,0.9765625,-8.3111572265625,-74.794921875,66.3629150390625
1758180305.0636404,0.962890625,-0.04248046875,0.2587890625,-0.54931640625,-0.3662109375,0.9765625,-8.3551025390625,-74.794921875,66.3958740234375
1758180305.0728188,0.9677734375,-0.04345703125,0.2568359375,-0.244140625,-0.3662109375,0.91552734375,-8.3990478515625,-74.8004150390625,66.4288330078125
1758180305.0829694,0.9677734375,-0.04345703125,0.2568359375,-0.244140625,-0.3662109375,0.91552734375,-8.4375,-74.8004150390625,66.4617919921875
1758180305.09347,0.96826171875,-0.04248046875,0.26025390625,-0.18310546875,-0.42724609375,0.8544921875,-8.4759521484375,-74.805908203125,66.4947509765625
1758180305.1029532,0.96826171875,-0.04248046875,0.26025390625,-0.18310546875,-0.42724609375,0.8544921875,-8.514404296875,-74.805908203125,66.522216796875
1758180305.1131735,0.97119140625,-0.0419921875,0.2607421875,0.30517578125,-0.3662109375,0.8544921875,-8.54736328125,-74.8114013671875,66.55517578125
1758180305.1236951,0.97119140625,-0.0419921875,0.2607421875,0.30517578125,-0.3662109375,0.8544921875,-8.580322265625,-74.8114013671875,66.5826416015625
1758180305.1330767,0.970703125,-0.0419921875,0.26025390625,0.18310546875,-0.1220703125,0.8544921875,-8.61328125,-74.8114013671875,66.6156005859375
1758180305.1432073,0.970703125,-0.0419921875,0.26025390625,0.18310546875,-0.1220703125,0.8544921875,-8.646240234375,-74.8114013671875,66.64306640625
1758180305.153926,0.97216796875,-0.0400390625,0.259765625,0.0,0.0,0.8544921875,-8.67919921875,-74.8114013671875,66.6705322265625
1758180305.16373,0.97216796875,-0.0400390625,0.259765625,0.0,0.0,0.8544921875,-8.712158203125,-74.8114013671875,66.697998046875
1758180305.1729047,0.97021484375,-0.0419921875,0.25927734375,0.3662109375,-0.06103515625,0.79345703125,-8.7396240234375,-74.8114013671875,66.719970703125
1758180305.182951,0.97021484375,-0.0419921875,0.25927734375,0.3662109375,-0.06103515625,0.79345703125,-8.76708984375,-74.8114013671875,66.741943359375
1758180305.1947436,0.96630859375,-0.04541015625,0.25732421875,0.54931640625,-0.244140625,0.67138671875,-8.7890625,-74.8114013671875,66.763916015625
1758180305.2029843,0.96630859375,-0.04541015625,0.25732421875,0.54931640625,-0.244140625,0.67138671875,-8.81103515625,-74.8114013671875,66.785888671875
1758180305.2131386,0.96337890625,-0.04345703125,0.25537109375,0.42724609375,-0.244140625,0.6103515625,-8.8330078125,-74.81689453125,66.807861328125
1758180305.2271156,0.96337890625,-0.04345703125,0.25537109375,0.42724609375,-0.244140625,0.6103515625,-8.85498046875,-74.81689453125,66.829833984375
1758180305.2344487,0.96728515625,-0.0439453125,0.2568359375,0.3662109375,-0.244140625,0.732421875,-8.8824462890625,-74.81689453125,66.851806640625
1758180305.2431452,0.96728515625,-0.0439453125,0.2568359375,0.3662109375,-0.244140625,0.732421875,-8.9044189453125,-74.8223876953125,66.8792724609375
