timestamp,acc_x,acc_y,acc_z,gyro_x,gyro_y,gyro_z,angle_x,angle_y,angle_z
1758873644.2085137,-0.7880859375,0.01025390625,0.6240234375,-0.42724609375,-0.244140625,-0.06103515625,-0.087890625,51.624755859375,-93.394775390625
1758873644.2171066,-0.7880859375,0.01025390625,0.6240234375,-0.42724609375,-0.244140625,-0.06103515625,-0.0933837890625,51.6192626953125,-93.394775390625
1758873644.2289526,-0.7861328125,0.00048828125,0.61376953125,-0.79345703125,-0.244140625,-0.18310546875,-0.098876953125,51.6192626953125,-93.4002685546875
1758873644.238826,-0.7861328125,0.00048828125,0.61376953125,-0.79345703125,-0.244140625,-0.18310546875,-0.1043701171875,51.61376953125,-93.4002685546875
1758873644.2493446,-0.7841796875,-0.0087890625,0.61767578125,-0.54931640625,-0.06103515625,-0.18310546875,-0.1153564453125,51.61376953125,-93.40576171875
1758873644.2580335,-0.7841796875,-0.0087890625,0.61767578125,-0.54931640625,-0.06103515625,-0.18310546875,-0.120849609375,51.61376953125,-93.4112548828125
1758873644.2662208,-0.7802734375,-0.0048828125,0.6298828125,0.0,0.06103515625,-0.1220703125,-0.1263427734375,51.61376953125,-93.4112548828125
1758873644.2758377,-0.7802734375,-0.0048828125,0.6298828125,0.0,0.06103515625,-0.1220703125,-0.1263427734375,51.61376953125,-93.416748046875
1758873644.2858415,-0.7802734375,-0.0048828125,0.6298828125,0.1220703125,0.0,-0.06103515625,-0.1263427734375,51.61376953125,-93.4222412109375
1758873644.2958608,-0.77490234375,0.00048828125,0.63525390625,0.1220703125,0.0,-0.06103515625,-0.1263427734375,51.61376953125,-93.4222412109375
1758873644.3059306,-0.77685546875,-0.001953125,0.623046875,-0.48828125,-0.30517578125,0.06103515625,-0.1263427734375,51.6082763671875,-93.427734375
1758873644.3159354,-0.77685546875,-0.001953125,0.623046875,-0.48828125,-0.30517578125,0.06103515625,-0.1318359375,51.602783203125,-93.427734375
1758873644.3261788,-0.77978515625,-0.00341796875,0.62841796875,-0.18310546875,-0.18310546875,0.06103515625,-0.1373291015625,51.602783203125,-93.427734375
1758873644.335912,-0.77978515625,-0.00341796875,0.62841796875,-0.18310546875,-0.18310546875,0.06103515625,-0.1373291015625,51.5972900390625,-93.427734375
1758873644.3459568,-0.77783203125,-0.00146484375,0.63232421875,0.48828125,0.0,0.0,-0.1373291015625,51.591796875,-93.427734375
1758873644.3574247,-0.77783203125,-0.00146484375,0.63232421875,0.48828125,0.0,0.0,-0.1318359375,51.591796875,-93.4332275390625
1758873644.366198,-0.77197265625,0.0009765625,0.63134765625,0.18310546875,-0.06103515625,-0.06103515625,-0.1263427734375,51.591796875,-93.4332275390625
1758873644.376361,-0.77197265625,0.0009765625,0.63134765625,0.18310546875,-0.06103515625,-0.06103515625,-0.1263427734375,51.5863037109375,-93.4332275390625
1758873644.38607,-0.7705078125,0.0029296875,0.64013671875,-0.48828125,-0.244140625,-0.06103515625,-0.1263427734375,51.580810546875,-93.438720703125
1758873644.3960848,-0.7705078125,0.0029296875,0.64013671875,-0.48828125,-0.244140625,-0.06103515625,-0.1318359375,51.5753173828125,-93.438720703125
1758873644.4060068,-0.77490234375,-0.0048828125,0.63330078125,-0.79345703125,-0.42724609375,0.0,-0.1373291015625,51.56982421875,-93.438720703125
1758873644.4160218,-0.77490234375,-0.0048828125,0.63330078125,-0.79345703125,-0.42724609375,0.0,-0.1483154296875,51.558837890625,-93.438720703125
1758873644.426017,-0.77880859375,-0.00830078125,0.6318359375,0.0,-0.30517578125,0.0,-0.1483154296875,51.5533447265625,-93.438720703125
1758873644.4360294,-0.77880859375,-0.00830078125,0.6318359375,0.0,-0.30517578125,0.0,-0.15380859375,51.5478515625,-93.4442138671875
1758873644.446092,-0.77734375,0.00244140625,0.625,0.9765625,-0.30517578125,-0.3662109375,-0.1483154296875,51.5423583984375,-93.4442138671875
1758873644.4561028,-0.77734375,0.00244140625,0.625,0.9765625,-0.30517578125,-0.3662109375,-0.142822265625,51.5313720703125,-93.4552001953125
1758873644.4660976,-0.7763671875,0.0107421875,0.62939453125,0.6103515625,-0.48828125,-0.48828125,-0.142822265625,51.52587890625,-93.460693359375
1758873644.476106,-0.7763671875,0.0107421875,0.62939453125,0.6103515625,-0.48828125,-0.48828125,-0.142822265625,51.5203857421875,-93.4716796875
1758873644.4860892,-0.78369140625,-0.0009765625,0.62744140625,-0.8544921875,-0.48828125,0.0,-0.142822265625,51.5093994140625,-93.4716796875
1758873644.4961042,-0.78369140625,-0.0009765625,0.62744140625,-0.8544921875,-0.48828125,0.0,-0.1483154296875,51.50390625,-93.4716796875
1758873644.5061526,-0.78076171875,-0.02001953125,0.623046875,-2.01416015625,-0.6103515625,0.79345703125,-0.1593017578125,51.492919921875,-93.460693359375
1758873644.51617,-0.78076171875,-0.02001953125,0.623046875,-2.01416015625,-0.6103515625,0.79345703125,-0.1702880859375,51.4874267578125,-93.44970703125
1758873644.5262132,-0.78466796875,-0.02197265625,0.61865234375,-1.77001953125,-0.67138671875,1.46484375,-0.1702880859375,51.4764404296875,-93.427734375
1758873644.5362039,-0.78466796875,-0.02197265625,0.61865234375,-1.77001953125,-0.67138671875,1.46484375,-0.17578125,51.470947265625,-93.4112548828125
1758873644.546211,-0.78271484375,-0.00390625,0.61865234375,0.3662109375,-0.6103515625,1.5869140625,-0.15380859375,51.4599609375,-93.3892822265625
1758873644.5562336,-0.78271484375,-0.00390625,0.61865234375,0.3662109375,-0.6103515625,1.5869140625,-0.1318359375,51.4544677734375,-93.3673095703125
1758873644.5662217,-0.78564453125,0.0078125,0.62646484375,0.8544921875,-0.48828125,1.46484375,-0.10986328125,51.448974609375,-93.3453369140625
1758873644.5762696,-0.78564453125,0.0078125,0.62646484375,0.8544921875,-0.48828125,1.46484375,-0.0823974609375,51.4434814453125,-93.3233642578125
1758873644.5862603,-0.77734375,0.0078125,0.62646484375,-0.30517578125,-0.3662109375,1.40380859375,-0.06591796875,51.43798828125,-93.306884765625
1758873644.596288,-0.77734375,0.0078125,0.62646484375,-0.30517578125,-0.3662109375,1.40380859375,-0.054931640625,51.4324951171875,-93.284912109375
1758873644.6063004,-0.775390625,-0.0009765625,0.634765625,-1.220703125,-0.3662109375,1.5869140625,-0.0494384765625,51.427001953125,-93.262939453125
1758873644.6163156,-0.775390625,-0.0009765625,0.634765625,-1.220703125,-0.3662109375,1.5869140625,-0.0384521484375,51.4215087890625,-93.2354736328125
1758873644.6263502,-0.7724609375,-0.00634765625,0.63623046875,-2.13623046875,-0.54931640625,1.8310546875,-0.0384521484375,51.416015625,-93.2135009765625
1758873644.6363444,-0.7724609375,-0.00634765625,0.63623046875,-2.13623046875,-0.54931640625,1.8310546875,-0.0384521484375,51.4105224609375,-93.18603515625
1758873644.6463587,-0.7685546875,-0.001953125,0.63232421875,-2.44140625,-0.91552734375,1.8310546875,-0.0439453125,51.3995361328125,-93.1585693359375
1758873644.6573043,-0.7685546875,-0.001953125,0.63232421875,-2.44140625,-0.91552734375,1.8310546875,-0.0439453125,51.3885498046875,-93.131103515625
1758873644.6669629,-0.765625,0.00048828125,0.64306640625,-0.54931640625,-0.9765625,1.5869140625,-0.032958984375,51.3720703125,-93.109130859375
1758873644.6764197,-0.765625,0.00048828125,0.64306640625,-0.54931640625,-0.9765625,1.5869140625,-0.0164794921875,51.361083984375,-93.087158203125
1758873644.6864126,-0.767578125,0.0048828125,0.65673828125,0.54931640625,-1.03759765625,1.03759765625,0.0,51.3446044921875,-93.076171875
1758873644.6964674,-0.767578125,0.0048828125,0.65673828125,0.54931640625,-1.03759765625,1.03759765625,0.010986328125,51.3336181640625,-93.0596923828125
1758873644.706434,-0.765625,0.00830078125,0.63916015625,0.1220703125,-1.28173828125,0.732421875,0.02197265625,51.3116455078125,-93.05419921875
1758873644.7164688,-0.765625,0.00830078125,0.63916015625,0.1220703125,-1.28173828125,0.732421875,0.032958984375,51.295166015625,-93.043212890625
1758873644.7264884,-0.765625,0.0009765625,0.6376953125,0.0,-1.5869140625,0.48828125,0.0384521484375,51.273193359375,-93.0377197265625
1758873644.736491,-0.765625,0.0009765625,0.6376953125,0.0,-1.5869140625,0.48828125,0.0494384765625,51.251220703125,-93.0267333984375
1758873644.746578,-0.763671875,-0.00634765625,0.642578125,0.42724609375,-1.77001953125,0.3662109375,0.054931640625,51.229248046875,-93.0267333984375
1758873644.7565806,-0.763671875,-0.00634765625,0.642578125,0.42724609375,-1.77001953125,0.3662109375,0.06591796875,51.207275390625,-93.021240234375
1758873644.766568,-0.75830078125,-0.0029296875,0.65283203125,0.67138671875,-2.01416015625,0.18310546875,0.0714111328125,51.1798095703125,-93.021240234375
1758873644.7766263,-0.75830078125,-0.0029296875,0.65283203125,0.67138671875,-2.01416015625,0.18310546875,0.0823974609375,51.1578369140625,-93.021240234375
1758873644.786565,-0.75537109375,0.009765625,0.66064453125,1.15966796875,-2.50244140625,0.0,0.0933837890625,51.1248779296875,-93.021240234375
1758873644.7965846,-0.75537109375,0.009765625,0.66064453125,1.15966796875,-2.50244140625,0.0,0.1043701171875,51.0919189453125,-93.021240234375
1758873644.8066177,-0.75537109375,0.009765625,0.66064453125,1.03759765625,-2.99072265625,-0.06103515625,0.10986328125,51.053466796875,-93.0267333984375
1758873644.816654,-0.76611328125,0.0029296875,0.6416015625,1.03759765625,-2.99072265625,-0.06103515625,0.120849609375,51.0205078125,-93.0267333984375
1758873644.826716,-0.76513671875,0.0,0.63671875,1.5869140625,-3.0517578125,-0.244140625,0.1373291015625,50.9820556640625,-93.0322265625
1758873644.836714,-0.76513671875,0.0,0.63671875,1.5869140625,-3.0517578125,-0.244140625,0.1483154296875,50.943603515625,-93.0377197265625
1758873644.8466663,-0.75830078125,-0.001953125,0.6455078125,2.86865234375,-2.99072265625,-0.54931640625,0.1702880859375,50.91064453125,-93.0487060546875
1758873644.8569927,-0.75830078125,-0.001953125,0.6455078125,2.86865234375,-2.99072265625,-0.54931640625,0.186767578125,50.8721923828125,-93.0596923828125
1758873644.8667302,-0.75732421875,0.0029296875,0.65283203125,2.5634765625,-3.173828125,-0.54931640625,0.208740234375,50.833740234375,-93.0706787109375
1758873644.8767128,-0.75732421875,0.0029296875,0.65283203125,2.5634765625,-3.173828125,-0.54931640625,0.2252197265625,50.7952880859375,-93.0816650390625
1758873644.8868294,-0.7568359375,0.00390625,0.64208984375,2.44140625,-3.41796875,-0.48828125,0.24169921875,50.7568359375,-93.0926513671875
1758873644.897057,-0.7568359375,0.00390625,0.64208984375,2.44140625,-3.41796875,-0.48828125,0.2581787109375,50.7183837890625,-93.1036376953125
1758873644.906805,-0.76611328125,0.00439453125,0.6455078125,2.3193359375,-3.662109375,-0.6103515625,0.274658203125,50.6744384765625,-93.1146240234375
1758873644.9167645,-0.76611328125,0.00439453125,0.6455078125,2.3193359375,-3.662109375,-0.6103515625,0.2911376953125,50.635986328125,-93.1256103515625
1758873644.926906,-0.76171875,0.0,0.65283203125,2.99072265625,-3.662109375,-0.732421875,0.3076171875,50.592041015625,-93.14208984375
1758873644.9367664,-0.76171875,0.0,0.65283203125,2.99072265625,-3.662109375,-0.732421875,0.32958984375,50.548095703125,-93.153076171875
1758873644.94679,-0.76171875,-0.00390625,0.6435546875,3.47900390625,-4.08935546875,-0.732421875,0.3515625,50.504150390625,-93.1695556640625
1758873644.957133,-0.76171875,-0.00390625,0.6435546875,3.47900390625,-4.08935546875,-0.732421875,0.3790283203125,50.460205078125,-93.18603515625
1758873644.9674397,-0.7607421875,0.00146484375,0.6416015625,3.173828125,-4.2724609375,-0.6103515625,0.4010009765625,50.4107666015625,-93.197021484375
1758873644.9770596,-0.7607421875,0.00146484375,0.6416015625,3.173828125,-4.2724609375,-0.6103515625,0.4229736328125,50.3668212890625,-93.2135009765625
1758873644.9872382,-0.76123046875,0.00537109375,0.64990234375,3.60107421875,-4.45556640625,-0.6103515625,0.4449462890625,50.3173828125,-93.2244873046875
1758873644.9975898,-0.76123046875,0.00537109375,0.64990234375,3.60107421875,-4.45556640625,-0.6103515625,0.472412109375,50.2679443359375,-93.240966796875
1758873645.007442,-0.7607421875,0.009765625,0.65478515625,3.96728515625,-4.45556640625,-0.79345703125,0.4998779296875,50.2239990234375,-93.2574462890625
1758873645.0170548,-0.7607421875,0.009765625,0.65478515625,3.96728515625,-4.45556640625,-0.79345703125,0.52734375,50.174560546875,-93.27392578125
1758873645.0272775,-0.77001953125,0.0068359375,0.63232421875,5.4931640625,-4.39453125,-0.8544921875,0.5712890625,50.130615234375,-93.2904052734375
1758873645.0377848,-0.77001953125,0.0068359375,0.63232421875,5.4931640625,-4.39453125,-0.8544921875,0.615234375,50.0811767578125,-93.306884765625
1758873645.0473118,-0.76171875,-0.0048828125,0.6357421875,6.2255859375,-4.33349609375,-0.79345703125,0.6646728515625,50.0372314453125,-93.3233642578125
1758873645.0571444,-0.76171875,-0.0048828125,0.6357421875,6.2255859375,-4.33349609375,-0.79345703125,0.714111328125,49.9932861328125,-93.33984375
1758873645.0671039,-0.76220703125,-0.00244140625,0.65576171875,7.568359375,-4.39453125,-0.67138671875,0.7745361328125,49.9493408203125,-93.3563232421875
1758873645.077131,-0.76220703125,-0.00244140625,0.65576171875,7.568359375,-4.39453125,-0.67138671875,0.8404541015625,49.9053955078125,-93.372802734375
1758873645.0870738,-0.76708984375,0.005859375,0.65283203125,6.65283203125,-4.45556640625,-0.3662109375,0.8953857421875,49.8614501953125,-93.3837890625
1758873645.0970123,-0.76708984375,0.005859375,0.65283203125,6.65283203125,-4.45556640625,-0.3662109375,0.955810546875,49.81201171875,-93.4002685546875
1758873645.1072953,-0.76611328125,0.01611328125,0.63623046875,6.28662109375,-4.39453125,0.0,1.0107421875,49.76806640625,-93.40576171875
1758873645.1170092,-0.76611328125,0.01611328125,0.63623046875,6.28662109375,-4.39453125,0.0,1.0711669921875,49.7296142578125,-93.4112548828125
1758873645.1272228,-0.77001953125,0.0126953125,0.640625,6.77490234375,-4.2724609375,0.18310546875,1.131591796875,49.6856689453125,-93.416748046875
1758873645.137302,-0.77001953125,0.0126953125,0.640625,6.77490234375,-4.2724609375,0.18310546875,1.197509765625,49.6417236328125,-93.416748046875
1758873645.1471748,-0.771484375,0.0126953125,0.64990234375,6.28662109375,-4.08935546875,0.30517578125,1.263427734375,49.603271484375,-93.4222412109375
1758873645.157116,-0.771484375,0.0126953125,0.64990234375,6.28662109375,-4.08935546875,0.30517578125,1.3238525390625,49.5648193359375,-93.4222412109375
1758873645.1672132,-0.7685546875,0.02392578125,0.63818359375,4.5166015625,-3.84521484375,0.30517578125,1.3677978515625,49.5318603515625,-93.4222412109375
1758873645.177554,-0.7685546875,0.02392578125,0.63818359375,4.5166015625,-3.84521484375,0.30517578125,1.4117431640625,49.493408203125,-93.427734375
1758873645.1871998,-0.763671875,0.01904296875,0.646484375,4.5166015625,-3.662109375,0.42724609375,1.4556884765625,49.46044921875,-93.4222412109375
1758873645.1971276,-0.763671875,0.01904296875,0.646484375,4.5166015625,-3.662109375,0.42724609375,1.505126953125,49.427490234375,-93.4222412109375
1758873645.2074375,-0.75830078125,0.0166015625,0.650390625,1.953125,-3.5400390625,0.67138671875,1.527099609375,49.39453125,-93.416748046875
1758873645.2171478,-0.75830078125,0.0166015625,0.650390625,1.953125,-3.5400390625,0.67138671875,1.549072265625,49.361572265625,-93.4112548828125
1758873645.2271879,-0.75244140625,0.025390625,0.65869140625,0.732421875,-3.5400390625,0.9765625,1.5655517578125,49.32861328125,-93.4002685546875
1758873645.2371707,-0.75244140625,0.025390625,0.65869140625,0.732421875,-3.5400390625,0.9765625,1.58203125,49.295654296875,-93.394775390625
1758873645.2475271,-0.75634765625,0.02099609375,0.66015625,-1.40380859375,-3.60107421875,1.15966796875,1.58203125,49.2626953125,-93.3782958984375
1758873645.2575002,-0.75634765625,0.02099609375,0.66015625,-1.40380859375,-3.60107421875,1.15966796875,1.5765380859375,49.2242431640625,-93.3673095703125
1758873645.268582,-0.7626953125,0.0205078125,0.65234375,-2.197265625,-3.7841796875,0.9765625,1.5655517578125,49.1912841796875,-93.3563232421875
1758873645.277334,-0.7626953125,0.0205078125,0.65234375,-2.197265625,-3.7841796875,0.9765625,1.5545654296875,49.15283203125,-93.3453369140625
1758873645.287278,-0.7626953125,0.0205078125,0.65234375,1.0986328125,-3.0517578125,1.03759765625,1.5765380859375,49.1253662109375,-93.328857421875
1758873645.2973192,-0.767578125,0.025390625,0.625,1.0986328125,-3.0517578125,1.03759765625,1.5985107421875,49.097900390625,-93.31787109375
1758873645.307456,-0.7529296875,0.01611328125,0.64697265625,2.0751953125,-3.0517578125,0.48828125,1.6204833984375,49.0704345703125,-93.3123779296875
1758873645.317327,-0.7529296875,0.01611328125,0.64697265625,2.0751953125,-3.0517578125,0.48828125,1.64794921875,49.04296875,-93.306884765625
1758873645.3273523,-0.75146484375,0.02392578125,0.67529296875,-1.5869140625,-2.9296875,0.67138671875,1.636962890625,49.0155029296875,-93.3013916015625
1758873645.3375478,-0.75146484375,0.02392578125,0.67529296875,-1.5869140625,-2.9296875,0.67138671875,1.6314697265625,48.988037109375,-93.2958984375
1758873645.3474245,-0.73388671875,0.02783203125,0.65771484375,-5.2490234375,-3.11279296875,1.220703125,1.593017578125,48.9605712890625,-93.2794189453125
1758873645.3574214,-0.73388671875,0.02783203125,0.65771484375,-5.2490234375,-3.11279296875,1.220703125,1.5545654296875,48.9276123046875,-93.262939453125
1758873645.3674543,-0.73291015625,0.02001953125,0.6728515625,-6.77490234375,-3.2958984375,1.40380859375,1.505126953125,48.900146484375,-93.240966796875
1758873645.3776615,-0.73291015625,0.02001953125,0.6728515625,-6.77490234375,-3.2958984375,1.40380859375,1.4501953125,48.8616943359375,-93.218994140625
1758873645.3874671,-0.7421875,0.00634765625,0.69091796875,-4.8828125,-3.23486328125,1.3427734375,1.417236328125,48.8287353515625,-93.2025146484375
1758873645.3974516,-0.7421875,0.00634765625,0.69091796875,-4.8828125,-3.23486328125,1.3427734375,1.38427734375,48.7957763671875,-93.18603515625
1758873645.4077306,-0.740234375,0.00830078125,0.671875,-2.50244140625,-3.41796875,1.0986328125,1.373291015625,48.75732421875,-93.1695556640625
1758873645.4174614,-0.740234375,0.00830078125,0.671875,-2.50244140625,-3.41796875,1.0986328125,1.3623046875,48.724365234375,-93.1585693359375
1758873645.4275026,-0.734375,0.02099609375,0.6552734375,0.0,-3.72314453125,0.67138671875,1.3677978515625,48.6859130859375,-93.1475830078125
1758873645.4377308,-0.734375,0.02099609375,0.6552734375,0.0,-3.72314453125,0.67138671875,1.373291015625,48.6419677734375,-93.14208984375
1758873645.44751,-0.7412109375,0.01708984375,0.6904296875,0.91552734375,-3.662109375,0.3662109375,1.3897705078125,48.603515625,-93.14208984375
1758873645.4574902,-0.7412109375,0.01708984375,0.6904296875,0.91552734375,-3.662109375,0.3662109375,1.4007568359375,48.5650634765625,-93.1365966796875
1758873645.4675624,-0.73974609375,0.01513671875,0.6708984375,-0.732421875,-3.5400390625,0.30517578125,1.395263671875,48.526611328125,-93.1365966796875
1758873645.4775872,-0.73974609375,0.01513671875,0.6708984375,-0.732421875,-3.5400390625,0.30517578125,1.3897705078125,48.4881591796875,-93.1365966796875
1758873645.4875376,-0.7353515625,0.01318359375,0.67333984375,0.0,-3.90625,0.18310546875,1.3897705078125,48.4442138671875,-93.1365966796875
1758873645.497617,-0.7744140625,0.01025390625,0.6533203125,3.173828125,-3.60107421875,0.06103515625,1.40625,48.40576171875,-93.1365966796875
1758873645.5076907,-0.7744140625,0.01025390625,0.6533203125,3.173828125,-3.60107421875,0.06103515625,1.439208984375,48.3673095703125,-93.14208984375
1758873645.5175893,-0.76806640625,0.02294921875,0.638671875,2.62451171875,-3.47900390625,0.0,1.4666748046875,48.3343505859375,-93.14208984375
1758873645.5276291,-0.76806640625,0.02294921875,0.638671875,2.62451171875,-3.47900390625,0.0,1.4886474609375,48.3013916015625,-93.1475830078125
1758873645.537856,-0.767578125,0.037109375,0.64794921875,-1.40380859375,-3.47900390625,0.1220703125,1.494140625,48.2684326171875,-93.153076171875
1758873645.5476153,-0.767578125,0.037109375,0.64794921875,-1.40380859375,-3.47900390625,0.1220703125,1.483154296875,48.2354736328125,-93.153076171875
1758873645.557908,-0.765625,0.025390625,0.640625,-1.89208984375,-3.35693359375,0.18310546875,1.47216796875,48.2080078125,-93.1475830078125
1758873645.5684164,-0.765625,0.025390625,0.640625,-1.89208984375,-3.35693359375,0.18310546875,1.4556884765625,48.1805419921875,-93.1475830078125
1758873645.5780485,-0.7646484375,0.00732421875,0.6484375,-1.40380859375,-3.11279296875,0.06103515625,1.439208984375,48.153076171875,-93.1475830078125
1758873645.5877426,-0.7646484375,0.00732421875,0.6484375,-1.40380859375,-3.11279296875,0.06103515625,1.42822265625,48.1256103515625,-93.1475830078125
1758873645.597687,-0.76416015625,0.01171875,0.658203125,-0.732421875,-2.74658203125,0.0,1.417236328125,48.1036376953125,-93.1475830078125
1758873645.6080632,-0.76416015625,0.01171875,0.658203125,-0.732421875,-2.74658203125,0.0,1.4117431640625,48.0816650390625,-93.1475830078125
1758873645.6177363,-0.75341796875,0.01708984375,0.6484375,0.244140625,-2.685546875,0.0,1.40625,48.065185546875,-93.153076171875
1758873645.627724,-0.75341796875,0.01708984375,0.6484375,0.244140625,-2.685546875,0.0,1.4117431640625,48.043212890625,-93.153076171875
1758873645.637713,-0.75537109375,0.021484375,0.6552734375,-1.220703125,-2.62451171875,0.0,1.40625,48.0267333984375,-93.1585693359375
1758873645.6481087,-0.75537109375,0.021484375,0.6552734375,-1.220703125,-2.62451171875,0.0,1.395263671875,48.0047607421875,-93.1585693359375
1758873645.6578414,-0.7509765625,0.02490234375,0.66015625,-1.64794921875,-2.5634765625,0.06103515625,1.3787841796875,47.98828125,-93.1585693359375
1758873645.6679728,-0.7509765625,0.02490234375,0.66015625,-1.64794921875,-2.5634765625,0.06103515625,1.3677978515625,47.96630859375,-93.1585693359375
1758873645.6778455,-0.76953125,0.01318359375,0.64453125,-1.220703125,-2.01416015625,0.1220703125,1.351318359375,47.9498291015625,-93.1585693359375
1758873645.687861,-0.76953125,0.01318359375,0.64453125,-1.220703125,-2.01416015625,0.1220703125,1.3458251953125,47.9388427734375,-93.1585693359375
1758873645.6981254,-0.7529296875,0.005859375,0.65478515625,-0.67138671875,-2.01416015625,0.0,1.3348388671875,47.9278564453125,-93.1585693359375
1758873645.708062,-0.7529296875,0.005859375,0.65478515625,-0.67138671875,-2.01416015625,0.0,1.329345703125,47.9168701171875,-93.1585693359375
1758873645.7178683,-0.75732421875,0.013671875,0.66552734375,-1.0986328125,-1.89208984375,0.06103515625,1.318359375,47.900390625,-93.1585693359375
1758873645.7279167,-0.75732421875,0.013671875,0.66552734375,-1.0986328125,-1.89208984375,0.06103515625,1.3128662109375,47.889404296875,-93.1585693359375
1758873645.7382708,-0.7490234375,0.0224609375,0.6591796875,-1.28173828125,-1.708984375,0.06103515625,1.3018798828125,47.87841796875,-93.1640625
1758873645.747889,-0.7490234375,0.0224609375,0.6591796875,-1.28173828125,-1.708984375,0.06103515625,1.285400390625,47.8729248046875,-93.1640625
1758873645.757985,-0.73583984375,0.02001953125,0.677734375,-2.25830078125,-1.64794921875,0.1220703125,1.2689208984375,47.8619384765625,-93.1585693359375
1758873645.7684486,-0.73583984375,0.02001953125,0.677734375,-2.25830078125,-1.64794921875,0.1220703125,1.25244140625,47.8509521484375,-93.1585693359375
1758873645.7780402,-0.73046875,0.009765625,0.68603515625,-1.89208984375,-1.5869140625,0.1220703125,1.23046875,47.8399658203125,-93.1585693359375
1758873645.7880127,-0.73046875,0.009765625,0.68603515625,-1.89208984375,-1.5869140625,0.1220703125,1.2139892578125,47.8289794921875,-93.153076171875
1758873645.798065,-0.720703125,0.00341796875,0.6845703125,-1.3427734375,-1.77001953125,0.06103515625,1.2030029296875,47.8125,-93.153076171875
1758873645.8080068,-0.720703125,0.00341796875,0.6845703125,-1.3427734375,-1.77001953125,0.06103515625,1.1865234375,47.7960205078125,-93.153076171875
1758873645.8180285,-0.720703125,0.01318359375,0.69775390625,-0.18310546875,-1.8310546875,0.0,1.1810302734375,47.779541015625,-93.1585693359375
1758873645.8282237,-0.720703125,0.01318359375,0.69775390625,-0.18310546875,-1.8310546875,0.0,1.1810302734375,47.7630615234375,-93.1585693359375
1758873645.8380184,-0.71923828125,0.01953125,0.693359375,0.54931640625,-2.01416015625,-0.06103515625,1.1810302734375,47.7410888671875,-93.1585693359375
1758873645.8480284,-0.71923828125,0.01953125,0.693359375,0.54931640625,-2.01416015625,-0.06103515625,1.1865234375,47.7191162109375,-93.1640625
1758873645.8584938,-0.71435546875,0.01953125,0.6962890625,0.244140625,-2.38037109375,-0.1220703125,1.1865234375,47.6971435546875,-93.1640625
1758873645.868139,-0.71435546875,0.01953125,0.6962890625,0.244140625,-2.38037109375,-0.1220703125,1.1865234375,47.669677734375,-93.1695556640625
1758873645.8782136,-0.7138671875,0.01611328125,0.70556640625,-0.91552734375,-2.5634765625,-0.1220703125,1.1810302734375,47.6422119140625,-93.1695556640625
1758873645.8885517,-0.7138671875,0.01611328125,0.70556640625,-0.91552734375,-2.5634765625,-0.1220703125,1.175537109375,47.6092529296875,-93.175048828125
1758873645.8982718,-0.720703125,0.01123046875,0.70263671875,-0.6103515625,-2.8076171875,-0.30517578125,1.16455078125,47.5762939453125,-93.1805419921875
1758873645.9081686,-0.720703125,0.01123046875,0.70263671875,-0.6103515625,-2.8076171875,-0.30517578125,1.153564453125,47.5433349609375,-93.18603515625
1758873645.91815,-0.734375,0.0146484375,0.6796875,0.0,-2.86865234375,-0.54931640625,1.1480712890625,47.5103759765625,-93.1915283203125
1758873645.9283686,-0.734375,0.0146484375,0.6796875,0.0,-2.86865234375,-0.54931640625,1.142578125,47.4774169921875,-93.2025146484375
1758873645.9382439,-0.7412109375,0.01806640625,0.6708984375,0.79345703125,-2.685546875,-0.732421875,1.1370849609375,47.4444580078125,-93.2135009765625
1758873645.9484885,-0.7412109375,0.01806640625,0.6708984375,0.79345703125,-2.685546875,-0.732421875,1.1370849609375,47.4114990234375,-93.2244873046875
1758873645.9586813,-0.734375,0.0166015625,0.68359375,0.8544921875,-2.62451171875,-0.6103515625,1.1370849609375,47.384033203125,-93.2354736328125
1758873645.9686878,-0.734375,0.0166015625,0.68359375,0.8544921875,-2.62451171875,-0.6103515625,1.142578125,47.3565673828125,-93.2464599609375
1758873645.9782288,-0.73681640625,0.0166015625,0.66796875,-2.8076171875,-2.62451171875,-0.244140625,1.1260986328125,47.3236083984375,-93.251953125
1758873645.9888344,-0.73681640625,0.0166015625,0.66796875,-2.8076171875,-2.62451171875,-0.244140625,1.0986328125,47.296142578125,-93.2574462890625
1758873645.9985876,-0.72998046875,0.015625,0.6669921875,-4.69970703125,-2.86865234375,0.06103515625,1.0601806640625,47.2686767578125,-93.2574462890625
1758873646.0085845,-0.72998046875,0.015625,0.6669921875,-4.69970703125,-2.86865234375,0.06103515625,1.0162353515625,47.2412109375,-93.2574462890625
1758873646.018299,-0.73583984375,0.00927734375,0.6865234375,-4.45556640625,-2.74658203125,0.1220703125,0.9722900390625,47.2137451171875,-93.2574462890625
1758873646.029131,-0.73583984375,0.00927734375,0.6865234375,-4.45556640625,-2.74658203125,0.1220703125,0.9283447265625,47.186279296875,-93.2574462890625
1758873646.0384178,-0.72509765625,0.0009765625,0.68701171875,-1.40380859375,-2.44140625,0.1220703125,0.90087890625,47.1588134765625,-93.251953125
1758873646.0485275,-0.72509765625,0.0009765625,0.68701171875,-1.40380859375,-2.44140625,0.1220703125,0.889892578125,47.13134765625,-93.251953125
1758873646.0587215,-0.7294921875,0.0048828125,0.68505859375,-1.46484375,-2.50244140625,0.3662109375,0.87890625,47.109375,-93.251953125
1758873646.0685968,-0.7294921875,0.0048828125,0.68505859375,-1.46484375,-2.50244140625,0.3662109375,0.867919921875,47.0819091796875,-93.2464599609375
1758873646.0784738,-0.73046875,0.0205078125,0.6884765625,-2.44140625,-2.5634765625,0.48828125,0.8514404296875,47.054443359375,-93.240966796875
1758873646.0890172,-0.73046875,0.0205078125,0.6884765625,-2.44140625,-2.5634765625,0.48828125,0.8349609375,47.0269775390625,-93.2354736328125
1758873646.098407,-0.73095703125,0.0107421875,0.68408203125,-3.35693359375,-2.50244140625,0.6103515625,0.81298828125,47.0050048828125,-93.22998046875
1758873646.1086485,-0.73095703125,0.0107421875,0.68408203125,-3.35693359375,-2.50244140625,0.6103515625,0.7855224609375,46.9775390625,-93.218994140625
1758873646.1185055,-0.72314453125,0.015625,0.69140625,-4.5166015625,-2.197265625,0.67138671875,0.758056640625,46.95556640625,-93.2135009765625
1758873646.1286583,-0.72314453125,0.015625,0.69140625,-4.5166015625,-2.197265625,0.67138671875,0.7196044921875,46.93359375,-93.2025146484375
1758873646.1385107,-0.71630859375,0.01025390625,0.69482421875,-4.8828125,-2.3193359375,0.91552734375,0.68115234375,46.9061279296875,-93.1915283203125
1758873646.1486733,-0.71630859375,0.01025390625,0.69482421875,-4.8828125,-2.3193359375,0.91552734375,0.648193359375,46.8841552734375,-93.175048828125
1758873646.1587307,-0.7158203125,0.0078125,0.69677734375,-6.53076171875,-2.50244140625,0.8544921875,0.5987548828125,46.856689453125,-93.1585693359375
1758873646.1687248,-0.7158203125,0.0078125,0.69677734375,-6.53076171875,-2.50244140625,0.8544921875,0.5438232421875,46.8292236328125,-93.1475830078125
1758873646.1786015,-0.71484375,0.0068359375,0.7041015625,-7.01904296875,-2.38037109375,1.15966796875,0.4888916015625,46.8017578125,-93.131103515625
1758873646.188871,-0.71484375,0.0068359375,0.7041015625,-7.01904296875,-2.38037109375,1.15966796875,0.4339599609375,46.77978515625,-93.1146240234375
1758873646.198557,-0.70849609375,-0.0029296875,0.70068359375,-7.14111328125,-2.5634765625,1.15966796875,0.3790283203125,46.746826171875,-93.0926513671875
1758873646.2087078,-0.70849609375,-0.0029296875,0.70068359375,-7.14111328125,-2.5634765625,1.15966796875,0.3240966796875,46.7193603515625,-93.076171875
1758873646.218631,-0.70849609375,0.00341796875,0.70654296875,-7.080078125,-2.685546875,1.220703125,0.2691650390625,46.69189453125,-93.0596923828125
1758873646.228705,-0.70849609375,0.00341796875,0.70654296875,-7.080078125,-2.685546875,1.220703125,0.2142333984375,46.658935546875,-93.043212890625
1758873646.2386503,-0.69970703125,-0.01123046875,0.716796875,-2.99072265625,-2.74658203125,1.03759765625,0.17578125,46.6259765625,-93.0267333984375
1758873646.248937,-0.69970703125,-0.01123046875,0.716796875,-2.99072265625,-2.74658203125,1.03759765625,0.1593017578125,46.593017578125,-93.01025390625
1758873646.258795,-0.693359375,0.0,0.7099609375,-1.15966796875,-2.86865234375,0.8544921875,0.1483154296875,46.56005859375,-92.999267578125
1758873646.2686665,-0.693359375,0.0,0.7099609375,-1.15966796875,-2.86865234375,0.8544921875,0.1483154296875,46.527099609375,-92.98828125
1758873646.2787428,-0.693359375,0.00048828125,0.72509765625,-3.11279296875,-3.0517578125,0.91552734375,0.1373291015625,46.4886474609375,-92.977294921875
1758873646.2890098,-0.693359375,0.00048828125,0.72509765625,-3.11279296875,-3.0517578125,0.91552734375,0.1153564453125,46.4501953125,-92.9608154296875
1758873646.2987323,-0.69873046875,0.0029296875,0.7041015625,-3.0517578125,-3.173828125,1.0986328125,0.0933837890625,46.4117431640625,-92.9498291015625
1758873646.3087087,-0.69873046875,0.0029296875,0.7041015625,-3.0517578125,-3.173828125,1.0986328125,0.076904296875,46.373291015625,-92.933349609375
1758873646.318853,-0.70703125,-0.0107421875,0.70458984375,0.06103515625,-3.2958984375,0.9765625,0.0714111328125,46.329345703125,-92.92236328125
1758873646.3287778,-0.70703125,-0.0107421875,0.70458984375,0.06103515625,-3.2958984375,0.9765625,0.0823974609375,46.2908935546875,-92.911376953125
1758873646.3388023,-0.7021484375,0.00537109375,0.7080078125,1.46484375,-3.2958984375,0.79345703125,0.098876953125,46.25244140625,-92.900390625
1758873646.3489754,-0.7021484375,0.00537109375,0.7080078125,1.46484375,-3.2958984375,0.79345703125,0.120849609375,46.20849609375,-92.889404296875
1758873646.3589256,-0.70263671875,0.0107421875,0.71044921875,-0.18310546875,-3.5400390625,0.6103515625,0.1373291015625,46.1700439453125,-92.87841796875
1758873646.3688004,-0.70263671875,0.0107421875,0.71044921875,-0.18310546875,-3.5400390625,0.6103515625,0.142822265625,46.1260986328125,-92.8729248046875
1758873646.3789155,-0.71142578125,0.02294921875,0.7109375,-6.40869140625,-3.90625,0.91552734375,0.1153564453125,46.0821533203125,-92.8619384765625
1758873646.3891108,-0.71142578125,0.02294921875,0.7109375,-6.40869140625,-3.90625,0.91552734375,0.06591796875,46.03271484375,-92.8509521484375
1758873646.3988705,-0.736328125,0.02099609375,0.70361328125,-7.50732421875,-3.90625,1.3427734375,0.010986328125,45.98876953125,-92.8289794921875
1758873646.4088566,-0.736328125,0.02099609375,0.70361328125,-7.50732421875,-3.90625,1.3427734375,-0.0439453125,45.94482421875,-92.8070068359375
1758873646.419009,-0.7314453125,-0.00390625,0.681640625,-9.1552734375,-3.84521484375,1.3427734375,-0.1043701171875,45.90087890625,-92.7850341796875
1758873646.4289808,-0.7314453125,-0.00390625,0.681640625,-9.1552734375,-3.84521484375,1.3427734375,-0.1812744140625,45.8624267578125,-92.7630615234375
1758873646.4390082,-0.72412109375,-0.02294921875,0.68505859375,-6.591796875,-3.90625,1.15966796875,-0.24169921875,45.823974609375,-92.7410888671875
1758873646.4493444,-0.72412109375,-0.02294921875,0.68505859375,-6.591796875,-3.90625,1.15966796875,-0.2911376953125,45.780029296875,-92.724609375
1758873646.4591494,-0.7099609375,-0.01806640625,0.68994140625,-4.638671875,-3.41796875,1.03759765625,-0.3350830078125,45.7470703125,-92.7081298828125
1758873646.4690652,-0.7099609375,-0.01806640625,0.68994140625,-4.638671875,-3.41796875,1.03759765625,-0.3680419921875,45.7086181640625,-92.691650390625
1758873646.4789522,-0.7060546875,0.01611328125,0.69970703125,-6.34765625,-3.662109375,1.0986328125,-0.4119873046875,45.6756591796875,-92.6806640625
1758873646.4893339,-0.7060546875,0.01611328125,0.69970703125,-6.34765625,-3.662109375,1.0986328125,-0.46142578125,45.63720703125,-92.6641845703125
1758873646.4989924,-0.70751953125,0.00341796875,0.7197265625,-9.33837890625,-3.662109375,1.3427734375,-0.5328369140625,45.604248046875,-92.6422119140625
1758873646.5090692,-0.70751953125,0.00341796875,0.7197265625,-9.33837890625,-3.662109375,1.3427734375,-0.6097412109375,45.5657958984375,-92.6202392578125
1758873646.5191908,-0.6904296875,-0.00830078125,0.6982421875,-11.04736328125,-3.7841796875,1.5869140625,-0.6976318359375,45.52734375,-92.5927734375
1758873646.5291002,-0.6904296875,-0.00830078125,0.6982421875,-11.04736328125,-3.7841796875,1.5869140625,-0.791015625,45.4888916015625,-92.5653076171875
1758873646.5391312,-0.70263671875,-0.02685546875,0.7060546875,-8.23974609375,-3.96728515625,1.3427734375,-0.8514404296875,45.450439453125,-92.5433349609375
1758873646.5493894,-0.70263671875,-0.02685546875,0.7060546875,-8.23974609375,-3.96728515625,1.3427734375,-0.9173583984375,45.406494140625,-92.52685546875
1758873646.5592864,-0.71142578125,-0.01953125,0.72314453125,-6.591796875,-3.90625,1.40380859375,-0.966796875,45.3680419921875,-92.5048828125
1758873646.5691032,-0.71142578125,-0.01953125,0.72314453125,-6.591796875,-3.90625,1.40380859375,-1.0162353515625,45.32958984375,-92.48291015625
1758873646.5794146,-0.693359375,-0.0205078125,0.68994140625,-1.8310546875,-4.0283203125,1.15966796875,-1.021728515625,45.28564453125,-92.4664306640625
1758873646.5893598,-0.693359375,-0.0205078125,0.68994140625,-1.8310546875,-4.0283203125,1.15966796875,-1.0272216796875,45.2471923828125,-92.449951171875
1758873646.5991921,-0.7060546875,-0.0224609375,0.7177734375,0.6103515625,-4.21142578125,0.732421875,-1.0107421875,45.2032470703125,-92.43896484375
1758873646.6091957,-0.7060546875,-0.0224609375,0.7177734375,0.6103515625,-4.21142578125,0.732421875,-0.9942626953125,45.1593017578125,-92.427978515625
1758873646.619458,-0.7041015625,-0.03076171875,0.7265625,5.0048828125,-4.150390625,0.30517578125,-0.94482421875,45.1153564453125,-92.427978515625
1758873646.6292305,-0.7041015625,-0.03076171875,0.7265625,5.0048828125,-4.150390625,0.30517578125,-0.889892578125,45.0714111328125,-92.427978515625
1758873646.6392667,-0.70751953125,-0.015625,0.69482421875,7.75146484375,-4.2724609375,-0.3662109375,-0.8184814453125,45.032958984375,-92.4334716796875
1758873646.6495256,-0.70751953125,-0.015625,0.69482421875,7.75146484375,-4.2724609375,-0.3662109375,-0.7470703125,44.989013671875,-92.43896484375
1758873646.6593451,-0.7275390625,-0.00439453125,0.716796875,9.1552734375,-4.2724609375,-0.6103515625,-0.6646728515625,44.945068359375,-92.449951171875
1758873646.6692307,-0.7275390625,-0.00439453125,0.716796875,9.1552734375,-4.2724609375,-0.6103515625,-0.582275390625,44.901123046875,-92.4609375
1758873646.6794558,-0.712890625,-0.00341796875,0.689453125,9.82666015625,-3.90625,-0.91552734375,-0.494384765625,44.8626708984375,-92.4774169921875
1758873646.6895833,-0.712890625,-0.00341796875,0.689453125,9.82666015625,-3.90625,-0.91552734375,-0.4119873046875,44.8297119140625,-92.493896484375
1758873646.6993573,-0.68408203125,0.0087890625,0.71435546875,4.45556640625,-4.39453125,-0.91552734375,-0.3790283203125,44.7857666015625,-92.5048828125
1758873646.709337,-0.68408203125,0.0087890625,0.71435546875,4.45556640625,-4.39453125,-0.91552734375,-0.3460693359375,44.7418212890625,-92.5213623046875
1758873646.719444,-0.71728515625,0.029296875,0.71240234375,-2.197265625,-4.5166015625,-0.732421875,-0.37353515625,44.6978759765625,-92.5323486328125
1758873646.7293577,-0.71728515625,0.029296875,0.71240234375,-2.197265625,-4.5166015625,-0.732421875,-0.4010009765625,44.6539306640625,-92.537841796875
1758873646.7394035,-0.72119140625,0.00634765625,0.71142578125,-3.47900390625,-4.57763671875,-0.42724609375,-0.439453125,44.6099853515625,-92.537841796875
1758873646.749708,-0.72119140625,0.00634765625,0.71142578125,-3.47900390625,-4.57763671875,-0.42724609375,-0.472412109375,44.571533203125,-92.5433349609375
1758873646.7593908,-0.7197265625,-0.01806640625,0.6982421875,-0.67138671875,-4.5166015625,-0.3662109375,-0.4833984375,44.527587890625,-92.5433349609375
1758873646.7694016,-0.7197265625,-0.01806640625,0.6982421875,-0.67138671875,-4.5166015625,-0.3662109375,-0.4888916015625,44.4891357421875,-92.548828125
1758873646.7794938,-0.7080078125,-0.02099609375,0.68603515625,-0.42724609375,-4.45556640625,-0.67138671875,-0.4998779296875,44.4451904296875,-92.5543212890625
1758873646.7895567,-0.7080078125,-0.02099609375,0.68603515625,-0.42724609375,-4.45556640625,-0.67138671875,-0.5108642578125,44.40673828125,-92.5653076171875
1758873646.7994936,-0.7158203125,0.0,0.70556640625,-4.33349609375,-4.39453125,-0.3662109375,-0.5548095703125,44.3682861328125,-92.5653076171875
1758873646.8095171,-0.7158203125,0.0,0.70556640625,-4.33349609375,-4.39453125,-0.3662109375,-0.5987548828125,44.329833984375,-92.57080078125
1758873646.8195472,-0.71337890625,-0.00634765625,0.70458984375,-4.2724609375,-4.33349609375,0.0,-0.6427001953125,44.296875,-92.57080078125
1758873646.8294563,-0.71337890625,-0.00634765625,0.70458984375,-4.2724609375,-4.33349609375,0.0,-0.68115234375,44.2584228515625,-92.57080078125
1758873646.8395116,-0.70654296875,-0.03076171875,0.70263671875,-2.3193359375,-4.21142578125,0.244140625,-0.703125,44.219970703125,-92.5653076171875
1758873646.8499415,-0.70654296875,-0.03076171875,0.70263671875,-2.3193359375,-4.21142578125,0.244140625,-0.72509765625,44.18701171875,-92.5653076171875
1758873646.8595793,-0.69482421875,-0.03125,0.71142578125,0.54931640625,-3.84521484375,0.30517578125,-0.714111328125,44.154052734375,-92.559814453125
1758873646.8695173,-0.69482421875,-0.03125,0.71142578125,0.54931640625,-3.84521484375,0.30517578125,-0.7086181640625,44.12109375,-92.559814453125
1758873646.87958,-0.70263671875,-0.0087890625,0.72802734375,3.11279296875,-3.662109375,0.3662109375,-0.6756591796875,44.0936279296875,-92.559814453125
1758873646.889648,-0.70263671875,-0.0087890625,0.72802734375,3.11279296875,-3.662109375,0.3662109375,-0.6427001953125,44.0606689453125,-92.5543212890625
1758873646.899615,-0.71484375,0.00341796875,0.71875,0.30517578125,-3.662109375,0.732421875,-0.63720703125,44.0277099609375,-92.548828125
1758873646.9098043,-0.71484375,0.00341796875,0.71875,0.30517578125,-3.662109375,0.732421875,-0.626220703125,44.000244140625,-92.537841796875
1758873646.9197514,-0.712890625,0.0,0.69384765625,-0.9765625,-3.47900390625,0.9765625,-0.626220703125,43.96728515625,-92.52685546875
1758873646.9296973,-0.712890625,0.0,0.69384765625,-0.9765625,-3.47900390625,0.9765625,-0.626220703125,43.9398193359375,-92.5103759765625
1758873646.9396255,-0.70654296875,-0.01513671875,0.71044921875,-2.25830078125,-3.173828125,1.40380859375,-0.63720703125,43.9178466796875,-92.493896484375
1758873646.950109,-0.70654296875,-0.01513671875,0.71044921875,-2.25830078125,-3.173828125,1.40380859375,-0.6427001953125,43.890380859375,-92.471923828125
1758873646.959925,-0.70556640625,-0.0166015625,0.71044921875,-0.6103515625,-2.9296875,1.77001953125,-0.63720703125,43.868408203125,-92.449951171875
1758873646.9696562,-0.70556640625,-0.0166015625,0.71044921875,-0.6103515625,-2.9296875,1.77001953125,-0.626220703125,43.846435546875,-92.427978515625
1758873646.9797027,-0.71435546875,-0.0126953125,0.72314453125,-2.38037109375,-2.99072265625,1.8310546875,-0.6317138671875,43.824462890625,-92.4005126953125
1758873646.9900088,-0.71435546875,-0.0126953125,0.72314453125,-2.38037109375,-2.99072265625,1.8310546875,-0.63720703125,43.802490234375,-92.3785400390625
1758873646.999758,-0.70703125,-0.00390625,0.69873046875,-1.77001953125,-2.74658203125,2.01416015625,-0.63720703125,43.780517578125,-92.35107421875
1758873647.0097258,-0.70703125,-0.00390625,0.69873046875,-1.77001953125,-2.74658203125,2.01416015625,-0.63720703125,43.758544921875,-92.3236083984375
1758873647.0200634,-0.70068359375,-0.017578125,0.70166015625,-0.30517578125,-2.38037109375,1.953125,-0.626220703125,43.74755859375,-92.3016357421875
1758873647.0297847,-0.70068359375,-0.017578125,0.70166015625,-0.30517578125,-2.38037109375,1.953125,-0.6097412109375,43.7310791015625,-92.274169921875
1758873647.0398104,-0.70361328125,-0.01708984375,0.72998046875,-0.06103515625,-2.38037109375,2.0751953125,-0.59326171875,43.714599609375,-92.2467041015625
1758873647.0502427,-0.70361328125,-0.01708984375,0.72998046875,-0.06103515625,-2.38037109375,2.0751953125,-0.5767822265625,43.6981201171875,-92.2247314453125
1758873647.0598807,-0.7060546875,-0.017578125,0.70751953125,1.5869140625,-1.8310546875,2.197265625,-0.538330078125,43.681640625,-92.197265625
1758873647.0698302,-0.7060546875,-0.017578125,0.70751953125,1.5869140625,-1.8310546875,2.197265625,-0.50537109375,43.670654296875,-92.1697998046875
1758873647.080054,-0.69873046875,-0.00341796875,0.6943359375,1.5869140625,-1.64794921875,2.01416015625,-0.472412109375,43.6651611328125,-92.1478271484375
1758873647.0898561,-0.69873046875,-0.00341796875,0.6943359375,1.5869140625,-1.64794921875,2.01416015625,-0.439453125,43.6541748046875,-92.1258544921875
1758873647.099844,-0.697265625,0.0,0.73095703125,1.15966796875,-1.52587890625,2.01416015625,-0.4119873046875,43.648681640625,-92.1038818359375
1758873647.1098955,-0.697265625,0.0,0.73095703125,1.15966796875,-1.52587890625,2.01416015625,-0.384521484375,43.6376953125,-92.076416015625
1758873647.1216984,-0.69580078125,-0.001953125,0.72216796875,-0.732421875,-1.46484375,2.197265625,-0.37353515625,43.626708984375,-92.0489501953125
1758873647.129906,-0.69580078125,-0.001953125,0.72216796875,-0.732421875,-1.46484375,2.197265625,-0.362548828125,43.6212158203125,-92.021484375
1758873647.1399732,-0.689453125,-0.00732421875,0.71484375,-0.18310546875,-1.52587890625,2.3193359375,-0.340576171875,43.6102294921875,-91.9940185546875
1758873647.1502314,-0.689453125,-0.00732421875,0.71484375,-0.18310546875,-1.52587890625,2.3193359375,-0.3240966796875,43.5992431640625,-91.966552734375
1758873647.160283,-0.693359375,-0.01025390625,0.72802734375,0.244140625,-1.40380859375,2.197265625,-0.3021240234375,43.5882568359375,-91.9390869140625
1758873647.1699102,-0.693359375,-0.01025390625,0.72802734375,0.244140625,-1.40380859375,2.197265625,-0.2801513671875,43.582763671875,-91.91162109375
1758873647.1800556,-0.68408203125,-0.0009765625,0.73193359375,1.77001953125,-1.3427734375,2.01416015625,-0.2471923828125,43.57177734375,-91.8896484375
1758873647.190382,-0.68408203125,-0.0009765625,0.73193359375,1.77001953125,-1.3427734375,2.01416015625,-0.208740234375,43.560791015625,-91.86767578125
1758873647.2000456,-0.67529296875,0.00537109375,0.73828125,0.67138671875,-1.46484375,1.89208984375,-0.186767578125,43.5498046875,-91.845703125
1758873647.209995,-0.67529296875,0.00537109375,0.73828125,0.67138671875,-1.46484375,1.89208984375,-0.164794921875,43.5333251953125,-91.82373046875
1758873647.2201123,-0.68505859375,0.005859375,0.736328125,-0.18310546875,-1.64794921875,1.89208984375,-0.1483154296875,43.5223388671875,-91.8017578125
1758873647.230041,-0.68505859375,0.005859375,0.736328125,-0.18310546875,-1.64794921875,1.89208984375,-0.1318359375,43.505859375,-91.7742919921875
1758873647.2401056,-0.69091796875,-0.00146484375,0.7236328125,0.18310546875,-1.708984375,1.708984375,-0.1153564453125,43.4893798828125,-91.7578125
1758873647.2501552,-0.69091796875,-0.00146484375,0.7236328125,0.18310546875,-1.708984375,1.708984375,-0.098876953125,43.472900390625,-91.73583984375
1758873647.2601097,-0.68994140625,0.00146484375,0.71630859375,-0.79345703125,-1.708984375,1.52587890625,-0.0933837890625,43.4564208984375,-91.7138671875
1758873647.2700486,-0.68994140625,0.00146484375,0.71630859375,-0.79345703125,-1.708984375,1.52587890625,-0.087890625,43.43994140625,-91.6973876953125
1758873647.2803307,-0.681640625,0.00439453125,0.73193359375,-1.220703125,-1.708984375,1.3427734375,-0.087890625,43.4234619140625,-91.680908203125
1758873647.2905567,-0.681640625,0.00439453125,0.73193359375,-1.220703125,-1.708984375,1.3427734375,-0.087890625,43.406982421875,-91.6644287109375
1758873647.3000968,-0.67724609375,0.00390625,0.73828125,-1.28173828125,-1.89208984375,1.220703125,-0.087890625,43.3905029296875,-91.64794921875
1758873647.310109,-0.67724609375,0.00390625,0.73828125,-1.28173828125,-1.89208984375,1.220703125,-0.087890625,43.3685302734375,-91.6314697265625
1758873647.320296,-0.67919921875,-0.00341796875,0.7333984375,-1.15966796875,-2.01416015625,1.15966796875,-0.087890625,43.35205078125,-91.6204833984375
1758873647.3302028,-0.67919921875,-0.00341796875,0.7333984375,-1.15966796875,-2.01416015625,1.15966796875,-0.087890625,43.330078125,-91.60400390625
1758873647.3401723,-0.67626953125,-0.005859375,0.73291015625,-1.3427734375,-2.0751953125,1.0986328125,-0.087890625,43.30810546875,-91.5875244140625
1758873647.3503346,-0.67626953125,-0.005859375,0.73291015625,-1.3427734375,-2.0751953125,1.0986328125,-0.0933837890625,43.2861328125,-91.5765380859375
1758873647.3632627,-0.67529296875,-0.00244140625,0.7431640625,-0.9765625,-2.0751953125,1.0986328125,-0.0933837890625,43.26416015625,-91.5655517578125
1758873647.3718855,-0.67529296875,-0.00244140625,0.7431640625,-0.9765625,-2.0751953125,1.0986328125,-0.0933837890625,43.2421875,-91.549072265625
1758873647.3802512,-0.66552734375,-0.0029296875,0.74169921875,0.8544921875,-2.197265625,0.79345703125,-0.076904296875,43.22021484375,-91.5435791015625
1758873647.390639,-0.66552734375,-0.0029296875,0.74169921875,0.8544921875,-2.197265625,0.79345703125,-0.0604248046875,43.1927490234375,-91.5325927734375
1758873647.4002213,-0.66845703125,-0.0048828125,0.74853515625,2.38037109375,-2.25830078125,0.6103515625,-0.032958984375,43.1707763671875,-91.527099609375
1758873647.4103174,-0.66845703125,-0.0048828125,0.74853515625,2.38037109375,-2.25830078125,0.6103515625,-0.0054931640625,43.143310546875,-91.5216064453125
1758873647.4203436,-0.6650390625,0.00146484375,0.74755859375,2.5634765625,-2.13623046875,0.54931640625,0.02197265625,43.1158447265625,-91.5216064453125
1758873647.4267592,-0.6650390625,0.00146484375,0.74755859375,2.5634765625,-2.13623046875,0.54931640625,47.4114990234375,46.12060546875,-119.937744140625
1758873647.4303973,-0.6650390625,0.00146484375,0.74755859375,2.5634765625,-2.13623046875,0.54931640625,0.0494384765625,43.0938720703125,-91.51611328125
1758873647.4403148,-0.6689453125,0.001953125,0.74462890625,1.77001953125,-2.25830078125,0.48828125,0.0714111328125,43.06640625,-91.51611328125
1758873647.4506445,-0.6689453125,0.001953125,0.74462890625,1.77001953125,-2.25830078125,0.48828125,0.0933837890625,43.0389404296875,-91.5106201171875
1758873647.4608512,-0.66552734375,0.005859375,0.74951171875,1.28173828125,-2.38037109375,0.42724609375,0.10986328125,43.011474609375,-91.5106201171875
1758873647.470432,-0.66552734375,0.005859375,0.74951171875,1.28173828125,-2.38037109375,0.42724609375,0.1263427734375,42.9840087890625,-91.505126953125
1758873647.4803774,-0.666015625,0.00439453125,0.74072265625,0.91552734375,-2.50244140625,0.42724609375,0.1373291015625,42.9510498046875,-91.505126953125
1758873647.4908972,-0.67333984375,0.0078125,0.73779296875,-0.30517578125,-2.685546875,0.48828125,0.142822265625,42.923583984375,-91.4996337890625
1758873647.5007951,-0.67333984375,0.0078125,0.73779296875,-0.30517578125,-2.685546875,0.48828125,0.142822265625,42.890625,-91.494140625
1758873647.5104775,-0.68017578125,0.00390625,0.74560546875,-0.91552734375,-2.685546875,0.6103515625,0.142822265625,42.857666015625,-91.4886474609375
1758873647.5208535,-0.68017578125,0.00390625,0.74560546875,-0.91552734375,-2.685546875,0.6103515625,0.142822265625,42.8302001953125,-91.483154296875
1758873647.5304706,-0.67138671875,-0.00634765625,0.740234375,0.18310546875,-2.685546875,0.67138671875,0.142822265625,42.7972412109375,-91.4776611328125
1758873647.5407908,-0.67138671875,-0.00634765625,0.740234375,0.18310546875,-2.685546875,0.67138671875,0.1483154296875,42.769775390625,-91.47216796875
1758873647.5508752,-0.66943359375,-0.001953125,0.73828125,0.244140625,-2.8076171875,0.79345703125,0.1593017578125,42.73681640625,-91.4666748046875
1758873647.5607805,-0.66943359375,-0.001953125,0.73828125,0.244140625,-2.8076171875,0.79345703125,0.1702880859375,42.7093505859375,-91.461181640625
1758873647.570621,-0.69091796875,-0.00146484375,0.73388671875,2.01416015625,-2.74658203125,0.9765625,0.186767578125,42.6763916015625,-91.4501953125
1758873647.580774,-0.69091796875,-0.00146484375,0.73388671875,2.01416015625,-2.74658203125,0.9765625,0.2142333984375,42.64892578125,-91.4447021484375
1758873647.5911431,-0.681640625,0.0029296875,0.71484375,0.8544921875,-2.5634765625,0.8544921875,0.2362060546875,42.6214599609375,-91.4337158203125
1758873647.6007712,-0.681640625,0.0029296875,0.71484375,0.8544921875,-2.5634765625,0.8544921875,0.252685546875,42.593994140625,-91.42822265625
1758873647.610505,-0.6826171875,0.001953125,0.73876953125,1.52587890625,-2.38037109375,0.8544921875,0.2691650390625,42.572021484375,-91.417236328125
1758873647.6209292,-0.6826171875,0.001953125,0.73876953125,1.52587890625,-2.38037109375,0.8544921875,0.2911376953125,42.5445556640625,-91.4117431640625
1758873647.6306524,-0.68017578125,0.00390625,0.74658203125,1.40380859375,-2.01416015625,0.8544921875,0.3131103515625,42.5225830078125,-91.40625
1758873647.6407454,-0.68017578125,0.00390625,0.74658203125,1.40380859375,-2.01416015625,0.8544921875,0.32958984375,42.506103515625,-91.395263671875
1758873647.6506698,-0.66552734375,0.0166015625,0.7373046875,0.18310546875,-1.953125,0.8544921875,0.3460693359375,42.484130859375,-91.3897705078125
1758873647.6607656,-0.66552734375,0.0166015625,0.7373046875,0.18310546875,-1.953125,0.8544921875,0.3570556640625,42.4676513671875,-91.38427734375
1758873647.670596,-0.67333984375,0.01220703125,0.7412109375,0.0,-2.01416015625,1.03759765625,0.362548828125,42.4456787109375,-91.373291015625
1758873647.681111,-0.67333984375,0.01220703125,0.7412109375,0.0,-2.01416015625,1.03759765625,0.37353515625,42.42919921875,-91.3623046875
1758873647.6910615,-0.67431640625,0.005859375,0.73583984375,-1.220703125,-1.89208984375,1.28173828125,0.3790283203125,42.4072265625,-91.3458251953125
1758873647.7008123,-0.67431640625,0.005859375,0.73583984375,-1.220703125,-1.89208984375,1.28173828125,0.3790283203125,42.3907470703125,-91.329345703125
1758873647.7106628,-0.66357421875,-0.00146484375,0.73828125,-1.5869140625,-1.953125,1.0986328125,0.37353515625,42.3687744140625,-91.318359375
1758873647.7209508,-0.66357421875,-0.00146484375,0.73828125,-1.5869140625,-1.953125,1.0986328125,0.3680419921875,42.352294921875,-91.307373046875
1758873647.7307217,-0.6591796875,0.0029296875,0.75,-2.99072265625,-1.953125,1.15966796875,0.3570556640625,42.330322265625,-91.29638671875
1758873647.7408128,-0.6591796875,0.0029296875,0.75,-2.99072265625,-1.953125,1.15966796875,0.3350830078125,42.3138427734375,-91.285400390625
1758873647.7509644,-0.64990234375,0.00244140625,0.76708984375,0.0,-1.8310546875,1.03759765625,0.32958984375,42.2918701171875,-91.2744140625
1758873647.760833,-0.64990234375,0.00244140625,0.76708984375,0.0,-1.8310546875,1.03759765625,0.340576171875,42.2698974609375,-91.263427734375
1758873647.7707572,-0.64697265625,-0.00146484375,0.76513671875,0.42724609375,-1.953125,1.0986328125,0.3515625,42.2479248046875,-91.25244140625
1758873647.7807827,-0.64697265625,-0.00146484375,0.76513671875,0.42724609375,-1.953125,1.0986328125,0.362548828125,42.2259521484375,-91.241455078125
1758873647.791212,-0.6455078125,0.00439453125,0.7470703125,-0.732421875,-2.25830078125,1.52587890625,0.37353515625,42.198486328125,-91.23046875
1758873647.8007917,-0.6455078125,0.00439453125,0.7470703125,-0.732421875,-2.25830078125,1.52587890625,0.3790283203125,42.1710205078125,-91.2139892578125
1758873647.810782,-0.654296875,0.0107421875,0.76220703125,-2.685546875,-2.44140625,1.77001953125,0.3790283203125,42.1435546875,-91.197509765625
1758873647.8208842,-0.654296875,0.0107421875,0.76220703125,-2.685546875,-2.44140625,1.77001953125,0.362548828125,42.1160888671875,-91.175537109375
1758873647.8307846,-0.64306640625,0.01904296875,0.77001953125,-3.173828125,-2.38037109375,1.708984375,0.3515625,42.088623046875,-91.1590576171875
1758873647.840855,-0.64306640625,0.01904296875,0.77001953125,-3.173828125,-2.38037109375,1.708984375,0.3350830078125,42.0556640625,-91.1370849609375
1758873647.8515997,-0.65185546875,-0.00146484375,0.7587890625,-2.9296875,-2.38037109375,1.52587890625,0.318603515625,42.0281982421875,-91.1151123046875
1758873647.8608637,-0.65185546875,-0.00146484375,0.7587890625,-2.9296875,-2.38037109375,1.52587890625,0.3076171875,41.9952392578125,-91.0986328125
1758873647.87088,-0.673828125,-0.0126953125,0.7392578125,-1.0986328125,-2.25830078125,1.3427734375,0.3021240234375,41.9677734375,-91.0821533203125
1758873647.880902,-0.673828125,-0.0126953125,0.7392578125,-1.0986328125,-2.25830078125,1.3427734375,0.3021240234375,41.9403076171875,-91.0711669921875
1758873647.8913739,-0.66552734375,-0.001953125,0.7392578125,1.220703125,-2.197265625,1.0986328125,0.3131103515625,41.912841796875,-91.0546875
1758873647.9008963,-0.66552734375,-0.001953125,0.7392578125,1.220703125,-2.197265625,1.0986328125,0.32958984375,41.8853759765625,-91.0491943359375
1758873647.910935,-0.66357421875,0.0107421875,0.75341796875,1.03759765625,-2.197265625,1.15966796875,0.3515625,41.8634033203125,-91.0382080078125
1758873647.9210641,-0.66357421875,0.0107421875,0.75341796875,1.03759765625,-2.197265625,1.15966796875,0.37353515625,41.8359375,-91.0272216796875
1758873647.9309127,-0.66650390625,0.0185546875,0.74853515625,-1.5869140625,-2.25830078125,1.28173828125,0.3790283203125,41.8084716796875,-91.0107421875
1758873647.9409997,-0.66650390625,0.0185546875,0.74853515625,-1.5869140625,-2.25830078125,1.28173828125,0.37353515625,41.7864990234375,-90.999755859375
1758873647.951211,-0.6640625,0.01806640625,0.74853515625,-3.72314453125,-2.25830078125,1.28173828125,0.3570556640625,41.759033203125,-90.9832763671875
1758873647.9645486,-0.6640625,0.01806640625,0.74853515625,-3.72314453125,-2.25830078125,1.28173828125,0.3350830078125,41.737060546875,-90.9722900390625
1758873647.9724994,-0.65771484375,0.01025390625,0.755859375,-5.7373046875,-2.3193359375,1.28173828125,0.3021240234375,41.7095947265625,-90.955810546875
1758873647.9810684,-0.65771484375,0.01025390625,0.755859375,-5.7373046875,-2.3193359375,1.28173828125,0.2581787109375,41.6876220703125,-90.9393310546875
1758873647.9913476,-0.66162109375,0.0068359375,0.75830078125,-5.859375,-2.25830078125,1.3427734375,0.2142333984375,41.66015625,-90.9228515625
1758873648.0010376,-0.66162109375,0.0068359375,0.75830078125,-5.859375,-2.25830078125,1.3427734375,0.1702880859375,41.63818359375,-90.9063720703125
1758873648.0110178,-0.65576171875,0.0009765625,0.75732421875,-6.04248046875,-2.50244140625,1.5869140625,0.1263427734375,41.6107177734375,-90.8843994140625
1758873648.0211484,-0.65576171875,0.0009765625,0.75732421875,-6.04248046875,-2.50244140625,1.5869140625,0.0823974609375,41.583251953125,-90.867919921875
1758873648.0312212,-0.65966796875,-0.0009765625,0.75146484375,-6.4697265625,-2.685546875,2.0751953125,0.0384521484375,41.5557861328125,-90.8404541015625
1758873648.0410268,-0.65966796875,-0.0009765625,0.75146484375,-6.4697265625,-2.685546875,2.0751953125,0.0,41.5283203125,-90.8184814453125
1758873648.0511997,-0.6494140625,-0.00927734375,0.7470703125,-7.14111328125,-2.9296875,2.38037109375,-0.0439453125,41.5008544921875,-90.7855224609375
1758873648.0611253,-0.6494140625,-0.00927734375,0.7470703125,-7.14111328125,-2.9296875,2.38037109375,-0.0933837890625,41.4678955078125,-90.758056640625
1758873648.0711305,-0.64892578125,-0.017578125,0.7666015625,-5.615234375,-3.47900390625,2.25830078125,-0.1373291015625,41.4349365234375,-90.7305908203125
1758873648.0811245,-0.64892578125,-0.017578125,0.7666015625,-5.615234375,-3.47900390625,2.25830078125,-0.1702880859375,41.396484375,-90.703125
1758873648.091572,-0.65673828125,-0.01318359375,0.76318359375,-1.89208984375,-3.72314453125,2.13623046875,-0.186767578125,41.3580322265625,-90.6756591796875
1758873648.101115,-0.65673828125,-0.01318359375,0.76318359375,-1.89208984375,-3.72314453125,2.13623046875,-0.186767578125,41.319580078125,-90.648193359375
1758873648.1112878,-0.662109375,-0.0126953125,0.751953125,0.54931640625,-3.72314453125,1.64794921875,-0.17578125,41.2811279296875,-90.6317138671875
1758873648.1212683,-0.662109375,-0.0126953125,0.751953125,0.54931640625,-3.72314453125,1.64794921875,-0.1593017578125,41.24267578125,-90.6097412109375
1758873648.1313992,-0.6708984375,0.0068359375,0.74755859375,-0.244140625,-3.2958984375,1.03759765625,-0.1483154296875,41.2042236328125,-90.5987548828125
1758873648.1411734,-0.6708984375,0.0068359375,0.74755859375,-0.244140625,-3.2958984375,1.03759765625,-0.142822265625,41.1712646484375,-90.5877685546875
1758873648.1518703,-0.66357421875,0.01513671875,0.74560546875,0.9765625,-2.86865234375,0.67138671875,-0.1318359375,41.143798828125,-90.5767822265625
1758873648.1612484,-0.66357421875,0.01513671875,0.74560546875,0.9765625,-2.86865234375,0.67138671875,-0.1153564453125,41.1163330078125,-90.5712890625
1758873648.1713183,-0.65625,0.0087890625,0.74267578125,0.0,-2.86865234375,0.6103515625,-0.1043701171875,41.0888671875,-90.5657958984375
1758873648.1812773,-0.65625,0.0087890625,0.74267578125,0.0,-2.86865234375,0.6103515625,-0.0933837890625,41.0614013671875,-90.560302734375
1758873648.1919916,-0.662109375,-0.001953125,0.7470703125,-0.6103515625,-2.9296875,0.54931640625,-0.0933837890625,41.033935546875,-90.54931640625
1758873648.2012804,-0.662109375,-0.001953125,0.7470703125,-0.6103515625,-2.9296875,0.54931640625,-0.0933837890625,41.0064697265625,-90.5438232421875
1758873648.2113242,-0.6650390625,-0.00927734375,0.75537109375,0.91552734375,-2.62451171875,0.30517578125,-0.087890625,40.97900390625,-90.5438232421875
1758873648.2213295,-0.6650390625,-0.00927734375,0.75537109375,0.91552734375,-2.62451171875,0.30517578125,-0.0714111328125,40.95703125,-90.538330078125
1758873648.2313871,-0.65673828125,-0.00341796875,0.75830078125,4.33349609375,-2.13623046875,-0.244140625,-0.0494384765625,40.93505859375,-90.5438232421875
1758873648.241296,-0.65673828125,-0.00341796875,0.75830078125,4.33349609375,-2.13623046875,-0.244140625,-0.0054931640625,40.9130859375,-90.54931640625
1758873648.2518828,-0.6494140625,0.0029296875,0.76025390625,5.4931640625,-2.0751953125,-0.732421875,0.032958984375,40.8966064453125,-90.560302734375
1758873648.2638633,-0.6494140625,0.0029296875,0.76025390625,5.4931640625,-2.0751953125,-0.732421875,0.0823974609375,40.880126953125,-90.5712890625
1758873648.2724113,-0.65234375,0.0029296875,0.74755859375,3.7841796875,-2.3193359375,-0.3662109375,0.120849609375,40.858154296875,-90.582275390625
1758873648.281398,-0.65234375,0.0029296875,0.74755859375,3.7841796875,-2.3193359375,-0.3662109375,0.15380859375,40.836181640625,-90.59326171875
1758873648.2920992,-0.65234375,0.0029296875,0.74755859375,5.31005859375,-2.50244140625,-0.3662109375,0.19775390625,40.814208984375,-90.5987548828125
1758873648.3013928,-0.64453125,0.00439453125,0.77392578125,5.31005859375,-2.50244140625,-0.3662109375,0.2471923828125,40.792236328125,-90.6097412109375
1758873648.311593,-0.6318359375,-0.0224609375,0.75390625,1.52587890625,-3.11279296875,0.6103515625,0.2801513671875,40.7647705078125,-90.6097412109375
1758873648.3216436,-0.6318359375,-0.0224609375,0.75390625,1.52587890625,-3.11279296875,0.6103515625,0.296630859375,40.7318115234375,-90.6097412109375
1758873648.331653,-0.64404296875,0.02685546875,0.787109375,1.89208984375,-2.74658203125,-0.30517578125,0.3131103515625,40.6988525390625,-90.6097412109375
1758873648.3414285,-0.64404296875,0.02685546875,0.787109375,1.89208984375,-2.74658203125,-0.30517578125,0.3240966796875,40.67138671875,-90.6207275390625
1758873648.3518207,-0.64453125,0.017578125,0.76123046875,2.25830078125,-2.3193359375,-0.244140625,0.340576171875,40.6439208984375,-90.626220703125
1758873648.3616204,-0.64453125,0.017578125,0.76123046875,2.25830078125,-2.3193359375,-0.244140625,0.362548828125,40.6219482421875,-90.6317138671875
1758873648.3717415,-0.6513671875,0.01611328125,0.74609375,-1.8310546875,-2.3193359375,-0.06103515625,0.362548828125,40.5999755859375,-90.63720703125
1758873648.3815928,-0.6513671875,0.01611328125,0.74609375,-1.8310546875,-2.3193359375,-0.06103515625,0.3460693359375,40.572509765625,-90.63720703125
1758873648.3921413,-0.65673828125,0.001953125,0.763671875,-3.96728515625,-2.3193359375,0.1220703125,0.318603515625,40.550537109375,-90.6427001953125
1758873648.4015703,-0.65673828125,0.001953125,0.763671875,-3.96728515625,-2.3193359375,0.1220703125,0.2801513671875,40.528564453125,-90.6427001953125
1758873648.4116647,-0.6484375,0.0029296875,0.7548828125,-4.94384765625,-2.13623046875,0.0,0.2362060546875,40.506591796875,-90.6427001953125
1758873648.4219522,-0.6484375,0.0029296875,0.7548828125,-4.94384765625,-2.13623046875,0.0,0.1922607421875,40.484619140625,-90.648193359375
1758873648.4316483,-0.64453125,0.0,0.767578125,-2.01416015625,-2.01416015625,-0.3662109375,0.15380859375,40.462646484375,-90.6536865234375
1758873648.4416337,-0.64453125,0.0,0.767578125,-2.01416015625,-2.01416015625,-0.3662109375,0.1318359375,40.4461669921875,-90.6591796875
1758873648.451783,-0.64599609375,0.00537109375,0.7744140625,0.30517578125,-2.13623046875,-0.54931640625,0.120849609375,40.4241943359375,-90.6646728515625
1758873648.4616218,-0.64599609375,0.00537109375,0.7744140625,0.30517578125,-2.13623046875,-0.54931640625,0.120849609375,40.4022216796875,-90.6756591796875
1758873648.4716504,-0.642578125,0.00634765625,0.748046875,-1.77001953125,-2.44140625,-0.42724609375,0.10986328125,40.3802490234375,-90.6866455078125
1758873648.4816422,-0.642578125,0.00634765625,0.748046875,-1.77001953125,-2.44140625,-0.42724609375,0.0933837890625,40.3582763671875,-90.692138671875
1758873648.492146,-0.6474609375,0.0048828125,0.7763671875,-2.99072265625,-2.38037109375,-0.30517578125,0.06591796875,40.330810546875,-90.703125
1758873648.5016477,-0.6474609375,0.0048828125,0.7763671875,-2.99072265625,-2.38037109375,-0.30517578125,0.0384521484375,40.308837890625,-90.7086181640625
1758873648.511764,-0.6376953125,-0.00341796875,0.7734375,-3.60107421875,-2.25830078125,-0.18310546875,0.0,40.286865234375,-90.7086181640625
1758873648.522167,-0.6376953125,-0.00341796875,0.7734375,-3.60107421875,-2.25830078125,-0.18310546875,-0.0274658203125,40.264892578125,-90.714111328125
1758873648.531804,-0.62548828125,0.0009765625,0.77783203125,-3.60107421875,-2.13623046875,-0.244140625,-0.06591796875,40.242919921875,-90.7196044921875
1758873648.5417702,-0.62548828125,0.0009765625,0.77783203125,-3.60107421875,-2.13623046875,-0.244140625,-0.1043701171875,40.2154541015625,-90.72509765625
1758873648.551813,-0.615234375,0.001953125,0.78271484375,-2.8076171875,-2.3193359375,-0.42724609375,-0.1318359375,40.1934814453125,-90.7305908203125
1758873648.5618474,-0.615234375,0.001953125,0.78271484375,-2.8076171875,-2.3193359375,-0.42724609375,-0.1593017578125,40.166015625,-90.736083984375
1758873648.571769,-0.615234375,0.00048828125,0.7890625,-4.57763671875,-2.38037109375,-0.244140625,-0.208740234375,40.1385498046875,-90.7415771484375
1758873648.5818195,-0.615234375,0.00048828125,0.7890625,-4.57763671875,-2.38037109375,-0.244140625,-0.252685546875,40.111083984375,-90.7415771484375
1758873648.5921087,-0.61181640625,-0.00927734375,0.7900390625,-3.96728515625,-2.44140625,-0.244140625,-0.2911376953125,40.078125,-90.7470703125
1758873648.6017826,-0.61181640625,-0.00927734375,0.7900390625,-3.96728515625,-2.44140625,-0.244140625,-0.32958984375,40.0506591796875,-90.7470703125
1758873648.6118827,-0.61181640625,-0.00927734375,0.7900390625,-1.953125,-2.38037109375,-0.3662109375,-0.3515625,40.0177001953125,-90.7525634765625
1758873648.6219075,-0.619140625,-0.015625,0.791015625,-1.953125,-2.38037109375,-0.3662109375,-0.37353515625,39.9847412109375,-90.7635498046875
1758873648.631896,-0.61181640625,-0.01904296875,0.78759765625,1.8310546875,-2.50244140625,-0.48828125,-0.3570556640625,39.957275390625,-90.76904296875
1758873648.641874,-0.61181640625,-0.01904296875,0.78759765625,1.8310546875,-2.50244140625,-0.48828125,-0.3460693359375,39.92431640625,-90.780029296875
1758873648.6519463,-0.607421875,-0.00927734375,0.7861328125,1.0986328125,-2.685546875,-0.54931640625,-0.340576171875,39.8858642578125,-90.791015625
1758873648.6620433,-0.607421875,-0.00927734375,0.7861328125,1.0986328125,-2.685546875,-0.54931640625,-0.3350830078125,39.8529052734375,-90.7965087890625
1758873648.6719007,-0.6181640625,0.0048828125,0.794921875,0.54931640625,-3.173828125,-0.54931640625,-0.32958984375,39.814453125,-90.8074951171875
1758873648.6819327,-0.6181640625,0.0048828125,0.794921875,0.54931640625,-3.173828125,-0.54931640625,-0.32958984375,39.7705078125,-90.8184814453125
1758873648.692208,-0.62548828125,0.0,0.79150390625,-0.54931640625,-3.11279296875,-0.48828125,-0.340576171875,39.7320556640625,-90.823974609375
1758873648.7019167,-0.62548828125,0.0,0.79150390625,-0.54931640625,-3.11279296875,-0.48828125,-0.3515625,39.693603515625,-90.8294677734375
1758873648.711966,-0.634765625,-0.01220703125,0.763671875,-1.3427734375,-2.685546875,-0.6103515625,-0.3680419921875,39.66064453125,-90.8404541015625
1758873648.722049,-0.634765625,-0.01220703125,0.763671875,-1.3427734375,-2.685546875,-0.6103515625,-0.384521484375,39.627685546875,-90.8514404296875
1758873648.7320235,-0.6337890625,0.0146484375,0.79833984375,-1.708984375,-1.77001953125,-1.28173828125,-0.4119873046875,39.6002197265625,-90.867919921875
1758873648.7420025,-0.6337890625,0.0146484375,0.79833984375,-1.708984375,-1.77001953125,-1.28173828125,-0.439453125,39.5782470703125,-90.8843994140625
1758873648.7521365,-0.61865234375,0.01123046875,0.75732421875,-6.53076171875,-1.8310546875,-0.67138671875,-0.50537109375,39.5562744140625,-90.8953857421875
1758873648.7621744,-0.61865234375,0.01123046875,0.75732421875,-6.53076171875,-1.8310546875,-0.67138671875,-0.5712890625,39.52880859375,-90.90087890625
1758873648.7720575,-0.63134765625,-0.0009765625,0.79443359375,-9.3994140625,-1.8310546875,-0.244140625,-0.6646728515625,39.5068359375,-90.90087890625
1758873648.7820845,-0.63134765625,-0.0009765625,0.79443359375,-9.3994140625,-1.8310546875,-0.244140625,-0.758056640625,39.48486328125,-90.90087890625
1758873648.7923331,-0.638671875,-0.0068359375,0.787109375,-11.29150390625,-1.64794921875,0.06103515625,-0.8624267578125,39.462890625,-90.90087890625
1758873648.802089,-0.638671875,-0.0068359375,0.787109375,-11.29150390625,-1.64794921875,0.06103515625,-0.966796875,39.44091796875,-90.8953857421875
1758873648.8120868,-0.6279296875,-0.02490234375,0.75439453125,-10.3759765625,-1.708984375,0.3662109375,-1.065673828125,39.4189453125,-90.889892578125
1758873648.8221467,-0.6279296875,-0.02490234375,0.75439453125,-10.3759765625,-1.708984375,0.3662109375,-1.1590576171875,39.4024658203125,-90.87890625
1758873648.8321347,-0.62890625,-0.04150390625,0.7734375,-8.23974609375,-1.77001953125,0.42724609375,-1.2359619140625,39.3804931640625,-90.8734130859375
1758873648.8421817,-0.62890625,-0.04150390625,0.7734375,-8.23974609375,-1.77001953125,0.42724609375,-1.3128662109375,39.3585205078125,-90.867919921875
1758873648.8521664,-0.63525390625,-0.04443359375,0.78271484375,-3.35693359375,-1.3427734375,0.48828125,-1.34033203125,39.342041015625,-90.8624267578125
1758873648.8648157,-0.63525390625,-0.04443359375,0.78271484375,-3.35693359375,-1.3427734375,0.48828125,-1.3677978515625,39.3310546875,-90.85693359375
1758873648.872829,-0.6220703125,-0.00927734375,0.787109375,-3.662109375,-1.64794921875,0.30517578125,-1.4007568359375,39.30908203125,-90.85693359375
1758873648.8822765,-0.6220703125,-0.00927734375,0.787109375,-3.662109375,-1.64794921875,0.30517578125,-1.4337158203125,39.2926025390625,-90.85693359375
1758873648.8926492,-0.6171875,0.0048828125,0.7705078125,-6.2255859375,-1.708984375,0.6103515625,-1.4886474609375,39.2706298828125,-90.845947265625
1758873648.9021897,-0.6171875,0.0048828125,0.7705078125,-6.2255859375,-1.708984375,0.6103515625,-1.5435791015625,39.254150390625,-90.8349609375
1758873648.9122326,-0.62255859375,-0.0263671875,0.77978515625,-8.48388671875,-1.5869140625,1.03759765625,-1.614990234375,39.232177734375,-90.8184814453125
1758873648.9226418,-0.62255859375,-0.0263671875,0.77978515625,-8.48388671875,-1.5869140625,1.03759765625,-1.6864013671875,39.2156982421875,-90.8074951171875
1758873648.9323132,-0.61767578125,-0.04736328125,0.76904296875,-5.06591796875,-1.220703125,1.03759765625,-1.724853515625,39.19921875,-90.791015625
1758873648.942363,-0.61767578125,-0.04736328125,0.76904296875,-5.06591796875,-1.220703125,1.03759765625,-1.7633056640625,39.188232421875,-90.780029296875
1758873648.9523518,-0.62451171875,-0.048828125,0.79052734375,2.38037109375,-1.40380859375,0.54931640625,-1.73583984375,39.1717529296875,-90.7745361328125
1758873648.9625392,-0.62451171875,-0.048828125,0.79052734375,2.38037109375,-1.40380859375,0.54931640625,-1.7083740234375,39.1552734375,-90.76904296875
1758873648.9724007,-0.63330078125,-0.03515625,0.78173828125,3.173828125,-1.46484375,0.3662109375,-1.6754150390625,39.1387939453125,-90.76904296875
1758873648.9823556,-0.63330078125,-0.03515625,0.78173828125,3.173828125,-1.46484375,0.3662109375,-1.6424560546875,39.1168212890625,-90.76904296875
1758873648.9927619,-0.63427734375,-0.01318359375,0.763671875,2.685546875,-1.46484375,0.6103515625,-1.614990234375,39.100341796875,-90.7635498046875
1758873649.002327,-0.63427734375,-0.01318359375,0.763671875,2.685546875,-1.46484375,0.6103515625,-1.58203125,39.08935546875,-90.758056640625
1758873649.0124714,-0.6572265625,-0.03466796875,0.7607421875,6.2255859375,-1.708984375,0.3662109375,-1.5216064453125,39.0728759765625,-90.758056640625
1758873649.022759,-0.6572265625,-0.03466796875,0.7607421875,6.2255859375,-1.708984375,0.3662109375,-1.4556884765625,39.056396484375,-90.758056640625
1758873649.0324414,-0.65283203125,-0.037109375,0.75634765625,11.04736328125,-1.708984375,-0.30517578125,-1.351318359375,39.0399169921875,-90.7635498046875
1758873649.042432,-0.65283203125,-0.037109375,0.75634765625,11.04736328125,-1.708984375,-0.30517578125,-1.2469482421875,39.0234375,-90.7745361328125
1758873649.0525732,-0.65380859375,-0.01953125,0.755859375,13.00048828125,-1.5869140625,-0.79345703125,-1.131591796875,39.012451171875,-90.791015625
1758873649.062614,-0.65380859375,-0.01953125,0.755859375,13.00048828125,-1.5869140625,-0.79345703125,-1.0107421875,39.00146484375,-90.8074951171875
1758873649.0724485,-0.6484375,-0.0068359375,0.7783203125,14.46533203125,-1.52587890625,-0.91552734375,-0.87890625,38.990478515625,-90.823974609375
1758873649.082633,-0.6484375,-0.0068359375,0.7783203125,14.46533203125,-1.52587890625,-0.91552734375,-0.7470703125,38.9794921875,-90.8404541015625
1758873649.0926692,-0.6396484375,-0.00634765625,0.77392578125,11.65771484375,-1.220703125,-0.91552734375,-0.648193359375,38.9739990234375,-90.85693359375
1758873649.102468,-0.6396484375,-0.00634765625,0.77392578125,11.65771484375,-1.220703125,-0.91552734375,-0.5438232421875,38.9630126953125,-90.8734130859375
1758873649.1125174,-0.6396484375,-0.0078125,0.77783203125,10.8642578125,-1.28173828125,-0.48828125,-0.4449462890625,38.95751953125,-90.8843994140625
1758873649.122911,-0.6396484375,-0.0078125,0.77783203125,10.8642578125,-1.28173828125,-0.48828125,-0.3460693359375,38.946533203125,-90.8953857421875
1758873649.1325715,-0.63525390625,-0.00244140625,0.7646484375,8.544921875,-1.220703125,-0.18310546875,-0.263671875,38.9410400390625,-90.90087890625
1758873649.142595,-0.63525390625,-0.00244140625,0.7646484375,8.544921875,-1.220703125,-0.18310546875,-0.186767578125,38.935546875,-90.911865234375
1758873649.1530511,-0.6328125,0.0,0.783203125,6.40869140625,-1.15966796875,0.30517578125,-0.1263427734375,38.924560546875,-90.911865234375
1758873649.1649613,-0.6328125,0.0,0.783203125,6.40869140625,-1.15966796875,0.30517578125,-0.06591796875,38.9190673828125,-90.911865234375
1758873649.1733189,-0.62255859375,0.0078125,0.78515625,3.173828125,-0.8544921875,0.3662109375,-0.032958984375,38.91357421875,-90.9173583984375
1758873649.1826732,-0.62255859375,0.0078125,0.78515625,3.173828125,-0.8544921875,0.3662109375,-0.0054931640625,38.9080810546875,-90.9173583984375
1758873649.1950514,-0.623046875,0.017578125,0.77001953125,1.5869140625,-0.42724609375,0.244140625,0.0054931640625,38.9080810546875,-90.9173583984375
1758873649.202678,-0.623046875,0.017578125,0.77001953125,1.5869140625,-0.42724609375,0.244140625,0.02197265625,38.902587890625,-90.9173583984375
1758873649.2130435,-0.6044921875,0.01220703125,0.810546875,-0.732421875,-0.6103515625,0.3662109375,0.0164794921875,38.8970947265625,-90.911865234375
1758873649.2228677,-0.6044921875,0.01220703125,0.810546875,-0.732421875,-0.6103515625,0.3662109375,0.010986328125,38.8916015625,-90.9063720703125
1758873649.2330682,-0.6103515625,0.01220703125,0.802734375,-4.39453125,-0.42724609375,0.79345703125,-0.02197265625,38.8861083984375,-90.90087890625
1758873649.2426407,-0.6103515625,0.01220703125,0.802734375,-4.39453125,-0.42724609375,0.79345703125,-0.054931640625,38.880615234375,-90.889892578125
1758873649.253116,-0.60107421875,0.0009765625,0.7890625,-5.18798828125,-0.732421875,0.9765625,-0.098876953125,38.86962890625,-90.87890625
1758873649.2628284,-0.60107421875,0.0009765625,0.7890625,-5.18798828125,-0.732421875,0.9765625,-0.142822265625,38.858642578125,-90.8624267578125
1758873649.2730238,-0.5869140625,-0.01318359375,0.78857421875,-4.45556640625,-1.28173828125,1.15966796875,-0.17578125,38.8421630859375,-90.8514404296875
1758873649.282985,-0.5869140625,-0.01318359375,0.78857421875,-4.45556640625,-1.28173828125,1.15966796875,-0.208740234375,38.82568359375,-90.8349609375
1758873649.293085,-0.5869140625,-0.01318359375,0.78857421875,-5.126953125,-1.52587890625,1.220703125,-0.252685546875,38.8037109375,-90.823974609375
1758873649.3027139,-0.591796875,0.0,0.79443359375,-5.126953125,-1.52587890625,1.220703125,-0.2911376953125,38.78173828125,-90.8074951171875
1758873649.3128145,-0.60205078125,0.00390625,0.80810546875,-7.568359375,-1.5869140625,1.220703125,-0.3570556640625,38.759765625,-90.7965087890625
1758873649.3232424,-0.60205078125,0.00390625,0.80810546875,-7.568359375,-1.5869140625,1.220703125,-0.41748046875,38.73779296875,-90.780029296875
1758873649.3328044,-0.59716796875,-0.0068359375,0.810546875,-10.6201171875,-1.77001953125,1.28173828125,-0.5108642578125,38.7103271484375,-90.7635498046875
1758873649.3428445,-0.59716796875,-0.0068359375,0.810546875,-10.6201171875,-1.77001953125,1.28173828125,-0.604248046875,38.6883544921875,-90.7470703125
1758873649.352912,-0.58056640625,-0.01171875,0.7939453125,-9.3994140625,-1.5869140625,1.28173828125,-0.6866455078125,38.660888671875,-90.7305908203125
1758873649.362847,-0.58056640625,-0.01171875,0.7939453125,-9.3994140625,-1.5869140625,1.28173828125,-0.7635498046875,38.638916015625,-90.7196044921875
1758873649.3728235,-0.59130859375,-0.03125,0.80126953125,-5.2490234375,-2.197265625,0.91552734375,-0.8074951171875,38.60595703125,-90.7086181640625
1758873649.3830295,-0.59130859375,-0.03125,0.80126953125,-5.2490234375,-2.197265625,0.91552734375,-0.8514404296875,38.572998046875,-90.6976318359375
1758873649.3931587,-0.61376953125,-0.01025390625,0.8134765625,-5.18798828125,-2.685546875,0.79345703125,-0.8953857421875,38.5400390625,-90.6866455078125
1758873649.4028594,-0.61376953125,-0.01025390625,0.8134765625,-5.18798828125,-2.685546875,0.79345703125,-0.9393310546875,38.5015869140625,-90.6756591796875
1758873649.4128647,-0.61083984375,0.005859375,0.76025390625,-4.8828125,-2.62451171875,0.79345703125,-0.977783203125,38.4686279296875,-90.670166015625
1758873649.4234066,-0.61083984375,0.005859375,0.76025390625,-4.8828125,-2.62451171875,0.79345703125,-1.0162353515625,38.4356689453125,-90.6591796875
1758873649.4329095,-0.6357421875,-0.0205078125,0.814453125,-4.638671875,-2.50244140625,1.3427734375,-1.0491943359375,38.4027099609375,-90.63720703125
1758873649.442976,-0.6357421875,-0.0205078125,0.814453125,-4.638671875,-2.50244140625,1.3427734375,-1.0821533203125,38.375244140625,-90.6207275390625
1758873649.4531734,-0.63818359375,-0.03955078125,0.77783203125,-0.91552734375,-1.5869140625,1.46484375,-1.07666015625,38.353271484375,-90.604248046875
1758873649.4630787,-0.63818359375,-0.03955078125,0.77783203125,-0.91552734375,-1.5869140625,1.46484375,-1.0711669921875,38.3367919921875,-90.5877685546875
1758873649.472946,-0.630859375,-0.0244140625,0.7822265625,2.44140625,-1.8310546875,0.79345703125,-1.043701171875,38.3148193359375,-90.5767822265625
1758873649.4829843,-0.630859375,-0.0244140625,0.7822265625,2.44140625,-1.8310546875,0.79345703125,-1.0107421875,38.2928466796875,-90.5712890625
1758873649.4933949,-0.62451171875,-0.01220703125,0.7724609375,3.84521484375,-2.13623046875,0.9765625,-0.966796875,38.2708740234375,-90.5657958984375
1758873649.502991,-0.63623046875,-0.03271484375,0.7841796875,4.5166015625,-2.3193359375,1.28173828125,-0.9173583984375,38.2489013671875,-90.5548095703125
1758873649.51299,-0.63623046875,-0.03271484375,0.7841796875,4.5166015625,-2.3193359375,1.28173828125,-0.8624267578125,38.2269287109375,-90.5438232421875
1758873649.5230558,-0.6357421875,-0.01904296875,0.771484375,4.0283203125,-2.13623046875,1.40380859375,-0.81298828125,38.2049560546875,-90.52734375
1758873649.5330813,-0.6357421875,-0.01904296875,0.771484375,4.0283203125,-2.13623046875,1.40380859375,-0.76904296875,38.1829833984375,-90.516357421875
1758873649.5430827,-0.60986328125,-0.005859375,0.7607421875,5.4931640625,-1.77001953125,1.5869140625,-0.7086181640625,38.16650390625,-90.50537109375
1758873649.5531878,-0.60986328125,-0.005859375,0.7607421875,5.4931640625,-1.77001953125,1.5869140625,-0.648193359375,38.155517578125,-90.4888916015625
1758873649.5631366,-0.61669921875,0.00048828125,0.8115234375,4.638671875,-1.52587890625,1.46484375,-0.5877685546875,38.1390380859375,-90.4779052734375
1758873649.5730836,-0.61669921875,0.00048828125,0.8115234375,4.638671875,-1.52587890625,1.46484375,-0.5328369140625,38.1280517578125,-90.46142578125
1758873649.5831177,-0.61279296875,0.00244140625,0.7724609375,5.37109375,-1.46484375,1.52587890625,-0.472412109375,38.111572265625,-90.4449462890625
1758873649.5934608,-0.61279296875,0.00244140625,0.7724609375,5.37109375,-1.46484375,1.52587890625,-0.4119873046875,38.1005859375,-90.4339599609375
1758873649.6031165,-0.6259765625,-0.01171875,0.79638671875,4.8828125,-1.77001953125,1.5869140625,-0.3515625,38.0841064453125,-90.41748046875
1758873649.6131108,-0.6259765625,-0.01171875,0.79638671875,4.8828125,-1.77001953125,1.5869140625,-0.2911376953125,38.067626953125,-90.4010009765625
1758873649.6231527,-0.60888671875,-0.00732421875,0.7666015625,2.50244140625,-2.01416015625,1.52587890625,-0.24169921875,38.0511474609375,-90.384521484375
1758873649.6331065,-0.60888671875,-0.00732421875,0.7666015625,2.50244140625,-2.01416015625,1.52587890625,-0.208740234375,38.03466796875,-90.37353515625
1758873649.6431718,-0.63134765625,0.0146484375,0.80517578125,4.5166015625,-2.0751953125,1.28173828125,-0.164794921875,38.0126953125,-90.362548828125
1758873649.6536443,-0.63134765625,0.0146484375,0.80517578125,4.5166015625,-2.0751953125,1.28173828125,-0.1153564453125,37.9962158203125,-90.3515625
1758873649.663283,-0.61962890625,0.01513671875,0.77099609375,2.5634765625,-1.5869140625,0.79345703125,-0.0714111328125,37.979736328125,-90.340576171875
1758873649.6732175,-0.61962890625,0.01513671875,0.77099609375,2.5634765625,-1.5869140625,0.79345703125,-0.0439453125,37.9632568359375,-90.32958984375
1758873649.6832633,-0.62890625,0.0263671875,0.80078125,-1.03759765625,-0.91552734375,0.8544921875,-0.0274658203125,37.9522705078125,-90.3240966796875
1758873649.6935785,-0.62890625,0.0263671875,0.80078125,-1.03759765625,-0.91552734375,0.8544921875,-0.032958984375,37.94677734375,-90.3131103515625
1758873649.7032852,-0.61328125,-0.01318359375,0.78125,0.30517578125,-0.54931640625,0.91552734375,-0.0274658203125,37.9412841796875,-90.3021240234375
1758873649.7132168,-0.61328125,-0.01318359375,0.78125,0.30517578125,-0.54931640625,0.91552734375,-0.0164794921875,37.9412841796875,-90.2911376953125
1758873649.7236032,-0.6220703125,-0.03125,0.796875,2.685546875,-0.3662109375,1.03759765625,0.0,37.935791015625,-90.28564453125
1758873649.7332559,-0.6220703125,-0.03125,0.796875,2.685546875,-0.3662109375,1.03759765625,0.032958984375,37.935791015625,-90.274658203125
1758873649.7432904,-0.61572265625,-0.0107421875,0.7890625,3.5400390625,0.18310546875,1.0986328125,0.0714111328125,37.935791015625,-90.2691650390625
1758873649.7533615,-0.61572265625,-0.0107421875,0.7890625,3.5400390625,0.18310546875,1.0986328125,0.1153564453125,37.9412841796875,-90.2581787109375
1758873649.7662785,-0.619140625,0.02294921875,0.7890625,3.662109375,0.18310546875,0.67138671875,0.15380859375,37.9412841796875,-90.252685546875
1758873649.7740967,-0.619140625,0.02294921875,0.7890625,3.662109375,0.18310546875,0.67138671875,0.1922607421875,37.94677734375,-90.252685546875
1758873649.7833195,-0.61279296875,0.01953125,0.77734375,4.82177734375,0.0,0.0,0.2362060546875,37.94677734375,-90.252685546875
1758873649.7938218,-0.61279296875,0.01953125,0.77734375,4.82177734375,0.0,0.0,0.2801513671875,37.9522705078125,-90.252685546875
1758873649.8033638,-0.63720703125,0.01416015625,0.7978515625,5.55419921875,0.1220703125,-0.3662109375,0.3350830078125,37.9522705078125,-90.2581787109375
1758873649.8133998,-0.63720703125,0.01416015625,0.7978515625,5.55419921875,0.1220703125,-0.3662109375,0.384521484375,37.9522705078125,-90.263671875
1758873649.8234982,-0.6318359375,0.01220703125,0.78564453125,3.90625,0.30517578125,-0.54931640625,0.428466796875,37.957763671875,-90.274658203125
1758873649.8333602,-0.6318359375,0.01220703125,0.78564453125,3.90625,0.30517578125,-0.54931640625,0.46142578125,37.9632568359375,-90.2801513671875
1758873649.843431,-0.6181640625,0.005859375,0.7802734375,2.13623046875,0.42724609375,-0.42724609375,0.4888916015625,37.96875,-90.2911376953125
1758873649.8537815,-0.6181640625,0.005859375,0.7802734375,2.13623046875,0.42724609375,-0.42724609375,0.50537109375,37.979736328125,-90.296630859375
1758873649.8635004,-0.611328125,0.00439453125,0.78125,0.244140625,0.54931640625,-0.244140625,0.516357421875,37.9852294921875,-90.3021240234375
1758873649.8735826,-0.611328125,0.00439453125,0.78125,0.244140625,0.54931640625,-0.244140625,0.516357421875,37.99072265625,-90.3076171875
1758873649.8835044,-0.62158203125,0.01025390625,0.80078125,-0.1220703125,0.6103515625,-0.244140625,0.516357421875,38.001708984375,-90.3131103515625
1758873649.8939052,-0.62158203125,0.01025390625,0.80078125,-0.1220703125,0.6103515625,-0.244140625,0.5108642578125,38.0072021484375,-90.318603515625
1758873649.9035265,-0.61572265625,0.013671875,0.77880859375,1.953125,0.91552734375,-0.30517578125,0.516357421875,38.0181884765625,-90.3240966796875
1758873649.913493,-0.61572265625,0.013671875,0.77880859375,1.953125,0.91552734375,-0.30517578125,0.5328369140625,38.023681640625,-90.32958984375
1758873649.923868,-0.61474609375,0.00732421875,0.7734375,3.41796875,0.9765625,-0.3662109375,0.560302734375,38.03466796875,-90.3350830078125
1758873649.9335098,-0.61474609375,0.00732421875,0.7734375,3.41796875,0.9765625,-0.3662109375,0.59326171875,38.045654296875,-90.3460693359375
1758873649.9435525,-0.61376953125,0.0107421875,0.796875,0.732421875,1.28173828125,-0.54931640625,0.6097412109375,38.0621337890625,-90.3515625
1758873649.9535336,-0.61376953125,0.0107421875,0.796875,0.732421875,1.28173828125,-0.54931640625,0.6097412109375,38.0731201171875,-90.362548828125
1758873649.9640205,-0.60498046875,0.01611328125,0.79931640625,-1.3427734375,1.3427734375,-0.3662109375,0.604248046875,38.089599609375,-90.37353515625
1758873649.9735296,-0.60498046875,0.01611328125,0.79931640625,-1.3427734375,1.3427734375,-0.3662109375,0.5877685546875,38.1005859375,-90.3790283203125
1758873649.983608,-0.609375,0.01318359375,0.7841796875,-3.0517578125,1.15966796875,-0.1220703125,0.5657958984375,38.111572265625,-90.384521484375
1758873649.9939387,-0.609375,0.01318359375,0.7841796875,-3.0517578125,1.15966796875,-0.1220703125,0.538330078125,38.12255859375,-90.384521484375
1758873650.0036597,-0.61572265625,0.001953125,0.7880859375,-2.3193359375,1.0986328125,-0.244140625,0.5108642578125,38.133544921875,-90.3900146484375
1758873650.0136535,-0.61572265625,0.001953125,0.7880859375,-2.3193359375,1.0986328125,-0.244140625,0.4833984375,38.14453125,-90.3955078125
1758873650.024116,-0.60498046875,-0.00048828125,0.79345703125,0.67138671875,0.732421875,-0.6103515625,0.472412109375,38.1500244140625,-90.406494140625
1758873650.0337713,-0.60498046875,-0.00048828125,0.79345703125,0.67138671875,0.732421875,-0.6103515625,0.4779052734375,38.155517578125,-90.4119873046875
1758873650.0437562,-0.61962890625,0.0029296875,0.7919921875,0.732421875,0.48828125,-0.8544921875,0.4779052734375,38.1610107421875,-90.428466796875
1758873650.0540802,-0.61962890625,0.0029296875,0.7919921875,0.732421875,0.48828125,-0.8544921875,0.4779052734375,38.16650390625,-90.439453125
1758873650.0659308,-0.62255859375,0.01123046875,0.7666015625,0.0,0.48828125,-0.91552734375,0.4779052734375,38.16650390625,-90.4559326171875
1758873650.0737312,-0.62255859375,0.01123046875,0.7666015625,0.0,0.48828125,-0.91552734375,0.4669189453125,38.1719970703125,-90.4669189453125
1758873650.0837584,-0.62841796875,0.0078125,0.7890625,0.91552734375,0.54931640625,-0.732421875,0.4669189453125,38.177490234375,-90.4779052734375
1758873650.0941927,-0.62841796875,0.0078125,0.7890625,0.91552734375,0.54931640625,-0.732421875,0.472412109375,38.1829833984375,-90.4888916015625
1758873650.1038465,-0.6142578125,0.0048828125,0.79052734375,1.0986328125,0.732421875,-0.79345703125,0.4779052734375,38.1884765625,-90.4998779296875
1758873650.1137657,-0.6142578125,0.0048828125,0.79052734375,1.0986328125,0.732421875,-0.79345703125,0.4779052734375,38.1939697265625,-90.5108642578125
1758873650.1240857,-0.6142578125,0.0048828125,0.79052734375,1.03759765625,0.67138671875,-0.8544921875,0.4833984375,38.199462890625,-90.52734375
1758873650.133794,-0.6025390625,0.005859375,0.79052734375,1.03759765625,0.67138671875,-0.8544921875,0.4888916015625,38.2049560546875,-90.538330078125
1758873650.1438243,-0.6123046875,0.01025390625,0.79296875,0.3662109375,0.30517578125,-0.732421875,0.4888916015625,38.21044921875,-90.54931640625
1758873650.1538491,-0.6123046875,0.01025390625,0.79296875,0.3662109375,0.30517578125,-0.732421875,0.4888916015625,38.21044921875,-90.560302734375
1758873650.1640909,-0.61181640625,0.0048828125,0.787109375,2.3193359375,0.0,-0.732421875,0.494384765625,38.21044921875,-90.5712890625
1758873650.173916,-0.61181640625,0.0048828125,0.787109375,2.3193359375,0.0,-0.732421875,0.5108642578125,38.21044921875,-90.582275390625
1758873650.1838543,-0.6103515625,-0.0009765625,0.79736328125,-0.67138671875,0.18310546875,-0.30517578125,0.516357421875,38.21044921875,-90.59326171875
1758873650.194286,-0.6103515625,-0.0009765625,0.79736328125,-0.67138671875,0.18310546875,-0.30517578125,0.50537109375,38.21044921875,-90.5987548828125
1758873650.2040005,-0.61181640625,0.02392578125,0.8154296875,-0.54931640625,0.6103515625,-0.1220703125,0.4998779296875,38.21044921875,-90.604248046875
1758873650.213901,-0.61181640625,0.02392578125,0.8154296875,-0.54931640625,0.6103515625,-0.1220703125,0.494384765625,38.21044921875,-90.6097412109375
1758873650.2239628,-0.6123046875,0.01806640625,0.77685546875,-0.8544921875,0.8544921875,0.06103515625,0.4888916015625,38.2159423828125,-90.6097412109375
1758873650.23423,-0.6123046875,0.01806640625,0.77685546875,-0.8544921875,0.8544921875,0.06103515625,0.4779052734375,38.221435546875,-90.6097412109375
1758873650.2439258,-0.6240234375,0.00732421875,0.77587890625,-2.8076171875,1.28173828125,0.0,0.46142578125,38.232421875,-90.6097412109375
1758873650.253933,-0.6240234375,0.00732421875,0.77587890625,-2.8076171875,1.28173828125,0.0,0.439453125,38.243408203125,-90.6097412109375
1758873650.264156,-0.6142578125,0.0009765625,0.79833984375,-2.38037109375,1.77001953125,-0.18310546875,0.4119873046875,38.25439453125,-90.615234375
1758873650.273959,-0.6142578125,0.0009765625,0.79833984375,-2.38037109375,1.77001953125,-0.18310546875,0.3900146484375,38.2708740234375,-90.615234375
1758873650.2839725,-0.61767578125,0.00439453125,0.80029296875,-1.64794921875,2.13623046875,-0.18310546875,0.3680419921875,38.287353515625,-90.6207275390625
1758873650.294234,-0.61767578125,0.00439453125,0.80029296875,-1.64794921875,2.13623046875,-0.18310546875,0.3515625,38.3038330078125,-90.6207275390625
1758873650.3040564,-0.62451171875,-0.00048828125,0.79296875,-2.25830078125,2.685546875,0.0,0.3350830078125,38.3258056640625,-90.626220703125
1758873650.3139503,-0.62451171875,-0.00048828125,0.79296875,-2.25830078125,2.685546875,0.0,0.3131103515625,38.353271484375,-90.626220703125
1758873650.324342,-0.634765625,-0.00537109375,0.7890625,-1.8310546875,3.2958984375,0.0,0.2911376953125,38.375244140625,-90.626220703125
1758873650.3341894,-0.634765625,-0.00537109375,0.7890625,-1.8310546875,3.2958984375,0.0,0.274658203125,38.408203125,-90.6317138671875
1758873650.3440902,-0.6357421875,0.0029296875,0.77197265625,-2.44140625,4.2724609375,-0.54931640625,0.252685546875,38.4466552734375,-90.63720703125
1758873650.3540795,-0.6357421875,0.0029296875,0.77197265625,-2.44140625,4.2724609375,-0.54931640625,0.2252197265625,38.485107421875,-90.6427001953125
1758873650.3644176,-0.630859375,0.0224609375,0.7744140625,-1.5869140625,4.94384765625,-0.91552734375,0.19775390625,38.529052734375,-90.6536865234375
1758873650.3740811,-0.630859375,0.0224609375,0.7744140625,-1.5869140625,4.94384765625,-0.91552734375,0.17578125,38.5784912109375,-90.6646728515625
1758873650.384116,-0.62548828125,0.01904296875,0.78564453125,-2.38037109375,4.7607421875,-1.220703125,0.1483154296875,38.6279296875,-90.68115234375
1758873650.3941097,-0.62548828125,0.01904296875,0.78564453125,-2.38037109375,4.7607421875,-1.220703125,0.120849609375,38.671875,-90.692138671875
1758873650.404223,-0.626953125,0.00634765625,0.78076171875,-5.06591796875,3.96728515625,-1.15966796875,0.076904296875,38.7158203125,-90.7086181640625
1758873650.4141486,-0.626953125,0.00634765625,0.78076171875,-5.06591796875,3.96728515625,-1.15966796875,0.02197265625,38.7542724609375,-90.7196044921875
1758873650.424261,-0.62646484375,-0.0166015625,0.76220703125,-3.2958984375,3.60107421875,-0.79345703125,-0.02197265625,38.792724609375,-90.7305908203125
1758873650.4341974,-0.62646484375,-0.0166015625,0.76220703125,-3.2958984375,3.60107421875,-0.79345703125,-0.054931640625,38.82568359375,-90.7415771484375
1758873650.4443607,-0.6279296875,-0.01611328125,0.78076171875,-1.28173828125,3.60107421875,-0.91552734375,-0.0823974609375,38.858642578125,-90.7525634765625
1758873650.454526,-0.6279296875,-0.01611328125,0.78076171875,-1.28173828125,3.60107421875,-0.91552734375,-0.1043701171875,38.8970947265625,-90.7635498046875
1758873650.4642212,-0.63037109375,-0.0078125,0.7861328125,0.244140625,3.662109375,-0.48828125,-0.1153564453125,38.9300537109375,-90.7745361328125
1758873650.4742026,-0.63037109375,-0.0078125,0.7861328125,0.244140625,3.662109375,-0.48828125,-0.1153564453125,38.968505859375,-90.7855224609375
1758873650.4842455,-0.63330078125,-0.0107421875,0.77294921875,2.8076171875,3.72314453125,-0.67138671875,-0.1043701171875,39.00146484375,-90.7965087890625
1758873650.4947107,-0.63330078125,-0.0107421875,0.77294921875,2.8076171875,3.72314453125,-0.67138671875,-0.0823974609375,39.0399169921875,-90.8074951171875
1758873650.5044322,-0.63623046875,0.0048828125,0.759765625,4.638671875,3.96728515625,-1.15966796875,-0.054931640625,39.0728759765625,-90.8184814453125
1758873650.5143056,-0.63623046875,0.0048828125,0.759765625,4.638671875,3.96728515625,-1.15966796875,-0.0164794921875,39.111328125,-90.8404541015625
1758873650.5243933,-0.63232421875,0.0078125,0.77294921875,4.8828125,4.5166015625,-1.708984375,0.010986328125,39.1607666015625,-90.8624267578125
1758873650.5343416,-0.63232421875,0.0078125,0.77294921875,4.8828125,4.5166015625,-1.708984375,0.0494384765625,39.2047119140625,-90.8843994140625
1758873650.544379,-0.62451171875,0.01025390625,0.79736328125,5.43212890625,5.31005859375,-2.50244140625,0.0823974609375,39.254150390625,-90.9228515625
1758873650.5545995,-0.62451171875,0.01025390625,0.79736328125,5.43212890625,5.31005859375,-2.50244140625,0.1153564453125,39.3035888671875,-90.955810546875
1758873650.5644798,-0.61767578125,0.0185546875,0.78271484375,6.53076171875,5.4931640625,-3.35693359375,0.15380859375,39.3585205078125,-90.9942626953125
1758873650.5743318,-0.61767578125,0.0185546875,0.78271484375,6.53076171875,5.4931640625,-3.35693359375,0.1922607421875,39.407958984375,-91.0382080078125
1758873650.5843866,-0.6201171875,0.0244140625,0.78955078125,0.91552734375,5.37109375,-3.173828125,0.17578125,39.4573974609375,-91.07666015625
1758873650.5947301,-0.6201171875,0.0244140625,0.78955078125,0.91552734375,5.37109375,-3.173828125,0.164794921875,39.5068359375,-91.12060546875
1758873650.6045444,-0.61181640625,0.0107421875,0.77734375,-2.25830078125,5.126953125,-2.5634765625,0.120849609375,39.55078125,-91.1480712890625
1758873650.6144223,-0.61181640625,0.0107421875,0.77734375,-2.25830078125,5.126953125,-2.5634765625,0.0823974609375,39.5947265625,-91.1810302734375
1758873650.6246789,-0.61767578125,-0.025390625,0.7919921875,-1.8310546875,5.126953125,-2.50244140625,0.0439453125,39.638671875,-91.20849609375
1758873650.6344368,-0.61767578125,-0.025390625,0.7919921875,-1.8310546875,5.126953125,-2.50244140625,0.0054931640625,39.6826171875,-91.241455078125
1758873650.6445067,-0.6171875,-0.01904296875,0.79248046875,0.91552734375,5.2490234375,-2.197265625,0.0,39.7320556640625,-91.2744140625
1758873650.6547275,-0.6171875,-0.01904296875,0.79248046875,0.91552734375,5.2490234375,-2.197265625,-0.0054931640625,39.7760009765625,-91.3018798828125
1758873650.6666605,-0.6171875,0.00341796875,0.78125,2.86865234375,5.0048828125,-2.44140625,0.0,39.814453125,-91.34033203125
1758873650.674446,-0.6171875,0.00341796875,0.78125,2.86865234375,5.0048828125,-2.44140625,0.0054931640625,39.8583984375,-91.373291015625
1758873650.6847394,-0.6357421875,0.01318359375,0.77587890625,2.0751953125,4.57763671875,-2.8076171875,0.0,39.891357421875,-91.40625
1758873650.6950161,-0.6357421875,0.01318359375,0.77587890625,2.0751953125,4.57763671875,-2.8076171875,0.0,39.9298095703125,-91.4447021484375
1758873650.704602,-0.6328125,0.01611328125,0.75048828125,-0.9765625,4.39453125,-2.685546875,-0.02197265625,39.96826171875,-91.483154296875
1758873650.7146416,-0.6328125,0.01611328125,0.75048828125,-0.9765625,4.39453125,-2.685546875,-0.054931640625,40.001220703125,-91.51611328125
1758873650.7253807,-0.64306640625,0.0009765625,0.78271484375,-2.38037109375,4.45556640625,-2.9296875,-0.098876953125,40.0396728515625,-91.549072265625
1758873650.7345972,-0.64306640625,0.0009765625,0.78271484375,-2.38037109375,4.45556640625,-2.9296875,-0.1483154296875,40.078125,-91.5875244140625
1758873650.74468,-0.6337890625,-0.0068359375,0.78173828125,-1.0986328125,4.39453125,-3.2958984375,-0.1812744140625,40.1165771484375,-91.6314697265625
1758873650.7547395,-0.6337890625,-0.0068359375,0.78173828125,-1.0986328125,4.39453125,-3.2958984375,-0.2197265625,40.1495361328125,-91.669921875
1758873650.7646718,-0.630859375,0.00439453125,0.7646484375,-2.74658203125,4.2724609375,-3.23486328125,-0.2691650390625,40.18798828125,-91.7138671875
1758873650.77464,-0.630859375,0.00439453125,0.7646484375,-2.74658203125,4.2724609375,-3.23486328125,-0.3240966796875,40.220947265625,-91.7523193359375
1758873650.7847097,-0.6259765625,0.0068359375,0.77587890625,-5.2490234375,3.96728515625,-2.74658203125,-0.3955078125,40.25390625,-91.7852783203125
1758873650.7948165,-0.6259765625,0.0068359375,0.77587890625,-5.2490234375,3.96728515625,-2.74658203125,-0.4669189453125,40.286865234375,-91.8182373046875
1758873650.8048205,-0.61962890625,0.00146484375,0.7861328125,-6.103515625,3.662109375,-2.50244140625,-0.5438232421875,40.3143310546875,-91.845703125
1758873650.8147292,-0.61962890625,0.00146484375,0.7861328125,-6.103515625,3.662109375,-2.50244140625,-0.6207275390625,40.341796875,-91.878662109375
1758873650.8256912,-0.6259765625,-0.0166015625,0.76953125,-5.615234375,3.47900390625,-2.25830078125,-0.692138671875,40.3692626953125,-91.900634765625
1758873650.834835,-0.6259765625,-0.0166015625,0.76953125,-5.615234375,3.47900390625,-2.25830078125,-0.7635498046875,40.396728515625,-91.9281005859375
1758873650.845405,-0.62646484375,-0.0341796875,0.783203125,-2.25830078125,3.0517578125,-2.44140625,-0.8074951171875,40.4132080078125,-91.9610595703125
1758873650.8547914,-0.62646484375,-0.0341796875,0.783203125,-2.25830078125,3.0517578125,-2.44140625,-0.845947265625,40.4351806640625,-91.988525390625
1758873650.8651717,-0.6162109375,-0.02099609375,0.796875,-2.62451171875,2.50244140625,-2.38037109375,-0.889892578125,40.45166015625,-92.021484375
1758873650.874752,-0.6162109375,-0.02099609375,0.796875,-2.62451171875,2.50244140625,-2.38037109375,-0.9393310546875,40.462646484375,-92.054443359375
1758873650.8811018,-0.6162109375,-0.02099609375,0.796875,-2.62451171875,2.50244140625,-2.38037109375,43.83544921875,44.2144775390625,-121.1846923828125
1758873650.885137,-0.61865234375,0.0087890625,0.7685546875,-4.39453125,2.197265625,-2.38037109375,-0.999755859375,40.4736328125,-92.0819091796875
1758873650.8948762,-0.61865234375,0.0087890625,0.7685546875,-4.39453125,2.197265625,-2.38037109375,-1.0601806640625,40.484619140625,-92.1148681640625
1758873650.9052234,-0.6416015625,-0.00146484375,0.77587890625,-5.43212890625,2.197265625,-2.50244140625,-1.131591796875,40.49560546875,-92.142333984375
1758873650.9148607,-0.6416015625,-0.00146484375,0.77587890625,-5.43212890625,2.197265625,-2.50244140625,-1.2030029296875,40.506591796875,-92.1697998046875
1758873650.9253347,-0.650390625,-0.0263671875,0.771484375,-4.57763671875,2.86865234375,-2.50244140625,-1.2689208984375,40.528564453125,-92.197265625
1758873650.9348915,-0.650390625,-0.0263671875,0.771484375,-4.57763671875,2.86865234375,-2.50244140625,-1.329345703125,40.5450439453125,-92.230224609375
1758873650.945183,-0.64892578125,-0.03759765625,0.76220703125,-1.64794921875,3.23486328125,-2.74658203125,-1.3677978515625,40.572509765625,-92.26318359375
1758873650.9552276,-0.64892578125,-0.03759765625,0.76220703125,-1.64794921875,3.23486328125,-2.74658203125,-1.40625,40.594482421875,-92.296142578125
1758873650.9670393,-0.64599609375,-0.0341796875,0.76025390625,1.15966796875,3.173828125,-2.62451171875,-1.417236328125,40.616455078125,-92.3345947265625
1758873650.9749267,-0.64599609375,-0.0341796875,0.76025390625,1.15966796875,3.173828125,-2.62451171875,-1.42822265625,40.6439208984375,-92.3675537109375
1758873650.985178,-0.640625,-0.01953125,0.75830078125,1.28173828125,2.86865234375,-2.62451171875,-1.439208984375,40.6658935546875,-92.4005126953125
1758873650.9953682,-0.640625,-0.01953125,0.75830078125,1.28173828125,2.86865234375,-2.62451171875,-1.4447021484375,40.6878662109375,-92.43896484375
1758873651.0052788,-0.64892578125,-0.00244140625,0.759765625,-0.18310546875,2.50244140625,-2.25830078125,-1.4666748046875,40.704345703125,-92.4664306640625
1758873651.0150027,-0.64892578125,-0.00244140625,0.759765625,-0.18310546875,2.50244140625,-2.25830078125,-1.4886474609375,40.7208251953125,-92.493896484375
1758873651.0257785,-0.65966796875,-0.0029296875,0.76953125,-2.62451171875,2.01416015625,-1.5869140625,-1.527099609375,40.7373046875,-92.5103759765625
1758873651.0350606,-0.65966796875,-0.0029296875,0.76953125,-2.62451171875,2.01416015625,-1.5869140625,-1.56005859375,40.7537841796875,-92.52685546875
1758873651.045178,-0.64404296875,-0.01806640625,0.74169921875,-10.3759765625,1.220703125,-0.9765625,-1.669921875,40.75927734375,-92.537841796875
1758873651.05518,-0.64404296875,-0.01806640625,0.74169921875,-10.3759765625,1.220703125,-0.9765625,-1.77978515625,40.7647705078125,-92.5433349609375
1758873651.0652592,-0.65673828125,-0.01806640625,0.76513671875,-11.8408203125,0.48828125,-0.6103515625,-1.8951416015625,40.770263671875,-92.548828125
1758873651.07508,-0.65673828125,-0.01806640625,0.76513671875,-11.8408203125,0.48828125,-0.6103515625,-2.0159912109375,40.770263671875,-92.548828125
1758873651.0851743,-0.6376953125,-0.04248046875,0.76123046875,-7.75146484375,0.30517578125,-0.732421875,-2.0928955078125,40.770263671875,-92.5543212890625
1758873651.095415,-0.6376953125,-0.04248046875,0.76123046875,-7.75146484375,0.30517578125,-0.732421875,-2.17529296875,40.770263671875,-92.559814453125
1758873651.105278,-0.64013671875,-0.05126953125,0.74169921875,-4.57763671875,0.18310546875,-0.54931640625,-2.2247314453125,40.7647705078125,-92.559814453125
1758873651.11516,-0.64013671875,-0.05126953125,0.74169921875,-4.57763671875,0.18310546875,-0.54931640625,-2.2686767578125,40.7647705078125,-92.5653076171875
1758873651.1257484,-0.6552734375,-0.06005859375,0.75927734375,0.9765625,0.48828125,-0.732421875,-2.2686767578125,40.7647705078125,-92.5762939453125
1758873651.1351728,-0.6552734375,-0.06005859375,0.75927734375,0.9765625,0.48828125,-0.732421875,-2.26318359375,40.770263671875,-92.5872802734375
1758873651.145236,-0.6416015625,-0.04443359375,0.75537109375,5.126953125,0.732421875,-0.67138671875,-2.21923828125,40.7757568359375,-92.5982666015625
1758873651.1553605,-0.6416015625,-0.04443359375,0.75537109375,5.126953125,0.732421875,-0.67138671875,-2.17529296875,40.7757568359375,-92.6092529296875
1758873651.1652327,-0.650390625,-0.02978515625,0.76416015625,3.11279296875,0.79345703125,-0.30517578125,-2.1533203125,40.78125,-92.61474609375
1758873651.1751575,-0.650390625,-0.02978515625,0.76416015625,3.11279296875,0.79345703125,-0.30517578125,-2.1258544921875,40.7867431640625,-92.6202392578125
1758873651.1853633,-0.6669921875,-0.02392578125,0.75146484375,6.40869140625,0.79345703125,-0.79345703125,-2.0709228515625,40.792236328125,-92.6312255859375
1758873651.1952446,-0.6669921875,-0.02392578125,0.75146484375,6.40869140625,0.79345703125,-0.79345703125,-2.0159912109375,40.80322265625,-92.6422119140625
1758873651.205233,-0.67431640625,-0.033203125,0.7412109375,8.1787109375,0.9765625,-1.220703125,-1.9500732421875,40.8087158203125,-92.65869140625
1758873651.2152057,-0.67431640625,-0.033203125,0.7412109375,8.1787109375,0.9765625,-1.220703125,-1.878662109375,40.8197021484375,-92.6751708984375
1758873651.225621,-0.68017578125,-0.0380859375,0.7216796875,10.55908203125,1.0986328125,-1.3427734375,-1.790771484375,40.8306884765625,-92.6971435546875
1758873651.2352407,-0.68017578125,-0.0380859375,0.7216796875,10.55908203125,1.0986328125,-1.3427734375,-1.702880859375,40.8416748046875,-92.7191162109375
1758873651.2452967,-0.69189453125,-0.0390625,0.74267578125,11.962890625,1.52587890625,-2.01416015625,-1.60400390625,40.8636474609375,-92.74658203125
1758873651.2553992,-0.69189453125,-0.0390625,0.74267578125,11.962890625,1.52587890625,-2.01416015625,-1.5106201171875,40.880126953125,-92.779541015625
1758873651.2652967,-0.681640625,-0.00927734375,0.73291015625,15.13671875,1.64794921875,-2.38037109375,-1.38427734375,40.902099609375,-92.8179931640625
1758873651.2752926,-0.681640625,-0.00927734375,0.73291015625,15.13671875,1.64794921875,-2.38037109375,-1.263427734375,40.924072265625,-92.8509521484375
1758873651.2854376,-0.68115234375,-0.01123046875,0.7421875,14.0380859375,1.15966796875,-2.38037109375,-1.1480712890625,40.9405517578125,-92.8839111328125
1758873651.295391,-0.68115234375,-0.01123046875,0.7421875,14.0380859375,1.15966796875,-2.38037109375,-1.03271484375,40.95703125,-92.92236328125
1758873651.3053782,-0.66552734375,0.00048828125,0.74072265625,11.41357421875,0.732421875,-2.01416015625,-0.94482421875,40.9735107421875,-92.9498291015625
1758873651.315527,-0.66552734375,0.00048828125,0.74072265625,11.41357421875,0.732421875,-2.01416015625,-0.8514404296875,40.9844970703125,-92.977294921875
1758873651.3258524,-0.67236328125,0.0029296875,0.74951171875,5.7373046875,0.18310546875,-1.40380859375,-0.8074951171875,40.989990234375,-92.999267578125
1758873651.3353846,-0.67236328125,0.0029296875,0.74951171875,5.7373046875,0.18310546875,-1.40380859375,-0.76904296875,41.0009765625,-93.0157470703125
1758873651.345389,-0.67626953125,0.00830078125,0.76220703125,-2.197265625,-0.30517578125,-0.732421875,-0.7965087890625,41.0009765625,-93.0267333984375
1758873651.3555455,-0.67626953125,0.00830078125,0.76220703125,-2.197265625,-0.30517578125,-0.732421875,-0.8294677734375,41.0064697265625,-93.0322265625
1758873651.365433,-0.6748046875,-0.001953125,0.7294921875,-5.2490234375,-0.3662109375,-0.06103515625,-0.87890625,41.0064697265625,-93.0322265625
1758873651.3754356,-0.6748046875,-0.001953125,0.7294921875,-5.2490234375,-0.3662109375,-0.06103515625,-0.933837890625,41.011962890625,-93.0267333984375
1758873651.3856997,-0.662109375,-0.02197265625,0.75390625,-6.591796875,-0.8544921875,0.06103515625,-0.999755859375,41.0064697265625,-93.0267333984375
1758873651.3955617,-0.662109375,-0.02197265625,0.75390625,-6.591796875,-0.8544921875,0.06103515625,-1.0601806640625,41.0064697265625,-93.021240234375
1758873651.405531,-0.6728515625,-0.017578125,0.732421875,-5.43212890625,-0.732421875,0.244140625,-1.1151123046875,41.0009765625,-93.0157470703125
1758873651.415487,-0.6728515625,-0.017578125,0.732421875,-5.43212890625,-0.732421875,0.244140625,-1.16455078125,41.0009765625,-93.01025390625
1758873651.425826,-0.6689453125,-0.01123046875,0.7353515625,-4.57763671875,-0.732421875,0.0,-1.20849609375,41.0009765625,-93.01025390625
1758873651.4354644,-0.6689453125,-0.01123046875,0.7353515625,-4.57763671875,-0.732421875,0.0,-1.25244140625,41.0009765625,-93.0047607421875
1758873651.445566,-0.66650390625,-0.0126953125,0.75146484375,-5.18798828125,-0.79345703125,-0.06103515625,-1.3018798828125,40.9954833984375,-93.0047607421875
1758873651.4556267,-0.66650390625,-0.0126953125,0.75146484375,-5.18798828125,-0.79345703125,-0.06103515625,-1.3568115234375,40.9954833984375,-92.999267578125
1758873651.4655585,-0.6513671875,-0.01513671875,0.744140625,-7.080078125,-0.79345703125,0.18310546875,-1.4227294921875,40.9954833984375,-92.9937744140625
1758873651.4755828,-0.6513671875,-0.01513671875,0.744140625,-7.080078125,-0.79345703125,0.18310546875,-1.4886474609375,40.989990234375,-92.98828125
1758873651.4855492,-0.65576171875,-0.02490234375,0.7568359375,-7.32421875,-0.79345703125,0.244140625,-1.5545654296875,40.989990234375,-92.9827880859375
1758873651.4959989,-0.65576171875,-0.02490234375,0.7568359375,-7.32421875,-0.79345703125,0.244140625,-1.6259765625,40.9844970703125,-92.977294921875
1758873651.505656,-0.64892578125,-0.0361328125,0.7607421875,-5.18798828125,-0.8544921875,0.18310546875,-1.669921875,40.97900390625,-92.9718017578125
1758873651.5156212,-0.64892578125,-0.0361328125,0.7607421875,-5.18798828125,-0.8544921875,0.18310546875,-1.7193603515625,40.9735107421875,-92.96630859375
1758873651.5263886,-0.64453125,-0.02685546875,0.7607421875,-2.9296875,-0.9765625,0.30517578125,-1.746826171875,40.968017578125,-92.9608154296875
1758873651.5355937,-0.6416015625,-0.03076171875,0.75732421875,-2.50244140625,-1.15966796875,0.3662109375,-1.768798828125,40.95703125,-92.955322265625
1758873651.5455987,-0.6416015625,-0.03076171875,0.75732421875,-2.50244140625,-1.15966796875,0.3662109375,-1.790771484375,40.946044921875,-92.9498291015625
1758873651.55583,-0.63671875,-0.0263671875,0.76416015625,1.0986328125,-0.9765625,0.30517578125,-1.790771484375,40.93505859375,-92.9443359375
1758873651.5669026,-0.63671875,-0.0263671875,0.76416015625,1.0986328125,-0.9765625,0.30517578125,-1.77978515625,40.9295654296875,-92.9388427734375
1758873651.5756664,-0.6494140625,-0.02880859375,0.77392578125,3.47900390625,-1.03759765625,0.06103515625,-1.7523193359375,40.9185791015625,-92.933349609375
1758873651.5856686,-0.6494140625,-0.02880859375,0.77392578125,3.47900390625,-1.03759765625,0.06103515625,-1.7193603515625,40.9075927734375,-92.933349609375
1758873651.5962467,-0.658203125,-0.02001953125,0.76220703125,2.74658203125,-1.5869140625,0.30517578125,-1.6864013671875,40.89111328125,-92.9278564453125
1758873651.605812,-0.658203125,-0.02001953125,0.76220703125,2.74658203125,-1.5869140625,0.30517578125,-1.6534423828125,40.8746337890625,-92.92236328125
1758873651.6157894,-0.65478515625,-0.01806640625,0.73779296875,0.67138671875,-2.197265625,0.79345703125,-1.636962890625,40.8526611328125,-92.9168701171875
1758873651.622171,-0.65478515625,-0.01806640625,0.73779296875,0.67138671875,-2.197265625,0.79345703125,43.8739013671875,45.0164794921875,-121.6351318359375
1758873651.626679,-0.65478515625,-0.01806640625,0.73779296875,0.67138671875,-2.197265625,0.79345703125,-1.6204833984375,40.8306884765625,-92.900390625
1758873651.6357415,-0.6484375,-0.02392578125,0.75048828125,0.732421875,-2.13623046875,0.67138671875,-1.6094970703125,40.8087158203125,-92.889404296875
1758873651.645708,-0.6484375,-0.02392578125,0.75048828125,0.732421875,-2.13623046875,0.67138671875,-1.593017578125,40.792236328125,-92.87841796875
1758873651.6558464,-0.64111328125,-0.0205078125,0.7685546875,2.5634765625,-2.62451171875,0.6103515625,-1.571044921875,40.7647705078125,-92.867431640625
1758873651.6657403,-0.64111328125,-0.0205078125,0.7685546875,2.5634765625,-2.62451171875,0.6103515625,-1.5435791015625,40.7427978515625,-92.8619384765625
1758873651.675843,-0.6435546875,-0.0185546875,0.77001953125,2.62451171875,-2.9296875,0.42724609375,-1.5106201171875,40.71533203125,-92.8564453125
1758873651.685796,-0.6435546875,-0.0185546875,0.77001953125,2.62451171875,-2.9296875,0.42724609375,-1.483154296875,40.682373046875,-92.845458984375
1758873651.6962419,-0.65234375,-0.0244140625,0.755859375,2.99072265625,-3.173828125,0.42724609375,-1.4501953125,40.6494140625,-92.8399658203125
1758873651.705992,-0.65234375,-0.0244140625,0.755859375,2.99072265625,-3.173828125,0.42724609375,-1.417236328125,40.6219482421875,-92.83447265625
1758873651.71589,-0.67626953125,-0.02587890625,0.75927734375,3.662109375,-3.35693359375,0.42724609375,-1.38427734375,40.5889892578125,-92.8289794921875
1758873651.7266777,-0.67626953125,-0.02587890625,0.75927734375,3.662109375,-3.35693359375,0.42724609375,-1.3458251953125,40.5560302734375,-92.823486328125
1758873651.7358665,-0.6669921875,-0.0166015625,0.7412109375,6.04248046875,-3.11279296875,0.06103515625,-1.29638671875,40.5230712890625,-92.8179931640625
1758873651.7458558,-0.6669921875,-0.0166015625,0.7412109375,6.04248046875,-3.11279296875,0.06103515625,-1.2359619140625,40.49560546875,-92.8179931640625
1758873651.7561538,-0.65234375,-0.01220703125,0.7392578125,6.89697265625,-3.35693359375,-0.42724609375,-1.175537109375,40.4681396484375,-92.823486328125
1758873651.7660847,-0.65234375,-0.01220703125,0.7392578125,6.89697265625,-3.35693359375,-0.42724609375,-1.109619140625,40.4351806640625,-92.8289794921875
1758873651.7759733,-0.65234375,-0.001953125,0.76220703125,5.4931640625,-3.72314453125,-0.54931640625,-1.0546875,40.4022216796875,-92.83447265625
1758873651.7862096,-0.65234375,-0.001953125,0.76220703125,5.4931640625,-3.72314453125,-0.54931640625,-1.0052490234375,40.3692626953125,-92.845458984375
1758873651.796245,-0.646484375,-0.01318359375,0.76611328125,3.173828125,-4.21142578125,0.0,-0.966796875,40.3363037109375,-92.845458984375
1758873651.805968,-0.646484375,-0.01318359375,0.76611328125,3.173828125,-4.21142578125,0.0,-0.933837890625,40.2978515625,-92.845458984375
1758873651.8160222,-0.64697265625,-0.0224609375,0.765625,1.0986328125,-4.5166015625,0.79345703125,-0.911865234375,40.25390625,-92.8399658203125
1758873651.826855,-0.64697265625,-0.0224609375,0.765625,1.0986328125,-4.5166015625,0.79345703125,-0.8953857421875,40.2154541015625,-92.8289794921875
1758873651.8360505,-0.6435546875,-0.03662109375,0.765625,3.60107421875,-4.5166015625,1.28173828125,-0.867919921875,40.1715087890625,-92.8179931640625
1758873651.845992,-0.6435546875,-0.03662109375,0.765625,3.60107421875,-4.5166015625,1.28173828125,-0.823974609375,40.1275634765625,-92.8070068359375
1758873651.8562415,-0.6357421875,-0.01513671875,0.7685546875,4.7607421875,-4.638671875,0.732421875,-0.7745361328125,40.089111328125,-92.7960205078125
1758873651.8673682,-0.6357421875,-0.01513671875,0.7685546875,4.7607421875,-4.638671875,0.732421875,-0.72509765625,40.045166015625,-92.79052734375
1758873651.8760498,-0.64892578125,0.01123046875,0.76806640625,6.2255859375,-4.94384765625,0.48828125,-0.670166015625,39.9957275390625,-92.7850341796875
1758873651.8861666,-0.64892578125,0.01123046875,0.76806640625,6.2255859375,-4.94384765625,0.48828125,-0.604248046875,39.9517822265625,-92.7850341796875
1758873651.8964734,-0.66357421875,0.005859375,0.74755859375,4.5166015625,-4.8828125,0.3662109375,-0.54931640625,39.90234375,-92.779541015625
1758873651.9060543,-0.66357421875,0.005859375,0.74755859375,4.5166015625,-4.8828125,0.3662109375,-0.50537109375,39.8583984375,-92.7740478515625
1758873651.916131,-0.67138671875,-0.0009765625,0.75146484375,3.90625,-3.84521484375,0.18310546875,-0.46142578125,39.8199462890625,-92.7685546875
1758873651.9268546,-0.67138671875,-0.0009765625,0.75146484375,3.90625,-3.84521484375,0.18310546875,-0.4229736328125,39.7869873046875,-92.7685546875
1758873651.9361775,-0.66357421875,0.00537109375,0.7607421875,3.35693359375,-2.685546875,0.0,-0.384521484375,39.759521484375,-92.7685546875
1758873651.9461086,-0.66357421875,0.00537109375,0.7607421875,3.35693359375,-2.685546875,0.0,-0.3515625,39.7430419921875,-92.7685546875
1758873651.9561617,-0.66357421875,-0.013671875,0.7509765625,5.18798828125,-1.8310546875,0.18310546875,-0.3131103515625,39.7265625,-92.7630615234375
1758873651.9665637,-0.66357421875,-0.013671875,0.7509765625,5.18798828125,-1.8310546875,0.18310546875,-0.2581787109375,39.715576171875,-92.7630615234375
1758873651.9761584,-0.64306640625,-0.0205078125,0.74658203125,4.69970703125,-1.3427734375,0.1220703125,-0.208740234375,39.70458984375,-92.7630615234375
1758873651.9861546,-0.64306640625,-0.0205078125,0.74658203125,4.69970703125,-1.3427734375,0.1220703125,-0.164794921875,39.6990966796875,-92.7630615234375
1758873651.996521,-0.6279296875,0.0,0.7861328125,5.859375,-1.28173828125,0.244140625,-0.1153564453125,39.693603515625,-92.7630615234375
1758873652.0062244,-0.6279296875,0.0,0.7861328125,5.859375,-1.28173828125,0.244140625,-0.054931640625,39.6881103515625,-92.7630615234375
1758873652.0162616,-0.630859375,0.0,0.7890625,4.33349609375,-1.220703125,1.15966796875,-0.0054931640625,39.6826171875,-92.757568359375
1758873652.0266373,-0.630859375,0.0,0.7890625,4.33349609375,-1.220703125,1.15966796875,0.0384521484375,39.671630859375,-92.74658203125
1758873652.0365694,-0.640625,-0.009765625,0.76904296875,2.50244140625,-0.6103515625,1.953125,0.0823974609375,39.6661376953125,-92.7301025390625
1758873652.0462558,-0.640625,-0.009765625,0.76904296875,2.50244140625,-0.6103515625,1.953125,0.120849609375,39.66064453125,-92.7081298828125
1758873652.0564332,-0.630859375,-0.0078125,0.77734375,4.69970703125,0.1220703125,1.89208984375,0.1702880859375,39.66064453125,-92.6861572265625
1758873652.0662792,-0.630859375,-0.0078125,0.77734375,4.69970703125,0.1220703125,1.89208984375,0.2252197265625,39.6661376953125,-92.669677734375
1758873652.0762904,-0.623046875,0.00927734375,0.78857421875,5.126953125,0.54931640625,1.77001953125,0.28564453125,39.671630859375,-92.647705078125
1758873652.0862794,-0.623046875,0.00927734375,0.78857421875,5.126953125,0.54931640625,1.77001953125,0.3460693359375,39.6771240234375,-92.6312255859375
1758873652.0966878,-0.6162109375,0.02392578125,0.78173828125,4.150390625,0.54931640625,1.708984375,0.406494140625,39.6771240234375,-92.61474609375
1758873652.1062837,-0.6162109375,0.02392578125,0.78173828125,4.150390625,0.54931640625,1.708984375,0.4559326171875,39.6826171875,-92.5927734375
1758873652.1163435,-0.61767578125,0.01708984375,0.78515625,2.86865234375,0.30517578125,1.77001953125,0.50537109375,39.6826171875,-92.5762939453125
1758873652.1270669,-0.61767578125,0.01708984375,0.78515625,2.86865234375,0.30517578125,1.77001953125,0.54931640625,39.6826171875,-92.5543212890625
1758873652.1363943,-0.615234375,0.01171875,0.794921875,0.244140625,0.06103515625,2.01416015625,0.5767822265625,39.6826171875,-92.5323486328125
1758873652.1464002,-0.615234375,0.01171875,0.794921875,0.244140625,0.06103515625,2.01416015625,0.59326171875,39.6771240234375,-92.5103759765625
1758873652.1566176,-0.599609375,0.0068359375,0.7900390625,-0.244140625,0.0,2.197265625,0.6097412109375,39.6771240234375,-92.48291015625
1758873652.1663985,-0.599609375,0.0068359375,0.7900390625,-0.244140625,0.0,2.197265625,0.626220703125,39.6661376953125,-92.4609375
1758873652.1764605,-0.595703125,0.01025390625,0.806640625,-0.06103515625,-0.42724609375,2.197265625,0.6427001953125,39.66064453125,-92.4334716796875
1758873652.1863859,-0.595703125,0.01025390625,0.806640625,-0.06103515625,-0.42724609375,2.197265625,0.6591796875,39.6441650390625,-92.406005859375
1758873652.1967099,-0.611328125,0.0107421875,0.80419921875,-0.3662109375,-0.9765625,2.62451171875,0.6756591796875,39.627685546875,-92.3785400390625
1758873652.2064242,-0.611328125,0.0107421875,0.80419921875,-0.3662109375,-0.9765625,2.62451171875,0.692138671875,39.6112060546875,-92.3455810546875
1758873652.2164774,-0.603515625,0.0087890625,0.77587890625,-2.50244140625,-1.64794921875,3.0517578125,0.6976318359375,39.5892333984375,-92.3126220703125
1758873652.227255,-0.603515625,0.0087890625,0.77587890625,-2.50244140625,-1.64794921875,3.0517578125,0.6976318359375,39.561767578125,-92.2796630859375
1758873652.2365296,-0.60400390625,0.01123046875,0.80029296875,-3.2958984375,-2.13623046875,3.2958984375,0.692138671875,39.5343017578125,-92.2412109375
