timestamp,acc_x,acc_y,acc_z,gyro_x,gyro_y,gyro_z,angle_x,angle_y,angle_z
1758525360.8588765,-0.818359375,0.08056640625,0.58935546875,-3.7841796875,-8.85009765625,-1.89208984375,7.44873046875,52.3333740234375,-101.42578125
1758525360.871152,-0.818359375,0.08056640625,0.58935546875,-3.7841796875,-8.85009765625,-1.89208984375,7.3773193359375,52.2564697265625,-101.4752197265625
1758525360.8822916,-0.794921875,0.10205078125,0.595703125,-4.69970703125,-9.09423828125,-2.685546875,7.294921875,52.1795654296875,-101.524658203125
1758525360.8954906,-0.794921875,0.10205078125,0.595703125,-4.69970703125,-9.09423828125,-2.685546875,7.20703125,52.09716796875,-101.57958984375
1758525360.9089026,-0.763671875,0.08642578125,0.62060546875,-4.2724609375,-9.33837890625,-3.35693359375,7.1136474609375,52.0147705078125,-101.6400146484375
1758525360.9166205,-0.763671875,0.08642578125,0.62060546875,-4.2724609375,-9.33837890625,-3.35693359375,7.0257568359375,51.932373046875,-101.7059326171875
1758525360.9255476,-0.76708984375,0.0625,0.63623046875,-2.5634765625,-10.19287109375,-3.41796875,6.9378662109375,51.844482421875,-101.7718505859375
1758525360.9333434,-0.76708984375,0.0625,0.63623046875,-2.5634765625,-10.19287109375,-3.41796875,6.8609619140625,51.7510986328125,-101.8377685546875
1758525360.9412189,-0.79150390625,0.0615234375,0.6279296875,-1.28173828125,-11.04736328125,-3.11279296875,6.7950439453125,51.6522216796875,-101.9091796875
1758525360.947574,-0.79150390625,0.0615234375,0.6279296875,-1.28173828125,-11.04736328125,-3.11279296875,6.7291259765625,51.5533447265625,-101.97509765625
1758525360.957533,-0.79150390625,0.0615234375,0.6279296875,-1.52587890625,-11.65771484375,-3.23486328125,6.6632080078125,51.448974609375,-102.041015625
1758525360.9662585,-0.8046875,0.08544921875,0.58984375,-1.52587890625,-11.65771484375,-3.23486328125,6.5972900390625,51.339111328125,-102.1124267578125
1758525360.9762099,-0.78466796875,0.08740234375,0.5986328125,-2.3193359375,-12.26806640625,-3.72314453125,6.52587890625,51.2347412109375,-102.183837890625
1758525360.986293,-0.78466796875,0.08740234375,0.5986328125,-2.3193359375,-12.26806640625,-3.72314453125,6.4434814453125,51.1248779296875,-102.2552490234375
1758525360.9962358,-0.7509765625,0.0703125,0.62158203125,-3.173828125,-13.18359375,-4.150390625,6.3555908203125,51.009521484375,-102.3321533203125
1758525361.0066926,-0.7509765625,0.0703125,0.62158203125,-3.173828125,-13.18359375,-4.150390625,6.26220703125,50.888671875,-102.41455078125
1758525361.0162768,-0.76171875,0.06103515625,0.65478515625,-2.50244140625,-14.404296875,-4.2724609375,6.17431640625,50.7623291015625,-102.491455078125
1758525361.0285602,-0.76171875,0.06103515625,0.65478515625,-2.50244140625,-14.404296875,-4.2724609375,6.08642578125,50.6304931640625,-102.579345703125
1758525361.0367777,-0.7607421875,0.06494140625,0.64111328125,-0.3662109375,-15.625,-4.5166015625,6.0040283203125,50.4931640625,-102.667236328125
1758525361.0470614,-0.7607421875,0.06494140625,0.64111328125,-0.3662109375,-15.625,-4.5166015625,5.9326171875,50.3448486328125,-102.755126953125
1758525361.056296,-0.7646484375,0.0849609375,0.62744140625,-0.18310546875,-16.4794921875,-5.06591796875,5.855712890625,50.196533203125,-102.8485107421875
1758525361.066317,-0.7646484375,0.0849609375,0.62744140625,-0.18310546875,-16.4794921875,-5.06591796875,5.7843017578125,50.042724609375,-102.94189453125
1758525361.076325,-0.76806640625,0.05517578125,0.638671875,0.8544921875,-17.27294921875,-5.0048828125,5.712890625,49.888916015625,-103.040771484375
1758525361.0863378,-0.76806640625,0.05517578125,0.638671875,0.8544921875,-17.27294921875,-5.0048828125,5.64697265625,49.72412109375,-103.1341552734375
1758525361.0963438,-0.763671875,0.05126953125,0.6455078125,1.03759765625,-17.9443359375,-4.57763671875,5.5865478515625,49.5648193359375,-103.2220458984375
1758525361.1063647,-0.763671875,0.05126953125,0.6455078125,1.03759765625,-17.9443359375,-4.57763671875,5.526123046875,49.39453125,-103.3154296875
1758525361.1163645,-0.74951171875,0.0625,0.64404296875,-0.6103515625,-18.9208984375,-4.0283203125,5.4656982421875,49.2242431640625,-103.3978271484375
1758525361.1263819,-0.74951171875,0.0625,0.64404296875,-0.6103515625,-18.9208984375,-4.0283203125,5.394287109375,49.0484619140625,-103.480224609375
1758525361.1363842,-0.76416015625,0.0556640625,0.6455078125,-2.25830078125,-19.71435546875,-3.72314453125,5.3173828125,48.8671875,-103.55712890625
1758525361.1464095,-0.76416015625,0.0556640625,0.6455078125,-2.25830078125,-19.71435546875,-3.72314453125,5.2349853515625,48.6859130859375,-103.634033203125
1758525361.15643,-0.79541015625,0.0693359375,0.65185546875,-3.11279296875,-19.4091796875,-4.150390625,5.152587890625,48.504638671875,-103.7109375
1758525361.1664226,-0.79541015625,0.0693359375,0.65185546875,-3.11279296875,-19.4091796875,-4.150390625,5.0592041015625,48.328857421875,-103.787841796875
1758525361.1764417,-0.79541015625,0.0693359375,0.65185546875,-2.38037109375,-18.4326171875,-4.69970703125,4.9658203125,48.153076171875,-103.8702392578125
1758525361.1864603,-0.7822265625,0.07470703125,0.65478515625,-2.38037109375,-18.4326171875,-4.69970703125,4.8779296875,47.98828125,-103.95263671875
1758525361.1964636,-0.73193359375,0.05517578125,0.6748046875,-2.62451171875,-17.2119140625,-4.94384765625,4.7900390625,47.8289794921875,-104.029541015625
1758525361.206627,-0.73193359375,0.05517578125,0.6748046875,-2.62451171875,-17.2119140625,-4.94384765625,4.7021484375,47.6751708984375,-104.1119384765625
1758525361.2165046,-0.69482421875,0.0546875,0.69775390625,-5.79833984375,-15.13671875,-5.2490234375,4.5977783203125,47.52685546875,-104.1943359375
1758525361.2266686,-0.69482421875,0.0546875,0.69775390625,-5.79833984375,-15.13671875,-5.2490234375,4.471435546875,47.39501953125,-104.2767333984375
1758525361.236518,-0.6982421875,0.0478515625,0.73486328125,-5.7373046875,-12.451171875,-5.43212890625,4.3505859375,47.2686767578125,-104.359130859375
1758525361.2466314,-0.6982421875,0.0478515625,0.73486328125,-5.7373046875,-12.451171875,-5.43212890625,4.229736328125,47.1533203125,-104.4415283203125
1758525361.256546,-0.6806640625,0.03564453125,0.75537109375,-0.732421875,-9.765625,-4.8828125,4.141845703125,47.0489501953125,-104.5184326171875
1758525361.266694,-0.6806640625,0.03564453125,0.75537109375,-0.732421875,-9.765625,-4.8828125,4.075927734375,46.95556640625,-104.58984375
1758525361.276572,-0.671875,0.02734375,0.73291015625,2.197265625,-7.2021484375,-3.7841796875,4.0374755859375,46.8731689453125,-104.65576171875
1758525361.286734,-0.671875,0.02734375,0.73291015625,2.197265625,-7.2021484375,-3.7841796875,4.0155029296875,46.8017578125,-104.710693359375
1758525361.2965817,-0.6826171875,0.03271484375,0.72119140625,0.0,-5.4931640625,-2.74658203125,3.988037109375,46.73583984375,-104.7601318359375
1758525361.3067372,-0.6826171875,0.03271484375,0.72119140625,0.0,-5.4931640625,-2.74658203125,3.955078125,46.6754150390625,-104.8040771484375
1758525361.3166096,-0.701171875,0.04248046875,0.71240234375,-2.3193359375,-4.08935546875,-1.953125,3.9056396484375,46.6259765625,-104.83154296875
1758525361.326829,-0.701171875,0.04248046875,0.71240234375,-2.3193359375,-4.08935546875,-1.953125,3.8616943359375,46.58203125,-104.8590087890625
1758525361.336651,-0.724609375,0.04248046875,0.7080078125,-1.52587890625,-3.173828125,-1.52587890625,3.8287353515625,46.5435791015625,-104.8809814453125
1758525361.3468506,-0.724609375,0.04248046875,0.7080078125,-1.52587890625,-3.173828125,-1.52587890625,3.790283203125,46.505126953125,-104.9029541015625
1758525361.3566782,-0.74755859375,0.03369140625,0.701171875,1.89208984375,-2.86865234375,-0.79345703125,3.80126953125,46.47216796875,-104.9139404296875
1758525361.367097,-0.74755859375,0.03369140625,0.701171875,1.89208984375,-2.86865234375,-0.79345703125,3.8067626953125,46.439208984375,-104.9249267578125
1758525361.3768249,-0.76123046875,0.02099609375,0.6767578125,3.90625,-2.74658203125,0.79345703125,3.8507080078125,46.40625,-104.9139404296875
1758525361.3871202,-0.76123046875,0.02099609375,0.6767578125,3.90625,-2.74658203125,0.79345703125,3.8946533203125,46.3787841796875,-104.908447265625
1758525361.3968272,-0.755859375,0.0166015625,0.6611328125,0.8544921875,-2.44140625,3.11279296875,3.9276123046875,46.351318359375,-104.864501953125
1758525361.4072628,-0.755859375,0.0166015625,0.6611328125,0.8544921875,-2.44140625,3.11279296875,3.9605712890625,46.329345703125,-104.820556640625
1758525361.4168477,-0.74658203125,0.021484375,0.66552734375,-3.60107421875,-2.50244140625,5.126953125,3.9715576171875,46.3018798828125,-104.754638671875
1758525361.4272995,-0.74658203125,0.021484375,0.66552734375,-3.60107421875,-2.50244140625,5.126953125,3.97705078125,46.2799072265625,-104.6832275390625
1758525361.436923,-0.7333984375,0.04638671875,0.697265625,-4.33349609375,-2.9296875,6.2255859375,3.988037109375,46.2469482421875,-104.600830078125
1758525361.4473634,-0.7333984375,0.04638671875,0.697265625,-4.33349609375,-2.9296875,6.2255859375,4.0045166015625,46.219482421875,-104.5184326171875
1758525361.4573247,-0.728515625,0.04736328125,0.69482421875,-2.38037109375,-3.662109375,6.7138671875,4.04296875,46.1810302734375,-104.425048828125
1758525361.467702,-0.728515625,0.04736328125,0.69482421875,-2.38037109375,-3.662109375,6.7138671875,4.075927734375,46.142578125,-104.337158203125
1758525361.4770174,-0.7021484375,0.05224609375,0.69189453125,-1.52587890625,-4.0283203125,6.8359375,4.1253662109375,46.1041259765625,-104.2437744140625
1758525361.48691,-0.7021484375,0.05224609375,0.69189453125,-1.52587890625,-4.0283203125,6.8359375,4.1748046875,46.0601806640625,-104.150390625
1758525361.497366,-0.68603515625,0.05224609375,0.70263671875,-3.7841796875,-4.150390625,6.8359375,4.19677734375,46.0162353515625,-104.0570068359375
1758525361.5111318,-0.68603515625,0.05224609375,0.70263671875,-3.7841796875,-4.150390625,6.8359375,4.2242431640625,45.966796875,-103.963623046875
1758525361.518198,-0.7001953125,0.04931640625,0.70849609375,-4.5166015625,-4.5166015625,6.65283203125,4.24072265625,45.9173583984375,-103.875732421875
1758525361.527151,-0.7001953125,0.04931640625,0.70849609375,-4.5166015625,-4.5166015625,6.65283203125,4.2572021484375,45.867919921875,-103.787841796875
1758525361.5380013,-0.70751953125,0.06396484375,0.69384765625,-2.38037109375,-4.8828125,5.79833984375,4.28466796875,45.8184814453125,-103.7109375
1758525361.5473034,-0.70751953125,0.06396484375,0.69384765625,-2.38037109375,-4.8828125,5.79833984375,4.3121337890625,45.7635498046875,-103.6285400390625
1758525361.5571005,-0.6708984375,0.0703125,0.69970703125,-0.244140625,-5.31005859375,4.94384765625,4.3560791015625,45.703125,-103.5626220703125
1758525361.5676053,-0.6708984375,0.0703125,0.69970703125,-0.244140625,-5.31005859375,4.94384765625,4.4000244140625,45.648193359375,-103.4967041015625
1758525361.5770354,-0.66650390625,0.0546875,0.7314453125,-1.40380859375,-5.859375,4.39453125,4.4219970703125,45.582275390625,-103.4417724609375
1758525361.5870485,-0.66650390625,0.0546875,0.7314453125,-1.40380859375,-5.859375,4.39453125,4.449462890625,45.516357421875,-103.38134765625
1758525361.5971627,-0.64599609375,0.06494140625,0.7294921875,-2.9296875,-6.34765625,4.2724609375,4.4549560546875,45.4449462890625,-103.326416015625
1758525361.6070871,-0.64599609375,0.06494140625,0.7294921875,-2.9296875,-6.34765625,4.2724609375,4.4659423828125,45.37353515625,-103.271484375
1758525361.617057,-0.62890625,0.07568359375,0.72900390625,-5.37109375,-7.080078125,5.0048828125,4.4549560546875,45.28564453125,-103.20556640625
1758525361.6270893,-0.62890625,0.07568359375,0.72900390625,-5.37109375,-7.080078125,5.0048828125,4.449462890625,45.2032470703125,-103.1396484375
1758525361.6375637,-0.65625,0.052734375,0.740234375,-11.71875,-8.30078125,6.28662109375,4.3890380859375,45.1043701171875,-103.0572509765625
1758525361.6470358,-0.65625,0.052734375,0.740234375,-11.71875,-8.30078125,6.28662109375,4.32861328125,45.0054931640625,-102.974853515625
1758525361.6571171,-0.701171875,0.04052734375,0.7119140625,-17.7001953125,-9.3994140625,7.32421875,4.21875,44.8956298828125,-102.8814697265625
1758525361.6670694,-0.701171875,0.04052734375,0.7119140625,-17.7001953125,-9.3994140625,7.32421875,4.10888671875,44.791259765625,-102.7825927734375
1758525361.6779118,-0.658203125,0.04833984375,0.68896484375,-19.4091796875,-8.4228515625,8.4228515625,3.9935302734375,44.6923828125,-102.6727294921875
1758525361.687145,-0.658203125,0.04833984375,0.68896484375,-19.4091796875,-8.4228515625,8.4228515625,3.8836669921875,44.593505859375,-102.5628662109375
1758525361.6973906,-0.61865234375,0.04736328125,0.755859375,-21.6064453125,-6.4697265625,9.82666015625,3.7628173828125,44.5166015625,-102.425537109375
1758525361.7077487,-0.61865234375,0.04736328125,0.755859375,-21.6064453125,-6.4697265625,9.82666015625,3.6419677734375,44.4342041015625,-102.293701171875
1758525361.7180011,-0.609375,0.03515625,0.8203125,-26.0009765625,-4.638671875,10.8642578125,3.4881591796875,44.3682861328125,-102.1453857421875
1758525361.7275229,-0.609375,0.03515625,0.8203125,-26.0009765625,-4.638671875,10.8642578125,3.3343505859375,44.3023681640625,-102.0025634765625
1758525361.7377815,-0.59423828125,0.02587890625,0.84326171875,-28.4423828125,-2.3193359375,11.16943359375,3.1585693359375,44.2529296875,-101.8487548828125
1758525361.7477064,-0.59423828125,0.02587890625,0.84326171875,-28.4423828125,-2.3193359375,11.16943359375,2.9827880859375,44.197998046875,-101.700439453125
1758525361.7577715,-0.54931640625,0.06298828125,0.861328125,-29.35791015625,-0.06103515625,10.8642578125,2.7960205078125,44.1650390625,-101.5521240234375
1758525361.767274,-0.54931640625,0.06298828125,0.861328125,-29.35791015625,-0.06103515625,10.8642578125,2.61474609375,44.1265869140625,-101.40380859375
1758525361.778656,-0.54931640625,0.0732421875,0.8388671875,-32.04345703125,1.89208984375,11.41357421875,2.4114990234375,44.110107421875,-101.2445068359375
1758525361.787289,-0.54931640625,0.0732421875,0.8388671875,-32.04345703125,1.89208984375,11.41357421875,2.2137451171875,44.088134765625,-101.0797119140625
1758525361.7976632,-0.59228515625,0.03173828125,0.8603515625,-32.71484375,2.5634765625,13.5498046875,2.032470703125,44.066162109375,-100.887451171875
1758525361.8075285,-0.59228515625,0.03173828125,0.8603515625,-32.71484375,2.5634765625,13.5498046875,1.845703125,44.044189453125,-100.6951904296875
1758525361.8183353,-0.60791015625,-0.015625,0.97314453125,-43.3349609375,2.197265625,16.2353515625,1.5765380859375,44.022216796875,-100.469970703125
1758525361.827655,-0.60791015625,-0.015625,0.97314453125,-43.3349609375,2.197265625,16.2353515625,1.3128662109375,43.9892578125,-100.250244140625
1758525361.8382273,-0.5888671875,-0.0537109375,0.87646484375,-51.08642578125,3.35693359375,18.37158203125,0.9832763671875,43.9727783203125,-99.99755859375
1758525361.8477201,-0.5888671875,-0.0537109375,0.87646484375,-51.08642578125,3.35693359375,18.37158203125,0.6536865234375,43.9508056640625,-99.755859375
1758525361.8579493,-0.5517578125,0.05322265625,0.83544921875,-56.640625,4.94384765625,18.310546875,0.2691650390625,43.9508056640625,-99.5086669921875
1758525361.8673265,-0.5517578125,0.05322265625,0.83544921875,-56.640625,4.94384765625,18.310546875,-0.1043701171875,43.9453125,-99.2559814453125
1758525361.8786006,-0.55078125,0.10009765625,0.8359375,-59.50927734375,8.056640625,18.1884765625,-0.50537109375,43.978271484375,-98.997802734375
1758525361.8881276,-0.55078125,0.10009765625,0.8359375,-59.50927734375,8.056640625,18.1884765625,-0.90087890625,44.0057373046875,-98.734130859375
1758525361.8973055,-0.5380859375,0.02880859375,0.8515625,-54.50439453125,6.04248046875,16.357421875,-1.263427734375,44.01123046875,-98.492431640625
1758525361.907798,-0.5380859375,0.02880859375,0.8515625,-54.50439453125,6.04248046875,16.357421875,-1.6259765625,44.022216796875,-98.2452392578125
1758525361.9173489,-0.521484375,0.06298828125,0.9326171875,-49.25537109375,7.14111328125,17.7001953125,-1.9171142578125,44.0386962890625,-97.97607421875
1758525361.9277086,-0.521484375,0.06298828125,0.9326171875,-49.25537109375,7.14111328125,17.7001953125,-2.2027587890625,44.05517578125,-97.7069091796875
1758525361.9374535,-0.61328125,-0.076171875,0.77783203125,-42.54150390625,2.99072265625,17.9443359375,-2.4224853515625,44.0277099609375,-97.4322509765625
1758525361.9482791,-0.61328125,-0.076171875,0.77783203125,-42.54150390625,2.99072265625,17.9443359375,-2.647705078125,44.01123046875,-97.1575927734375
1758525361.9574509,-0.7216796875,-0.01904296875,0.8642578125,-39.73388671875,-0.79345703125,18.06640625,-2.845458984375,43.956298828125,-96.888427734375
1758525361.968314,-0.7216796875,-0.01904296875,0.8642578125,-39.73388671875,-0.79345703125,18.06640625,-3.0377197265625,43.9068603515625,-96.61376953125
1758525361.9783645,-0.765625,-0.060546875,0.8720703125,-28.076171875,-4.21142578125,18.61572265625,-3.1146240234375,43.824462890625,-96.3336181640625
1758525361.987937,-0.765625,-0.060546875,0.8720703125,-28.076171875,-4.21142578125,18.61572265625,-3.1915283203125,43.7530517578125,-96.053466796875
1758525361.9974427,-0.822265625,-0.0029296875,0.77978515625,-14.5263671875,-7.38525390625,18.5546875,-3.1365966796875,43.648681640625,-95.77880859375
1758525362.0074742,-0.822265625,-0.0029296875,0.77978515625,-14.5263671875,-7.38525390625,18.5546875,-3.0816650390625,43.5552978515625,-95.4986572265625
1758525362.0176299,-0.66796875,-0.041015625,0.73291015625,-17.15087890625,-9.8876953125,18.49365234375,-3.05419921875,43.43994140625,-95.218505859375
1758525362.0287244,-0.66796875,-0.041015625,0.73291015625,-17.15087890625,-9.8876953125,18.49365234375,-3.0322265625,43.3245849609375,-94.94384765625
1758525362.0375185,-0.521484375,-0.0107421875,0.5927734375,-33.75244140625,-9.3994140625,20.08056640625,-3.1585693359375,43.22021484375,-94.647216796875
1758525362.0475898,-0.521484375,-0.0107421875,0.5927734375,-33.75244140625,-9.3994140625,20.08056640625,-3.284912109375,43.1158447265625,-94.3505859375
1758525362.0581279,-0.4912109375,-0.08642578125,0.6533203125,-32.71484375,-7.75146484375,20.32470703125,-3.40576171875,43.0279541015625,-94.053955078125
1758525362.067723,-0.4912109375,-0.08642578125,0.6533203125,-32.71484375,-7.75146484375,20.32470703125,-3.526611328125,42.9400634765625,-93.7628173828125
1758525362.0779977,-0.54443359375,-0.14794921875,0.71630859375,-8.7890625,-4.94384765625,19.83642578125,-3.4222412109375,42.8741455078125,-93.4881591796875
1758525362.0876184,-0.54443359375,-0.14794921875,0.71630859375,-8.7890625,-4.94384765625,19.83642578125,-3.3233642578125,42.813720703125,-93.218994140625
1758525362.0981936,-0.7119140625,-0.12890625,0.8896484375,22.03369140625,-5.859375,18.5546875,-2.933349609375,42.7423095703125,-92.977294921875
1758525362.1077256,-0.7119140625,-0.12890625,0.8896484375,22.03369140625,-5.859375,18.5546875,-2.5543212890625,42.6708984375,-92.7410888671875
1758525362.117588,-0.72998046875,-0.021484375,1.10302734375,30.517578125,-7.4462890625,18.98193359375,-2.0819091796875,42.5775146484375,-92.4993896484375
1758525362.1282685,-0.72998046875,-0.021484375,1.10302734375,30.517578125,-7.4462890625,18.98193359375,-1.614990234375,42.4786376953125,-92.2576904296875
1758525362.1380785,-0.537109375,0.08203125,0.95263671875,1.89208984375,-8.7890625,18.85986328125,-1.4337158203125,42.36328125,-92.0159912109375
1758525362.148416,-0.537109375,0.08203125,0.95263671875,1.89208984375,-8.7890625,18.85986328125,-1.2469482421875,42.242431640625,-91.768798828125
1758525362.1577158,-0.515625,0.0927734375,0.84375,-35.70556640625,-7.9345703125,19.83642578125,-1.4227294921875,42.1270751953125,-91.4996337890625
1758525362.168273,-0.515625,0.0927734375,0.84375,-35.70556640625,-7.9345703125,19.83642578125,-1.593017578125,42.01171875,-91.2249755859375
1758525362.1788611,-0.515625,0.0927734375,0.84375,-42.78564453125,-7.75146484375,19.8974609375,-1.8292236328125,41.90185546875,-90.94482421875
1758525362.1886826,-0.50048828125,-0.02880859375,0.76806640625,-42.78564453125,-7.75146484375,19.8974609375,-2.0709228515625,41.7864990234375,-90.670166015625
1758525362.197723,-0.4453125,-0.00146484375,0.7373046875,-15.44189453125,-4.57763671875,19.59228515625,-2.0379638671875,41.7041015625,-90.4010009765625
1758525362.2084694,-0.4453125,-0.00146484375,0.7373046875,-15.44189453125,-4.57763671875,19.59228515625,-2.0050048828125,41.6217041015625,-90.1318359375
1758525362.2178178,-0.453125,0.2587890625,0.48681640625,-20.69091796875,1.52587890625,21.240234375,-2.0050048828125,41.605224609375,-89.8297119140625
1758525362.2287924,-0.453125,0.2587890625,0.48681640625,-20.69091796875,1.52587890625,21.240234375,-1.9940185546875,41.5887451171875,-89.5111083984375
1758525362.2377207,-0.74609375,0.04541015625,0.40673828125,-34.3017578125,4.150390625,21.8505859375,-2.109375,41.6162109375,-89.1815185546875
1758525362.2484686,-0.74609375,0.04541015625,0.40673828125,-34.3017578125,4.150390625,21.8505859375,-2.2247314453125,41.649169921875,-88.8519287109375
1758525362.2584465,-1.265625,-0.2021484375,1.0322265625,0.18310546875,3.47900390625,21.30126953125,-2.010498046875,41.693115234375,-88.5443115234375
1758525362.2684817,-1.265625,-0.2021484375,1.0322265625,0.18310546875,3.47900390625,21.30126953125,-1.8072509765625,41.737060546875,-88.253173828125
1758525362.2782903,-1.1904296875,0.11279296875,1.2890625,-0.18310546875,-9.09423828125,20.99609375,-1.6094970703125,41.66015625,-87.9620361328125
1758525362.2893023,-1.1904296875,0.11279296875,1.2890625,-0.18310546875,-9.09423828125,20.99609375,-1.40625,41.583251953125,-87.6654052734375
1758525362.29803,-0.70263671875,0.09619140625,0.44140625,-39.61181640625,-6.4697265625,24.5361328125,-1.5655517578125,41.539306640625,-87.3193359375
1758525362.3078575,-0.70263671875,0.09619140625,0.44140625,-39.61181640625,-6.4697265625,24.5361328125,-1.7193603515625,41.5008544921875,-86.9677734375
1758525362.3178377,-0.521484375,-0.0849609375,0.31884765625,-53.466796875,-7.99560546875,21.05712890625,-2.04345703125,41.451416015625,-86.6656494140625
1758525362.330225,-0.62255859375,-0.0107421875,0.35205078125,2.86865234375,-2.5634765625,17.63916015625,-2.109375,41.4404296875,-86.396484375
1758525362.3378549,-0.62255859375,-0.0107421875,0.35205078125,2.86865234375,-2.5634765625,17.63916015625,-1.9061279296875,41.4569091796875,-86.1492919921875
1758525362.3478923,-0.65625,0.18505859375,0.85009765625,21.30126953125,-2.9296875,17.27294921875,-1.614990234375,41.4678955078125,-85.902099609375
1758525362.3582082,-0.65625,0.18505859375,0.85009765625,21.30126953125,-2.9296875,17.27294921875,-1.2249755859375,41.4788818359375,-85.6494140625
1758525362.3679693,-0.60498046875,-0.0185546875,0.97216796875,-9.94873046875,-7.87353515625,17.9443359375,-0.98876953125,41.451416015625,-85.3857421875
1758525362.3778849,-0.60498046875,-0.0185546875,0.97216796875,-9.94873046875,-7.87353515625,17.9443359375,-0.9063720703125,41.3909912109375,-85.1220703125
1758525362.3879476,-0.2998046875,-0.07177734375,1.0751953125,-29.96826171875,-5.615234375,17.7001953125,-0.9283447265625,41.3360595703125,-84.8638916015625
1758525362.3980393,-0.2998046875,-0.07177734375,1.0751953125,-29.96826171875,-5.615234375,17.7001953125,-1.0546875,41.2701416015625,-84.6112060546875
1758525362.407968,-0.0966796875,0.07763671875,0.85009765625,-44.25048828125,-4.5166015625,13.916015625,-1.2744140625,41.19873046875,-84.385986328125
1758525362.4179773,-0.0966796875,0.07763671875,0.85009765625,-44.25048828125,-4.5166015625,13.916015625,-1.5765380859375,41.1163330078125,-84.1717529296875
1758525362.428376,-0.06640625,0.025390625,0.78173828125,-40.34423828125,2.9296875,10.1318359375,-1.86767578125,41.0614013671875,-83.9794921875
1758525362.4388363,-0.06640625,0.025390625,0.78173828125,-40.34423828125,2.9296875,10.1318359375,-2.1533203125,41.0284423828125,-83.8092041015625
1758525362.4482224,-0.19287109375,-0.1083984375,1.02392578125,-4.69970703125,5.67626953125,7.38525390625,-2.274169921875,40.9954833984375,-83.6444091796875
1758525362.4580429,-0.19287109375,-0.1083984375,1.02392578125,-4.69970703125,5.67626953125,7.38525390625,-2.230224609375,40.968017578125,-83.507080078125
1758525362.4685442,-0.3291015625,0.02490234375,1.16162109375,21.91162109375,7.75146484375,7.14111328125,-2.0654296875,40.9405517578125,-83.375244140625
1758525362.4782097,-0.3291015625,0.02490234375,1.16162109375,21.91162109375,7.75146484375,7.14111328125,-1.7633056640625,40.9185791015625,-83.232421875
1758525362.4880307,-0.70751953125,0.08203125,1.2392578125,16.54052734375,0.9765625,8.72802734375,-1.483154296875,40.858154296875,-83.07861328125
1758525362.4981716,-0.70751953125,0.08203125,1.2392578125,16.54052734375,0.9765625,8.72802734375,-1.2139892578125,40.770263671875,-82.90283203125
1758525362.508478,-0.7109375,0.05126953125,1.18896484375,-10.68115234375,-2.9296875,11.65771484375,-1.0711669921875,40.6658935546875,-82.705078125
1758525362.5181205,-0.7109375,0.05126953125,1.18896484375,-10.68115234375,-2.9296875,11.65771484375,-1.0546875,40.550537109375,-82.4853515625
1758525362.5282226,-0.88720703125,-0.00244140625,0.79443359375,-28.74755859375,-8.4228515625,13.916015625,-1.1151123046875,40.4132080078125,-82.254638671875
1758525362.5381367,-0.88720703125,-0.00244140625,0.79443359375,-28.74755859375,-8.4228515625,13.916015625,-1.263427734375,40.264892578125,-82.012939453125
1758525362.5483723,-1.337890625,-0.23291015625,1.30078125,-31.3720703125,-17.9443359375,14.46533203125,-1.4227294921875,40.078125,-81.771240234375
1758525362.558458,-1.337890625,-0.23291015625,1.30078125,-31.3720703125,-17.9443359375,14.46533203125,-1.5985107421875,39.8638916015625,-81.5460205078125
1758525362.5682516,-0.96728515625,0.0673828125,1.09814453125,-24.23095703125,-26.611328125,16.7236328125,-1.7413330078125,39.61669921875,-81.309814453125
1758525362.578937,-0.96728515625,0.0673828125,1.09814453125,-24.23095703125,-26.611328125,16.7236328125,-1.8292236328125,39.3310546875,-81.05712890625
1758525362.5886354,-0.47314453125,0.26904296875,0.23876953125,-54.99267578125,-20.56884765625,16.54052734375,-2.0709228515625,39.0838623046875,-80.79345703125
1758525362.598692,-0.47314453125,0.26904296875,0.23876953125,-54.99267578125,-20.56884765625,16.54052734375,-2.4554443359375,38.8751220703125,-80.518798828125
1758525362.6083589,-0.3740234375,-0.15576171875,0.138671875,-56.15234375,-15.31982421875,12.939453125,-2.8564453125,38.704833984375,-80.255126953125
1758525362.6188216,-0.3740234375,-0.15576171875,0.138671875,-56.15234375,-15.31982421875,12.939453125,-3.284912109375,38.5675048828125,-80.0299072265625
1758525362.62831,-0.4697265625,-0.2353515625,0.07421875,-11.53564453125,-0.79345703125,7.75146484375,-3.515625,38.507080078125,-79.8541259765625
1758525362.6391833,-0.4697265625,-0.2353515625,0.07421875,-11.53564453125,-0.79345703125,7.75146484375,-3.5595703125,38.529052734375,-79.727783203125
1758525362.648629,-0.72265625,-0.13525390625,0.5517578125,47.8515625,3.2958984375,4.45556640625,-3.3343505859375,38.5784912109375,-79.6453857421875
1758525362.6586173,-0.72265625,-0.13525390625,0.5517578125,47.8515625,3.2958984375,4.45556640625,-2.8289794921875,38.6553955078125,-79.5904541015625
1758525362.668584,-0.935546875,0.03857421875,1.29150390625,59.326171875,-3.41796875,4.69970703125,-2.274169921875,38.69384765625,-79.5355224609375
1758525362.678607,-0.935546875,0.03857421875,1.29150390625,59.326171875,-3.41796875,4.69970703125,-1.6534423828125,38.69384765625,-79.464111328125
1758525362.688803,-0.6474609375,0.388671875,1.4384765625,14.22119140625,-10.31494140625,5.18798828125,-1.25244140625,38.64990234375,-79.3817138671875
1758525362.698287,-0.6474609375,0.388671875,1.4384765625,14.22119140625,-10.31494140625,5.18798828125,-1.0546875,38.551025390625,-79.2608642578125
1758525362.7087255,-0.32861328125,0.07763671875,0.521484375,-43.45703125,-11.16943359375,7.14111328125,-1.1260986328125,38.4466552734375,-79.1180419921875
1758525362.7189457,-0.32861328125,0.07763671875,0.521484375,-43.45703125,-11.16943359375,7.14111328125,-1.4776611328125,38.331298828125,-78.9532470703125
1758525362.7287517,-0.447265625,-0.1455078125,0.0869140625,-55.5419921875,-3.60107421875,5.06591796875,-1.8896484375,38.2598876953125,-78.8104248046875
1758525362.7409604,-0.447265625,-0.1455078125,0.0869140625,-55.5419921875,-3.60107421875,5.06591796875,-2.384033203125,38.232421875,-78.6895751953125
1758525362.7506545,-0.58154296875,-0.25390625,0.2392578125,-10.43701171875,7.50732421875,2.50244140625,-2.6641845703125,38.2763671875,-78.6126708984375
1758525362.7590683,-0.58154296875,-0.25390625,0.2392578125,-10.43701171875,7.50732421875,2.50244140625,-2.74658203125,38.3807373046875,-78.57421875
1758525362.7684457,-0.654296875,-0.07470703125,0.50390625,61.6455078125,12.0849609375,0.0,-2.493896484375,38.51806640625,-78.5687255859375
1758525362.7783833,-0.654296875,-0.07470703125,0.50390625,61.6455078125,12.0849609375,0.0,-1.8896484375,38.682861328125,-78.585205078125
1758525362.788856,-0.85302734375,-0.017578125,0.8427734375,87.09716796875,14.892578125,-2.74658203125,-1.175537109375,38.858642578125,-78.6236572265625
1758525362.7990685,-0.85302734375,-0.017578125,0.8427734375,87.09716796875,14.892578125,-2.74658203125,-0.3460693359375,39.0509033203125,-78.673095703125
1758525362.808759,-1.23583984375,0.08935546875,1.314453125,56.0302734375,6.8359375,-4.33349609375,0.3131103515625,39.19921875,-78.7335205078125
1758525362.8184695,-1.23583984375,0.08935546875,1.314453125,56.0302734375,6.8359375,-4.33349609375,0.823974609375,39.3035888671875,-78.7939453125
1758525362.828951,-1.1484375,0.232421875,1.380859375,0.30517578125,-5.0048828125,-2.74658203125,1.0711669921875,39.342041015625,-78.8433837890625
1758525362.839029,-1.1484375,0.232421875,1.380859375,0.30517578125,-5.0048828125,-2.74658203125,1.0491943359375,39.3255615234375,-78.8763427734375
1758525362.8487608,-0.72216796875,0.1640625,0.62060546875,-66.22314453125,-8.056640625,0.732421875,0.714111328125,39.287109375,-78.8763427734375
1758525362.8587701,-0.72216796875,0.1640625,0.62060546875,-66.22314453125,-8.056640625,0.732421875,0.076904296875,39.232177734375,-78.848876953125
1758525362.8689198,-0.57568359375,-0.02197265625,0.2431640625,-86.97509765625,-2.50244140625,0.67138671875,-0.6536865234375,39.2156982421875,-78.8214111328125
1758525362.8785422,-0.57568359375,-0.02197265625,0.2431640625,-86.97509765625,-2.50244140625,0.67138671875,-1.494140625,39.232177734375,-78.7939453125
1758525362.8887753,-0.4912109375,-0.22509765625,0.23193359375,-40.4052734375,7.26318359375,-0.91552734375,-2.109375,39.3035888671875,-78.7884521484375
1758525362.8991504,-0.4912109375,-0.22509765625,0.23193359375,-40.4052734375,7.26318359375,-0.91552734375,-2.5048828125,39.4244384765625,-78.804931640625
1758525362.908916,-0.53564453125,-0.046875,0.39404296875,30.76171875,14.70947265625,-0.30517578125,-2.548828125,39.5892333984375,-78.826904296875
1758525362.9185746,-0.53564453125,-0.046875,0.39404296875,30.76171875,14.70947265625,-0.30517578125,-2.2412109375,39.79248046875,-78.8543701171875
1758525362.9289267,-0.68359375,-0.10205078125,0.8759765625,43.27392578125,16.17431640625,0.06103515625,-1.8731689453125,40.001220703125,-78.8763427734375
1758525362.939258,-0.68359375,-0.10205078125,0.8759765625,43.27392578125,16.17431640625,0.06103515625,-1.4501953125,40.2099609375,-78.90380859375
1758525362.9489274,-0.81298828125,-0.22802734375,1.2265625,45.0439453125,11.71875,-0.91552734375,-1.021728515625,40.3857421875,-78.936767578125
1758525362.9588485,-0.81298828125,-0.22802734375,1.2265625,45.0439453125,11.71875,-0.91552734375,-0.604248046875,40.528564453125,-78.99169921875
1758525362.9689238,-0.6025390625,0.04541015625,0.93212890625,12.20703125,8.48388671875,-2.197265625,-0.3570556640625,40.6439208984375,-79.0521240234375
1758525362.97927,-0.6025390625,0.04541015625,0.93212890625,12.20703125,8.48388671875,-2.197265625,-0.274658203125,40.7373046875,-79.1180419921875
1758525362.9888332,-0.7724609375,0.25341796875,0.39990234375,-49.9267578125,7.26318359375,-0.06103515625,-0.4888916015625,40.8251953125,-79.1619873046875
1758525362.9986925,-0.7724609375,0.25341796875,0.39990234375,-49.9267578125,7.26318359375,-0.06103515625,-0.98876953125,40.9130859375,-79.178466796875
1758525363.0093927,-1.1279296875,-0.060546875,0.91357421875,-63.96484375,-0.67138671875,2.74658203125,-1.5325927734375,40.968017578125,-79.16748046875
1758525363.0190349,-1.1279296875,-0.060546875,0.91357421875,-63.96484375,-0.67138671875,2.74658203125,-2.1368408203125,40.989990234375,-79.1400146484375
1758525363.0290613,-0.82958984375,-0.0712890625,0.9677734375,-12.20703125,-2.13623046875,4.57763671875,-2.4774169921875,41.0064697265625,-79.0960693359375
1758525363.0387275,-0.82958984375,-0.0712890625,0.9677734375,-12.20703125,-2.13623046875,4.57763671875,-2.548828125,41.0174560546875,-79.046630859375
1758525363.0495725,-0.61669921875,0.11279296875,0.39013671875,-13.427734375,-3.0517578125,5.0048828125,-2.6202392578125,41.0174560546875,-78.9971923828125
1758525363.0594063,-0.61669921875,0.11279296875,0.39013671875,-13.427734375,-3.0517578125,5.0048828125,-2.6971435546875,41.02294921875,-78.9312744140625
1758525363.069062,-0.60693359375,-0.00537109375,0.37646484375,-44.5556640625,2.685546875,5.4931640625,-2.92236328125,41.055908203125,-78.8653564453125
1758525363.0787616,-0.60693359375,-0.00537109375,0.37646484375,-44.5556640625,2.685546875,5.4931640625,-3.3013916015625,41.1273193359375,-78.7939453125
1758525363.0890193,-0.6904296875,-0.01806640625,0.40380859375,-35.58349609375,7.32421875,6.40869140625,-3.62548828125,41.220703125,-78.7225341796875
1758525363.0988898,-0.6904296875,-0.01806640625,0.40380859375,-35.58349609375,7.32421875,6.40869140625,-3.9111328125,41.3470458984375,-78.6456298828125
1758525363.1092162,-0.68505859375,-0.0859375,0.50048828125,-4.7607421875,7.6904296875,7.2021484375,-4.031982421875,41.4788818359375,-78.5687255859375
1758525363.1193333,-0.68505859375,-0.0859375,0.50048828125,-4.7607421875,7.6904296875,7.2021484375,-4.0045166015625,41.6162109375,-78.486328125
1758525363.1291218,-0.6162109375,-0.12890625,0.73583984375,12.6953125,8.7890625,7.568359375,-3.88916015625,41.7535400390625,-78.409423828125
1758525363.1388316,-0.6162109375,-0.12890625,0.73583984375,12.6953125,8.7890625,7.568359375,-3.6968994140625,41.890869140625,-78.33251953125
1758525363.1496596,-0.60498046875,-0.01025390625,0.787109375,3.5400390625,7.4462890625,7.2021484375,-3.548583984375,42.0172119140625,-78.2611083984375
1758525363.1594048,-0.60498046875,-0.01025390625,0.787109375,3.5400390625,7.4462890625,7.2021484375,-3.44970703125,42.12158203125,-78.1842041015625
1758525363.169195,-0.6337890625,0.1416015625,0.93505859375,-30.517578125,2.86865234375,8.36181640625,-3.5101318359375,42.2039794921875,-78.101806640625
1758525363.1788685,-0.6337890625,0.1416015625,0.93505859375,-30.517578125,2.86865234375,8.36181640625,-3.724365234375,42.25341796875,-77.991943359375
1758525363.1891918,-0.68017578125,0.0732421875,0.72216796875,-67.3828125,1.3427734375,12.451171875,-4.097900390625,42.2918701171875,-77.8436279296875
1758525363.1988904,-0.68017578125,0.0732421875,0.72216796875,-67.3828125,1.3427734375,12.451171875,-4.625244140625,42.3193359375,-77.662353515625
1758525363.2091956,-0.63671875,-0.1865234375,0.8701171875,-67.44384765625,-2.5634765625,13.61083984375,-5.1470947265625,42.3358154296875,-77.4755859375
1758525363.2188995,-0.63671875,-0.1865234375,0.8701171875,-67.44384765625,-2.5634765625,13.61083984375,-5.6689453125,42.3248291015625,-77.27783203125
1758525363.229528,-0.84326171875,-0.1884765625,0.85888671875,-43.45703125,-8.36181640625,13.671875,-6.0699462890625,42.286376953125,-77.091064453125
1758525363.2389367,-0.84326171875,-0.1884765625,0.85888671875,-43.45703125,-8.36181640625,13.671875,-6.3555908203125,42.2149658203125,-76.8988037109375
1758525363.2493296,-0.69482421875,0.0283203125,0.974609375,-13.671875,-10.31494140625,12.39013671875,-6.4984130859375,42.1380615234375,-76.717529296875
1758525363.2591527,-0.69482421875,0.0283203125,0.974609375,-13.671875,-10.31494140625,12.39013671875,-6.492919921875,42.0501708984375,-76.541748046875
1758525363.2691724,-0.533203125,0.02734375,0.66650390625,3.47900390625,-11.962890625,11.90185546875,-6.3995361328125,41.94580078125,-76.3604736328125
1758525363.2789967,-0.533203125,0.02734375,0.66650390625,3.47900390625,-11.962890625,11.90185546875,-6.2237548828125,41.8359375,-76.17919921875
1758525363.2891514,-0.70849609375,0.0205078125,0.5791015625,-7.38525390625,-12.20703125,10.92529296875,-6.1029052734375,41.72607421875,-75.9979248046875
1758525363.2995052,-0.70849609375,0.0205078125,0.5791015625,-7.38525390625,-12.20703125,10.92529296875,-6.04248046875,41.6162109375,-75.82763671875
1758525363.3093352,-0.74560546875,-0.24609375,1.00390625,-15.7470703125,-13.18359375,9.27734375,-6.031494140625,41.50634765625,-75.6683349609375
1758525363.3190198,-0.74560546875,-0.24609375,1.00390625,-15.7470703125,-13.18359375,9.27734375,-6.0809326171875,41.385498046875,-75.531005859375
1758525363.329331,-0.60400390625,-0.40625,0.857421875,-2.86865234375,-15.93017578125,7.50732421875,-6.0809326171875,41.2481689453125,-75.4156494140625
1758525363.3429139,-0.60400390625,-0.40625,0.857421875,-2.86865234375,-15.93017578125,7.50732421875,-6.0369873046875,41.0888671875,-75.322265625
1758525363.3526993,-0.48583984375,-0.26611328125,0.79248046875,-1.8310546875,-17.76123046875,4.82177734375,-6.0150146484375,40.9075927734375,-75.2783203125
1758525363.359362,-0.48583984375,-0.26611328125,0.79248046875,-1.8310546875,-17.76123046875,4.82177734375,-5.99853515625,40.726318359375,-75.2398681640625
1758525363.3694515,-0.31494140625,0.001953125,0.85986328125,20.93505859375,-18.12744140625,2.8076171875,-5.767822265625,40.528564453125,-75.223388671875
1758525363.3799052,-0.31494140625,0.001953125,0.85986328125,20.93505859375,-18.12744140625,2.8076171875,-5.537109375,40.3253173828125,-75.1959228515625
1758525363.3893163,-0.29541015625,0.00244140625,0.63720703125,23.8037109375,-13.36669921875,2.62451171875,-5.284423828125,40.166015625,-75.179443359375
1758525363.3991632,-0.29541015625,0.00244140625,0.63720703125,23.8037109375,-13.36669921875,2.62451171875,-5.0262451171875,39.9957275390625,-75.1519775390625
1758525363.4096425,-0.40771484375,-0.13623046875,0.748046875,10.43701171875,-6.103515625,0.91552734375,-4.921875,39.90234375,-75.1629638671875
1758525363.4198039,-0.40771484375,-0.13623046875,0.748046875,10.43701171875,-6.103515625,0.91552734375,-4.822998046875,39.7979736328125,-75.1739501953125
1758525363.4294286,-0.4833984375,-0.31787109375,0.77783203125,37.90283203125,-3.2958984375,-2.3193359375,-4.4879150390625,39.7265625,-75.245361328125
1758525363.4392617,-0.4833984375,-0.31787109375,0.77783203125,37.90283203125,-3.2958984375,-2.3193359375,-4.1693115234375,39.649658203125,-75.3277587890625
1758525363.4497201,-0.82958984375,0.029296875,1.02880859375,75.50048828125,-1.77001953125,-2.3193359375,-3.4716796875,39.5947265625,-75.41015625
1758525363.4599102,-0.82958984375,0.029296875,1.02880859375,75.50048828125,-1.77001953125,-2.3193359375,-2.7685546875,39.5452880859375,-75.487060546875
1758525363.4695654,-1.1123046875,0.0380859375,1.5478515625,99.54833984375,-10.8642578125,-2.3193359375,-1.8182373046875,39.407958984375,-75.552978515625
1758525363.4793367,-1.1123046875,0.0380859375,1.5478515625,99.54833984375,-10.8642578125,-2.3193359375,-0.8624267578125,39.2706298828125,-75.6134033203125
1758525363.4896505,-0.55322265625,0.142578125,0.939453125,67.93212890625,-8.30078125,-2.685546875,-0.230712890625,39.1607666015625,-75.673828125
1758525363.499381,-0.55322265625,0.142578125,0.939453125,67.93212890625,-8.30078125,-2.685546875,0.4010009765625,39.04541015625,-75.7342529296875
1758525363.5095372,-0.3232421875,-0.103515625,0.197265625,-7.4462890625,-2.86865234375,-2.3193359375,0.2911376953125,38.990478515625,-75.7891845703125
1758525363.5193028,-0.3232421875,-0.103515625,0.197265625,-7.4462890625,-2.86865234375,-2.3193359375,0.1702880859375,38.946533203125,-75.8551025390625
1758525363.529852,-0.484375,-0.15625,0.2939453125,-5.92041015625,7.50732421875,-3.2958984375,0.054931640625,39.0069580078125,-75.9429931640625
1758525363.5393193,-0.484375,-0.15625,0.2939453125,-5.92041015625,7.50732421875,-3.2958984375,-0.054931640625,39.078369140625,-76.0418701171875
1758525363.5499244,-0.642578125,-0.171875,0.48193359375,19.04296875,16.17431640625,-4.33349609375,0.054931640625,39.2376708984375,-76.1572265625
1758525363.5597458,-0.642578125,-0.171875,0.48193359375,19.04296875,16.17431640625,-4.33349609375,0.164794921875,39.4134521484375,-76.2835693359375
1758525363.5695655,-0.85546875,0.16748046875,0.8828125,21.8505859375,15.68603515625,-1.46484375,0.3350830078125,39.5782470703125,-76.3604736328125
1758525363.5793412,-0.85546875,0.16748046875,0.8828125,21.8505859375,15.68603515625,-1.46484375,0.5218505859375,39.74853515625,-76.4263916015625
1758525363.5898304,-1.095703125,0.23486328125,1.2265625,-18.98193359375,7.26318359375,3.35693359375,0.3460693359375,39.8309326171875,-76.4154052734375
1758525363.5994139,-1.095703125,0.23486328125,1.2265625,-18.98193359375,7.26318359375,3.35693359375,0.186767578125,39.913330078125,-76.387939453125
1758525363.6095629,-0.72900390625,-0.05078125,0.8076171875,-33.99658203125,1.89208984375,7.4462890625,-0.0823974609375,39.9407958984375,-76.31103515625
1758525363.6194215,-0.72900390625,-0.05078125,0.8076171875,-33.99658203125,1.89208984375,7.4462890625,-0.3570556640625,39.9737548828125,-76.234130859375
1758525363.6300738,-0.72021484375,-0.26171875,0.458984375,2.197265625,2.44140625,6.4697265625,-0.2911376953125,40.01220703125,-76.17919921875
1758525363.6421716,-0.72021484375,-0.26171875,0.458984375,2.197265625,2.44140625,6.4697265625,-0.230712890625,40.0616455078125,-76.1407470703125
1758525363.65167,-0.732421875,-0.1103515625,0.41455078125,37.59765625,4.150390625,3.60107421875,0.1483154296875,40.133056640625,-76.146240234375
1758525363.6605606,-0.732421875,-0.1103515625,0.41455078125,37.59765625,4.150390625,3.60107421875,0.52734375,40.2154541015625,-76.1517333984375
1758525363.6694071,-0.7109375,0.1337890625,0.55859375,10.25390625,8.30078125,4.638671875,0.648193359375,40.3363037109375,-76.1407470703125
1758525363.6794105,-0.7109375,0.1337890625,0.55859375,10.25390625,8.30078125,4.638671875,0.780029296875,40.462646484375,-76.1187744140625
1758525363.689478,-0.72021484375,0.1298828125,0.7001953125,-25.32958984375,9.33837890625,6.8359375,0.5767822265625,40.594482421875,-76.058349609375
1758525363.7001615,-0.72021484375,0.1298828125,0.7001953125,-25.32958984375,9.33837890625,6.8359375,0.384521484375,40.726318359375,-75.9979248046875
1758525363.7097828,-0.58349609375,-0.17822265625,0.8740234375,-5.67626953125,8.85009765625,5.18798828125,0.3680419921875,40.84716796875,-75.95947265625
1758525363.7195191,-0.58349609375,-0.17822265625,0.8740234375,-5.67626953125,8.85009765625,5.18798828125,0.340576171875,40.9625244140625,-75.926513671875
1758525363.7298164,-0.5244140625,-0.08935546875,0.67578125,21.484375,10.6201171875,2.3193359375,0.560302734375,41.0888671875,-75.9375
1758525363.7402806,-0.5244140625,-0.08935546875,0.67578125,21.484375,10.6201171875,2.3193359375,0.7745361328125,41.209716796875,-75.9539794921875
1758525363.7496972,-0.59912109375,0.064453125,0.72119140625,10.25390625,9.1552734375,0.67138671875,0.8624267578125,41.3140869140625,-75.9869384765625
1758525363.7598045,-0.59912109375,0.064453125,0.72119140625,10.25390625,9.1552734375,0.67138671875,0.955810546875,41.4129638671875,-76.0198974609375
1758525363.7701476,-0.7099609375,0.03515625,0.787109375,4.638671875,9.521484375,1.220703125,0.999755859375,41.517333984375,-76.036376953125
1758525363.7797947,-0.7099609375,0.03515625,0.787109375,4.638671875,9.521484375,1.220703125,1.0491943359375,41.6162109375,-76.04736328125
1758525363.7895534,-0.814453125,0.03076171875,0.7890625,3.7841796875,5.92041015625,1.708984375,1.0931396484375,41.68212890625,-76.058349609375
1758525363.799628,-0.814453125,0.03076171875,0.7890625,3.7841796875,5.92041015625,1.708984375,1.1370849609375,41.7535400390625,-76.0638427734375
1758525363.8102741,-0.88037109375,0.22607421875,0.9931640625,-9.3994140625,0.42724609375,1.64794921875,1.0601806640625,41.7645263671875,-76.058349609375
1758525363.8195944,-0.88037109375,0.22607421875,0.9931640625,-9.3994140625,0.42724609375,1.64794921875,0.98876953125,41.7755126953125,-76.0418701171875
1758525363.829593,-0.75830078125,0.2763671875,0.91455078125,-44.7998046875,-5.18798828125,3.35693359375,0.59326171875,41.72607421875,-75.9979248046875
1758525363.8402853,-0.75830078125,0.2763671875,0.91455078125,-44.7998046875,-5.18798828125,3.35693359375,0.2032470703125,41.68212890625,-75.9375
1758525363.8497376,-0.70068359375,0.037109375,0.50244140625,-59.02099609375,-6.34765625,6.77490234375,-0.28564453125,41.6217041015625,-75.82763671875
1758525363.8598626,-0.70068359375,0.037109375,0.50244140625,-59.02099609375,-6.34765625,6.77490234375,-0.7745361328125,41.572265625,-75.7177734375
1758525363.869653,-0.72900390625,-0.12451171875,0.57861328125,-38.14697265625,-6.40869140625,5.615234375,-1.07666015625,41.5283203125,-75.6298828125
1758525363.8807285,-0.72900390625,-0.12451171875,0.57861328125,-38.14697265625,-6.40869140625,5.615234375,-1.3787841796875,41.4898681640625,-75.5474853515625
1758525363.8896873,-0.90771484375,-0.12158203125,0.68896484375,-14.404296875,-7.87353515625,3.96728515625,-1.4666748046875,41.4404296875,-75.498046875
1758525363.8997633,-0.90771484375,-0.12158203125,0.68896484375,-14.404296875,-7.87353515625,3.96728515625,-1.56005859375,41.3909912109375,-75.4541015625
1758525363.9099534,-0.673828125,0.1728515625,0.98095703125,-16.357421875,-12.63427734375,1.89208984375,-1.680908203125,41.2921142578125,-75.4266357421875
1758525363.9208581,-0.673828125,0.1728515625,0.98095703125,-16.357421875,-12.63427734375,1.89208984375,-1.8017578125,41.187744140625,-75.3936767578125
1758525363.9227045,-0.673828125,0.1728515625,0.98095703125,-16.357421875,-12.63427734375,1.89208984375,121.4044189453125,-161.3067626953125,0.0054931640625
1758525363.9297178,-0.41943359375,0.19189453125,0.9267578125,-53.03955078125,-13.671875,5.0048828125,-2.2467041015625,41.06689453125,-75.3057861328125
1758525363.939729,-0.41943359375,0.19189453125,0.9267578125,-53.03955078125,-13.671875,5.0048828125,-2.6861572265625,40.93505859375,-75.201416015625
1758525363.9497154,-0.373046875,-0.0009765625,0.6142578125,-73.91357421875,-12.3291015625,6.103515625,-3.3233642578125,40.8087158203125,-75.08056640625
1758525363.9611242,-0.373046875,-0.0009765625,0.6142578125,-73.91357421875,-12.3291015625,6.103515625,-3.9495849609375,40.6878662109375,-74.9542236328125
1758525363.9697306,-0.4189453125,-0.15185546875,0.56494140625,-60.4248046875,-6.40869140625,6.9580078125,-4.449462890625,40.6219482421875,-74.827880859375
1758525363.9798021,-0.4189453125,-0.15185546875,0.56494140625,-60.4248046875,-6.40869140625,6.9580078125,-4.9493408203125,40.5560302734375,-74.70703125
1758525363.989795,-0.49462890625,-0.189453125,0.5283203125,-22.0947265625,-0.6103515625,6.591796875,-5.0811767578125,40.5450439453125,-74.608154296875
1758525364.0000575,-0.49462890625,-0.189453125,0.5283203125,-22.0947265625,-0.6103515625,6.591796875,-5.2239990234375,40.53955078125,-74.520263671875
1758525364.0098066,-0.5322265625,-0.22021484375,0.8447265625,23.8037109375,1.52587890625,5.18798828125,-4.9273681640625,40.550537109375,-74.4598388671875
1758525364.019857,-0.5322265625,-0.22021484375,0.8447265625,23.8037109375,1.52587890625,5.18798828125,-4.647216796875,40.5560302734375,-74.410400390625
1758525364.0305176,-0.52197265625,0.04345703125,0.99951171875,36.92626953125,5.9814453125,6.16455078125,-4.2242431640625,40.5999755859375,-74.344482421875
1758525364.0399969,-0.52197265625,0.04345703125,0.99951171875,36.92626953125,5.9814453125,6.16455078125,-3.8067626953125,40.638427734375,-74.278564453125
1758525364.049831,-0.53857421875,0.0927734375,0.97802734375,2.3193359375,6.9580078125,6.53076171875,-3.7188720703125,40.6768798828125,-74.190673828125
1758525364.060217,-0.53857421875,0.0927734375,0.97802734375,2.3193359375,6.9580078125,6.53076171875,-3.62548828125,40.71533203125,-74.102783203125
1758525364.0706475,-0.57177734375,-0.1083984375,0.69873046875,-3.11279296875,12.14599609375,8.97216796875,-3.5760498046875,40.8087158203125,-73.9874267578125
1758525364.0798788,-0.57177734375,-0.1083984375,0.69873046875,-3.11279296875,12.14599609375,8.97216796875,-3.526611328125,40.8966064453125,-73.8775634765625
1758525364.0898573,-0.779296875,-0.20751953125,0.7294921875,32.77587890625,12.14599609375,6.77490234375,-3.1475830078125,40.9954833984375,-73.80615234375
1758525364.0998867,-0.779296875,-0.20751953125,0.7294921875,32.77587890625,12.14599609375,6.77490234375,-2.779541015625,41.0943603515625,-73.751220703125
1758525364.1104941,-1.0078125,-0.0498046875,0.9853515625,52.490234375,10.6201171875,4.39453125,-2.2357177734375,41.187744140625,-73.7237548828125
1758525364.1199665,-1.0078125,-0.0498046875,0.9853515625,52.490234375,10.6201171875,4.39453125,-1.69189453125,41.28662109375,-73.7017822265625
1758525364.129935,-0.88818359375,0.17041015625,0.85205078125,33.14208984375,11.90185546875,2.86865234375,-1.3458251953125,41.396484375,-73.685302734375
1758525364.1399558,-0.88818359375,0.17041015625,0.85205078125,33.14208984375,11.90185546875,2.86865234375,-0.9942626953125,41.5118408203125,-73.6688232421875
1758525364.1509228,-0.904296875,0.28076171875,0.49609375,-27.587890625,13.5498046875,1.77001953125,-1.2469482421875,41.649169921875,-73.6468505859375
1758525364.160184,-0.904296875,0.28076171875,0.49609375,-27.587890625,13.5498046875,1.77001953125,-1.4886474609375,41.802978515625,-73.619384765625
1758525364.1699781,-0.982421875,-0.0146484375,0.68408203125,-50.537109375,13.3056640625,0.732421875,-1.966552734375,41.956787109375,-73.6029052734375
1758525364.180057,-0.982421875,-0.0146484375,0.68408203125,-50.537109375,13.3056640625,0.732421875,-2.4444580078125,42.1160888671875,-73.597412109375
1758525364.1905293,-0.74853515625,-0.05615234375,0.8740234375,-26.0009765625,6.40869140625,0.0,-2.6861572265625,42.2039794921875,-73.5919189453125
1758525364.2000062,-0.74853515625,-0.05615234375,0.8740234375,-26.0009765625,6.40869140625,0.0,-2.92236328125,42.286376953125,-73.5919189453125
1758525364.210033,-0.74853515625,-0.05615234375,0.8740234375,-18.12744140625,5.67626953125,1.52587890625,-3.0706787109375,42.36328125,-73.5699462890625
1758525364.2210772,-0.56787109375,0.08740234375,0.474609375,-18.12744140625,5.67626953125,1.52587890625,-3.2135009765625,42.4456787109375,-73.54248046875
1758525364.2300713,-0.6171875,-0.06591796875,0.52490234375,-25.390625,2.99072265625,1.40380859375,-3.427734375,42.5006103515625,-73.5150146484375
1758525364.2471335,-0.6171875,-0.06591796875,0.52490234375,-25.390625,2.99072265625,1.40380859375,-3.6419677734375,42.5555419921875,-73.4930419921875
1758525364.2575376,-0.697265625,-0.19287109375,0.69921875,-11.1083984375,4.8828125,0.8544921875,-3.7298583984375,42.626953125,-73.487548828125
1758525364.2649188,-0.697265625,-0.19287109375,0.69921875,-11.1083984375,4.8828125,0.8544921875,-3.8232421875,42.6983642578125,-73.4930419921875
1758525364.2712376,-0.6337890625,-0.12744140625,0.58642578125,15.869140625,6.28662109375,0.30517578125,-3.6639404296875,42.78076171875,-73.509521484375
1758525364.2801344,-0.6337890625,-0.12744140625,0.58642578125,15.869140625,6.28662109375,0.30517578125,-3.504638671875,42.86865234375,-73.531494140625
1758525364.2904081,-0.5986328125,-0.11767578125,0.521484375,40.6494140625,9.82666015625,-0.732421875,-3.1201171875,42.9840087890625,-73.575439453125
1758525364.300368,-0.5986328125,-0.11767578125,0.521484375,40.6494140625,9.82666015625,-0.732421875,-2.735595703125,43.1048583984375,-73.6248779296875
1758525364.3101146,-0.57763671875,-0.1220703125,0.45556640625,57.9833984375,15.0146484375,-2.86865234375,-2.208251953125,43.2806396484375,-73.707275390625
1758525364.3201559,-0.57763671875,-0.1220703125,0.45556640625,57.9833984375,15.0146484375,-2.86865234375,-1.6864013671875,43.450927734375,-73.8006591796875
1758525364.331003,-0.6552734375,-0.2255859375,0.47607421875,67.93212890625,18.85986328125,-4.94384765625,-1.0931396484375,43.6651611328125,-73.927001953125
1758525364.3402429,-0.6552734375,-0.2255859375,0.47607421875,67.93212890625,18.85986328125,-4.94384765625,-0.5108642578125,43.8848876953125,-74.0643310546875
1758525364.3501248,-0.85009765625,-0.13134765625,0.8974609375,68.54248046875,17.51708984375,-5.7373046875,0.0604248046875,44.088134765625,-74.212646484375
1758525364.360799,-0.9638671875,0.05859375,1.23974609375,48.9501953125,10.43701171875,-2.8076171875,0.5548095703125,44.2474365234375,-74.344482421875
1758525364.3704934,-0.9638671875,0.05859375,1.23974609375,48.9501953125,10.43701171875,-2.8076171875,0.9722900390625,44.36279296875,-74.4378662109375
1758525364.380215,-0.79296875,0.2548828125,1.1875,6.7138671875,0.42724609375,2.25830078125,1.2139892578125,44.417724609375,-74.4927978515625
1758525364.39022,-0.79296875,0.2548828125,1.1875,6.7138671875,0.42724609375,2.25830078125,1.2799072265625,44.417724609375,-74.4927978515625
1758525364.4002495,-0.58251953125,0.06494140625,0.67724609375,-53.1005859375,-4.39453125,7.9345703125,1.0821533203125,44.384765625,-74.443359375
1758525364.4110274,-0.58251953125,0.06494140625,0.67724609375,-53.1005859375,-4.39453125,7.9345703125,0.626220703125,44.3243408203125,-74.3499755859375
1758525364.4203196,-0.67236328125,-0.34228515625,0.2783203125,-10.498046875,-3.7841796875,8.60595703125,0.3790283203125,44.2694091796875,-74.256591796875
1758525364.4302325,-0.67236328125,-0.34228515625,0.2783203125,-10.498046875,-3.7841796875,8.60595703125,0.3350830078125,44.2364501953125,-74.1796875
1758525364.4403076,-0.82373046875,-0.1220703125,0.5185546875,61.03515625,-3.662109375,4.94384765625,0.6207275390625,44.208984375,-74.1412353515625
1758525364.4509754,-0.82373046875,-0.1220703125,0.5185546875,61.03515625,-3.662109375,4.94384765625,1.241455078125,44.18701171875,-74.1357421875
1758525364.4607804,-1.04931640625,0.4423828125,0.982421875,28.25927734375,-7.6904296875,6.04248046875,1.702880859375,44.1485595703125,-74.124755859375
1758525364.4702923,-1.04931640625,0.4423828125,0.982421875,28.25927734375,-7.6904296875,6.04248046875,2.0269775390625,44.0936279296875,-74.0753173828125
1758525364.4803476,-0.8193359375,0.13916015625,1.12646484375,-63.41552734375,-15.9912109375,13.36669921875,1.9390869140625,43.9892578125,-73.9599609375
1758525364.4911842,-0.8193359375,0.13916015625,1.12646484375,-63.41552734375,-15.9912109375,13.36669921875,1.439208984375,43.83544921875,-73.7896728515625
1758525364.500707,-0.54296875,-0.01611328125,0.6806640625,-101.50146484375,-17.4560546875,18.06640625,0.7745361328125,43.670654296875,-73.5809326171875
1758525364.5103745,-0.54296875,-0.01611328125,0.6806640625,-101.50146484375,-17.4560546875,18.06640625,-0.0494384765625,43.5003662109375,-73.3392333984375
1758525364.5211458,-0.4609375,-0.01416015625,0.29296875,-106.87255859375,-15.80810546875,14.46533203125,-0.9173583984375,43.341064453125,-73.1195068359375
1758525364.5309525,-0.4609375,-0.01416015625,0.29296875,-106.87255859375,-15.80810546875,14.46533203125,-1.82373046875,43.1927490234375,-72.9217529296875
1758525364.5429955,-0.53076171875,0.01513671875,0.35400390625,-79.4677734375,-8.30078125,12.451171875,-2.603759765625,43.0938720703125,-72.7349853515625
1758525364.5529113,-0.53076171875,0.01513671875,0.35400390625,-79.4677734375,-8.30078125,12.451171875,-3.2464599609375,43.033447265625,-72.5592041015625
1758525364.5609994,-0.78466796875,-0.1494140625,0.50439453125,-27.7099609375,-4.69970703125,13.7939453125,-3.62548828125,43.00048828125,-72.3724365234375
1758525364.5705569,-0.78466796875,-0.1494140625,0.50439453125,-27.7099609375,-4.69970703125,13.7939453125,-3.746337890625,42.9949951171875,-72.191162109375
1758525364.5804338,-0.8037109375,-0.0615234375,1.0537109375,22.0947265625,-6.89697265625,14.95361328125,-3.6199951171875,42.978515625,-72.00439453125
1758525364.5906577,-0.8037109375,-0.0615234375,1.0537109375,22.0947265625,-6.89697265625,14.95361328125,-3.2464599609375,42.9400634765625,-71.8121337890625
1758525364.600777,-0.728515625,0.3349609375,0.888671875,3.35693359375,-8.056640625,19.47021484375,-2.9443359375,42.890625,-71.5814208984375
1758525364.610548,-0.728515625,0.3349609375,0.888671875,3.35693359375,-8.056640625,19.47021484375,-2.6971435546875,42.835693359375,-71.30126953125
1758525364.621463,-0.92431640625,0.11962890625,0.83935546875,-62.92724609375,-16.4794921875,24.0478515625,-2.7520751953125,42.73681640625,-70.9771728515625
1758525364.6308718,-0.92431640625,0.11962890625,0.83935546875,-62.92724609375,-16.4794921875,24.0478515625,-3.109130859375,42.5994873046875,-70.6146240234375
1758525364.6408527,-0.6455078125,-0.43212890625,0.97509765625,-7.38525390625,-20.32470703125,24.59716796875,-3.18603515625,42.440185546875,-70.2520751953125
1758525364.6506562,-0.6455078125,-0.43212890625,0.97509765625,-7.38525390625,-20.32470703125,24.59716796875,-3.01025390625,42.2589111328125,-69.9114990234375
1758525364.6613476,-0.45458984375,-0.08642578125,0.52587890625,23.8037109375,-17.27294921875,25.20751953125,-2.691650390625,42.088623046875,-69.5819091796875
1758525364.6706374,-0.45458984375,-0.08642578125,0.52587890625,23.8037109375,-17.27294921875,25.20751953125,-2.2247314453125,41.934814453125,-69.2578125
1758525364.6809416,-0.4482421875,0.07861328125,0.48388671875,-4.45556640625,-12.02392578125,24.71923828125,-1.900634765625,41.7974853515625,-68.9447021484375
1758525364.6905088,-0.4482421875,0.07861328125,0.48388671875,-4.45556640625,-12.02392578125,24.71923828125,-1.724853515625,41.693115234375,-68.631591796875
1758525364.701488,-0.4482421875,0.07861328125,0.48388671875,-33.935546875,-5.67626953125,26.55029296875,-1.6864013671875,41.6162109375,-68.3074951171875
1758525364.7106624,-0.4453125,0.24462890625,0.595703125,-33.935546875,-5.67626953125,26.55029296875,-1.768798828125,41.572265625,-67.950439453125
1758525364.7210093,-0.60400390625,0.20361328125,0.724609375,-54.19921875,-1.28173828125,30.94482421875,-1.9281005859375,41.5447998046875,-67.554931640625
1758525364.7306747,-0.60400390625,0.20361328125,0.724609375,-54.19921875,-1.28173828125,30.94482421875,-2.1533203125,41.5447998046875,-67.12646484375
1758525364.741389,-0.61572265625,0.02197265625,1.09130859375,-40.6494140625,-1.64794921875,32.8369140625,-2.3016357421875,41.539306640625,-66.676025390625
1758525364.7506964,-0.61572265625,0.02197265625,1.09130859375,-40.6494140625,-1.64794921875,32.8369140625,-2.373046875,41.5228271484375,-66.2091064453125
1758525364.7610056,-0.65380859375,-0.1796875,1.0380859375,-14.95361328125,-4.0283203125,32.04345703125,-2.3291015625,41.4898681640625,-65.7586669921875
1758525364.770773,-0.65380859375,-0.1796875,1.0380859375,-14.95361328125,-4.0283203125,32.04345703125,-2.164306640625,41.4404296875,-65.3192138671875
1758525364.7813938,-0.77587890625,0.05419921875,0.81591796875,-26.30615234375,-5.31005859375,32.04345703125,-2.0709228515625,41.3800048828125,-64.8907470703125
1758525364.7906978,-0.77587890625,0.05419921875,0.81591796875,-26.30615234375,-5.31005859375,32.04345703125,-2.032470703125,41.319580078125,-64.4622802734375
1758525364.801043,-0.80078125,0.11865234375,0.8525390625,-61.21826171875,-9.765625,34.7900390625,-2.1478271484375,41.2371826171875,-64.0118408203125
1758525364.8110812,-0.80078125,0.11865234375,0.8525390625,-61.21826171875,-9.765625,34.7900390625,-2.427978515625,41.143798828125,-63.544921875
1758525364.8211327,-0.79638671875,-0.00048828125,0.623046875,-71.10595703125,-10.1318359375,39.55078125,-2.7301025390625,41.0504150390625,-63.03955078125
1758525364.8307638,-0.79638671875,-0.00048828125,0.623046875,-71.10595703125,-10.1318359375,39.55078125,-3.0596923828125,40.968017578125,-62.5067138671875
1758525364.841067,-0.81396484375,-0.05224609375,0.7265625,-60.24169921875,-10.8642578125,40.71044921875,-3.328857421875,40.89111328125,-61.973876953125
1758525364.851306,-0.81396484375,-0.05224609375,0.7265625,-60.24169921875,-10.8642578125,40.71044921875,-3.548583984375,40.8197021484375,-61.435546875
1758525364.8612335,-0.83642578125,-0.1259765625,0.60986328125,-31.005859375,-9.1552734375,41.50390625,-3.614501953125,40.75927734375,-60.897216796875
1758525364.8708093,-0.83642578125,-0.1259765625,0.60986328125,-31.005859375,-9.1552734375,41.50390625,-3.5430908203125,40.71533203125,-60.3643798828125
1758525364.8811562,-0.80224609375,-0.1572265625,0.56201171875,-0.9765625,-4.5166015625,39.1845703125,-3.33984375,40.6988525390625,-59.8590087890625
1758525364.8915033,-0.80224609375,-0.1572265625,0.56201171875,-0.9765625,-4.5166015625,39.1845703125,-3.0047607421875,40.704345703125,-59.381103515625
1758525364.9011853,-0.81103515625,0.12109375,0.5546875,-18.85986328125,0.3662109375,38.26904296875,-2.7630615234375,40.7373046875,-58.90869140625
1758525364.9108698,-0.81103515625,0.12109375,0.5546875,-18.85986328125,0.3662109375,38.26904296875,-2.61474609375,40.80322265625,-58.4417724609375
1758525364.9211838,-0.76904296875,0.1982421875,0.67529296875,-63.65966796875,-0.1220703125,38.818359375,-2.6806640625,40.8636474609375,-57.9693603515625
1758525364.9315872,-0.76904296875,0.1982421875,0.67529296875,-63.65966796875,-0.1220703125,38.818359375,-2.955322265625,40.9295654296875,-57.48046875
1758525364.9411879,-0.7001953125,0.11572265625,0.78857421875,-69.39697265625,1.03759765625,41.50390625,-3.2354736328125,40.9954833984375,-56.964111328125
1758525364.9509661,-0.7001953125,0.11572265625,0.78857421875,-69.39697265625,1.03759765625,41.50390625,-3.5321044921875,41.06689453125,-56.42578125
1758525364.9610624,-0.60107421875,0.06396484375,0.828125,-54.8095703125,-3.41796875,42.17529296875,-3.746337890625,41.1163330078125,-55.8819580078125
1758525364.970982,-0.60107421875,0.06396484375,0.828125,-54.8095703125,-3.41796875,42.17529296875,-3.878173828125,41.1383056640625,-55.3216552734375
1758525364.9809659,-0.48095703125,0.0146484375,0.6357421875,-29.1748046875,-0.67138671875,42.236328125,-3.8836669921875,41.1712646484375,-54.766845703125
1758525364.990979,-0.48095703125,0.0146484375,0.6357421875,-29.1748046875,-0.67138671875,42.236328125,-3.7628173828125,41.209716796875,-54.20654296875
1758525365.0014884,-0.3681640625,0.052734375,0.72412109375,-31.8603515625,3.72314453125,40.52734375,-3.6639404296875,41.2646484375,-53.6627197265625
1758525365.0110428,-0.3681640625,0.052734375,0.72412109375,-31.8603515625,3.72314453125,40.52734375,-3.5870361328125,41.33056640625,-53.1298828125
1758525365.021284,-0.4267578125,0.0390625,0.81103515625,-39.794921875,5.67626953125,40.52734375,-3.548583984375,41.4019775390625,-52.5860595703125
1758525365.0310059,-0.4267578125,0.0390625,0.81103515625,-39.794921875,5.67626953125,40.52734375,-3.548583984375,41.4678955078125,-52.0477294921875
1758525365.0414636,-0.4404296875,-0.24267578125,0.78369140625,-31.982421875,7.75146484375,39.1845703125,-3.5211181640625,41.5447998046875,-51.514892578125
1758525365.0512269,-0.4404296875,-0.24267578125,0.78369140625,-31.982421875,7.75146484375,39.1845703125,-3.4716796875,41.6217041015625,-51.0040283203125
1758525365.061309,-0.45361328125,-0.22216796875,0.712890625,0.79345703125,8.85009765625,36.2548828125,-3.284912109375,41.6986083984375,-50.526123046875
1758525365.0709984,-0.45361328125,-0.22216796875,0.712890625,0.79345703125,8.85009765625,36.2548828125,-2.9608154296875,41.7755126953125,-50.0811767578125
1758525365.081399,-0.7216796875,-0.1162109375,0.79052734375,-2.86865234375,8.48388671875,32.71484375,-2.6751708984375,41.846923828125,-49.6636962890625
1758525365.091022,-0.7216796875,-0.1162109375,0.79052734375,-2.86865234375,8.48388671875,32.71484375,-2.427978515625,41.9183349609375,-49.273681640625
1758525365.1014273,-1.20703125,0.07421875,1.37939453125,-2.86865234375,-1.46484375,31.06689453125,-2.186279296875,41.9403076171875,-48.8946533203125
1758525365.1114876,-1.20703125,0.07421875,1.37939453125,-2.86865234375,-1.46484375,31.06689453125,-1.944580078125,41.912841796875,-48.515625
1758525365.121616,-0.869140625,0.23828125,1.4365234375,-15.380859375,-11.77978515625,31.55517578125,-1.7578125,41.8359375,-48.131103515625
1758525365.1311083,-0.869140625,0.23828125,1.4365234375,-15.380859375,-11.77978515625,31.55517578125,-1.614990234375,41.7041015625,-47.724609375
1758525365.145643,-0.56591796875,0.12158203125,0.5546875,-59.38720703125,-16.2353515625,32.958984375,-1.6864013671875,41.5447998046875,-47.296142578125
1758525365.154451,-0.56591796875,0.12158203125,0.5546875,-59.38720703125,-16.2353515625,32.958984375,-1.9610595703125,41.3690185546875,-46.8621826171875
1758525365.161445,-0.48095703125,0.0517578125,0.39794921875,-94.3603515625,-13.61083984375,31.982421875,-2.4114990234375,41.209716796875,-46.42822265625
1758525365.171374,-0.48095703125,0.0517578125,0.39794921875,-94.3603515625,-13.61083984375,31.982421875,-3.0377197265625,41.077880859375,-46.0052490234375
1758525365.1816416,-0.48095703125,0.0517578125,0.39794921875,-85.205078125,-10.25390625,32.04345703125,-3.614501953125,40.968017578125,-45.5767822265625
1758525365.1911442,-0.5419921875,0.00732421875,0.4443359375,-85.205078125,-10.25390625,32.04345703125,-4.141845703125,40.880126953125,-45.15380859375
1758525365.2014673,-0.53125,0.0048828125,0.322265625,-51.8798828125,-6.65283203125,33.0810546875,-4.4989013671875,40.8197021484375,-44.7308349609375
1758525365.2117505,-0.53125,0.0048828125,0.322265625,-51.8798828125,-6.65283203125,33.0810546875,-4.6856689453125,40.792236328125,-44.3023681640625
1758525365.2215967,-0.52294921875,-0.12060546875,0.51025390625,-18.4326171875,-1.15966796875,32.53173828125,-4.713134765625,40.792236328125,-43.8848876953125
1758525365.2312298,-0.52294921875,-0.12060546875,0.51025390625,-18.4326171875,-1.15966796875,32.53173828125,-4.5867919921875,40.8197021484375,-43.4783935546875
1758525365.2415504,-0.60595703125,-0.05078125,0.65087890625,-0.1220703125,2.44140625,30.82275390625,-4.3780517578125,40.869140625,-43.0938720703125
1758525365.2518203,-0.60595703125,-0.05078125,0.65087890625,-0.1220703125,2.44140625,30.82275390625,-4.0924072265625,40.9295654296875,-42.725830078125
1758525365.2615871,-0.7607421875,-0.08154296875,0.81494140625,10.19287109375,3.0517578125,29.9072265625,-3.7628173828125,40.989990234375,-42.3687744140625
1758525365.2712686,-0.7607421875,-0.08154296875,0.81494140625,10.19287109375,3.0517578125,29.9072265625,-3.3892822265625,41.0504150390625,-42.0172119140625
1758525365.2816288,-0.8896484375,0.02734375,0.908203125,12.0849609375,1.15966796875,30.45654296875,-3.01025390625,41.1053466796875,-41.6656494140625
1758525365.2920015,-0.8896484375,0.02734375,0.908203125,12.0849609375,1.15966796875,30.45654296875,-2.61474609375,41.143798828125,-41.30859375
1758525365.301583,-0.900390625,0.232421875,1.02587890625,-13.00048828125,-4.45556640625,32.5927734375,-2.3345947265625,41.15478515625,-40.9295654296875
1758525365.3112626,-0.900390625,0.232421875,1.02587890625,-13.00048828125,-4.45556640625,32.5927734375,-2.1533203125,41.1328125,-40.5230712890625
1758525365.3215983,-0.8623046875,0.2900390625,0.84521484375,-38.9404296875,-11.04736328125,36.43798828125,-2.0819091796875,41.077880859375,-40.089111328125
1758525365.3315897,-0.8623046875,0.2900390625,0.84521484375,-38.9404296875,-11.04736328125,36.43798828125,-2.109375,40.9954833984375,-39.6112060546875
1758525365.3414972,-0.7763671875,0.18994140625,0.640625,-72.3876953125,-12.3291015625,42.41943359375,-2.274169921875,40.9075927734375,-39.0948486328125
1758525365.3513494,-0.7763671875,0.18994140625,0.640625,-72.3876953125,-12.3291015625,42.41943359375,-2.57080078125,40.8251953125,-38.5345458984375
1758525365.3616886,-0.78466796875,-0.0087890625,0.46923828125,-83.06884765625,-13.5498046875,46.2646484375,-2.900390625,40.7373046875,-37.9522705078125
1758525365.3719862,-0.78466796875,-0.0087890625,0.46923828125,-83.06884765625,-13.5498046875,46.2646484375,-3.2684326171875,40.660400390625,-37.3480224609375
1758525365.3817644,-0.8740234375,-0.16259765625,0.375,-68.2373046875,-11.41357421875,45.7763671875,-3.4991455078125,40.616455078125,-36.7657470703125
1758525365.3914196,-0.8740234375,-0.16259765625,0.375,-68.2373046875,-11.41357421875,45.7763671875,-3.7408447265625,40.58349609375,-36.1944580078125
1758525365.4023697,-0.80615234375,-0.10009765625,0.64599609375,-56.7626953125,-10.009765625,44.189453125,-3.8836669921875,40.5670166015625,-35.650634765625
1758525365.4116795,-0.80615234375,-0.10009765625,0.64599609375,-56.7626953125,-10.009765625,44.189453125,-4.031982421875,40.550537109375,-35.1177978515625
1758525365.4218502,-0.6923828125,-0.03564453125,0.802734375,-54.50439453125,-8.11767578125,43.76220703125,-4.163818359375,40.5560302734375,-34.5904541015625
1758525365.4315403,-0.6923828125,-0.03564453125,0.802734375,-54.50439453125,-8.11767578125,43.76220703125,-4.3011474609375,40.550537109375,-34.0631103515625
1758525365.4466524,-0.6337890625,-0.04150390625,0.81640625,-48.27880859375,-5.67626953125,43.45703125,-4.3780517578125,40.5670166015625,-33.541259765625
1758525365.4556196,-0.6337890625,-0.04150390625,0.81640625,-48.27880859375,-5.67626953125,43.45703125,-4.46044921875,40.58349609375,-33.0194091796875
1758525365.462596,-0.61572265625,0.02587890625,0.63134765625,-42.1142578125,-0.67138671875,42.05322265625,-4.493408203125,40.638427734375,-32.51953125
1758525365.4716618,-0.61572265625,0.02587890625,0.63134765625,-42.1142578125,-0.67138671875,42.05322265625,-4.5263671875,40.6988525390625,-32.01416015625
1758525365.4823024,-0.4755859375,0.03173828125,0.67529296875,-36.19384765625,4.2724609375,39.73388671875,-4.515380859375,40.7977294921875,-31.5472412109375
1758525365.491553,-0.4755859375,0.03173828125,0.67529296875,-36.19384765625,4.2724609375,39.73388671875,-4.5098876953125,40.89111328125,-31.0693359375
1758525365.5018156,-0.40087890625,0.03466796875,0.7490234375,-23.25439453125,7.26318359375,39.61181640625,-4.37255859375,41.0064697265625,-30.596923828125
1758525365.5115817,-0.40087890625,0.03466796875,0.7490234375,-23.25439453125,7.26318359375,39.61181640625,-4.2352294921875,41.1163330078125,-30.113525390625
1758525365.5221384,-0.43701171875,0.009765625,0.8974609375,-17.822265625,8.85009765625,41.56494140625,-4.0264892578125,41.2261962890625,-29.6026611328125
1758525365.5315363,-0.43701171875,0.009765625,0.8974609375,-17.822265625,8.85009765625,41.56494140625,-3.8177490234375,41.33056640625,-29.0863037109375
1758525365.5418634,-0.56591796875,-0.06884765625,0.9404296875,-16.29638671875,6.34765625,41.19873046875,-3.5980224609375,41.396484375,-28.5699462890625
1758525365.5518098,-0.56591796875,-0.06884765625,0.9404296875,-16.29638671875,6.34765625,41.19873046875,-3.3782958984375,41.46240234375,-28.0535888671875
1758525365.56222,-0.6337890625,-0.03662109375,1.0966796875,-32.5927734375,3.72314453125,40.83251953125,-3.328857421875,41.4898681640625,-27.5372314453125
1758525365.5715475,-0.6337890625,-0.03662109375,1.0966796875,-32.5927734375,3.72314453125,40.83251953125,-3.284912109375,41.517333984375,-27.0208740234375
1758525365.5818477,-0.58447265625,0.05322265625,0.85986328125,-65.0634765625,1.46484375,42.17529296875,-3.5430908203125,41.517333984375,-26.4825439453125
1758525365.5920715,-0.58447265625,0.05322265625,0.85986328125,-65.0634765625,1.46484375,42.17529296875,-3.80126953125,41.5228271484375,-25.9442138671875
1758525365.6018713,-0.62158203125,-0.0029296875,0.64013671875,-77.392578125,1.03759765625,43.212890625,-4.1693115234375,41.5283203125,-25.389404296875
1758525365.6116872,-0.62158203125,-0.0029296875,0.64013671875,-77.392578125,1.03759765625,43.212890625,-4.5318603515625,41.539306640625,-24.840087890625
1758525365.621901,-0.6552734375,-0.0234375,0.63330078125,-49.560546875,1.77001953125,42.29736328125,-4.6307373046875,41.561279296875,-24.3017578125
1758525365.6325505,-0.6552734375,-0.0234375,0.63330078125,-49.560546875,1.77001953125,42.29736328125,-4.72412109375,41.59423828125,-23.7744140625
1758525365.6418626,-0.609375,-0.029296875,0.59619140625,-17.9443359375,4.33349609375,38.9404296875,-4.537353515625,41.649169921875,-23.291015625
1758525365.6517606,-0.609375,-0.029296875,0.59619140625,-17.9443359375,4.33349609375,38.9404296875,-4.3505859375,41.7095947265625,-22.8131103515625
1758525365.6622865,-0.646484375,-0.107421875,0.67822265625,4.08935546875,6.591796875,35.7666015625,-3.9825439453125,41.7864990234375,-22.379150390625
1758525365.671835,-0.646484375,-0.107421875,0.67822265625,4.08935546875,6.591796875,35.7666015625,-3.614501953125,41.868896484375,-21.9561767578125
1758525365.6817656,-0.70263671875,-0.1904296875,1.06201171875,28.01513671875,4.94384765625,32.40966796875,-3.0487060546875,41.9183349609375,-21.5771484375
1758525365.6917937,-0.70263671875,-0.1904296875,1.06201171875,28.01513671875,4.94384765625,32.40966796875,-2.4884033203125,41.9677734375,-21.20361328125
1758525365.7022214,-0.70263671875,-0.1904296875,1.06201171875,14.5263671875,-0.18310546875,31.43310546875,-2.0654296875,41.956787109375,-20.830078125
1758525365.7118287,-0.82763671875,0.14404296875,1.05322265625,14.5263671875,-0.18310546875,31.43310546875,-1.6424560546875,41.94580078125,-20.45654296875
1758525365.7218504,-0.71533203125,0.18505859375,1.00830078125,-32.8369140625,-4.82177734375,32.470703125,-1.669921875,41.8853759765625,-20.0555419921875
1758525365.7319942,-0.71533203125,0.18505859375,1.00830078125,-32.8369140625,-4.82177734375,32.470703125,-1.69189453125,41.8194580078125,-19.6490478515625
1758525365.7421813,-0.7412109375,0.0546875,0.7724609375,-65.73486328125,-9.21630859375,33.69140625,-2.0269775390625,41.7205810546875,-19.2205810546875
1758525365.7518506,-0.7412109375,0.0546875,0.7724609375,-65.73486328125,-9.21630859375,33.69140625,-2.3565673828125,41.6217041015625,-18.797607421875
1758525365.7626848,-0.703125,0.1494140625,0.5830078125,-80.01708984375,-11.474609375,34.48486328125,-2.8179931640625,41.5118408203125,-18.3636474609375
1758525365.772077,-0.703125,0.1494140625,0.5830078125,-80.01708984375,-11.474609375,34.48486328125,-3.2684326171875,41.407470703125,-17.9241943359375
1758525365.7818494,-0.69189453125,-0.138671875,0.3671875,-70.12939453125,-9.46044921875,33.38623046875,-3.636474609375,41.3360595703125,-17.5067138671875
1758525365.7919292,-0.69189453125,-0.138671875,0.3671875,-70.12939453125,-9.46044921875,33.38623046875,-4.0045166015625,41.275634765625,-17.105712890625
1758525365.8025444,-0.806640625,-0.2021484375,0.8037109375,-29.47998046875,-11.962890625,31.494140625,-3.9935302734375,41.1932373046875,-16.732177734375
1758525365.8119717,-0.806640625,-0.2021484375,0.8037109375,-29.47998046875,-11.962890625,31.494140625,-3.9935302734375,41.11083984375,-16.36962890625
1758525365.8219154,-0.8046875,-0.00439453125,0.96337890625,-13.73291015625,-15.07568359375,33.75244140625,-3.812255859375,41.0009765625,-15.97412109375
1758525365.83197,-0.8046875,-0.00439453125,0.96337890625,-13.73291015625,-15.07568359375,33.75244140625,-3.636474609375,40.8856201171875,-15.57861328125
1758525365.8426504,-0.77490234375,0.12255859375,0.56494140625,-33.38623046875,-16.05224609375,35.33935546875,-3.636474609375,40.7647705078125,-15.1556396484375
1758525365.851986,-0.77490234375,0.12255859375,0.56494140625,-33.38623046875,-16.05224609375,35.33935546875,-3.636474609375,40.6494140625,-14.7381591796875
1758525365.862003,-0.7626953125,0.103515625,0.6181640625,-54.01611328125,-17.08984375,35.888671875,-3.8287353515625,40.528564453125,-14.3096923828125
1758525365.8719769,-0.7626953125,0.103515625,0.6181640625,-54.01611328125,-17.08984375,35.888671875,-4.0155029296875,40.4132080078125,-13.8812255859375
1758525365.88287,-0.6552734375,0.0400390625,0.544921875,-58.59375,-15.0146484375,37.2314453125,-4.24072265625,40.3253173828125,-13.436279296875
1758525365.8919878,-0.6552734375,0.0400390625,0.544921875,-58.59375,-15.0146484375,37.2314453125,-4.46044921875,40.2374267578125,-12.9913330078125
1758525365.9019172,-0.61328125,-0.1171875,0.4375,-53.03955078125,-9.94873046875,37.04833984375,-4.6307373046875,40.2044677734375,-12.5628662109375
1758525365.9120193,-0.61328125,-0.1171875,0.4375,-53.03955078125,-9.94873046875,37.04833984375,-4.81201171875,40.1824951171875,-12.139892578125
1758525365.9228601,-0.76318359375,-0.1767578125,0.5654296875,-22.3388671875,-8.7890625,33.50830078125,-4.7186279296875,40.166015625,-11.7718505859375
1758525365.9319751,-0.76318359375,-0.1767578125,0.5654296875,-22.3388671875,-8.7890625,33.50830078125,-4.63623046875,40.155029296875,-11.4093017578125
1758525365.9420843,-0.896484375,-0.0478515625,0.98779296875,-12.0849609375,-11.77978515625,31.92138671875,-4.46044921875,40.111083984375,-11.063232421875
1758525365.9523568,-0.896484375,-0.0478515625,0.98779296875,-12.0849609375,-11.77978515625,31.92138671875,-4.2901611328125,40.0616455078125,-10.72265625
1758525365.962376,-0.85302734375,-0.1396484375,1.11474609375,-15.68603515625,-18.06640625,32.53173828125,-4.15283203125,39.9407958984375,-10.3656005859375
1758525365.9721074,-0.85302734375,-0.1396484375,1.11474609375,-15.68603515625,-18.06640625,32.53173828125,-4.0264892578125,39.814453125,-10.008544921875
1758525365.9821417,-0.638671875,-0.0048828125,0.7666015625,-44.921875,-22.64404296875,35.15625,-4.163818359375,39.6441650390625,-9.6185302734375
1758525365.9925177,-0.638671875,-0.0048828125,0.7666015625,-44.921875,-22.64404296875,35.15625,-4.3011474609375,39.473876953125,-9.217529296875
1758525366.0021691,-0.58056640625,0.01318359375,0.5390625,-65.61279296875,-20.751953125,36.68212890625,-4.6307373046875,39.320068359375,-8.8055419921875
1758525366.0121393,-0.58056640625,0.01318359375,0.5390625,-65.61279296875,-20.751953125,36.68212890625,-4.954833984375,39.17724609375,-8.3880615234375
1758525366.0221756,-0.57275390625,0.1005859375,0.72509765625,-78.369140625,-18.00537109375,36.376953125,-5.4107666015625,39.056396484375,-7.97607421875
1758525366.0324125,-0.57275390625,0.1005859375,0.72509765625,-78.369140625,-18.00537109375,36.376953125,-5.855712890625,38.9410400390625,-7.5531005859375
1758525366.0443292,-0.513671875,-0.056640625,0.7265625,-75.13427734375,-14.5263671875,38.14697265625,-6.251220703125,38.858642578125,-7.1136474609375
1758525366.0527253,-0.513671875,-0.056640625,0.7265625,-75.13427734375,-14.5263671875,38.14697265625,-6.6522216796875,38.770751953125,-6.668701171875
1758525366.0625806,-0.57958984375,-0.10400390625,0.64404296875,-56.94580078125,-10.25390625,39.36767578125,-6.8719482421875,38.7322998046875,-6.2237548828125
1758525366.0724776,-0.57958984375,-0.10400390625,0.64404296875,-56.94580078125,-10.25390625,39.36767578125,-7.086181640625,38.6993408203125,-5.7733154296875
1758525366.0822322,-0.69580078125,-0.232421875,0.86279296875,-37.9638671875,-11.8408203125,38.4521484375,-7.130126953125,38.6444091796875,-5.33935546875
1758525366.0922356,-0.69580078125,-0.232421875,0.86279296875,-37.9638671875,-11.8408203125,38.4521484375,-7.1795654296875,38.5894775390625,-4.9163818359375
1758525366.102752,-0.83447265625,-0.3408203125,0.86474609375,3.96728515625,-10.986328125,37.59765625,-6.8280029296875,38.5455322265625,-4.5098876953125
1758525366.112312,-0.83447265625,-0.3408203125,0.86474609375,3.96728515625,-10.986328125,37.59765625,-6.4874267578125,38.5015869140625,-4.1143798828125
1758525366.1222377,-0.77294921875,-0.1591796875,0.64453125,22.3388671875,-15.07568359375,35.33935546875,-5.987548828125,38.4136962890625,-3.746337890625
1758525366.1322784,-0.77294921875,-0.1591796875,0.64453125,22.3388671875,-15.07568359375,35.33935546875,-5.4931640625,38.3258056640625,-3.3892822265625
1758525366.1429496,-0.63330078125,-0.05810546875,0.9111328125,33.0810546875,-12.26806640625,34.97314453125,-4.8944091796875,38.265380859375,-3.0377197265625
1758525366.1524754,-0.63330078125,-0.05810546875,0.9111328125,33.0810546875,-12.26806640625,34.97314453125,-4.3011474609375,38.1939697265625,-2.6861572265625
1758525366.1622996,-0.6455078125,0.1396484375,0.67578125,-1.708984375,-10.25390625,35.46142578125,-4.0484619140625,38.1390380859375,-2.3291015625
1758525366.172294,-0.6455078125,0.1396484375,0.67578125,-1.708984375,-10.25390625,35.46142578125,-3.790283203125,38.0841064453125,-1.9610595703125
1758525366.1829116,-0.6455078125,0.1396484375,0.67578125,-19.04296875,-6.16455078125,34.85107421875,-3.7078857421875,38.067626953125,-1.60400390625
1758525366.1925278,-0.55517578125,-0.03662109375,0.9287109375,-19.04296875,-6.16455078125,34.85107421875,-3.62548828125,38.0401611328125,-1.241455078125
1758525366.2023425,-0.46142578125,-0.060546875,0.8193359375,-1.5869140625,-5.9814453125,32.28759765625,-3.394775390625,38.0072021484375,-0.911865234375
1758525366.2123778,-0.46142578125,-0.060546875,0.8193359375,-1.5869140625,-5.9814453125,32.28759765625,-3.1640625,37.96875,-0.5767822265625
1758525366.2229674,-0.23876953125,-0.0009765625,0.97509765625,11.16943359375,-3.41796875,29.60205078125,-2.8289794921875,37.935791015625,-0.274658203125
1758525366.2323813,-0.23876953125,-0.0009765625,0.97509765625,11.16943359375,-3.41796875,29.60205078125,-2.493896484375,37.8973388671875,0.0384521484375
1758525366.2424033,-0.11962890625,0.05078125,0.9130859375,7.01904296875,-2.44140625,28.4423828125,-2.208251953125,37.847900390625,0.3460693359375
1758525366.253096,-0.11962890625,0.05078125,0.9130859375,7.01904296875,-2.44140625,28.4423828125,-1.922607421875,37.781982421875,0.670166015625
1758525366.2627027,-0.12060546875,0.02490234375,1.1142578125,7.2021484375,-2.99072265625,26.2451171875,-1.64794921875,37.6995849609375,0.9722900390625
1758525366.2723935,-0.12060546875,0.02490234375,1.1142578125,7.2021484375,-2.99072265625,26.2451171875,-1.373291015625,37.6007080078125,1.2908935546875
1758525366.2824204,-0.18701171875,0.0263671875,1.0498046875,8.85009765625,-3.35693359375,24.658203125,-1.0986328125,37.4853515625,1.5985107421875
1758525366.2932727,-0.18701171875,0.0263671875,1.0498046875,8.85009765625,-3.35693359375,24.658203125,-0.8184814453125,37.364501953125,1.9061279296875
1758525366.302544,-0.32421875,-0.06005859375,1.083984375,-5.92041015625,-2.44140625,21.728515625,-0.714111328125,37.2491455078125,2.1807861328125
1758525366.3124661,-0.32421875,-0.06005859375,1.083984375,-5.92041015625,-2.44140625,21.728515625,-0.6097412109375,37.1282958984375,2.4554443359375
1758525366.3225503,-0.40673828125,-0.20458984375,0.95458984375,-5.0048828125,-1.52587890625,18.12744140625,-0.5328369140625,37.012939453125,2.6861572265625
1758525366.332746,-0.40673828125,-0.20458984375,0.95458984375,-5.0048828125,-1.52587890625,18.12744140625,-0.4669189453125,36.903076171875,2.9058837890625
1758525366.3446496,-0.43017578125,-0.2216796875,0.78857421875,26.18408203125,2.197265625,13.671875,-0.1263427734375,36.837158203125,3.065185546875
1758525366.353032,-0.43017578125,-0.2216796875,0.78857421875,26.18408203125,2.197265625,13.671875,0.19775390625,36.771240234375,3.218994140625
1758525366.362581,-0.5,-0.1123046875,0.5458984375,68.66455078125,6.77490234375,10.68115234375,0.9173583984375,36.76025390625,3.3233642578125
1758525366.3738353,-0.5,-0.1123046875,0.5458984375,68.66455078125,6.77490234375,10.68115234375,1.6314697265625,36.7547607421875,3.416748046875
1758525366.3825262,-0.595703125,-0.05322265625,0.6396484375,78.7353515625,11.77978515625,6.9580078125,2.4169921875,36.8096923828125,3.460693359375
1758525366.3925464,-0.7021484375,-0.03564453125,0.6328125,75.62255859375,15.31982421875,5.31005859375,3.1805419921875,36.89208984375,3.4881591796875
1758525366.403309,-0.7021484375,-0.03564453125,0.6328125,75.62255859375,15.31982421875,5.31005859375,3.922119140625,37.001953125,3.4991455078125
1758525366.4126024,-0.798828125,0.17138671875,0.71044921875,70.25146484375,16.357421875,5.615234375,4.63623046875,37.1282958984375,3.504638671875
1758525366.422521,-0.798828125,0.17138671875,0.71044921875,70.25146484375,16.357421875,5.615234375,5.3338623046875,37.2711181640625,3.515625
1758525366.4325995,-0.90380859375,0.0693359375,0.712890625,64.0869140625,15.68603515625,7.14111328125,6.0205078125,37.4139404296875,3.5321044921875
1758525366.4433115,-0.90380859375,0.0693359375,0.712890625,64.0869140625,15.68603515625,7.14111328125,6.6796875,37.5677490234375,3.548583984375
1758525366.452645,-0.85791015625,0.14453125,0.7763671875,38.4521484375,13.18359375,8.60595703125,7.2235107421875,37.7105712890625,3.5760498046875
1758525366.462645,-0.85791015625,0.14453125,0.7763671875,38.4521484375,13.18359375,8.60595703125,7.646484375,37.847900390625,3.6090087890625
1758525366.4730308,-0.91064453125,0.12255859375,0.71875,-3.2958984375,10.6201171875,11.29150390625,7.877197265625,37.9742431640625,3.658447265625
1758525366.4834373,-0.91064453125,0.12255859375,0.71875,-3.2958984375,10.6201171875,11.29150390625,7.9156494140625,38.089599609375,3.724365234375
1758525366.492935,-1.08984375,0.11669921875,0.7109375,-28.9306640625,7.99560546875,14.83154296875,7.84423828125,38.199462890625,3.80126953125
1758525366.502678,-1.08984375,0.11669921875,0.7109375,-28.9306640625,7.99560546875,14.83154296875,7.6629638671875,38.29833984375,3.900146484375
1758525366.5129848,-1.27294921875,0.24462890625,1.0146484375,-11.71875,-0.54931640625,16.54052734375,7.58056640625,38.3642578125,3.9990234375
1758525366.5235279,-1.27294921875,0.24462890625,1.0146484375,-11.71875,-0.54931640625,16.54052734375,7.5860595703125,38.38623046875,4.1033935546875
1758525366.5330305,-1.08154296875,0.37109375,1.037109375,-18.4326171875,-11.962890625,18.49365234375,7.5750732421875,38.353271484375,4.21875
1758525366.5426564,-1.08154296875,0.37109375,1.037109375,-18.4326171875,-11.962890625,18.49365234375,7.53662109375,38.2598876953125,4.339599609375
1758525366.553021,-0.72802734375,0.15673828125,0.50732421875,-62.43896484375,-14.70947265625,22.3388671875,7.3004150390625,38.155517578125,4.4879150390625
1758525366.5628529,-0.72802734375,0.15673828125,0.50732421875,-62.43896484375,-14.70947265625,22.3388671875,6.8609619140625,38.03466796875,4.658203125
1758525366.5728414,-0.5673828125,0.1015625,0.53955078125,-103.759765625,-16.90673828125,19.775390625,6.207275390625,37.9083251953125,4.81201171875
1758525366.5827785,-0.5673828125,0.1015625,0.53955078125,-103.759765625,-16.90673828125,19.775390625,5.350341796875,37.7764892578125,4.954833984375
1758525366.5930183,-0.59375,0.25341796875,0.70263671875,-100.7080078125,-14.16015625,18.1884765625,4.50439453125,37.6611328125,5.0921630859375
1758525366.603442,-0.59375,0.25341796875,0.70263671875,-100.7080078125,-14.16015625,18.1884765625,3.680419921875,37.5567626953125,5.2349853515625
1758525366.6132543,-0.3544921875,-0.02783203125,0.50439453125,-49.25537109375,-11.53564453125,15.2587890625,3.109130859375,37.46337890625,5.3668212890625
1758525366.6227584,-0.3544921875,-0.02783203125,0.50439453125,-49.25537109375,-11.53564453125,15.2587890625,2.779541015625,37.386474609375,5.4766845703125
1758525366.6332467,-0.09912109375,-0.107421875,0.56201171875,18.6767578125,-5.9814453125,10.07080078125,2.7630615234375,37.33154296875,5.55908203125
1758525366.6435914,-0.09912109375,-0.107421875,0.56201171875,18.6767578125,-5.9814453125,10.07080078125,3.0596923828125,37.2930908203125,5.614013671875
1758525366.6531632,-0.1689453125,0.03662109375,0.9599609375,46.0205078125,-1.89208984375,6.8359375,3.4661865234375,37.265625,5.6524658203125
1758525366.6629138,-0.1689453125,0.03662109375,0.9599609375,46.0205078125,-1.89208984375,6.8359375,3.9935302734375,37.24365234375,5.679931640625
1758525366.674017,-0.33837890625,0.0751953125,1.232421875,24.84130859375,0.06103515625,4.638671875,4.39453125,37.2161865234375,5.701904296875
1758525366.6832602,-0.33837890625,0.0751953125,1.232421875,24.84130859375,0.06103515625,4.638671875,4.68017578125,37.177734375,5.7293701171875
1758525366.6932013,-0.40673828125,0.04052734375,0.97607421875,11.53564453125,-1.0986328125,3.60107421875,4.8944091796875,37.1282958984375,5.7513427734375
1758525366.7029028,-0.40673828125,0.04052734375,0.97607421875,11.53564453125,-1.0986328125,3.60107421875,5.03173828125,37.06787109375,5.767822265625
1758525366.7140396,-0.60107421875,0.08935546875,0.98095703125,-11.53564453125,-2.44140625,0.9765625,5.042724609375,36.9964599609375,5.767822265625
1758525366.722908,-0.60107421875,0.08935546875,0.98095703125,-11.53564453125,-2.44140625,0.9765625,4.9273681640625,36.925048828125,5.7513427734375
1758525366.7333274,-0.6484375,0.21630859375,0.89306640625,-20.5078125,-1.3427734375,3.23486328125,4.779052734375,36.859130859375,5.7513427734375
1758525366.7435338,-0.6484375,0.21630859375,0.89306640625,-20.5078125,-1.3427734375,3.23486328125,4.603271484375,36.80419921875,5.767822265625
1758525366.7533488,-0.6533203125,0.2841796875,0.76025390625,-26.7333984375,-1.64794921875,5.67626953125,4.4110107421875,36.749267578125,5.7952880859375
1758525366.7629597,-0.6533203125,0.2841796875,0.76025390625,-26.7333984375,-1.64794921875,5.67626953125,4.207763671875,36.6998291015625,5.8392333984375
1758525366.7733417,-0.68359375,0.26220703125,0.66259765625,-42.1142578125,1.77001953125,9.46044921875,3.9495849609375,36.6668701171875,5.91064453125
1758525366.78331,-0.68359375,0.26220703125,0.66259765625,-42.1142578125,1.77001953125,9.46044921875,3.636474609375,36.6558837890625,6.0040283203125
1758525366.7932932,-0.73193359375,0.02294921875,0.48095703125,-53.1005859375,5.859375,10.31494140625,3.284912109375,36.6778564453125,6.1029052734375
1758525366.8030617,-0.73193359375,0.02294921875,0.48095703125,-53.1005859375,5.859375,10.31494140625,2.8729248046875,36.727294921875,6.1962890625
1758525366.813454,-0.72607421875,-0.2470703125,0.4833984375,-43.0908203125,12.5732421875,8.30078125,2.5048828125,36.826171875,6.273193359375
1758525366.8237262,-0.72607421875,-0.2470703125,0.4833984375,-43.0908203125,12.5732421875,8.30078125,2.1697998046875,36.9635009765625,6.3226318359375
1758525366.8333788,-0.8154296875,-0.23486328125,0.6103515625,-24.71923828125,18.6767578125,5.43212890625,1.9061279296875,37.144775390625,6.339111328125
1758525366.843104,-0.8154296875,-0.23486328125,0.6103515625,-24.71923828125,18.6767578125,5.43212890625,1.7138671875,37.364501953125,6.328125
1758525366.8536081,-0.87548828125,0.0693359375,0.63671875,-2.86865234375,20.44677734375,3.0517578125,1.6094970703125,37.59521484375,6.295166015625
1758525366.8637667,-0.87548828125,0.0693359375,0.63671875,-2.86865234375,20.44677734375,3.0517578125,1.614990234375,37.8424072265625,6.2457275390625
1758525366.8734047,-0.78125,0.27587890625,0.8154296875,-0.732421875,19.59228515625,1.953125,1.6314697265625,38.089599609375,6.1907958984375
1758525366.883119,-0.78125,0.27587890625,0.8154296875,-0.732421875,19.59228515625,1.953125,1.6644287109375,38.3258056640625,6.1468505859375
1758525366.8937309,-0.62548828125,0.15771484375,0.99169921875,-12.8173828125,14.83154296875,3.72314453125,1.6534423828125,38.5345458984375,6.1138916015625
1758525366.9033387,-0.62548828125,0.15771484375,0.99169921875,-12.8173828125,14.83154296875,3.72314453125,1.5875244140625,38.7103271484375,6.1083984375
1758525366.9134338,-0.5556640625,-0.17333984375,0.77587890625,-19.47021484375,14.404296875,4.82177734375,1.4886474609375,38.8751220703125,6.1083984375
1758525366.9231763,-0.5556640625,-0.17333984375,0.77587890625,-19.47021484375,14.404296875,4.82177734375,1.351318359375,39.034423828125,6.1138916015625
1758525366.933741,-0.56201171875,-0.2841796875,0.7529296875,8.60595703125,11.53564453125,1.953125,1.3348388671875,39.17724609375,6.097412109375
1758525366.9449718,-0.56201171875,-0.2841796875,0.7529296875,8.60595703125,11.53564453125,1.953125,1.42822265625,39.298095703125,6.0589599609375
1758525366.953279,-0.5693359375,-0.11767578125,0.71533203125,44.86083984375,10.7421875,-0.54931640625,1.6864013671875,39.4189453125,5.99853515625
1758525366.9639478,-0.5693359375,-0.11767578125,0.71533203125,44.86083984375,10.7421875,-0.54931640625,2.1038818359375,39.5343017578125,5.921630859375
1758525366.9736466,-0.62451171875,0.07861328125,0.63720703125,64.51416015625,11.16943359375,-2.8076171875,2.6092529296875,39.649658203125,5.8282470703125
1758525366.9832568,-0.62451171875,0.07861328125,0.63720703125,64.51416015625,11.16943359375,-2.8076171875,3.2080078125,39.7760009765625,5.723876953125
1758525366.994031,-0.8095703125,0.267578125,0.9521484375,19.22607421875,6.8359375,-3.72314453125,3.5760498046875,39.8748779296875,5.614013671875
1758525367.0032647,-0.8095703125,0.267578125,0.9521484375,19.22607421875,6.8359375,-3.72314453125,3.7298583984375,39.9517822265625,5.5096435546875
1758525367.013636,-0.68896484375,0.177734375,1.015625,-37.53662109375,3.47900390625,0.244140625,3.6199951171875,40.0067138671875,5.438232421875
1758525367.0233421,-0.68896484375,0.177734375,1.015625,-37.53662109375,3.47900390625,0.244140625,3.251953125,40.0396728515625,5.3997802734375
1758525367.0340776,-0.6767578125,-0.07421875,0.51171875,-33.935546875,4.69970703125,0.30517578125,2.9058837890625,40.078125,5.361328125
1758525367.0433056,-0.6767578125,-0.07421875,0.51171875,-33.935546875,4.69970703125,0.30517578125,2.57080078125,40.1275634765625,5.3228759765625
1758525367.053696,-0.74609375,-0.06201171875,0.6005859375,1.40380859375,2.50244140625,-3.60107421875,2.4005126953125,40.177001953125,5.2459716796875
1758525367.0633392,-0.74609375,-0.06201171875,0.6005859375,1.40380859375,2.50244140625,-3.60107421875,2.384033203125,40.2154541015625,5.1361083984375
1758525367.074362,-0.8056640625,0.1591796875,0.697265625,-1.15966796875,2.5634765625,-3.662109375,2.35107421875,40.2593994140625,5.0262451171875
1758525367.0833821,-0.8056640625,0.1591796875,0.697265625,-1.15966796875,2.5634765625,-3.662109375,2.3126220703125,40.308837890625,4.921875
1758525367.093681,-0.775390625,0.10546875,0.7890625,-34.85107421875,0.732421875,0.8544921875,2.1368408203125,40.3472900390625,4.844970703125
1758525367.103769,-0.775390625,0.10546875,0.7890625,-34.85107421875,0.732421875,0.8544921875,1.8072509765625,40.3802490234375,4.801025390625
1758525367.1139586,-0.7265625,0.00341796875,0.724609375,-53.955078125,-3.173828125,4.94384765625,1.40625,40.3912353515625,4.7845458984375
1758525367.1234493,-0.7265625,0.00341796875,0.724609375,-53.955078125,-3.173828125,4.94384765625,0.9283447265625,40.3802490234375,4.7955322265625
1758525367.1337645,-0.58544921875,-0.076171875,0.84130859375,-25.20751953125,-4.5166015625,7.32421875,0.5987548828125,40.36376953125,4.822998046875
1758525367.1437478,-0.58544921875,-0.076171875,0.84130859375,-25.20751953125,-4.5166015625,7.32421875,0.4229736328125,40.3363037109375,4.8614501953125
1758525367.1540482,-0.49462890625,0.05322265625,0.81884765625,-15.07568359375,-6.16455078125,8.544921875,0.3021240234375,40.2923583984375,4.9163818359375
1758525367.1634407,-0.49462890625,0.05322265625,0.81884765625,-15.07568359375,-6.16455078125,8.544921875,0.230712890625,40.2374267578125,4.9822998046875
1758525367.1739202,-0.34912109375,0.01123046875,0.76953125,-14.2822265625,-4.150390625,10.92529296875,0.1812744140625,40.1824951171875,5.0701904296875
1758525367.1843297,-0.34912109375,0.01123046875,0.76953125,-14.2822265625,-4.150390625,10.92529296875,0.1373291015625,40.1385498046875,5.174560546875
1758525367.1938133,-0.3134765625,0.11767578125,0.74755859375,-21.728515625,0.8544921875,11.77978515625,0.06591796875,40.1055908203125,5.29541015625
1758525367.2035866,-0.3134765625,0.11767578125,0.74755859375,-21.728515625,0.8544921875,11.77978515625,-0.032958984375,40.089111328125,5.42724609375
1758525367.2139187,-0.404296875,0.25634765625,0.66845703125,-46.81396484375,3.84521484375,14.16015625,-0.24169921875,40.089111328125,5.5865478515625
1758525367.2242515,-0.404296875,0.25634765625,0.66845703125,-46.81396484375,3.84521484375,14.16015625,-0.5548095703125,40.0946044921875,5.7623291015625
1758525367.2339096,-0.724609375,0.06201171875,0.884765625,-44.3115234375,3.662109375,16.2353515625,-0.8404541015625,40.1055908203125,5.965576171875
1758525367.246434,-0.724609375,0.06201171875,0.884765625,-44.3115234375,3.662109375,16.2353515625,-1.1041259765625,40.1165771484375,6.17431640625
1758525367.2548478,-1.15576171875,-0.32421875,1.369140625,-12.6953125,-4.94384765625,14.892578125,-1.219482421875,40.089111328125,6.3665771484375
1758525367.2640626,-1.15576171875,-0.32421875,1.369140625,-12.6953125,-4.94384765625,14.892578125,-1.2030029296875,40.023193359375,6.5423583984375
1758525367.2738814,-0.9404296875,-0.23291015625,1.28759765625,-2.99072265625,-15.869140625,14.34326171875,-1.1480712890625,39.90234375,6.70166015625
1758525367.2836666,-0.9404296875,-0.23291015625,1.28759765625,-2.99072265625,-15.869140625,14.34326171875,-1.0601806640625,39.7320556640625,6.85546875
1758525367.294327,-0.56640625,0.03076171875,0.5126953125,-29.1748046875,-19.71435546875,14.22119140625,-1.109619140625,39.539794921875,7.0037841796875
1758525367.3038697,-0.56640625,0.03076171875,0.5126953125,-29.1748046875,-19.71435546875,14.22119140625,-1.285400390625,39.3365478515625,7.152099609375
1758525367.3136811,-0.4833984375,0.1416015625,0.53271484375,-49.560546875,-18.6767578125,12.14599609375,-1.571044921875,39.144287109375,7.283935546875
1758525367.3237915,-0.4833984375,0.1416015625,0.53271484375,-49.560546875,-18.6767578125,12.14599609375,-1.95556640625,38.95751953125,7.4102783203125
1758525367.3342505,-0.533203125,0.01025390625,0.48876953125,-31.982421875,-15.869140625,11.5966796875,-2.2467041015625,38.792724609375,7.5311279296875
1758525367.3438249,-0.533203125,0.01025390625,0.48876953125,-31.982421875,-15.869140625,11.5966796875,-2.449951171875,38.638916015625,7.646484375
1758525367.3540452,-0.3408203125,-0.07275390625,0.7373046875,-19.4091796875,-13.73291015625,11.65771484375,-2.5927734375,38.507080078125,7.7618408203125
1758525367.3638024,-0.3408203125,-0.07275390625,0.7373046875,-19.4091796875,-13.73291015625,11.65771484375,-2.6751708984375,38.375244140625,7.877197265625
1758525367.3745823,-0.19677734375,-0.1591796875,0.640625,-20.5078125,-8.36181640625,11.16943359375,-2.7685546875,38.2598876953125,7.998046875
1758525367.383793,-0.19677734375,-0.1591796875,0.640625,-20.5078125,-8.36181640625,11.16943359375,-2.87841796875,38.16650390625,8.10791015625
1758525367.3940446,-0.25732421875,-0.10302734375,0.58203125,-10.92529296875,-5.18798828125,8.6669921875,-2.9608154296875,38.0841064453125,8.2122802734375
1758525367.4038255,-0.25732421875,-0.10302734375,0.58203125,-10.92529296875,-5.18798828125,8.6669921875,-3.0047607421875,38.0126953125,8.294677734375
1758525367.4145582,-0.4814453125,-0.0263671875,0.935546875,7.2021484375,-1.8310546875,7.9345703125,-2.8729248046875,37.96875,8.37158203125
1758525367.4238715,-0.4814453125,-0.0263671875,0.935546875,7.2021484375,-1.8310546875,7.9345703125,-2.7410888671875,37.9193115234375,8.4539794921875
1758525367.4341023,-0.6279296875,0.166015625,1.0048828125,14.95361328125,-2.62451171875,8.48388671875,-2.52685546875,37.8643798828125,8.54736328125
1758525367.4438603,-0.6279296875,0.166015625,1.0048828125,14.95361328125,-2.62451171875,8.48388671875,-2.296142578125,37.803955078125,8.6407470703125
1758525367.4545894,-0.6748046875,0.07568359375,1.296875,-1.52587890625,-5.31005859375,10.3759765625,-2.21923828125,37.7215576171875,8.76708984375
1758525367.4638464,-0.6748046875,0.07568359375,1.296875,-1.52587890625,-5.31005859375,10.3759765625,-2.13134765625,37.6336669921875,8.89892578125
1758525367.4741292,-0.68798828125,-0.078125,1.03173828125,3.47900390625,-5.4931640625,11.41357421875,-1.9940185546875,37.540283203125,9.0362548828125
1758525367.4838874,-0.68798828125,-0.078125,1.03173828125,3.47900390625,-5.4931640625,11.41357421875,-1.8621826171875,37.4578857421875,9.173583984375
1758525367.4944255,-0.45458984375,-0.0595703125,0.853515625,5.859375,-7.32421875,8.36181640625,-1.7303466796875,37.3480224609375,9.2724609375
1758525367.5038877,-0.45458984375,-0.0595703125,0.853515625,5.859375,-7.32421875,8.36181640625,-1.60400390625,37.2381591796875,9.371337890625
1758525367.5141544,-0.31494140625,-0.02099609375,0.39111328125,-13.73291015625,-2.38037109375,9.3994140625,-1.6644287109375,37.1832275390625,9.481201171875
1758525367.5245137,-0.31494140625,-0.02099609375,0.39111328125,-13.73291015625,-2.38037109375,9.3994140625,-1.7303466796875,37.1282958984375,9.5855712890625
1758525367.5345109,-0.349609375,0.03564453125,0.50244140625,-17.9443359375,1.708984375,11.65771484375,-1.8182373046875,37.1173095703125,9.7119140625
1758525367.543961,-0.349609375,0.03564453125,0.50244140625,-17.9443359375,1.708984375,11.65771484375,-1.900634765625,37.1063232421875,9.84375
1758525367.5553136,-0.4619140625,0.01708984375,0.763671875,-28.50341796875,5.126953125,12.451171875,-2.0819091796875,37.1337890625,9.986572265625
1758525367.564077,-0.4619140625,0.01708984375,0.763671875,-28.50341796875,5.126953125,12.451171875,-2.26318359375,37.15576171875,10.1239013671875
1758525367.5743082,-0.6806640625,-0.09130859375,1.10546875,-24.4140625,0.91552734375,13.0615234375,-2.4005126953125,37.1392822265625,10.2777099609375
1758525367.5840826,-0.6806640625,-0.09130859375,1.10546875,-24.4140625,0.91552734375,13.0615234375,-2.537841796875,37.122802734375,10.426025390625
1758525367.5945113,-1.02587890625,-0.1728515625,1.7548828125,-2.5634765625,-10.31494140625,12.51220703125,-2.4609375,36.990966796875,10.56884765625
1758525367.6040587,-1.02587890625,-0.1728515625,1.7548828125,-2.5634765625,-10.31494140625,12.51220703125,-2.39501953125,36.8646240234375,10.711669921875
1758525367.6147108,-0.900390625,0.06787109375,1.26416015625,-7.8125,-17.51708984375,14.16015625,-2.362060546875,36.661376953125,10.8819580078125
1758525367.624118,-0.900390625,0.06787109375,1.26416015625,-7.8125,-17.51708984375,14.16015625,-2.3236083984375,36.4691162109375,11.0467529296875
1758525367.634163,-0.72119140625,-0.01513671875,0.82275390625,-39.00146484375,-18.61572265625,17.2119140625,-2.5762939453125,36.265869140625,11.2445068359375
1758525367.6442862,-0.72119140625,-0.01513671875,0.82275390625,-39.00146484375,-18.61572265625,17.2119140625,-2.8289794921875,36.0736083984375,11.436767578125
1758525367.6543677,-0.70166015625,-0.13330078125,0.24462890625,-28.74755859375,-12.26806640625,13.48876953125,-3.0047607421875,35.958251953125,11.568603515625
1758525367.6641,-0.70166015625,-0.13330078125,0.24462890625,-28.74755859375,-12.26806640625,13.48876953125,-3.18603515625,35.848388671875,11.689453125
1758525367.6741903,-0.81982421875,-0.2451171875,0.20361328125,9.521484375,-3.2958984375,10.19287109375,-3.021240234375,35.848388671875,11.744384765625
1758525367.6848505,-0.81982421875,-0.2451171875,0.20361328125,9.521484375,-3.2958984375,10.19287109375,-2.8619384765625,35.8648681640625,11.7828369140625
1758525367.6940823,-1.0703125,0.13525390625,0.39501953125,23.5595703125,1.220703125,7.4462890625,-2.5762939453125,35.9417724609375,11.7718505859375
1758525367.7041626,-1.0703125,0.13525390625,0.39501953125,23.5595703125,1.220703125,7.4462890625,-2.2796630859375,36.0296630859375,11.7608642578125
1758525367.7142134,-1.212890625,0.1279296875,1.01123046875,0.9765625,-0.67138671875,9.8876953125,-2.1807861328125,36.10107421875,11.7828369140625
1758525367.725106,-1.212890625,0.1279296875,1.01123046875,0.9765625,-0.67138671875,9.8876953125,-2.076416015625,36.1724853515625,11.8048095703125
1758525367.7341862,-0.75927734375,-0.15234375,1.0263671875,-1.52587890625,-2.685546875,10.43701171875,-1.99951171875,36.221923828125,11.8377685546875
1758525367.7441568,-0.75927734375,-0.15234375,1.0263671875,-1.52587890625,-2.685546875,10.43701171875,-1.9281005859375,36.2603759765625,11.876220703125
1758525367.7542462,-0.47900390625,-0.06103515625,0.37255859375,11.65771484375,-1.64794921875,8.72802734375,-1.7413330078125,36.309814453125,11.88720703125
1758525367.7647278,-0.47900390625,-0.06103515625,0.37255859375,11.65771484375,-1.64794921875,8.72802734375,-1.56005859375,36.3592529296875,11.898193359375
1758525367.7742374,-0.45654296875,-0.0849609375,0.29150390625,22.8271484375,5.43212890625,6.28662109375,-1.285400390625,36.485595703125,11.876220703125
1758525367.7842782,-0.45654296875,-0.0849609375,0.29150390625,22.8271484375,5.43212890625,6.28662109375,-1.0107421875,36.6064453125,11.84326171875
1758525367.7944608,-0.47314453125,-0.08984375,0.47265625,41.68701171875,12.939453125,4.69970703125,-0.5712890625,36.8096923828125,11.7938232421875
1758525367.8044662,-0.47314453125,-0.08984375,0.47265625,41.68701171875,12.939453125,4.69970703125,-0.1318359375,37.0074462890625,11.744384765625
1758525367.8142903,-0.4794921875,-0.29345703125,0.5263671875,52.8564453125,19.22607421875,2.9296875,0.384521484375,37.265625,11.6729736328125
1758525367.8243756,-0.4794921875,-0.29345703125,0.5263671875,52.8564453125,19.22607421875,2.9296875,0.90087890625,37.518310546875,11.590576171875
1758525367.8348258,-0.49658203125,-0.1474609375,0.69189453125,62.56103515625,22.5830078125,-0.3662109375,1.47216796875,37.7984619140625,11.4752197265625
1758525367.8470876,-0.49658203125,-0.1474609375,0.69189453125,62.56103515625,22.5830078125,-0.3662109375,2.04345703125,38.0731201171875,11.3653564453125
1758525367.8556893,-0.75244140625,0.068359375,0.88037109375,66.34521484375,21.05712890625,-1.0986328125,2.647705078125,38.331298828125,11.2554931640625
1758525367.8643575,-0.75244140625,0.068359375,0.88037109375,66.34521484375,21.05712890625,-1.0986328125,3.262939453125,38.5784912109375,11.1566162109375
1758525367.8749387,-0.912109375,0.3134765625,1.21044921875,51.08642578125,13.36669921875,0.18310546875,3.7408447265625,38.7432861328125,11.0906982421875
1758525367.8844094,-0.912109375,0.3134765625,1.21044921875,51.08642578125,13.36669921875,0.18310546875,4.2352294921875,38.8970947265625,11.0357666015625
1758525367.8943694,-0.74951171875,0.119140625,1.08837890625,22.52197265625,6.89697265625,1.03759765625,4.449462890625,38.9794921875,10.997314453125
1758525367.904495,-0.74951171875,0.119140625,1.08837890625,22.52197265625,6.89697265625,1.03759765625,4.669189453125,39.056396484375,10.96435546875
1758525367.9149327,-0.5986328125,0.0322265625,0.72412109375,7.50732421875,3.2958984375,0.91552734375,4.735107421875,39.100341796875,10.931396484375
1758525367.9244146,-0.5986328125,0.0322265625,0.72412109375,7.50732421875,3.2958984375,0.91552734375,4.801025390625,39.1387939453125,10.8984375
1758525367.9344158,-0.6650390625,0.10009765625,0.5185546875,-20.263671875,1.8310546875,-1.46484375,4.5703125,39.166259765625,10.8270263671875
1758525367.944476,-0.6650390625,0.10009765625,0.5185546875,-20.263671875,1.8310546875,-1.46484375,4.3505859375,39.2047119140625,10.7611083984375
1758525367.9550705,-0.677734375,0.2001953125,0.77734375,-64.02587890625,0.42724609375,-0.54931640625,3.702392578125,39.2266845703125,10.7061767578125
1758525367.9644604,-0.677734375,0.2001953125,0.77734375,-64.02587890625,0.42724609375,-0.54931640625,3.0706787109375,39.2431640625,10.65673828125
1758525367.974403,-0.67431640625,0.0283203125,0.62255859375,-77.69775390625,-0.8544921875,1.52587890625,2.318115234375,39.254150390625,10.634765625
1758525367.9844913,-0.67431640625,0.0283203125,0.62255859375,-77.69775390625,-0.8544921875,1.52587890625,1.5765380859375,39.2596435546875,10.6072998046875
1758525367.9951923,-0.76171875,-0.0849609375,0.62548828125,-46.93603515625,-2.9296875,1.46484375,1.131591796875,39.254150390625,10.579833984375
1758525368.004565,-0.76171875,-0.0849609375,0.62548828125,-46.93603515625,-2.9296875,1.46484375,0.692138671875,39.254150390625,10.5413818359375
1758525368.0149934,-0.7490234375,-0.14501953125,0.80712890625,5.126953125,-4.8828125,-0.3662109375,0.7470703125,39.232177734375,10.48095703125
1758525368.024619,-0.7490234375,-0.14501953125,0.80712890625,5.126953125,-4.8828125,-0.3662109375,0.7965087890625,39.210205078125,10.4150390625
1758525368.0345304,-0.6552734375,0.01318359375,0.78759765625,27.77099609375,-6.2255859375,-1.52587890625,1.0546875,39.17724609375,10.3326416015625
1758525368.0455763,-0.6552734375,0.01318359375,0.78759765625,27.77099609375,-6.2255859375,-1.52587890625,1.318359375,39.1387939453125,10.2557373046875
1758525368.055052,-0.484375,0.1328125,0.908203125,0.06103515625,-7.4462890625,-1.03759765625,1.307373046875,39.0838623046875,10.1898193359375
1758525368.0645232,-0.484375,0.1328125,0.908203125,0.06103515625,-7.4462890625,-1.03759765625,1.3018798828125,39.0179443359375,10.1348876953125
1758525368.0746412,-0.4052734375,0.2080078125,0.8115234375,-33.87451171875,-6.28662109375,1.46484375,0.9832763671875,38.95751953125,10.1239013671875
1758525368.0856678,-0.4052734375,0.2080078125,0.8115234375,-33.87451171875,-6.28662109375,1.46484375,0.6756591796875,38.8916015625,10.1239013671875
1758525368.0945077,-0.392578125,0.05126953125,0.57763671875,-48.33984375,-0.91552734375,3.60107421875,0.2471923828125,38.8751220703125,10.1568603515625
1758525368.104627,-0.392578125,0.05126953125,0.57763671875,-48.33984375,-0.91552734375,3.60107421875,-0.17578125,38.858642578125,10.1898193359375
1758525368.1146147,-0.4130859375,0.1083984375,0.54541015625,-30.029296875,4.638671875,4.8828125,-0.4010009765625,38.8916015625,10.2392578125
1758525368.1256454,-0.4130859375,0.1083984375,0.54541015625,-30.029296875,4.638671875,4.8828125,-0.626220703125,38.9300537109375,10.294189453125
1758525368.1346483,-0.513671875,0.07958984375,0.630859375,-5.859375,10.498046875,5.18798828125,-0.6097412109375,39.0234375,10.3546142578125
1758525368.147518,-0.513671875,0.07958984375,0.630859375,-5.859375,10.498046875,5.18798828125,-0.5877685546875,39.122314453125,10.4150390625
1758525368.1547582,-0.6357421875,-0.181640625,0.677734375,4.57763671875,14.46533203125,4.0283203125,-0.4833984375,39.2596435546875,10.447998046875
1758525368.1657774,-0.6357421875,-0.181640625,0.677734375,4.57763671875,14.46533203125,4.0283203125,-0.384521484375,39.4024658203125,10.48095703125
1758525368.1747122,-0.65673828125,-0.13427734375,0.9375,-6.04248046875,15.13671875,2.13623046875,-0.4229736328125,39.5452880859375,10.48095703125
1758525368.1846642,-0.65673828125,-0.13427734375,0.9375,-6.04248046875,15.13671875,2.13623046875,-0.4669189453125,39.6881103515625,10.48095703125
1758525368.1952827,-0.69189453125,-0.0556640625,1.10107421875,-26.0009765625,12.75634765625,2.13623046875,-0.7086181640625,39.7979736328125,10.4864501953125
1758525368.2046688,-0.69189453125,-0.0556640625,1.10107421875,-26.0009765625,12.75634765625,2.13623046875,-0.955810546875,39.9078369140625,10.4974365234375
1758525368.214662,-0.7919921875,-0.3173828125,0.9453125,-22.216796875,10.3759765625,0.732421875,-1.1810302734375,39.9957275390625,10.48095703125
1758525368.2247112,-0.7919921875,-0.3173828125,0.9453125,-22.216796875,10.3759765625,0.732421875,-1.4227294921875,40.078125,10.4534912109375
1758525368.2353876,-1.07275390625,-0.14501953125,1.16796875,23.74267578125,3.11279296875,-0.9765625,-1.2139892578125,40.10009765625,10.404052734375
1758525368.2447896,-1.07275390625,-0.14501953125,1.16796875,23.74267578125,3.11279296875,-0.9765625,-1.0162353515625,40.1220703125,10.3546142578125
1758525368.2548504,-1.037109375,0.4814453125,0.970703125,22.39990234375,-1.52587890625,1.0986328125,-0.791015625,40.10009765625,10.338134765625
1758525368.2648067,-1.037109375,0.4814453125,0.970703125,22.39990234375,-1.52587890625,1.0986328125,-0.5548095703125,40.0836181640625,10.3271484375
1758525368.2752771,-0.921875,0.3642578125,0.51220703125,-33.99658203125,-6.103515625,6.2255859375,-0.8184814453125,40.0341796875,10.382080078125
1758525368.2847958,-0.921875,0.3642578125,0.51220703125,-33.99658203125,-6.103515625,6.2255859375,-1.065673828125,39.9957275390625,10.4425048828125
1758525368.2948,-0.95947265625,-0.162109375,0.68994140625,-51.8798828125,-5.06591796875,5.79833984375,-1.4996337890625,39.9737548828125,10.491943359375
1758525368.3048222,-0.95947265625,-0.162109375,0.68994140625,-51.8798828125,-5.06591796875,5.79833984375,-1.9390869140625,39.957275390625,10.5303955078125
1758525368.3154347,-0.6396484375,-0.20166015625,0.572265625,-28.01513671875,-4.39453125,1.708984375,-2.1807861328125,39.9462890625,10.5084228515625
1758525368.32477,-0.6396484375,-0.20166015625,0.572265625,-28.01513671875,-4.39453125,1.708984375,-2.427978515625,39.9407958984375,10.48095703125
1758525368.3348482,-0.30517578125,-0.10302734375,0.4951171875,-15.7470703125,0.06103515625,-1.3427734375,-2.581787109375,39.9737548828125,10.4095458984375
1758525368.3448493,-0.30517578125,-0.10302734375,0.4951171875,-15.7470703125,0.06103515625,-1.3427734375,-2.7410888671875,40.001220703125,10.3436279296875
1758525368.3554847,-0.21435546875,-0.06689453125,0.3916015625,-11.29150390625,6.4697265625,-3.60107421875,-2.8839111328125,40.089111328125,10.2447509765625
1758525368.3648415,-0.21435546875,-0.06689453125,0.3916015625,-11.29150390625,6.4697265625,-3.60107421875,-3.0267333984375,40.1715087890625,10.1458740234375
1758525368.3749056,-0.19775390625,-0.15673828125,0.30224609375,8.48388671875,14.404296875,-6.4697265625,-3.0047607421875,40.3253173828125,10.008544921875
1758525368.3854182,-0.19775390625,-0.15673828125,0.30224609375,8.48388671875,14.404296875,-6.4697265625,-2.9937744140625,40.4791259765625,9.8712158203125
1758525368.395503,-0.2734375,-0.2314453125,0.435546875,43.0908203125,21.728515625,-10.31494140625,-2.6806640625,40.6988525390625,9.6734619140625
1758525368.4049094,-0.44384765625,-0.13134765625,0.51171875,74.15771484375,26.9775390625,-14.34326171875,-2.2467041015625,40.93505859375,9.4482421875
1758525368.4150116,-0.44384765625,-0.13134765625,0.51171875,74.15771484375,26.9775390625,-14.34326171875,-1.680908203125,41.2042236328125,9.195556640625
1758525368.42549,-0.734375,-0.08203125,0.63623046875,88.623046875,31.1279296875,-17.9443359375,-1.0601806640625,41.4898681640625,8.9208984375
1758525368.4350653,-0.734375,-0.08203125,0.63623046875,88.623046875,31.1279296875,-17.9443359375,-0.3900146484375,41.802978515625,8.6187744140625
1758525368.4452386,-0.734375,-0.08203125,0.63623046875,73.42529296875,27.2216796875,-21.728515625,0.186767578125,42.1051025390625,8.294677734375
1758525368.4549465,-1.25341796875,0.044921875,0.8486328125,73.42529296875,27.2216796875,-21.728515625,0.6866455078125,42.4017333984375,7.943115234375
1758525368.4650235,-1.51025390625,0.37060546875,1.81103515625,-2.38037109375,7.4462890625,-21.78955078125,0.81298828125,42.60498046875,7.5970458984375
1758525368.4749732,-1.51025390625,0.37060546875,1.81103515625,-2.38037109375,7.4462890625,-21.78955078125,0.582275390625,42.6983642578125,7.27294921875
1758525368.4849956,-0.841796875,-0.13037109375,1.1787109375,-46.32568359375,-2.44140625,-11.77978515625,0.186767578125,42.7313232421875,7.0257568359375
1758525368.4949675,-0.841796875,-0.13037109375,1.1787109375,-46.32568359375,-2.44140625,-11.77978515625,-0.3790283203125,42.7093505859375,6.8499755859375
1758525368.5057354,-0.65478515625,-0.28955078125,0.36962890625,1.03759765625,-10.43701171875,-11.29150390625,-0.7086181640625,42.6434326171875,6.6741943359375
1758525368.5150487,-0.65478515625,-0.28955078125,0.36962890625,1.03759765625,-10.43701171875,-11.29150390625,-0.8184814453125,42.5445556640625,6.492919921875
1758525368.525385,-0.76708984375,-0.34375,0.08544921875,57.12890625,-4.69970703125,-17.76123046875,-0.68115234375,42.484130859375,6.251220703125
1758525368.5360613,-0.76708984375,-0.34375,0.08544921875,57.12890625,-4.69970703125,-17.76123046875,-0.3076171875,42.4676513671875,5.943603515625
1758525368.545385,-0.76611328125,-0.15478515625,0.19580078125,90.8203125,0.732421875,-21.484375,0.19775390625,42.5006103515625,5.592041015625
1758525368.5550344,-0.76611328125,-0.15478515625,0.19580078125,90.8203125,0.732421875,-21.484375,0.85693359375,42.5665283203125,5.20751953125
1758525368.565503,-0.82275390625,-0.0126953125,0.4609375,84.8388671875,5.92041015625,-20.751953125,1.4886474609375,42.6763916015625,4.81201171875
1758525368.5758524,-0.82275390625,-0.0126953125,0.4609375,84.8388671875,5.92041015625,-20.751953125,2.098388671875,42.813720703125,4.427490234375
1758525368.5854077,-0.91064453125,0.16796875,1.0341796875,49.86572265625,2.0751953125,-17.88330078125,2.5433349609375,42.9345703125,4.06494140625
1758525368.5951731,-0.91064453125,0.16796875,1.0341796875,49.86572265625,2.0751953125,-17.88330078125,2.8399658203125,43.0279541015625,3.7408447265625
1758525368.6054082,-0.95947265625,0.2646484375,1.0810546875,23.37646484375,-5.06591796875,-12.51220703125,3.0322265625,43.0718994140625,3.4661865234375
1758525368.615785,-0.95947265625,0.2646484375,1.0810546875,23.37646484375,-5.06591796875,-12.51220703125,3.1256103515625,43.06640625,3.2354736328125
1758525368.6254768,-0.9189453125,0.12646484375,0.85009765625,6.04248046875,-12.51220703125,-9.46044921875,3.153076171875,43.0224609375,3.0377197265625
1758525368.6352215,-0.9189453125,0.12646484375,0.85009765625,6.04248046875,-12.51220703125,-9.46044921875,3.1146240234375,42.9400634765625,2.8619384765625
1758525368.6464443,-0.806640625,0.03564453125,0.6708984375,-13.85498046875,-14.7705078125,-7.8125,2.98828125,42.8411865234375,2.6971435546875
1758525368.6554215,-0.806640625,0.03564453125,0.6708984375,-13.85498046875,-14.7705078125,-7.8125,2.7685546875,42.73681640625,2.5433349609375
1758525368.6654766,-0.71435546875,0.02001953125,0.6669921875,-33.5693359375,-16.17431640625,-6.77490234375,2.4609375,42.6214599609375,2.4005126953125
1758525368.6751819,-0.71435546875,0.02001953125,0.6669921875,-33.5693359375,-16.17431640625,-6.77490234375,2.0599365234375,42.5006103515625,2.2576904296875
1758525368.6859558,-0.61279296875,-0.02734375,0.6513671875,-29.35791015625,-16.11328125,-6.16455078125,1.6864013671875,42.3797607421875,2.1258544921875
1758525368.6953595,-0.61279296875,-0.02734375,0.6513671875,-29.35791015625,-16.11328125,-6.16455078125,1.34033203125,42.25341796875,2.0050048828125
1758525368.7054873,-0.54638671875,0.01123046875,0.60205078125,-13.48876953125,-13.671875,-5.9814453125,1.0711669921875,42.1380615234375,1.878662109375
1758525368.7152555,-0.54638671875,0.01123046875,0.60205078125,-13.48876953125,-13.671875,-5.9814453125,0.8843994140625,42.03369140625,1.7633056640625
1758525368.7258258,-0.58642578125,0.00830078125,0.70556640625,0.0,-11.1083984375,-6.89697265625,0.7635498046875,41.9403076171875,1.6424560546875
1758525368.7353776,-0.58642578125,0.00830078125,0.70556640625,0.0,-11.1083984375,-6.89697265625,0.703125,41.85791015625,1.51611328125
1758525368.7457979,-0.66064453125,-0.037109375,0.7890625,-6.4697265625,-10.31494140625,-7.32421875,0.6097412109375,41.77001953125,1.3897705078125
1758525368.7555027,-0.66064453125,-0.037109375,0.7890625,-6.4697265625,-10.31494140625,-7.32421875,0.4833984375,41.6876220703125,1.263427734375
1758525368.7657692,-0.62353515625,-0.05517578125,0.94921875,-19.22607421875,-10.7421875,-8.056640625,0.28564453125,41.5997314453125,1.1370849609375
1758525368.775307,-0.62353515625,-0.05517578125,0.94921875,-19.22607421875,-10.7421875,-8.056640625,0.02197265625,41.5008544921875,1.0052490234375
1758525368.785619,-0.47021484375,-0.06494140625,1.03662109375,-18.06640625,-13.36669921875,-8.85009765625,-0.2362060546875,41.385498046875,0.8734130859375
1758525368.795691,-0.47021484375,-0.06494140625,1.03662109375,-18.06640625,-13.36669921875,-8.85009765625,-0.494384765625,41.24267578125,0.7470703125
1758525368.805685,-0.24072265625,0.01611328125,0.97314453125,-4.82177734375,-14.404296875,-10.55908203125,-0.6976318359375,41.0833740234375,0.6207275390625
