timestamp,acc_x,acc_y,acc_z,gyro_x,gyro_y,gyro_z,angle_x,angle_y,angle_z
1758877996.6271658,-0.67822265625,0.03466796875,0.72900390625,0.0,-1.03759765625,-0.1220703125,2.4884033203125,42.4237060546875,-80.7659912109375
1758877996.6364284,-0.671875,0.033203125,0.734375,-0.42724609375,-1.28173828125,-0.06103515625,2.4884033203125,42.4127197265625,-80.7659912109375
1758877996.6459765,-0.671875,0.033203125,0.734375,-0.42724609375,-1.28173828125,-0.06103515625,2.48291015625,42.4017333984375,-80.771484375
1758877996.6574352,-0.66552734375,0.029296875,0.74462890625,-0.30517578125,-1.3427734375,0.06103515625,2.4774169921875,42.3907470703125,-80.771484375
1758877996.6693776,-0.66552734375,0.029296875,0.74462890625,-0.30517578125,-1.3427734375,0.06103515625,2.4774169921875,42.374267578125,-80.771484375
1758877996.6816788,-0.66943359375,0.0283203125,0.74609375,0.48828125,-1.3427734375,0.0,2.48291015625,42.36328125,-80.771484375
1758877996.690354,-0.66943359375,0.0283203125,0.74609375,0.48828125,-1.3427734375,0.0,2.4884033203125,42.3468017578125,-80.771484375
1758877996.6987545,-0.6884765625,0.0341796875,0.7275390625,1.03759765625,-1.40380859375,-0.1220703125,2.493896484375,42.3358154296875,-80.7769775390625
1758877996.7065134,-0.6884765625,0.0341796875,0.7275390625,1.03759765625,-1.40380859375,-0.1220703125,2.5048828125,42.3248291015625,-80.782470703125
1758877996.7149806,-0.70458984375,0.0439453125,0.70654296875,0.67138671875,-1.28173828125,-0.42724609375,2.5048828125,42.3138427734375,-80.7879638671875
1758877996.724987,-0.70458984375,0.0439453125,0.70654296875,0.67138671875,-1.28173828125,-0.42724609375,2.5103759765625,42.3028564453125,-80.79345703125
1758877996.7349954,-0.69970703125,0.0458984375,0.71435546875,-0.42724609375,-1.03759765625,-0.79345703125,2.4993896484375,42.29736328125,-80.804443359375
1758877996.7450233,-0.69970703125,0.0458984375,0.71435546875,-0.42724609375,-1.03759765625,-0.79345703125,2.4884033203125,42.2918701171875,-80.8154296875
1758877996.755022,-0.6845703125,0.0390625,0.7275390625,-1.3427734375,-0.732421875,-1.0986328125,2.471923828125,42.2918701171875,-80.8319091796875
1758877996.7650905,-0.6845703125,0.0390625,0.7275390625,-1.3427734375,-0.732421875,-1.0986328125,2.449951171875,42.2918701171875,-80.8428955078125
1758877996.7753756,-0.66845703125,0.02978515625,0.7451171875,-1.3427734375,-0.30517578125,-1.15966796875,2.427978515625,42.2918701171875,-80.859375
1758877996.78508,-0.66845703125,0.02978515625,0.7451171875,-1.3427734375,-0.30517578125,-1.15966796875,2.406005859375,42.2918701171875,-80.870361328125
1758877996.7952332,-0.6474609375,0.02685546875,0.76171875,-0.9765625,0.0,-1.15966796875,2.3895263671875,42.29736328125,-80.8868408203125
1758877996.8051584,-0.6474609375,0.02685546875,0.76171875,-0.9765625,0.0,-1.15966796875,2.3675537109375,42.29736328125,-80.9033203125
1758877996.8151217,-0.638671875,0.0283203125,0.77001953125,-0.48828125,0.3662109375,-1.03759765625,2.3565673828125,42.3028564453125,-80.914306640625
1758877996.8251386,-0.638671875,0.0283203125,0.77001953125,-0.48828125,0.3662109375,-1.03759765625,2.3455810546875,42.308349609375,-80.9307861328125
1758877996.8351464,-0.6357421875,0.025390625,0.77197265625,0.0,0.6103515625,-0.8544921875,2.3345947265625,42.308349609375,-80.9417724609375
1758877996.8451684,-0.6357421875,0.025390625,0.77197265625,0.0,0.6103515625,-0.8544921875,2.3291015625,42.308349609375,-80.9527587890625
1758877996.855183,-0.64794921875,0.025390625,0.75830078125,0.732421875,0.8544921875,-0.79345703125,2.3291015625,42.3138427734375,-80.9637451171875
1758877996.8651984,-0.64794921875,0.025390625,0.75830078125,0.732421875,0.8544921875,-0.79345703125,2.3291015625,42.3193359375,-80.9747314453125
1758877996.8752208,-0.666015625,0.03125,0.74169921875,1.46484375,1.15966796875,-0.79345703125,2.340087890625,42.3248291015625,-80.9857177734375
1758877996.8852303,-0.666015625,0.03125,0.74169921875,1.46484375,1.15966796875,-0.79345703125,2.3455810546875,42.330322265625,-80.9967041015625
1758877996.8952475,-0.67626953125,0.03466796875,0.740234375,1.220703125,1.3427734375,-0.732421875,2.35107421875,42.3358154296875,-81.002197265625
1758877996.9052725,-0.67626953125,0.03466796875,0.740234375,1.220703125,1.3427734375,-0.732421875,2.3565673828125,42.3468017578125,-81.01318359375
1758877996.9152806,-0.67626953125,0.03125,0.73486328125,0.3662109375,1.5869140625,-0.42724609375,2.3565673828125,42.3577880859375,-81.0186767578125
1758877996.925282,-0.67626953125,0.03125,0.73486328125,0.3662109375,1.5869140625,-0.42724609375,2.362060546875,42.3687744140625,-81.024169921875
1758877996.9352927,-0.67041015625,0.0263671875,0.7353515625,-0.06103515625,1.64794921875,-0.06103515625,2.362060546875,42.38525390625,-81.0296630859375
1758877996.945323,-0.67041015625,0.0263671875,0.7353515625,-0.06103515625,1.64794921875,-0.06103515625,2.3565673828125,42.396240234375,-81.0296630859375
1758877996.9553258,-0.67431640625,0.02392578125,0.73876953125,0.244140625,1.5869140625,0.3662109375,2.3675537109375,42.4127197265625,-81.024169921875
1758877996.9653332,-0.67431640625,0.02392578125,0.73876953125,0.244140625,1.5869140625,0.3662109375,2.373046875,42.4237060546875,-81.0186767578125
1758877996.9753609,-0.6787109375,0.0234375,0.73681640625,0.54931640625,1.8310546875,1.03759765625,2.384033203125,42.440185546875,-81.0076904296875
1758877996.9853816,-0.6787109375,0.0234375,0.73681640625,0.54931640625,1.8310546875,1.03759765625,2.4005126953125,42.4566650390625,-80.9912109375
1758877996.9953933,-0.6787109375,0.01806640625,0.72900390625,0.79345703125,2.25830078125,1.8310546875,2.4224853515625,42.47314453125,-80.96923828125
1758877997.0054247,-0.6787109375,0.01806640625,0.72900390625,0.79345703125,2.25830078125,1.8310546875,2.4444580078125,42.4951171875,-80.947265625
1758877997.0154178,-0.67822265625,0.0205078125,0.740234375,2.13623046875,2.8076171875,2.50244140625,2.4884033203125,42.5225830078125,-80.914306640625
1758877997.0254343,-0.67822265625,0.0205078125,0.740234375,2.13623046875,2.8076171875,2.50244140625,2.5323486328125,42.5445556640625,-80.8868408203125
1758877997.0354564,-0.67138671875,0.02587890625,0.73828125,2.86865234375,3.11279296875,2.86865234375,2.581787109375,42.572021484375,-80.848388671875
1758877997.0454636,-0.67138671875,0.02587890625,0.73828125,2.86865234375,3.11279296875,2.86865234375,2.63671875,42.5994873046875,-80.8154296875
1758877997.055467,-0.66162109375,0.03955078125,0.73974609375,3.173828125,2.74658203125,3.0517578125,2.691650390625,42.626953125,-80.7769775390625
1758877997.065506,-0.66162109375,0.03955078125,0.73974609375,3.173828125,2.74658203125,3.0517578125,2.7520751953125,42.64892578125,-80.738525390625
1758877997.0756063,-0.6572265625,0.0458984375,0.7373046875,1.953125,1.77001953125,2.99072265625,2.7960205078125,42.659912109375,-80.7000732421875
1758877997.0855892,-0.6572265625,0.0458984375,0.7373046875,1.953125,1.77001953125,2.99072265625,2.8399658203125,42.6763916015625,-80.66162109375
1758877997.0955892,-0.66455078125,0.04736328125,0.744140625,1.03759765625,1.15966796875,2.86865234375,2.87841796875,42.681884765625,-80.6231689453125
1758877997.1056094,-0.66455078125,0.04736328125,0.744140625,1.03759765625,1.15966796875,2.86865234375,2.911376953125,42.6873779296875,-80.5902099609375
1758877997.115593,-0.662109375,0.03515625,0.7421875,0.91552734375,0.6103515625,2.99072265625,2.9443359375,42.6873779296875,-80.5517578125
1758877997.1256611,-0.662109375,0.03515625,0.7421875,0.91552734375,0.6103515625,2.99072265625,2.9827880859375,42.6873779296875,-80.5133056640625
1758877997.1356046,-0.6533203125,0.0322265625,0.740234375,1.220703125,0.1220703125,3.0517578125,3.021240234375,42.681884765625,-80.474853515625
1758877997.1456037,-0.6533203125,0.0322265625,0.740234375,1.220703125,0.1220703125,3.0517578125,3.0596923828125,42.6763916015625,-80.4364013671875
1758877997.155651,-0.65625,0.03955078125,0.76318359375,2.9296875,0.0,2.99072265625,3.109130859375,42.6708984375,-80.4034423828125
1758877997.1656919,-0.65625,0.03955078125,0.76318359375,2.9296875,0.0,2.99072265625,3.1640625,42.6654052734375,-80.364990234375
1758877997.1756856,-0.6552734375,0.04248046875,0.76318359375,2.13623046875,-0.06103515625,3.23486328125,3.2135009765625,42.6544189453125,-80.3265380859375
1758877997.1857152,-0.6552734375,0.04248046875,0.76318359375,2.13623046875,-0.06103515625,3.23486328125,3.262939453125,42.6434326171875,-80.2880859375
1758877997.1956706,-0.66357421875,0.048828125,0.755859375,0.0,0.0,3.60107421875,3.2904052734375,42.637939453125,-80.244140625
1758877997.2057388,-0.66357421875,0.048828125,0.755859375,0.0,0.0,3.60107421875,3.3233642578125,42.626953125,-80.2001953125
1758877997.2157724,-0.66650390625,0.04931640625,0.75146484375,-0.79345703125,0.3662109375,3.72314453125,3.3453369140625,42.6214599609375,-80.1507568359375
1758877997.2260032,-0.66650390625,0.04931640625,0.75146484375,-0.79345703125,0.3662109375,3.72314453125,3.372802734375,42.615966796875,-80.101318359375
1758877997.2358446,-0.66650390625,0.04931640625,0.75146484375,-0.732421875,0.48828125,3.7841796875,3.4002685546875,42.6104736328125,-80.057373046875
1758877997.2459478,-0.66015625,0.04296875,0.7578125,-0.48828125,0.30517578125,4.21142578125,3.427734375,42.60498046875,-80.00244140625
1758877997.2558105,-0.66015625,0.04296875,0.7578125,-0.48828125,0.30517578125,4.21142578125,3.460693359375,42.5994873046875,-79.9530029296875
1758877997.2726169,-0.6572265625,0.0380859375,0.76025390625,-1.220703125,-0.06103515625,4.638671875,3.4881591796875,42.5885009765625,-79.8980712890625
1758877997.278852,-0.6572265625,0.0380859375,0.76025390625,-1.220703125,-0.06103515625,4.638671875,3.515625,42.5775146484375,-79.837646484375
1758877997.2858555,-0.6640625,0.05078125,0.74462890625,-1.15966796875,-0.42724609375,4.82177734375,3.548583984375,42.5665283203125,-79.78271484375
1758877997.2959132,-0.6640625,0.05078125,0.74462890625,-1.15966796875,-0.42724609375,4.82177734375,3.5760498046875,42.550048828125,-79.7222900390625
1758877997.3060029,-0.67431640625,0.05712890625,0.75244140625,-1.0986328125,-0.8544921875,4.8828125,3.6090087890625,42.5335693359375,-79.661865234375
1758877997.3159375,-0.67431640625,0.05712890625,0.75244140625,-1.0986328125,-0.8544921875,4.8828125,3.636474609375,42.5115966796875,-79.6014404296875
1758877997.3259532,-0.67138671875,0.05810546875,0.73876953125,-3.11279296875,-0.6103515625,5.37109375,3.6639404296875,42.4951171875,-79.5355224609375
1758877997.3361738,-0.67138671875,0.05810546875,0.73876953125,-3.11279296875,-0.6103515625,5.37109375,3.680419921875,42.4786376953125,-79.464111328125
1758877997.345995,-0.65966796875,0.05224609375,0.74609375,-5.31005859375,-0.732421875,5.79833984375,3.6859130859375,42.4676513671875,-79.3927001953125
1758877997.3559551,-0.65966796875,0.05224609375,0.74609375,-5.31005859375,-0.732421875,5.79833984375,3.6859130859375,42.451171875,-79.3212890625
1758877997.365989,-0.6630859375,0.0546875,0.755859375,-7.8125,-0.9765625,5.9814453125,3.6749267578125,42.42919921875,-79.244384765625
1758877997.3769863,-0.6630859375,0.0546875,0.755859375,-7.8125,-0.9765625,5.9814453125,3.6529541015625,42.4127197265625,-79.16748046875
1758877997.386275,-0.65380859375,0.05419921875,0.74365234375,-8.6669921875,-1.46484375,6.103515625,3.62548828125,42.3907470703125,-79.090576171875
1758877997.3960001,-0.65380859375,0.05419921875,0.74365234375,-8.6669921875,-1.46484375,6.103515625,3.592529296875,42.36328125,-79.013671875
1758877997.4121835,-0.6494140625,0.048828125,0.74267578125,-9.521484375,-1.77001953125,6.28662109375,3.5595703125,42.34130859375,-78.936767578125
1758877997.4184113,-0.6494140625,0.048828125,0.74267578125,-9.521484375,-1.77001953125,6.28662109375,3.5211181640625,42.3138427734375,-78.8543701171875
1758877997.4260912,-0.63134765625,0.05029296875,0.75927734375,-10.55908203125,-2.13623046875,6.34765625,3.482666015625,42.286376953125,-78.7774658203125
1758877997.4364135,-0.63134765625,0.05029296875,0.75927734375,-10.55908203125,-2.13623046875,6.34765625,3.4332275390625,42.25341796875,-78.695068359375
1758877997.4463506,-0.62255859375,0.05029296875,0.78076171875,-11.53564453125,-2.25830078125,6.591796875,3.3837890625,42.220458984375,-78.6126708984375
1758877997.456098,-0.62255859375,0.05029296875,0.78076171875,-11.53564453125,-2.25830078125,6.591796875,3.328857421875,42.1820068359375,-78.5302734375
1758877997.4661257,-0.615234375,0.0478515625,0.79248046875,-12.14599609375,-2.3193359375,6.7138671875,3.27392578125,42.1490478515625,-78.4423828125
1758877997.4765384,-0.615234375,0.0478515625,0.79248046875,-12.14599609375,-2.3193359375,6.7138671875,3.2135009765625,42.110595703125,-78.3544921875
1758877997.4861264,-0.60205078125,0.0419921875,0.78857421875,-11.53564453125,-2.25830078125,6.591796875,3.1585693359375,42.0721435546875,-78.2720947265625
1758877997.4961402,-0.60205078125,0.0419921875,0.78857421875,-11.53564453125,-2.25830078125,6.591796875,3.1036376953125,42.0281982421875,-78.1842041015625
1758877997.5070622,-0.599609375,0.03662109375,0.7802734375,-9.82666015625,-2.01416015625,6.34765625,3.0596923828125,41.98974609375,-78.101806640625
1758877997.5161734,-0.599609375,0.03662109375,0.7802734375,-9.82666015625,-2.01416015625,6.34765625,3.0157470703125,41.9512939453125,-78.0194091796875
1758877997.5262074,-0.595703125,0.0361328125,0.771484375,-5.126953125,-1.52587890625,5.92041015625,2.999267578125,41.912841796875,-77.9425048828125
1758877997.5363069,-0.595703125,0.0361328125,0.771484375,-5.126953125,-1.52587890625,5.92041015625,3.0047607421875,41.8743896484375,-77.8656005859375
1758877997.5462253,-0.611328125,0.03369140625,0.77734375,-2.3193359375,-0.9765625,5.79833984375,3.021240234375,41.8414306640625,-77.794189453125
1758877997.5565002,-0.611328125,0.03369140625,0.77734375,-2.3193359375,-0.9765625,5.79833984375,3.0487060546875,41.81396484375,-77.71728515625
1758877997.5667214,-0.6220703125,0.04736328125,0.765625,-2.9296875,-0.1220703125,5.615234375,3.0706787109375,41.7864990234375,-77.6458740234375
1758877997.5775275,-0.6220703125,0.04736328125,0.765625,-2.9296875,-0.1220703125,5.615234375,3.0926513671875,41.7645263671875,-77.574462890625
1758877997.5862672,-0.625,0.0537109375,0.736328125,-1.64794921875,0.54931640625,5.55419921875,3.1201171875,41.7425537109375,-77.5030517578125
1758877997.5967193,-0.625,0.0537109375,0.736328125,-1.64794921875,0.54931640625,5.55419921875,3.1585693359375,41.7315673828125,-77.431640625
1758877997.6065586,-0.6455078125,0.041015625,0.7431640625,-0.06103515625,1.15966796875,5.37109375,3.197021484375,41.7205810546875,-77.3602294921875
1758877997.616545,-0.6455078125,0.041015625,0.7431640625,-0.06103515625,1.15966796875,5.37109375,3.2464599609375,41.715087890625,-77.2943115234375
1758877997.626397,-0.64404296875,0.03173828125,0.73193359375,5.126953125,1.77001953125,4.94384765625,3.31787109375,41.715087890625,-77.2283935546875
1758877997.6374395,-0.64404296875,0.03173828125,0.73193359375,5.126953125,1.77001953125,4.94384765625,3.4112548828125,41.715087890625,-77.1624755859375
1758877997.6463938,-0.650390625,0.01806640625,0.703125,12.6953125,2.38037109375,4.7607421875,3.5430908203125,41.7205810546875,-77.1075439453125
1758877997.6572866,-0.650390625,0.01806640625,0.703125,12.6953125,2.38037109375,4.7607421875,3.71337890625,41.7315673828125,-77.047119140625
1758877997.6665356,-0.6494140625,0.02490234375,0.734375,15.2587890625,2.8076171875,4.33349609375,3.88916015625,41.748046875,-76.9976806640625
1758877997.6772923,-0.6494140625,0.02490234375,0.734375,15.2587890625,2.8076171875,4.33349609375,4.0704345703125,41.7645263671875,-76.9537353515625
1758877997.6870337,-0.646484375,0.07080078125,0.71728515625,10.498046875,3.35693359375,4.57763671875,4.2352294921875,41.7864990234375,-76.904296875
1758877997.6974442,-0.646484375,0.07080078125,0.71728515625,10.498046875,3.35693359375,4.57763671875,4.37255859375,41.8084716796875,-76.8548583984375
1758877997.7064795,-0.68798828125,0.11376953125,0.76513671875,1.46484375,3.23486328125,5.06591796875,4.471435546875,41.8304443359375,-76.7999267578125
1758877997.7164733,-0.68798828125,0.11376953125,0.76513671875,1.46484375,3.23486328125,5.06591796875,4.5318603515625,41.8524169921875,-76.739501953125
1758877997.7267573,-0.68798828125,0.11376953125,0.76513671875,0.42724609375,2.5634765625,5.79833984375,4.5867919921875,41.8743896484375,-76.6680908203125
1758877997.736767,-0.72705078125,0.11767578125,0.77001953125,0.42724609375,2.5634765625,5.79833984375,4.647216796875,41.890869140625,-76.5966796875
1758877997.746539,-0.7041015625,0.01708984375,0.69580078125,9.521484375,2.50244140625,5.67626953125,4.7515869140625,41.9073486328125,-76.519775390625
1758877997.7568977,-0.7041015625,0.01708984375,0.69580078125,9.521484375,2.50244140625,5.67626953125,4.89990234375,41.9293212890625,-76.4483642578125
1758877997.7670798,-0.68896484375,0.00732421875,0.68212890625,15.80810546875,2.197265625,5.37109375,5.07568359375,41.9512939453125,-76.3824462890625
1758877997.776522,-0.68896484375,0.00732421875,0.68212890625,15.80810546875,2.197265625,5.37109375,5.2734375,41.9677734375,-76.3275146484375
1758877997.786715,-0.71875,0.06494140625,0.73193359375,17.51708984375,2.62451171875,5.2490234375,5.482177734375,41.9952392578125,-76.2725830078125
1758877997.7970192,-0.71875,0.06494140625,0.73193359375,17.51708984375,2.62451171875,5.2490234375,5.6964111328125,42.0172119140625,-76.2176513671875
1758877997.8066308,-0.71533203125,0.12744140625,0.7001953125,9.46044921875,2.685546875,5.55419921875,5.8721923828125,42.044677734375,-76.1572265625
1758877997.816621,-0.71533203125,0.12744140625,0.7001953125,9.46044921875,2.685546875,5.55419921875,6.009521484375,42.07763671875,-76.0968017578125
1758877997.8268344,-0.7294921875,0.14453125,0.6904296875,-0.79345703125,2.685546875,6.2255859375,6.1083984375,42.1051025390625,-76.025390625
1758877997.8370466,-0.7294921875,0.14453125,0.6904296875,-0.79345703125,2.685546875,6.2255859375,6.1578369140625,42.132568359375,-75.948486328125
1758877997.846755,-0.71484375,0.10595703125,0.69677734375,-6.28662109375,2.25830078125,6.7138671875,6.1798095703125,42.16552734375,-75.8660888671875
1758877997.8571074,-0.71484375,0.10595703125,0.69677734375,-6.28662109375,2.25830078125,6.7138671875,6.185302734375,42.1875,-75.78369140625
1758877997.8666942,-0.69873046875,0.06640625,0.7041015625,-4.82177734375,1.64794921875,6.89697265625,6.1962890625,42.2149658203125,-75.69580078125
1758877997.8767657,-0.69873046875,0.06640625,0.7041015625,-4.82177734375,1.64794921875,6.89697265625,6.2127685546875,42.2369384765625,-75.60791015625
1758877997.8870492,-0.689453125,0.05078125,0.712890625,0.8544921875,1.15966796875,7.14111328125,6.26220703125,42.25341796875,-75.5255126953125
1758877997.897032,-0.689453125,0.05078125,0.712890625,0.8544921875,1.15966796875,7.14111328125,6.3336181640625,42.2698974609375,-75.443115234375
1758877997.9067433,-0.6806640625,0.06201171875,0.7216796875,5.67626953125,0.79345703125,7.01904296875,6.4324951171875,42.2808837890625,-75.3607177734375
1758877997.9167464,-0.6806640625,0.06201171875,0.7216796875,5.67626953125,0.79345703125,7.01904296875,6.5478515625,42.2918701171875,-75.2783203125
1758877997.9271977,-0.69482421875,0.0927734375,0.73828125,5.67626953125,0.48828125,7.4462890625,6.668701171875,42.3028564453125,-75.1959228515625
1758877997.9370582,-0.69482421875,0.0927734375,0.73828125,5.67626953125,0.48828125,7.4462890625,6.78955078125,42.308349609375,-75.113525390625
1758877997.946798,-0.70751953125,0.10546875,0.72265625,2.0751953125,0.732421875,7.9345703125,6.8939208984375,42.3138427734375,-75.025634765625
1758877997.9568162,-0.70751953125,0.10546875,0.72265625,2.0751953125,0.732421875,7.9345703125,6.9818115234375,42.3193359375,-74.937744140625
1758877997.9671924,-0.69677734375,0.10693359375,0.71630859375,-2.197265625,0.79345703125,8.30078125,7.05322265625,42.330322265625,-74.8443603515625
1758877997.9768202,-0.69677734375,0.10693359375,0.71630859375,-2.197265625,0.79345703125,8.30078125,7.108154296875,42.3358154296875,-74.7454833984375
1758877997.9872866,-0.69482421875,0.08740234375,0.72314453125,-0.48828125,1.03759765625,8.36181640625,7.1685791015625,42.3468017578125,-74.6466064453125
1758877997.9971287,-0.69482421875,0.08740234375,0.72314453125,-0.48828125,1.03759765625,8.36181640625,7.239990234375,42.352294921875,-74.5477294921875
1758877998.0073287,-0.6865234375,0.07373046875,0.72314453125,2.3193359375,1.220703125,8.6669921875,7.3223876953125,42.36328125,-74.4488525390625
1758877998.0168922,-0.6865234375,0.07373046875,0.72314453125,2.3193359375,1.220703125,8.6669921875,7.4212646484375,42.374267578125,-74.3499755859375
1758877998.027247,-0.66259765625,0.08154296875,0.73486328125,5.31005859375,1.40380859375,8.7890625,7.53662109375,42.3797607421875,-74.2510986328125
1758877998.037949,-0.66259765625,0.08154296875,0.73486328125,5.31005859375,1.40380859375,8.7890625,7.66845703125,42.3907470703125,-74.1522216796875
1758877998.0472262,-0.64990234375,0.10595703125,0.7373046875,9.09423828125,1.708984375,8.72802734375,7.811279296875,42.4017333984375,-74.0533447265625
1758877998.057255,-0.64990234375,0.10595703125,0.7373046875,9.09423828125,1.708984375,8.72802734375,7.97607421875,42.4127197265625,-73.9544677734375
1758877998.0673633,-0.6455078125,0.12353515625,0.75732421875,7.6904296875,1.953125,8.72802734375,8.1353759765625,42.418212890625,-73.8555908203125
1758877998.0769553,-0.6455078125,0.12353515625,0.75732421875,7.6904296875,1.953125,8.72802734375,8.2891845703125,42.42919921875,-73.7567138671875
1758877998.0880642,-0.6640625,0.12646484375,0.76904296875,2.01416015625,1.8310546875,8.9111328125,8.41552734375,42.4346923828125,-73.65234375
1758877998.0973182,-0.6640625,0.12646484375,0.76904296875,2.01416015625,1.8310546875,8.9111328125,8.514404296875,42.440185546875,-73.5479736328125
1758877998.1073344,-0.65673828125,0.15966796875,0.7744140625,-8.72802734375,1.28173828125,9.27734375,8.558349609375,42.4346923828125,-73.443603515625
1758877998.1170967,-0.65673828125,0.15966796875,0.7744140625,-8.72802734375,1.28173828125,9.27734375,8.5528564453125,42.4346923828125,-73.3282470703125
1758877998.1279182,-0.7001953125,0.16162109375,0.767578125,-15.7470703125,0.54931640625,9.58251953125,8.5198974609375,42.4237060546875,-73.212890625
1758877998.1375787,-0.7001953125,0.16162109375,0.767578125,-15.7470703125,0.54931640625,9.58251953125,8.4539794921875,42.4072265625,-73.0975341796875
1758877998.1475646,-0.72119140625,0.13720703125,0.7607421875,-19.775390625,-0.18310546875,9.94873046875,8.3660888671875,42.3907470703125,-72.97119140625
1758877998.1572757,-0.72119140625,0.13720703125,0.7607421875,-19.775390625,-0.18310546875,9.94873046875,8.2672119140625,42.374267578125,-72.850341796875
1758877998.1676314,-0.7041015625,0.115234375,0.70166015625,-20.08056640625,-0.6103515625,10.498046875,8.162841796875,42.352294921875,-72.7239990234375
1758877998.1771877,-0.7041015625,0.115234375,0.70166015625,-20.08056640625,-0.6103515625,10.498046875,8.06396484375,42.330322265625,-72.5921630859375
1758877998.1882236,-0.7041015625,0.115234375,0.70166015625,-13.18359375,-0.79345703125,10.07080078125,7.998046875,42.308349609375,-72.4603271484375
1758877998.1975346,-0.69580078125,0.1103515625,0.703125,-13.18359375,-0.79345703125,10.07080078125,7.965087890625,42.2918701171875,-72.3394775390625
1758877998.2071648,-0.708984375,0.09912109375,0.7119140625,-10.8642578125,-0.30517578125,10.009765625,7.943115234375,42.275390625,-72.213134765625
1758877998.217208,-0.708984375,0.09912109375,0.7119140625,-10.8642578125,-0.30517578125,10.009765625,7.93212890625,42.264404296875,-72.09228515625
1758877998.227549,-0.7099609375,0.1123046875,0.6708984375,-14.58740234375,-0.3662109375,10.07080078125,7.899169921875,42.2479248046875,-71.9659423828125
1758877998.2377326,-0.7099609375,0.1123046875,0.6708984375,-14.58740234375,-0.3662109375,10.07080078125,7.8497314453125,42.242431640625,-71.8450927734375
1758877998.2471778,-0.7109375,0.12890625,0.69580078125,-19.4091796875,0.0,9.94873046875,7.75634765625,42.2369384765625,-71.71875
1758877998.2572365,-0.7109375,0.12890625,0.69580078125,-19.4091796875,0.0,9.94873046875,7.6629638671875,42.2314453125,-71.597900390625
1758877998.267617,-0.689453125,0.13525390625,0.69775390625,-17.578125,0.18310546875,9.21630859375,7.58056640625,42.2314453125,-71.4825439453125
1758877998.2775443,-0.689453125,0.13525390625,0.69775390625,-17.578125,0.18310546875,9.21630859375,7.4981689453125,42.2314453125,-71.3616943359375
1758877998.2872841,-0.6708984375,0.11865234375,0.72607421875,-16.845703125,0.3662109375,8.72802734375,7.4212646484375,42.2314453125,-71.2518310546875
1758877998.2977245,-0.6708984375,0.11865234375,0.72607421875,-16.845703125,0.3662109375,8.72802734375,7.3443603515625,42.2314453125,-71.136474609375
1758877998.3073437,-0.65234375,0.103515625,0.74365234375,-17.39501953125,0.48828125,8.1787109375,7.261962890625,42.2369384765625,-71.0321044921875
1758877998.317355,-0.65234375,0.103515625,0.74365234375,-17.39501953125,0.48828125,8.1787109375,7.174072265625,42.2369384765625,-70.927734375
1758877998.3275952,-0.638671875,0.0986328125,0.75439453125,-18.5546875,0.30517578125,7.75146484375,7.0697021484375,42.2314453125,-70.828857421875
1758877998.3375506,-0.638671875,0.0986328125,0.75439453125,-18.5546875,0.30517578125,7.75146484375,6.96533203125,42.2259521484375,-70.7354736328125
1758877998.3473365,-0.62158203125,0.10498046875,0.77490234375,-19.4091796875,0.0,6.89697265625,6.844482421875,42.220458984375,-70.6475830078125
1758877998.3573942,-0.62158203125,0.10498046875,0.77490234375,-19.4091796875,0.0,6.89697265625,6.7236328125,42.20947265625,-70.5596923828125
1758877998.3677375,-0.6044921875,0.1083984375,0.77734375,-19.34814453125,-0.244140625,6.2255859375,6.5972900390625,42.198486328125,-70.477294921875
1758877998.377465,-0.6044921875,0.1083984375,0.77734375,-19.34814453125,-0.244140625,6.2255859375,6.4764404296875,42.1820068359375,-70.400390625
1758877998.3874655,-0.59033203125,0.10009765625,0.7763671875,-22.39990234375,0.06103515625,5.615234375,6.3116455078125,42.16552734375,-70.323486328125
1758877998.397931,-0.59033203125,0.10009765625,0.7763671875,-22.39990234375,0.06103515625,5.615234375,6.15234375,42.1490478515625,-70.2520751953125
1758877998.4074814,-0.58984375,0.10107421875,0.76611328125,-23.8037109375,0.9765625,4.82177734375,5.9710693359375,42.1435546875,-70.1861572265625
1758877998.4175332,-0.58984375,0.10107421875,0.76611328125,-23.8037109375,0.9765625,4.82177734375,5.7952880859375,42.132568359375,-70.1202392578125
1758877998.4277725,-0.623046875,0.09423828125,0.76806640625,-27.03857421875,1.8310546875,3.7841796875,5.5755615234375,42.132568359375,-70.0653076171875
1758877998.437584,-0.623046875,0.09423828125,0.76806640625,-27.03857421875,1.8310546875,3.7841796875,5.3558349609375,42.132568359375,-70.0103759765625
1758877998.4475603,-0.64453125,0.08349609375,0.75830078125,-29.296875,2.50244140625,2.5634765625,5.1031494140625,42.1380615234375,-69.971923828125
1758877998.4583468,-0.64453125,0.08349609375,0.75830078125,-29.296875,2.50244140625,2.5634765625,4.8504638671875,42.1490478515625,-69.927978515625
1758877998.4676158,-0.71240234375,0.080078125,0.78271484375,-26.30615234375,2.62451171875,1.3427734375,4.6197509765625,42.1600341796875,-69.906005859375
1758877998.4778798,-0.71240234375,0.080078125,0.78271484375,-26.30615234375,2.62451171875,1.3427734375,4.3890380859375,42.1710205078125,-69.8785400390625
1758877998.4875774,-0.75537109375,0.05126953125,0.76611328125,-24.7802734375,2.38037109375,0.6103515625,4.163818359375,42.1875,-69.8675537109375
1758877998.4986775,-0.75537109375,0.05126953125,0.76611328125,-24.7802734375,2.38037109375,0.6103515625,3.944091796875,42.198486328125,-69.8565673828125
1758877998.5076022,-0.74853515625,0.044921875,0.66162109375,-18.49365234375,1.46484375,0.1220703125,3.7738037109375,42.20947265625,-69.85107421875
1758877998.5179553,-0.74853515625,0.044921875,0.66162109375,-18.49365234375,1.46484375,0.1220703125,3.6090087890625,42.2259521484375,-69.85107421875
1758877998.5280004,-0.71484375,0.04052734375,0.7060546875,-12.451171875,0.79345703125,0.79345703125,3.504638671875,42.2369384765625,-69.840087890625
1758877998.5382776,-0.71484375,0.04052734375,0.7060546875,-12.451171875,0.79345703125,0.79345703125,3.4002685546875,42.2479248046875,-69.8345947265625
1758877998.547709,-0.68212890625,0.04296875,0.6630859375,-15.93017578125,0.54931640625,1.5869140625,3.27392578125,42.2589111328125,-69.818115234375
1758877998.5589538,-0.68212890625,0.04296875,0.6630859375,-15.93017578125,0.54931640625,1.5869140625,3.14208984375,42.2698974609375,-69.796142578125
1758877998.5678704,-0.685546875,0.0478515625,0.6689453125,-19.59228515625,0.732421875,1.708984375,2.9718017578125,42.2808837890625,-69.7796630859375
1758877998.5786014,-0.685546875,0.0478515625,0.6689453125,-19.59228515625,0.732421875,1.708984375,2.8070068359375,42.29736328125,-69.7576904296875
1758877998.5880897,-0.69140625,0.04931640625,0.6787109375,-16.05224609375,1.15966796875,1.3427734375,2.6751708984375,42.3193359375,-69.7467041015625
1758877998.59935,-0.69140625,0.04931640625,0.6787109375,-16.05224609375,1.15966796875,1.3427734375,2.537841796875,42.34130859375,-69.730224609375
1758877998.607818,-0.6796875,0.0283203125,0.716796875,-7.99560546875,1.40380859375,0.732421875,2.48291015625,42.36328125,-69.7247314453125
1758877998.6185145,-0.6796875,0.0283203125,0.716796875,-7.99560546875,1.40380859375,0.732421875,2.4224853515625,42.38525390625,-69.71923828125
1758877998.6279144,-0.671875,0.02001953125,0.73779296875,-3.173828125,1.953125,0.1220703125,2.4005126953125,42.418212890625,-69.71923828125
1758877998.6378508,-0.671875,0.02001953125,0.73779296875,-3.173828125,1.953125,0.1220703125,2.3785400390625,42.4456787109375,-69.7247314453125
1758877998.6478434,-0.65087890625,0.013671875,0.74609375,-1.15966796875,2.62451171875,0.06103515625,2.3785400390625,42.47314453125,-69.730224609375
1758877998.6579459,-0.65087890625,0.013671875,0.74609375,-1.15966796875,2.62451171875,0.06103515625,2.373046875,42.506103515625,-69.7357177734375
1758877998.6678584,-0.65478515625,0.0244140625,0.75927734375,-1.64794921875,3.5400390625,0.0,2.362060546875,42.5445556640625,-69.7412109375
1758877998.6779053,-0.65478515625,0.0244140625,0.75927734375,-1.64794921875,3.5400390625,0.0,2.3565673828125,42.5830078125,-69.7467041015625
1758877998.6878881,-0.65869140625,0.05078125,0.75830078125,-0.42724609375,4.150390625,-0.06103515625,2.3565673828125,42.6214599609375,-69.752197265625
1758877998.6981776,-0.65869140625,0.05078125,0.75830078125,-0.42724609375,4.150390625,-0.06103515625,2.3565673828125,42.6654052734375,-69.7576904296875
1758877998.70797,-0.6552734375,0.0556640625,0.74853515625,-2.62451171875,4.638671875,-0.18310546875,2.3345947265625,42.7093505859375,-69.76318359375
1758877998.71804,-0.6552734375,0.0556640625,0.74853515625,-2.62451171875,4.638671875,-0.18310546875,2.318115234375,42.7532958984375,-69.7686767578125
1758877998.728417,-0.65966796875,0.05126953125,0.7548828125,-11.16943359375,4.69970703125,0.18310546875,2.2137451171875,42.791748046875,-69.7686767578125
1758877998.738032,-0.65966796875,0.05126953125,0.7548828125,-11.16943359375,4.69970703125,0.18310546875,2.1148681640625,42.835693359375,-69.76318359375
1758877998.7480414,-0.66748046875,0.0400390625,0.76025390625,-15.0146484375,4.7607421875,0.79345703125,1.9830322265625,42.879638671875,-69.752197265625
1758877998.758122,-0.66748046875,0.0400390625,0.76025390625,-15.0146484375,4.7607421875,0.79345703125,1.8511962890625,42.9180908203125,-69.7412109375
1758877998.7680378,-0.65966796875,0.01123046875,0.74072265625,-12.39013671875,4.82177734375,1.28173828125,1.746826171875,42.95654296875,-69.71923828125
1758877998.778084,-0.65966796875,0.01123046875,0.74072265625,-12.39013671875,4.82177734375,1.28173828125,1.64794921875,43.00048828125,-69.7027587890625
1758877998.7880921,-0.69677734375,-0.00341796875,0.73486328125,-10.1318359375,5.06591796875,1.46484375,1.5655517578125,43.04443359375,-69.686279296875
1758877998.7984316,-0.69677734375,-0.00341796875,0.73486328125,-10.1318359375,5.06591796875,1.46484375,1.4886474609375,43.08837890625,-69.6697998046875
1758877998.808132,-0.71728515625,0.009765625,0.71728515625,-6.65283203125,5.859375,1.03759765625,1.4337158203125,43.143310546875,-69.6588134765625
1758877998.8181934,-0.71728515625,0.009765625,0.71728515625,-6.65283203125,5.859375,1.03759765625,1.38427734375,43.1982421875,-69.6533203125
1758877998.8285728,-0.72021484375,0.00634765625,0.68310546875,-0.6103515625,7.01904296875,-0.18310546875,1.3787841796875,43.26416015625,-69.6588134765625
1758877998.838186,-0.72021484375,0.00634765625,0.68310546875,-0.6103515625,7.01904296875,-0.18310546875,1.3787841796875,43.3355712890625,-69.6697998046875
1758877998.8481882,-0.69775390625,0.02783203125,0.67236328125,0.0,8.23974609375,-1.40380859375,1.3677978515625,43.41796875,-69.697265625
1758877998.858264,-0.69775390625,0.02783203125,0.67236328125,0.0,8.23974609375,-1.40380859375,1.3623046875,43.5003662109375,-69.71923828125
1758877998.868199,-0.69873046875,0.0380859375,0.71142578125,1.46484375,8.9111328125,-2.50244140625,1.3568115234375,43.59375,-69.7576904296875
1758877998.8782933,-0.69873046875,0.0380859375,0.71142578125,1.46484375,8.9111328125,-2.50244140625,1.3568115234375,43.6871337890625,-69.796142578125
1758877998.8887577,-0.67626953125,0.021484375,0.7412109375,1.5869140625,8.9111328125,-2.8076171875,1.351318359375,43.7750244140625,-69.840087890625
1758877998.898635,-0.67626953125,0.021484375,0.7412109375,1.5869140625,8.9111328125,-2.8076171875,1.3458251953125,43.8629150390625,-69.8785400390625
1758877998.9085433,-0.66650390625,0.005859375,0.74560546875,1.28173828125,8.60595703125,-2.685546875,1.3348388671875,43.9508056640625,-69.9169921875
1758877998.9183218,-0.66650390625,0.005859375,0.74560546875,1.28173828125,8.60595703125,-2.685546875,1.329345703125,44.033203125,-69.9554443359375
1758877998.9293065,-0.6630859375,-0.01904296875,0.740234375,2.685546875,7.8125,-2.50244140625,1.3348388671875,44.1046142578125,-69.9993896484375
1758877998.9383152,-0.6630859375,-0.01904296875,0.740234375,2.685546875,7.8125,-2.50244140625,1.3348388671875,44.176025390625,-70.037841796875
1758877998.9485586,-0.65966796875,-0.009765625,0.76123046875,5.7373046875,6.8359375,-2.01416015625,1.373291015625,44.2364501953125,-70.07080078125
1758877998.9588203,-0.65966796875,-0.009765625,0.76123046875,5.7373046875,6.8359375,-2.01416015625,1.4117431640625,44.296875,-70.1092529296875
1758877998.9691422,-0.65576171875,0.013671875,0.75146484375,5.37109375,5.92041015625,-1.708984375,1.4447021484375,44.3463134765625,-70.1422119140625
1758877998.9784234,-0.65576171875,0.013671875,0.75146484375,5.37109375,5.92041015625,-1.708984375,1.4776611328125,44.395751953125,-70.1751708984375
1758877998.9887834,-0.68994140625,0.03759765625,0.7470703125,2.38037109375,5.18798828125,-1.220703125,1.4886474609375,44.4342041015625,-70.1971435546875
1758877998.998837,-0.68994140625,0.03759765625,0.7470703125,2.38037109375,5.18798828125,-1.220703125,1.4996337890625,44.47265625,-70.2191162109375
1758877999.008746,-0.7314453125,0.03759765625,0.7548828125,1.5869140625,4.94384765625,-0.9765625,1.505126953125,44.5111083984375,-70.2410888671875
1758877999.018479,-0.7314453125,0.03759765625,0.7548828125,1.5869140625,4.94384765625,-0.9765625,1.5106201171875,44.549560546875,-70.257568359375
1758877999.0295272,-0.7373046875,0.0244140625,0.6923828125,4.7607421875,5.2490234375,-1.220703125,1.549072265625,44.593505859375,-70.279541015625
1758877999.03856,-0.7373046875,0.0244140625,0.6923828125,4.7607421875,5.2490234375,-1.220703125,1.5875244140625,44.637451171875,-70.2960205078125
1758877999.04906,-0.74951171875,-0.01123046875,0.669921875,8.056640625,5.859375,-1.77001953125,1.64794921875,44.6923828125,-70.3289794921875
1758877999.058672,-0.74951171875,-0.01123046875,0.669921875,8.056640625,5.859375,-1.77001953125,1.7138671875,44.7528076171875,-70.3619384765625
1758877999.069109,-0.75244140625,-0.00537109375,0.63720703125,14.58740234375,7.4462890625,-2.44140625,1.8292236328125,44.82421875,-70.4058837890625
1758877999.0785785,-0.75244140625,-0.00537109375,0.63720703125,14.58740234375,7.4462890625,-2.44140625,1.9500732421875,44.901123046875,-70.4498291015625
1758877999.08855,-0.74462890625,-0.00048828125,0.63671875,19.95849609375,8.72802734375,-3.41796875,2.109375,44.9945068359375,-70.51025390625
1758877999.0989914,-0.74462890625,-0.00048828125,0.63671875,19.95849609375,8.72802734375,-3.41796875,2.2686767578125,45.087890625,-70.5706787109375
1758877999.1085782,-0.728515625,0.01416015625,0.67919921875,23.86474609375,9.70458984375,-4.150390625,2.4609375,45.1922607421875,-70.6365966796875
1758877999.118635,-0.728515625,0.01416015625,0.67919921875,23.86474609375,9.70458984375,-4.150390625,2.6531982421875,45.296630859375,-70.7080078125
1758877999.129136,-0.70556640625,0.02685546875,0.6962890625,26.0009765625,9.94873046875,-4.8828125,2.8564453125,45.406494140625,-70.7904052734375
1758877999.1386704,-0.70556640625,0.02685546875,0.6962890625,26.0009765625,9.94873046875,-4.8828125,3.0596923828125,45.5108642578125,-70.872802734375
1758877999.1486888,-0.6787109375,0.0302734375,0.7060546875,25.5126953125,9.46044921875,-4.94384765625,3.2574462890625,45.6097412109375,-70.9552001953125
1758877999.1590674,-0.6787109375,0.0302734375,0.7060546875,25.5126953125,9.46044921875,-4.94384765625,3.4552001953125,45.7086181640625,-71.0321044921875
1758877999.16876,-0.67431640625,0.03515625,0.73095703125,19.8974609375,8.72802734375,-4.69970703125,3.5980224609375,45.7965087890625,-71.1090087890625
1758877999.178924,-0.68310546875,0.07861328125,0.7333984375,9.521484375,7.62939453125,-3.96728515625,3.6968994140625,45.87890625,-71.180419921875
1758877999.1889722,-0.68310546875,0.07861328125,0.7333984375,9.521484375,7.62939453125,-3.96728515625,3.746337890625,45.9503173828125,-71.246337890625
1758877999.1994655,-0.681640625,0.08935546875,0.69970703125,3.23486328125,6.65283203125,-3.84521484375,3.7628173828125,46.0162353515625,-71.3067626953125
1758877999.2087119,-0.681640625,0.08935546875,0.69970703125,3.23486328125,6.65283203125,-3.84521484375,3.75732421875,46.07666015625,-71.3616943359375
1758877999.218773,-0.67529296875,0.06787109375,0.69091796875,1.15966796875,5.859375,-4.2724609375,3.7408447265625,46.1370849609375,-71.422119140625
1758877999.2292616,-0.67529296875,0.06787109375,0.69091796875,1.15966796875,5.859375,-4.2724609375,3.7078857421875,46.1865234375,-71.4825439453125
1758877999.2388165,-0.70849609375,0.05517578125,0.69677734375,-6.34765625,5.43212890625,-4.82177734375,3.6419677734375,46.2359619140625,-71.54296875
1758877999.2492685,-0.70849609375,0.05517578125,0.69677734375,-6.34765625,5.43212890625,-4.82177734375,3.5321044921875,46.285400390625,-71.60888671875
1758877999.2590683,-0.72509765625,0.08154296875,0.71630859375,-16.78466796875,5.126953125,-5.43212890625,3.3673095703125,46.329345703125,-71.6802978515625
1758877999.268961,-0.72509765625,0.08154296875,0.71630859375,-16.78466796875,5.126953125,-5.43212890625,3.153076171875,46.373291015625,-71.751708984375
1758877999.2789483,-0.7158203125,0.08251953125,0.70654296875,-22.52197265625,4.82177734375,-6.103515625,2.911376953125,46.417236328125,-71.82861328125
1758877999.2888277,-0.7158203125,0.08251953125,0.70654296875,-22.52197265625,4.82177734375,-6.103515625,2.63671875,46.461181640625,-71.905517578125
1758877999.2996697,-0.71337890625,0.08154296875,0.7197265625,-32.8369140625,4.21142578125,-6.4697265625,2.30712890625,46.4996337890625,-71.982421875
1758877999.3089457,-0.71337890625,0.08154296875,0.7197265625,-32.8369140625,4.21142578125,-6.4697265625,1.93359375,46.5325927734375,-72.059326171875
1758877999.3189676,-0.71630859375,0.076171875,0.7021484375,-45.22705078125,4.0283203125,-6.53076171875,1.494140625,46.5655517578125,-72.1307373046875
1758877999.3293765,-0.71630859375,0.076171875,0.7021484375,-45.22705078125,4.0283203125,-6.53076171875,0.999755859375,46.5985107421875,-72.2021484375
1758877999.3389597,-0.728515625,0.0419921875,0.662109375,-52.18505859375,4.08935546875,-6.28662109375,0.4779052734375,46.6314697265625,-72.2735595703125
1758877999.3492885,-0.728515625,0.0419921875,0.662109375,-52.18505859375,4.08935546875,-6.28662109375,-0.076904296875,46.6644287109375,-72.333984375
1758877999.3596702,-0.75244140625,-0.01025390625,0.64111328125,-50.47607421875,3.84521484375,-6.4697265625,-0.6207275390625,46.6973876953125,-72.39990234375
1758877999.3690069,-0.75244140625,-0.01025390625,0.64111328125,-50.47607421875,3.84521484375,-6.4697265625,-1.16455078125,46.7303466796875,-72.4713134765625
1758877999.379265,-0.75390625,-0.06201171875,0.6875,-37.29248046875,2.9296875,-6.7138671875,-1.6424560546875,46.7633056640625,-72.542724609375
1758877999.3890462,-0.75390625,-0.06201171875,0.6875,-37.29248046875,2.9296875,-6.7138671875,-2.0599365234375,46.7852783203125,-72.61962890625
1758877999.4002464,-0.759765625,-0.109375,0.6875,-23.01025390625,1.708984375,-6.89697265625,-2.406005859375,46.8072509765625,-72.7020263671875
1758877999.4090664,-0.759765625,-0.109375,0.6875,-23.01025390625,1.708984375,-6.89697265625,-2.691650390625,46.8182373046875,-72.784423828125
1758877999.419298,-0.75439453125,-0.091796875,0.68603515625,-14.404296875,0.18310546875,-6.40869140625,-2.9278564453125,46.8292236328125,-72.872314453125
1758877999.429315,-0.75439453125,-0.091796875,0.68603515625,-14.404296875,0.18310546875,-6.40869140625,-3.131103515625,46.82373046875,-72.960205078125
1758877999.4395807,-0.75,-0.0439453125,0.6650390625,-10.55908203125,-0.8544921875,-5.92041015625,-3.306884765625,46.8182373046875,-73.0426025390625
1758877999.4492753,-0.75,-0.0439453125,0.6650390625,-10.55908203125,-0.8544921875,-5.92041015625,-3.4661865234375,46.812744140625,-73.125
1758877999.4596548,-0.73974609375,-0.0341796875,0.6416015625,-12.51220703125,-1.5869140625,-5.79833984375,-3.6309814453125,46.7962646484375,-73.201904296875
1758877999.4693246,-0.73974609375,-0.0341796875,0.6416015625,-12.51220703125,-1.5869140625,-5.79833984375,-3.8067626953125,46.77978515625,-73.27880859375
1758877999.4798925,-0.7666015625,-0.03515625,0.6279296875,-13.97705078125,-1.89208984375,-5.79833984375,-3.988037109375,46.7633056640625,-73.3502197265625
1758877999.48917,-0.7666015625,-0.03515625,0.6279296875,-13.97705078125,-1.89208984375,-5.79833984375,-4.1748046875,46.7523193359375,-73.421630859375
1758877999.5009694,-0.7890625,-0.04296875,0.6259765625,-13.5498046875,-1.52587890625,-6.2255859375,-4.361572265625,46.73583984375,-73.49853515625
1758877999.5092697,-0.7890625,-0.04296875,0.6259765625,-13.5498046875,-1.52587890625,-6.2255859375,-4.54833984375,46.7303466796875,-73.5809326171875
1758877999.5199623,-0.779296875,-0.0517578125,0.6142578125,-8.4228515625,-1.40380859375,-6.9580078125,-4.713134765625,46.7193603515625,-73.663330078125
1758877999.5292292,-0.779296875,-0.0517578125,0.6142578125,-8.4228515625,-1.40380859375,-6.9580078125,-4.8614501953125,46.7138671875,-73.7567138671875
1758877999.54088,-0.8115234375,-0.04150390625,0.62841796875,-2.0751953125,-1.5869140625,-6.77490234375,-4.9713134765625,46.7083740234375,-73.8446044921875
1758877999.5496287,-0.8115234375,-0.04150390625,0.62841796875,-2.0751953125,-1.5869140625,-6.77490234375,-5.0537109375,46.7083740234375,-73.9324951171875
1758877999.5593944,-0.78564453125,-0.0517578125,0.64697265625,-11.77978515625,-2.62451171875,-6.34765625,-5.174560546875,46.6973876953125,-74.014892578125
1758877999.5697033,-0.78564453125,-0.0517578125,0.64697265625,-11.77978515625,-2.62451171875,-6.34765625,-5.3448486328125,46.6864013671875,-74.0972900390625
1758877999.5795228,-0.765625,-0.064453125,0.62890625,-16.66259765625,-3.60107421875,-5.79833984375,-5.537109375,46.669921875,-74.168701171875
1758877999.5892844,-0.765625,-0.064453125,0.62890625,-16.66259765625,-3.60107421875,-5.79833984375,-5.7513427734375,46.64794921875,-74.2401123046875
1758877999.6000116,-0.779296875,-0.11181640625,0.6513671875,-13.24462890625,-4.21142578125,-5.126953125,-5.943603515625,46.6259765625,-74.3060302734375
1758877999.609663,-0.779296875,-0.11181640625,0.6513671875,-13.24462890625,-4.21142578125,-5.126953125,-6.1138916015625,46.5985107421875,-74.366455078125
1758877999.619451,-0.779296875,-0.14013671875,0.630859375,-4.33349609375,-4.5166015625,-4.638671875,-6.2457275390625,46.571044921875,-74.432373046875
1758877999.6293902,-0.779296875,-0.14013671875,0.630859375,-4.33349609375,-4.5166015625,-4.638671875,-6.328125,46.5435791015625,-74.4927978515625
1758877999.6395812,-0.77880859375,-0.10693359375,0.60693359375,14.7705078125,-4.45556640625,-4.39453125,-6.317138671875,46.51611328125,-74.55322265625
1758877999.649882,-0.77880859375,-0.10693359375,0.60693359375,14.7705078125,-4.45556640625,-4.39453125,-6.2127685546875,46.4886474609375,-74.6136474609375
1758877999.6594472,-0.76904296875,-0.12548828125,0.61669921875,27.03857421875,-4.0283203125,-4.94384765625,-6.053466796875,46.4666748046875,-74.68505859375
1758877999.6698074,-0.76904296875,-0.12548828125,0.61669921875,27.03857421875,-4.0283203125,-4.94384765625,-5.8392333984375,46.4447021484375,-74.761962890625
1758877999.6794608,-0.75,-0.080078125,0.61865234375,20.56884765625,-4.2724609375,-5.0048828125,-5.657958984375,46.4227294921875,-74.8443603515625
1758877999.689444,-0.75,-0.080078125,0.61865234375,20.56884765625,-4.2724609375,-5.0048828125,-5.51513671875,46.4007568359375,-74.9212646484375
1758877999.7008603,-0.75537109375,-0.0400390625,0.6572265625,18.310546875,-4.2724609375,-4.82177734375,-5.3778076171875,46.373291015625,-74.9981689453125
1758877999.7094517,-0.75537109375,-0.0400390625,0.6572265625,18.310546875,-4.2724609375,-4.82177734375,-5.25146484375,46.351318359375,-75.0750732421875
1758877999.7195098,-0.73876953125,-0.04443359375,0.6640625,16.05224609375,-4.33349609375,-4.21142578125,-5.130615234375,46.329345703125,-75.1409912109375
1758877999.729554,-0.73876953125,-0.04443359375,0.6640625,16.05224609375,-4.33349609375,-4.21142578125,-5.020751953125,46.3018798828125,-75.2069091796875
1758877999.7398055,-0.74609375,-0.06640625,0.642578125,11.53564453125,-4.33349609375,-3.41796875,-4.9273681640625,46.2744140625,-75.2618408203125
1758877999.7495666,-0.74609375,-0.06640625,0.642578125,11.53564453125,-4.33349609375,-3.41796875,-4.8504638671875,46.25244140625,-75.311279296875
1758877999.7595527,-0.7421875,-0.07763671875,0.650390625,7.568359375,-4.33349609375,-2.685546875,-4.7900390625,46.2249755859375,-75.3607177734375
1758877999.7699308,-0.7421875,-0.07763671875,0.650390625,7.568359375,-4.33349609375,-2.685546875,-4.74609375,46.2030029296875,-75.399169921875
1758877999.7795498,-0.7333984375,-0.0732421875,0.67529296875,7.62939453125,-4.5166015625,-2.197265625,-4.7021484375,46.175537109375,-75.4376220703125
1758877999.789573,-0.7333984375,-0.0732421875,0.67529296875,7.62939453125,-4.5166015625,-2.197265625,-4.6527099609375,46.1480712890625,-75.47607421875
1758877999.7995758,-0.72705078125,-0.0712890625,0.67724609375,8.544921875,-4.45556640625,-1.77001953125,-4.603271484375,46.1151123046875,-75.509033203125
1758877999.8105564,-0.72705078125,-0.0712890625,0.67724609375,8.544921875,-4.45556640625,-1.77001953125,-4.537353515625,46.087646484375,-75.5364990234375
1758877999.819597,-0.7177734375,-0.06396484375,0.68701171875,8.48388671875,-4.33349609375,-1.5869140625,-4.4769287109375,46.0546875,-75.5694580078125
1758877999.8299692,-0.7177734375,-0.06396484375,0.68701171875,8.48388671875,-4.33349609375,-1.5869140625,-4.41650390625,46.0272216796875,-75.596923828125
1758877999.8401206,-0.703125,-0.0537109375,0.7021484375,9.94873046875,-4.2724609375,-1.77001953125,-4.3450927734375,45.9942626953125,-75.6243896484375
1758877999.849932,-0.703125,-0.0537109375,0.7021484375,9.94873046875,-4.2724609375,-1.77001953125,-4.273681640625,45.9613037109375,-75.65185546875
1758877999.8596747,-0.6845703125,-0.05078125,0.72607421875,12.8173828125,-4.7607421875,-1.89208984375,-4.1802978515625,45.9228515625,-75.684814453125
1758877999.870786,-0.6845703125,-0.05078125,0.72607421875,12.8173828125,-4.7607421875,-1.89208984375,-4.075927734375,45.8843994140625,-75.7122802734375
1758877999.8800504,-0.6669921875,-0.06103515625,0.7587890625,16.11328125,-5.126953125,-1.8310546875,-3.955078125,45.8349609375,-75.73974609375
1758877999.889995,-0.6669921875,-0.06103515625,0.7587890625,16.11328125,-5.126953125,-1.8310546875,-3.8177490234375,45.7855224609375,-75.7672119140625
1758877999.8997767,-0.6396484375,-0.07470703125,0.783203125,24.47509765625,-5.55419921875,-1.64794921875,-3.6419677734375,45.7305908203125,-75.794677734375
1758877999.910796,-0.6396484375,-0.07470703125,0.783203125,24.47509765625,-5.55419921875,-1.64794921875,-3.4222412109375,45.670166015625,-75.8221435546875
1758877999.9197762,-0.6298828125,-0.0810546875,0.806640625,29.1748046875,-5.9814453125,-0.9765625,-3.175048828125,45.604248046875,-75.8441162109375
1758877999.930384,-0.6298828125,-0.0810546875,0.806640625,29.1748046875,-5.9814453125,-0.9765625,-2.9058837890625,45.5328369140625,-75.8660888671875
1758877999.9400783,-0.619140625,-0.06591796875,0.80810546875,30.517578125,-6.591796875,-0.18310546875,-2.625732421875,45.4559326171875,-75.8770751953125
1758877999.9504097,-0.619140625,-0.06591796875,0.80810546875,30.517578125,-6.591796875,-0.18310546875,-2.3345947265625,45.37353515625,-75.8880615234375
1758877999.9598029,-0.62451171875,-0.0419921875,0.796875,33.69140625,-6.77490234375,0.0,-2.032470703125,45.28564453125,-75.8990478515625
1758877999.9711192,-0.62451171875,-0.0419921875,0.796875,33.69140625,-6.77490234375,0.0,-1.7138671875,45.19775390625,-75.9100341796875
1758877999.9801278,-0.646484375,-0.021484375,0.76318359375,32.470703125,-6.4697265625,-0.1220703125,-1.40625,45.10986328125,-75.926513671875
1758877999.9898584,-0.646484375,-0.021484375,0.76318359375,32.470703125,-6.4697265625,-0.1220703125,-1.0986328125,45.02197265625,-75.9375
1758877999.9999435,-0.66943359375,0.0,0.716796875,30.6396484375,-4.94384765625,-0.79345703125,-0.8074951171875,44.9395751953125,-75.95947265625
1758878000.0103688,-0.66943359375,0.0,0.716796875,30.6396484375,-4.94384765625,-0.79345703125,-0.52734375,44.8736572265625,-75.9814453125
1758878000.0199091,-0.67626953125,-0.00439453125,0.736328125,31.1279296875,-2.50244140625,-1.46484375,-0.252685546875,44.813232421875,-76.0089111328125
1758878000.0300663,-0.67626953125,-0.00439453125,0.736328125,31.1279296875,-2.50244140625,-1.46484375,0.02197265625,44.769287109375,-76.0418701171875
1758878000.0401554,-0.70166015625,-0.00830078125,0.7568359375,35.2783203125,-0.48828125,-2.44140625,0.3131103515625,44.736328125,-76.0858154296875
1758878000.0500495,-0.70166015625,-0.00830078125,0.7568359375,35.2783203125,-0.48828125,-2.44140625,0.626220703125,44.71435546875,-76.1297607421875
1758878000.0602314,-0.6962890625,-0.00146484375,0.73583984375,39.1845703125,0.0,-2.99072265625,0.9503173828125,44.6978759765625,-76.1846923828125
1758878000.0705757,-0.6962890625,-0.00146484375,0.73583984375,39.1845703125,0.0,-2.99072265625,1.2908935546875,44.681396484375,-76.2451171875
1758878000.0801284,-0.7001953125,0.0048828125,0.685546875,37.7197265625,0.91552734375,-2.74658203125,1.6259765625,44.6759033203125,-76.300048828125
1758878000.090042,-0.7001953125,0.0048828125,0.685546875,37.7197265625,0.91552734375,-2.74658203125,1.9500732421875,44.67041015625,-76.35498046875
1758878000.100075,-0.70263671875,0.02392578125,0.68798828125,32.53173828125,0.79345703125,-2.01416015625,2.2576904296875,44.67041015625,-76.409912109375
1758878000.110088,-0.70263671875,0.02392578125,0.68798828125,32.53173828125,0.79345703125,-2.01416015625,2.537841796875,44.67041015625,-76.453857421875
1758878000.1200397,-0.73681640625,0.0546875,0.67724609375,21.240234375,0.48828125,-1.28173828125,2.7685546875,44.67041015625,-76.497802734375
1758878000.1301389,-0.73681640625,0.0546875,0.67724609375,21.240234375,0.48828125,-1.28173828125,2.9498291015625,44.6759033203125,-76.53076171875
1758878000.1404033,-0.71435546875,0.0869140625,0.662109375,7.14111328125,-1.220703125,-0.06103515625,3.065185546875,44.6649169921875,-76.5582275390625
1758878000.1501172,-0.71435546875,0.0869140625,0.662109375,7.14111328125,-1.220703125,-0.06103515625,3.1256103515625,44.6539306640625,-76.5692138671875
1758878000.1600835,-0.71875,0.10205078125,0.6962890625,-11.962890625,-1.89208984375,1.28173828125,3.0047607421875,44.6319580078125,-76.563720703125
1758878000.1706142,-0.71875,0.10205078125,0.6962890625,-11.962890625,-1.89208984375,1.28173828125,2.8948974609375,44.615478515625,-76.5472412109375
1758878000.18012,-0.716796875,0.06787109375,0.65087890625,-24.47509765625,-1.89208984375,1.89208984375,2.669677734375,44.5989990234375,-76.5252685546875
1758878000.1901028,-0.716796875,0.06787109375,0.65087890625,-24.47509765625,-1.89208984375,1.89208984375,2.4444580078125,44.58251953125,-76.5032958984375
1758878000.200518,-0.72705078125,0.04248046875,0.64306640625,-28.74755859375,-1.52587890625,2.13623046875,2.1807861328125,44.571533203125,-76.4703369140625
1758878000.2106361,-0.72705078125,0.04248046875,0.64306640625,-28.74755859375,-1.52587890625,2.13623046875,1.922607421875,44.560546875,-76.4373779296875
1758878000.2201874,-0.72607421875,0.01171875,0.68798828125,-21.54541015625,-0.79345703125,1.3427734375,1.724853515625,44.560546875,-76.4208984375
1758878000.2302775,-0.72607421875,0.01171875,0.68798828125,-21.54541015625,-0.79345703125,1.3427734375,1.527099609375,44.560546875,-76.39892578125
1758878000.240469,-0.70947265625,-0.00390625,0.69775390625,-12.939453125,-0.30517578125,0.0,1.40625,44.5660400390625,-76.39892578125
1758878000.2502804,-0.70947265625,-0.00390625,0.69775390625,-12.939453125,-0.30517578125,0.0,1.2799072265625,44.571533203125,-76.39892578125
1758878000.2602594,-0.70361328125,0.0146484375,0.6943359375,-11.04736328125,-0.244140625,-1.03759765625,1.16455078125,44.5770263671875,-76.4154052734375
1758878000.2705178,-0.70361328125,0.0146484375,0.6943359375,-11.04736328125,-0.244140625,-1.03759765625,1.0491943359375,44.58251953125,-76.4263916015625
1758878000.281256,-0.69775390625,0.04931640625,0.71826171875,-9.6435546875,-0.3662109375,-2.197265625,0.9393310546875,44.5880126953125,-76.453857421875
1758878000.2902725,-0.69775390625,0.04931640625,0.71826171875,-9.6435546875,-0.3662109375,-2.197265625,0.8294677734375,44.5880126953125,-76.4813232421875
1758878000.3005292,-0.69677734375,0.0458984375,0.724609375,-11.5966796875,-0.79345703125,-2.86865234375,0.6976318359375,44.5880126953125,-76.5142822265625
1758878000.3106947,-0.69677734375,0.0458984375,0.724609375,-11.5966796875,-0.79345703125,-2.86865234375,0.5657958984375,44.58251953125,-76.5472412109375
1758878000.3207526,-0.68359375,0.02099609375,0.73974609375,-13.7939453125,-1.52587890625,-3.35693359375,0.406494140625,44.571533203125,-76.5802001953125
1758878000.3304083,-0.68359375,0.02099609375,0.73974609375,-13.7939453125,-1.52587890625,-3.35693359375,0.2471923828125,44.5550537109375,-76.61865234375
1758878000.3415906,-0.6884765625,-0.00634765625,0.75927734375,-12.26806640625,-2.44140625,-3.7841796875,0.098876953125,44.5330810546875,-76.66259765625
1758878000.350459,-0.6884765625,-0.00634765625,0.75927734375,-12.26806640625,-2.44140625,-3.7841796875,-0.0439453125,44.505615234375,-76.7010498046875
1758878000.3606005,-0.69189453125,-0.01123046875,0.74560546875,-10.92529296875,-2.86865234375,-4.08935546875,-0.1812744140625,44.4781494140625,-76.75048828125
1758878000.3708265,-0.69189453125,-0.01123046875,0.74560546875,-10.92529296875,-2.86865234375,-4.08935546875,-0.3240966796875,44.4451904296875,-76.7999267578125
1758878000.3813598,-0.677734375,-0.001953125,0.72265625,-5.37109375,-2.685546875,-4.5166015625,-0.4119873046875,44.417724609375,-76.8548583984375
1758878000.390422,-0.677734375,-0.001953125,0.72265625,-5.37109375,-2.685546875,-4.5166015625,-0.4998779296875,44.384765625,-76.904296875
1758878000.4010208,-0.67333984375,0.001953125,0.71142578125,-3.72314453125,-2.01416015625,-4.94384765625,-0.5767822265625,44.36279296875,-76.9647216796875
1758878000.4106188,-0.67333984375,0.001953125,0.71142578125,-3.72314453125,-2.01416015625,-4.94384765625,-0.648193359375,44.3353271484375,-77.025146484375
1758878000.4209974,-0.67578125,0.00048828125,0.71435546875,-5.2490234375,-1.5869140625,-4.94384765625,-0.7415771484375,44.31884765625,-77.0855712890625
1758878000.430515,-0.67578125,0.00048828125,0.71435546875,-5.2490234375,-1.5869140625,-4.94384765625,-0.8349609375,44.296875,-77.1405029296875
1758878000.4407427,-0.6806640625,-0.02783203125,0.72265625,-5.18798828125,-1.40380859375,-4.5166015625,-0.9173583984375,44.2803955078125,-77.1954345703125
1758878000.4506745,-0.6806640625,-0.02783203125,0.72265625,-5.18798828125,-1.40380859375,-4.5166015625,-1.0052490234375,44.2584228515625,-77.2503662109375
1758878000.4605322,-0.67822265625,-0.060546875,0.73486328125,-0.67138671875,-1.52587890625,-3.7841796875,-1.043701171875,44.241943359375,-77.2943115234375
1758878000.4709814,-0.67822265625,-0.060546875,0.73486328125,-0.67138671875,-1.52587890625,-3.7841796875,-1.087646484375,44.219970703125,-77.34375
1758878000.48058,-0.67529296875,-0.0634765625,0.703125,4.82177734375,-1.3427734375,-3.0517578125,-1.065673828125,44.2034912109375,-77.3876953125
1758878000.490578,-0.67529296875,-0.0634765625,0.703125,4.82177734375,-1.3427734375,-3.0517578125,-1.0491943359375,44.1815185546875,-77.431640625
1758878000.5010455,-0.69384765625,-0.048828125,0.67822265625,7.99560546875,-0.67138671875,-2.44140625,-0.999755859375,44.1705322265625,-77.4700927734375
1758878000.5109348,-0.69384765625,-0.048828125,0.67822265625,7.99560546875,-0.67138671875,-2.44140625,-0.9503173828125,44.1650390625,-77.508544921875
1758878000.5206513,-0.72998046875,-0.0302734375,0.68408203125,12.87841796875,0.1220703125,-1.89208984375,-0.845947265625,44.1650390625,-77.54150390625
1758878000.5307035,-0.72998046875,-0.0302734375,0.68408203125,12.87841796875,0.1220703125,-1.89208984375,-0.7415771484375,44.1650390625,-77.574462890625
1758878000.5409148,-0.72265625,-0.01806640625,0.69970703125,14.16015625,0.48828125,-1.0986328125,-0.6207275390625,44.176025390625,-77.596435546875
1758878000.5506923,-0.72265625,-0.01806640625,0.69970703125,14.16015625,0.48828125,-1.0986328125,-0.4998779296875,44.1815185546875,-77.6239013671875
1758878000.5607188,-0.720703125,0.0048828125,0.69873046875,10.25390625,0.91552734375,-0.244140625,-0.406494140625,44.1925048828125,-77.6348876953125
1758878000.5709045,-0.720703125,0.0048828125,0.69873046875,10.25390625,0.91552734375,-0.244140625,-0.3131103515625,44.208984375,-77.6458740234375
1758878000.5808048,-0.712890625,0.00927734375,0.68701171875,8.30078125,1.15966796875,0.54931640625,-0.230712890625,44.2254638671875,-77.640380859375
1758878000.5907247,-0.712890625,0.00927734375,0.68701171875,8.30078125,1.15966796875,0.54931640625,-0.1483154296875,44.241943359375,-77.640380859375
1758878000.600795,-0.7138671875,0.00634765625,0.7080078125,1.8310546875,0.9765625,1.3427734375,-0.120849609375,44.2584228515625,-77.6239013671875
1758878000.6111352,-0.7138671875,0.00634765625,0.7080078125,1.8310546875,0.9765625,1.3427734375,-0.098876953125,44.27490234375,-77.607421875
1758878000.620809,-0.703125,0.02294921875,0.708984375,-4.39453125,0.91552734375,2.0751953125,-0.120849609375,44.285888671875,-77.58544921875
1758878000.6308339,-0.703125,0.02294921875,0.708984375,-4.39453125,0.91552734375,2.0751953125,-0.1483154296875,44.3023681640625,-77.5579833984375
1758878000.6412182,-0.67724609375,0.01025390625,0.71484375,-5.7373046875,0.48828125,2.5634765625,-0.1812744140625,44.307861328125,-77.51953125
1758878000.6508331,-0.67724609375,0.01025390625,0.71484375,-5.7373046875,0.48828125,2.5634765625,-0.2142333984375,44.31884765625,-77.486572265625
1758878000.6609,-0.67138671875,-0.0048828125,0.73583984375,-8.1787109375,0.18310546875,2.86865234375,-0.263671875,44.31884765625,-77.442626953125
1758878000.670978,-0.67138671875,-0.0048828125,0.73583984375,-8.1787109375,0.18310546875,2.86865234375,-0.318603515625,44.3243408203125,-77.4041748046875
1758878000.6808968,-0.669921875,-0.00244140625,0.748046875,-7.62939453125,-0.244140625,2.9296875,-0.362548828125,44.31884765625,-77.3602294921875
1758878000.6909099,-0.669921875,-0.00244140625,0.748046875,-7.62939453125,-0.244140625,2.9296875,-0.4119873046875,44.31884765625,-77.32177734375
1758878000.7013195,-0.71337890625,-0.00390625,0.759765625,-7.01904296875,-0.732421875,2.5634765625,-0.4559326171875,44.307861328125,-77.2833251953125
1758878000.7118933,-0.71337890625,-0.00390625,0.759765625,-7.01904296875,-0.732421875,2.5634765625,-0.4998779296875,44.296875,-77.244873046875
1758878000.7209373,-0.7529296875,0.0009765625,0.7734375,-10.68115234375,-1.46484375,2.38037109375,-0.5767822265625,44.2803955078125,-77.2119140625
1758878000.731188,-0.7529296875,0.0009765625,0.7734375,-10.68115234375,-1.46484375,2.38037109375,-0.6591796875,44.263916015625,-77.1734619140625
1758878000.741302,-0.7587890625,0.005859375,0.7001953125,-13.3056640625,-1.64794921875,2.3193359375,-0.7635498046875,44.241943359375,-77.135009765625
1758878000.7511675,-0.7587890625,0.005859375,0.7001953125,-13.3056640625,-1.64794921875,2.3193359375,-0.8734130859375,44.23095703125,-77.10205078125
1758878000.7611783,-0.74951171875,-0.00732421875,0.67626953125,-9.70458984375,-1.46484375,1.953125,-0.94482421875,44.219970703125,-77.069091796875
1758878000.7720323,-0.74951171875,-0.00732421875,0.67626953125,-9.70458984375,-1.46484375,1.953125,-1.0162353515625,44.208984375,-77.0361328125
1758878000.7811663,-0.73291015625,-0.02880859375,0.64892578125,-7.568359375,-0.67138671875,1.64794921875,-1.0711669921875,44.208984375,-77.01416015625
1758878000.7913356,-0.73291015625,-0.02880859375,0.64892578125,-7.568359375,-0.67138671875,1.64794921875,-1.1260986328125,44.208984375,-76.9921875
1758878000.8015,-0.7392578125,-0.01025390625,0.6533203125,-6.40869140625,0.0,1.220703125,-1.175537109375,44.219970703125,-76.9757080078125
1758878000.8117113,-0.7392578125,-0.01025390625,0.6533203125,-6.40869140625,0.0,1.220703125,-1.2249755859375,44.2364501953125,-76.9537353515625
1758878000.82119,-0.7529296875,-0.00830078125,0.65234375,-3.84521484375,0.732421875,0.8544921875,-1.25244140625,44.2529296875,-76.9427490234375
1758878000.832143,-0.7529296875,-0.00830078125,0.65234375,-3.84521484375,0.732421875,0.8544921875,-1.2799072265625,44.27490234375,-76.9317626953125
1758878000.8411446,-0.7646484375,-0.0126953125,0.646484375,-1.708984375,1.46484375,0.18310546875,-1.2908935546875,44.307861328125,-76.92626953125
1758878000.8517678,-0.7646484375,-0.0126953125,0.646484375,-1.708984375,1.46484375,0.18310546875,-1.3018798828125,44.3408203125,-76.92626953125
1758878000.8617363,-0.7529296875,-0.0205078125,0.65087890625,0.9765625,1.953125,0.0,-1.2908935546875,44.3792724609375,-76.92626953125
1758878000.8717873,-0.7529296875,-0.0205078125,0.65087890625,0.9765625,1.953125,0.0,-1.2799072265625,44.417724609375,-76.9317626953125
1758878000.8812084,-0.74560546875,-0.02587890625,0.6552734375,1.8310546875,2.197265625,0.18310546875,-1.2579345703125,44.4561767578125,-76.9317626953125
1758878000.8913872,-0.74560546875,-0.02587890625,0.6552734375,1.8310546875,2.197265625,0.18310546875,-1.2359619140625,44.5001220703125,-76.9317626953125
1758878000.9013858,-0.7236328125,-0.02880859375,0.66552734375,2.3193359375,1.89208984375,0.9765625,-1.2030029296875,44.53857421875,-76.9207763671875
1758878000.9113688,-0.7236328125,-0.02880859375,0.66552734375,2.3193359375,1.89208984375,0.9765625,-1.1700439453125,44.5770263671875,-76.915283203125
1758878000.9212556,-0.7119140625,-0.02587890625,0.6962890625,-0.48828125,1.220703125,2.197265625,-1.1590576171875,44.6099853515625,-76.8878173828125
1758878000.9314747,-0.7119140625,-0.02587890625,0.6962890625,-0.48828125,1.220703125,2.197265625,-1.142578125,44.637451171875,-76.8603515625
1758878000.941277,-0.7001953125,-0.017578125,0.71044921875,-3.23486328125,0.79345703125,3.23486328125,-1.142578125,44.659423828125,-76.8218994140625
1758878000.9513829,-0.7001953125,-0.017578125,0.71044921875,-3.23486328125,0.79345703125,3.23486328125,-1.1480712890625,44.681396484375,-76.783447265625
1758878000.9622142,-0.69189453125,-0.01708984375,0.724609375,-3.72314453125,0.67138671875,3.72314453125,-1.1480712890625,44.703369140625,-76.7340087890625
1758878000.97141,-0.69189453125,-0.01708984375,0.724609375,-3.72314453125,0.67138671875,3.72314453125,-1.153564453125,44.7198486328125,-76.6900634765625
1758878000.9814212,-0.69189453125,-0.01708984375,0.724609375,-2.13623046875,0.42724609375,3.7841796875,-1.1370849609375,44.7308349609375,-76.640625
1758878000.9914563,-0.68408203125,-0.01708984375,0.73388671875,-2.13623046875,0.42724609375,3.7841796875,-1.1260986328125,44.7418212890625,-76.5911865234375
1758878001.0014086,-0.6787109375,-0.01416015625,0.7353515625,-1.3427734375,0.1220703125,3.662109375,-1.1041259765625,44.747314453125,-76.541748046875
1758878001.0117397,-0.6787109375,-0.01416015625,0.7353515625,-1.3427734375,0.1220703125,3.662109375,-1.0821533203125,44.7528076171875,-76.4923095703125
1758878001.0216725,-0.67578125,-0.00439453125,0.73974609375,-1.28173828125,0.0,3.2958984375,-1.065673828125,44.7528076171875,-76.4483642578125
1758878001.0319176,-0.67578125,-0.00439453125,0.73974609375,-1.28173828125,0.0,3.2958984375,-1.043701171875,44.7528076171875,-76.4044189453125
1758878001.0414913,-0.66650390625,-0.00732421875,0.73876953125,-2.8076171875,-0.244140625,3.0517578125,-1.043701171875,44.7528076171875,-76.365966796875
1758878001.0514348,-0.66650390625,-0.00732421875,0.73876953125,-2.8076171875,-0.244140625,3.0517578125,-1.043701171875,44.747314453125,-76.322021484375
1758878001.0627356,-0.658203125,-0.00390625,0.751953125,-3.2958984375,-0.3662109375,2.62451171875,-1.0491943359375,44.736328125,-76.2890625
1758878001.0714846,-0.658203125,-0.00390625,0.751953125,-3.2958984375,-0.3662109375,2.62451171875,-1.0546875,44.725341796875,-76.2506103515625
1758878001.081467,-0.65283203125,-0.0078125,0.77685546875,-1.03759765625,-0.48828125,2.01416015625,-1.043701171875,44.71435546875,-76.22314453125
1758878001.0916507,-0.65283203125,-0.0078125,0.77685546875,-1.03759765625,-0.48828125,2.01416015625,-1.03271484375,44.6978759765625,-76.190185546875
1758878001.1015885,-0.64599609375,-0.01513671875,0.7841796875,2.44140625,-0.732421875,1.3427734375,-0.9942626953125,44.681396484375,-76.168212890625
1758878001.1120493,-0.64599609375,-0.01513671875,0.7841796875,2.44140625,-0.732421875,1.3427734375,-0.955810546875,44.659423828125,-76.1517333984375
1758878001.1218243,-0.64404296875,-0.01806640625,0.77587890625,6.34765625,-1.46484375,0.6103515625,-0.8843994140625,44.6319580078125,-76.1407470703125
1758878001.1317384,-0.642578125,-0.0146484375,0.76025390625,7.62939453125,-2.25830078125,0.54931640625,-0.81298828125,44.593505859375,-76.1297607421875
1758878001.1416414,-0.642578125,-0.0146484375,0.76025390625,7.62939453125,-2.25830078125,0.54931640625,-0.7305908203125,44.5550537109375,-76.124267578125
1758878001.151655,-0.65185546875,-0.00732421875,0.75244140625,6.40869140625,-2.197265625,0.6103515625,-0.6536865234375,44.5166015625,-76.11328125
1758878001.1624284,-0.65185546875,-0.00732421875,0.75244140625,6.40869140625,-2.197265625,0.6103515625,-0.5877685546875,44.47265625,-76.102294921875
1758878001.1716418,-0.6728515625,-0.00732421875,0.765625,8.23974609375,-1.77001953125,0.732421875,-0.5108642578125,44.439697265625,-76.09130859375
1758878001.1819105,-0.6728515625,-0.00732421875,0.765625,8.23974609375,-1.77001953125,0.732421875,-0.4229736328125,44.4012451171875,-76.0858154296875
1758878001.1917949,-0.6728515625,-0.00732421875,0.765625,11.1083984375,-0.732421875,1.15966796875,-0.318603515625,44.373779296875,-76.0693359375
1758878001.2027872,-0.681640625,-0.015625,0.736328125,11.1083984375,-0.732421875,1.15966796875,-0.2032470703125,44.3463134765625,-76.058349609375
1758878001.2121892,-0.6806640625,-0.01953125,0.6904296875,10.986328125,-0.42724609375,1.708984375,-0.0823974609375,44.3243408203125,-76.0418701171875
1758878001.2220602,-0.6806640625,-0.01953125,0.6904296875,10.986328125,-0.42724609375,1.708984375,0.032958984375,44.307861328125,-76.0198974609375
1758878001.2318287,-0.703125,-0.00634765625,0.66748046875,10.3759765625,-0.1220703125,2.50244140625,0.15380859375,44.2913818359375,-75.9979248046875
1758878001.2421904,-0.703125,-0.00634765625,0.66748046875,10.3759765625,-0.1220703125,2.50244140625,0.274658203125,44.285888671875,-75.970458984375
1758878001.251764,-0.72705078125,0.009765625,0.66748046875,8.72802734375,0.0,3.35693359375,0.3900146484375,44.27490234375,-75.9429931640625
1758878001.2629507,-0.72705078125,0.009765625,0.66748046875,8.72802734375,0.0,3.35693359375,0.4998779296875,44.2694091796875,-75.904541015625
1758878001.2717967,-0.75146484375,0.02001953125,0.66845703125,4.21142578125,0.67138671875,4.45556640625,0.5987548828125,44.2694091796875,-75.8551025390625
1758878001.2825983,-0.75146484375,0.02001953125,0.66845703125,4.21142578125,0.67138671875,4.45556640625,0.6756591796875,44.2803955078125,-75.8001708984375
1758878001.2920134,-0.75244140625,0.01416015625,0.6748046875,1.0986328125,1.40380859375,5.2490234375,0.7470703125,44.2913818359375,-75.73974609375
1758878001.303061,-0.75244140625,0.01416015625,0.6748046875,1.0986328125,1.40380859375,5.2490234375,0.802001953125,44.307861328125,-75.673828125
1758878001.3118918,-0.75634765625,0.013671875,0.67578125,1.8310546875,2.13623046875,5.31005859375,0.8624267578125,44.329833984375,-75.60791015625
1758878001.3224506,-0.75634765625,0.013671875,0.67578125,1.8310546875,2.13623046875,5.31005859375,0.933837890625,44.36279296875,-75.5419921875
1758878001.3319778,-0.7431640625,0.0107421875,0.681640625,4.2724609375,2.50244140625,5.06591796875,1.0107421875,44.3902587890625,-75.4815673828125
1758878001.3419335,-0.7431640625,0.0107421875,0.681640625,4.2724609375,2.50244140625,5.06591796875,1.0986328125,44.4287109375,-75.4156494140625
1758878001.3519332,-0.73095703125,0.01806640625,0.69189453125,5.37109375,2.50244140625,4.82177734375,1.1920166015625,44.461669921875,-75.355224609375
1758878001.3623393,-0.73095703125,0.01806640625,0.69189453125,5.37109375,2.50244140625,4.82177734375,1.285400390625,44.49462890625,-75.30029296875
1758878001.3721654,-0.7177734375,0.01953125,0.69677734375,5.55419921875,2.13623046875,4.7607421875,1.38427734375,44.527587890625,-75.2398681640625
1758878001.3819427,-0.7177734375,0.01953125,0.69677734375,5.55419921875,2.13623046875,4.7607421875,1.483154296875,44.5550537109375,-75.1849365234375
1758878001.3919795,-0.70263671875,0.02294921875,0.70263671875,4.150390625,1.5869140625,4.638671875,1.5765380859375,44.58251953125,-75.12451171875
1758878001.4024558,-0.70263671875,0.02294921875,0.70263671875,4.150390625,1.5869140625,4.638671875,1.658935546875,44.6044921875,-75.069580078125
1758878001.4119735,-0.68701171875,0.029296875,0.71728515625,3.47900390625,0.8544921875,4.39453125,1.73583984375,44.62646484375,-75.0146484375
1758878001.4220822,-0.68701171875,0.029296875,0.71728515625,3.47900390625,0.8544921875,4.39453125,1.812744140625,44.637451171875,-74.9652099609375
1758878001.4326205,-0.6884765625,0.03857421875,0.728515625,2.44140625,0.48828125,4.08935546875,1.878662109375,44.6484375,-74.915771484375
1758878001.4421177,-0.6884765625,0.03857421875,0.728515625,2.44140625,0.48828125,4.08935546875,1.944580078125,44.659423828125,-74.8663330078125
1758878001.4520528,-0.6806640625,0.03759765625,0.7314453125,1.64794921875,0.0,3.60107421875,1.99951171875,44.659423828125,-74.81689453125
1758878001.4620605,-0.6806640625,0.03759765625,0.7314453125,1.64794921875,0.0,3.60107421875,2.0489501953125,44.659423828125,-74.77294921875
1758878001.4724066,-0.6806640625,0.03759765625,0.7314453125,0.79345703125,0.0,3.0517578125,2.0928955078125,44.659423828125,-74.72900390625
1758878001.4820733,-0.67529296875,0.04150390625,0.7333984375,0.79345703125,0.0,3.0517578125,2.13134765625,44.659423828125,-74.6905517578125
1758878001.4921772,-0.671875,0.03564453125,0.728515625,1.03759765625,0.06103515625,2.25830078125,2.164306640625,44.6539306640625,-74.6575927734375
1758878001.5024886,-0.671875,0.03564453125,0.728515625,1.03759765625,0.06103515625,2.25830078125,2.197265625,44.6484375,-74.630126953125
1758878001.5121393,-0.67578125,0.03955078125,0.73291015625,1.8310546875,0.3662109375,1.220703125,2.230224609375,44.6484375,-74.6136474609375
1758878001.5223012,-0.67578125,0.03955078125,0.73291015625,1.8310546875,0.3662109375,1.220703125,2.2576904296875,44.6484375,-74.59716796875
1758878001.5324917,-0.662109375,0.04248046875,0.7265625,5.06591796875,0.6103515625,0.1220703125,2.3016357421875,44.6429443359375,-74.5916748046875
1758878001.5423853,-0.662109375,0.04248046875,0.7265625,5.06591796875,0.6103515625,0.1220703125,2.3565673828125,44.6429443359375,-74.5916748046875
1758878001.552165,-0.66943359375,0.0361328125,0.740234375,6.65283203125,0.79345703125,-0.42724609375,2.4114990234375,44.6429443359375,-74.59716796875
1758878001.5623243,-0.66943359375,0.0361328125,0.740234375,6.65283203125,0.79345703125,-0.42724609375,2.4774169921875,44.6429443359375,-74.6026611328125
1758878001.5723276,-0.6767578125,0.0322265625,0.73974609375,5.859375,0.91552734375,-0.732421875,2.5323486328125,44.6429443359375,-74.6136474609375
1758878001.5822937,-0.6767578125,0.0322265625,0.73974609375,5.859375,0.91552734375,-0.732421875,2.5872802734375,44.6484375,-74.6246337890625
1758878001.5924246,-0.685546875,0.0322265625,0.72216796875,5.55419921875,0.8544921875,-0.79345703125,2.63671875,44.6484375,-74.64111328125
1758878001.6027439,-0.685546875,0.0322265625,0.72216796875,5.55419921875,0.8544921875,-0.79345703125,2.6861572265625,44.6429443359375,-74.652099609375
1758878001.6129048,-0.701171875,0.041015625,0.7158203125,4.21142578125,0.8544921875,-1.03759765625,2.724609375,44.6484375,-74.6685791015625
1758878001.6223311,-0.701171875,0.041015625,0.7158203125,4.21142578125,0.8544921875,-1.03759765625,2.757568359375,44.6484375,-74.68505859375
1758878001.6327298,-0.70556640625,0.05615234375,0.71533203125,1.40380859375,0.8544921875,-1.28173828125,2.7740478515625,44.6484375,-74.7015380859375
1758878001.642626,-0.70556640625,0.05615234375,0.71533203125,1.40380859375,0.8544921875,-1.28173828125,2.7740478515625,44.6484375,-74.718017578125
1758878001.652629,-0.70849609375,0.0498046875,0.69873046875,-0.48828125,1.03759765625,-1.220703125,2.7685546875,44.6539306640625,-74.739990234375
1758878001.6624174,-0.70849609375,0.0498046875,0.69873046875,-0.48828125,1.03759765625,-1.220703125,2.757568359375,44.659423828125,-74.7564697265625
1758878001.6728,-0.70556640625,0.03515625,0.70703125,-0.9765625,1.15966796875,-1.220703125,2.7410888671875,44.6649169921875,-74.77294921875
1758878001.682439,-0.70556640625,0.03515625,0.70703125,-0.9765625,1.15966796875,-1.220703125,2.7191162109375,44.6759033203125,-74.7894287109375
1758878001.6933398,-0.71533203125,0.03125,0.70703125,-0.6103515625,1.03759765625,-0.9765625,2.70263671875,44.681396484375,-74.8004150390625
1758878001.7024908,-0.71533203125,0.03125,0.70703125,-0.6103515625,1.03759765625,-0.9765625,2.691650390625,44.6923828125,-74.81689453125
1758878001.712886,-0.70703125,0.03515625,0.68896484375,-0.91552734375,0.9765625,-0.6103515625,2.6806640625,44.6978759765625,-74.827880859375
1758878001.7226887,-0.70703125,0.03515625,0.68896484375,-0.91552734375,0.9765625,-0.6103515625,2.6641845703125,44.7088623046875,-74.8388671875
1758878001.7334814,-0.71142578125,0.0400390625,0.69384765625,-2.74658203125,0.9765625,-0.30517578125,2.647705078125,44.7198486328125,-74.849853515625
1758878001.7424774,-0.71142578125,0.0400390625,0.69384765625,-2.74658203125,0.9765625,-0.30517578125,2.6202392578125,44.7308349609375,-74.8553466796875
1758878001.753043,-0.712890625,0.0400390625,0.70166015625,-4.638671875,1.03759765625,0.06103515625,2.581787109375,44.736328125,-74.8553466796875
1758878001.7626345,-0.712890625,0.0400390625,0.70166015625,-4.638671875,1.03759765625,0.06103515625,2.5433349609375,44.747314453125,-74.8553466796875
1758878001.7725465,-0.703125,0.03369140625,0.7001953125,-4.7607421875,0.9765625,0.30517578125,2.4993896484375,44.75830078125,-74.8553466796875
1758878001.7825742,-0.703125,0.03369140625,0.7001953125,-4.7607421875,0.9765625,0.30517578125,2.4609375,44.769287109375,-74.849853515625
1758878001.7929106,-0.7001953125,0.03173828125,0.6943359375,-4.94384765625,0.8544921875,0.67138671875,2.4224853515625,44.7802734375,-74.8443603515625
1758878001.8027816,-0.7001953125,0.03173828125,0.6943359375,-4.94384765625,0.8544921875,0.67138671875,2.384033203125,44.791259765625,-74.8333740234375
1758878001.8125496,-0.6953125,0.03125,0.70703125,-5.92041015625,0.732421875,0.8544921875,2.340087890625,44.7967529296875,-74.827880859375
1758878001.8225994,-0.6953125,0.03125,0.70703125,-5.92041015625,0.732421875,0.8544921875,2.2906494140625,44.8077392578125,-74.81689453125
1758878001.8330464,-0.685546875,0.02783203125,0.7255859375,-6.53076171875,0.54931640625,0.732421875,2.2412109375,44.813232421875,-74.805908203125
1758878001.8426034,-0.685546875,0.02783203125,0.7255859375,-6.53076171875,0.54931640625,0.732421875,2.186279296875,44.8187255859375,-74.794921875
1758878001.8526547,-0.68310546875,0.029296875,0.73583984375,-5.2490234375,0.732421875,0.79345703125,2.142333984375,44.82421875,-74.783935546875
1758878001.862896,-0.68310546875,0.029296875,0.73583984375,-5.2490234375,0.732421875,0.79345703125,2.098388671875,44.82421875,-74.77294921875
1758878001.8730302,-0.68896484375,0.0283203125,0.73779296875,-2.38037109375,1.0986328125,0.54931640625,2.0709228515625,44.8297119140625,-74.761962890625
1758878001.8828452,-0.68896484375,0.0283203125,0.73779296875,-2.38037109375,1.0986328125,0.54931640625,2.054443359375,44.8406982421875,-74.7564697265625
1758878001.8927095,-0.69873046875,0.0263671875,0.73681640625,-4.08935546875,1.708984375,0.54931640625,2.032470703125,44.84619140625,-74.7454833984375
1758878001.9031022,-0.69873046875,0.0263671875,0.73681640625,-4.08935546875,1.708984375,0.54931640625,1.99951171875,44.857177734375,-74.739990234375
1758878001.9126935,-0.69580078125,0.03662109375,0.7314453125,-8.48388671875,1.8310546875,0.48828125,1.9500732421875,44.8681640625,-74.72900390625
1758878001.9227352,-0.69580078125,0.03662109375,0.7314453125,-8.48388671875,1.8310546875,0.48828125,1.8731689453125,44.8846435546875,-74.7235107421875
1758878001.9330027,-0.69970703125,0.04736328125,0.71923828125,-11.962890625,1.89208984375,0.54931640625,1.77978515625,44.8956298828125,-74.7125244140625
1758878001.9429595,-0.69970703125,0.04736328125,0.71923828125,-11.962890625,1.89208984375,0.54931640625,1.6754150390625,44.9066162109375,-74.7015380859375
1758878001.9527688,-0.7041015625,0.03369140625,0.7119140625,-14.16015625,1.8310546875,0.48828125,1.5545654296875,44.9176025390625,-74.6905517578125
1758878001.9628348,-0.7041015625,0.03369140625,0.7119140625,-14.16015625,1.8310546875,0.48828125,1.42822265625,44.93408203125,-74.674072265625
1758878001.9732997,-0.71142578125,0.01025390625,0.716796875,-15.80810546875,1.8310546875,0.54931640625,1.2908935546875,44.945068359375,-74.6630859375
1758878001.9828396,-0.71142578125,0.01025390625,0.716796875,-15.80810546875,1.8310546875,0.54931640625,1.1480712890625,44.9615478515625,-74.652099609375
1758878001.9928718,-0.73291015625,0.01025390625,0.69482421875,-17.76123046875,1.89208984375,0.6103515625,0.9942626953125,44.9725341796875,-74.6356201171875
1758878002.0033467,-0.73291015625,0.01025390625,0.69482421875,-17.76123046875,1.89208984375,0.6103515625,0.8294677734375,44.989013671875,-74.6246337890625
1758878002.012853,-0.7353515625,0.0224609375,0.68359375,-18.73779296875,2.01416015625,0.91552734375,0.6646728515625,45.0054931640625,-74.608154296875
1758878002.0229075,-0.7353515625,0.0224609375,0.68359375,-18.73779296875,2.01416015625,0.91552734375,0.494384765625,45.0274658203125,-74.5916748046875
1758878002.0332997,-0.76611328125,0.01123046875,0.65234375,-19.95849609375,2.9296875,1.52587890625,0.3240966796875,45.0494384765625,-74.5697021484375
1758878002.0431015,-0.76611328125,0.01123046875,0.65234375,-19.95849609375,2.9296875,1.52587890625,0.1483154296875,45.0823974609375,-74.542236328125
1758878002.0531502,-0.78466796875,-0.00048828125,0.64013671875,-20.751953125,4.69970703125,1.46484375,-0.02197265625,45.1263427734375,-74.5147705078125
1758878002.0640574,-0.78466796875,-0.00048828125,0.64013671875,-20.751953125,4.69970703125,1.46484375,-0.2032470703125,45.1812744140625,-74.4927978515625
1758878002.0729728,-0.76025390625,-0.00732421875,0.642578125,-12.8173828125,7.9345703125,0.9765625,-0.3460693359375,45.2581787109375,-74.4708251953125
1758878002.083275,-0.76025390625,-0.00732421875,0.642578125,-12.8173828125,7.9345703125,0.9765625,-0.4559326171875,45.3460693359375,-74.454345703125
1758878002.0932946,-0.74169921875,-0.03564453125,0.673828125,-2.5634765625,8.544921875,0.3662109375,-0.472412109375,45.4449462890625,-74.4488525390625
1758878002.1039238,-0.74169921875,-0.03564453125,0.673828125,-2.5634765625,8.544921875,0.3662109375,-0.4888916015625,45.538330078125,-74.443359375
1758878002.1130054,-0.73681640625,-0.02197265625,0.67578125,1.0986328125,7.75146484375,0.30517578125,-0.472412109375,45.626220703125,-74.443359375
1758878002.123626,-0.73681640625,-0.02197265625,0.67578125,1.0986328125,7.75146484375,0.30517578125,-0.450439453125,45.714111328125,-74.443359375
1758878002.133485,-0.72509765625,-0.00439453125,0.65966796875,-0.18310546875,6.89697265625,1.40380859375,-0.439453125,45.7965087890625,-74.4268798828125
1758878002.1433942,-0.72509765625,-0.00439453125,0.65966796875,-0.18310546875,6.89697265625,1.40380859375,-0.4229736328125,45.8734130859375,-74.410400390625
1758878002.1531227,-0.71923828125,-0.0068359375,0.6787109375,-6.04248046875,6.40869140625,3.0517578125,-0.450439453125,45.94482421875,-74.366455078125
1758878002.1641397,-0.71923828125,-0.0068359375,0.6787109375,-6.04248046875,6.40869140625,3.0517578125,-0.4779052734375,46.0162353515625,-74.3280029296875
1758878002.1734834,-0.7255859375,-0.0166015625,0.69873046875,-9.70458984375,6.16455078125,4.33349609375,-0.52734375,46.087646484375,-74.267578125
1758878002.1845062,-0.7255859375,-0.0166015625,0.69873046875,-9.70458984375,6.16455078125,4.33349609375,-0.582275390625,46.153564453125,-74.2071533203125
1758878002.1936445,-0.7255859375,-0.0166015625,0.69873046875,-8.30078125,6.16455078125,4.69970703125,-0.615234375,46.219482421875,-74.146728515625
1758878002.2032187,-0.7275390625,-0.0224609375,0.6953125,-8.30078125,6.16455078125,4.69970703125,-0.648193359375,46.285400390625,-74.080810546875
1758878002.2132323,-0.7236328125,-0.017578125,0.68115234375,-4.0283203125,6.34765625,4.33349609375,-0.6427001953125,46.3568115234375,-74.02587890625
1758878002.223723,-0.7236328125,-0.017578125,0.68115234375,-4.0283203125,6.34765625,4.33349609375,-0.6427001953125,46.4227294921875,-73.970947265625
1758878002.2336607,-0.72265625,-0.00537109375,0.681640625,0.48828125,6.65283203125,3.23486328125,-0.604248046875,46.4886474609375,-73.927001953125
1758878002.2433438,-0.72265625,-0.00537109375,0.681640625,0.48828125,6.65283203125,3.23486328125,-0.5657958984375,46.56005859375,-73.8885498046875
1758878002.2532609,-0.716796875,0.0048828125,0.69775390625,4.57763671875,6.8359375,1.89208984375,-0.4998779296875,46.6314697265625,-73.8665771484375
1758878002.2636657,-0.716796875,0.0048828125,0.69775390625,4.57763671875,6.8359375,1.89208984375,-0.439453125,46.6973876953125,-73.839111328125
1758878002.2737193,-0.70361328125,0.01904296875,0.708984375,5.615234375,7.14111328125,0.54931640625,-0.37353515625,46.768798828125,-73.8336181640625
1758878002.283368,-0.70361328125,0.01904296875,0.708984375,5.615234375,7.14111328125,0.54931640625,-0.3131103515625,46.834716796875,-73.828125
1758878002.293597,-0.701171875,0.015625,0.71435546875,2.5634765625,7.62939453125,-0.06103515625,-0.28564453125,46.9061279296875,-73.828125
1758878002.3033898,-0.701171875,0.015625,0.71435546875,2.5634765625,7.62939453125,-0.06103515625,-0.2581787109375,46.9775390625,-73.828125
1758878002.3133745,-0.708984375,0.0146484375,0.6953125,3.0517578125,8.11767578125,-0.79345703125,-0.2362060546875,47.054443359375,-73.839111328125
1758878002.3237355,-0.708984375,0.0146484375,0.6953125,3.0517578125,8.11767578125,-0.79345703125,-0.208740234375,47.1258544921875,-73.8446044921875
1758878002.3338387,-0.6904296875,-0.01513671875,0.7392578125,5.67626953125,8.1787109375,-1.15966796875,-0.164794921875,47.197265625,-73.861083984375
1758878002.3434014,-0.6904296875,-0.01513671875,0.7392578125,5.67626953125,8.1787109375,-1.15966796875,-0.120849609375,47.2686767578125,-73.8775634765625
1758878002.3534327,-0.67333984375,-0.02783203125,0.75244140625,8.72802734375,7.99560546875,-1.64794921875,-0.0494384765625,47.3345947265625,-73.8995361328125
1758878002.3638992,-0.67333984375,-0.02783203125,0.75244140625,8.72802734375,7.99560546875,-1.64794921875,0.010986328125,47.4005126953125,-73.9215087890625
1758878002.373836,-0.65576171875,-0.01123046875,0.74853515625,14.404296875,6.8359375,-2.44140625,0.1263427734375,47.449951171875,-73.9599609375
1758878002.3835433,-0.65576171875,-0.01123046875,0.74853515625,14.404296875,6.8359375,-2.44140625,0.24169921875,47.4993896484375,-73.9984130859375
1758878002.3941314,-0.62548828125,0.00390625,0.73974609375,16.54052734375,5.92041015625,-2.74658203125,0.3680419921875,47.537841796875,-74.036865234375
1758878002.403589,-0.62548828125,0.00390625,0.73974609375,16.54052734375,5.92041015625,-2.74658203125,0.4998779296875,47.57080078125,-74.0753173828125
1758878002.413524,-0.59912109375,0.00341796875,0.77734375,13.671875,5.43212890625,-2.197265625,0.6097412109375,47.5982666015625,-74.1082763671875
1758878002.4240668,-0.59912109375,0.00341796875,0.77734375,13.671875,5.43212890625,-2.197265625,0.714111328125,47.6202392578125,-74.1412353515625
1758878002.4339812,-0.60400390625,0.0,0.77734375,10.92529296875,5.18798828125,-1.708984375,0.802001953125,47.63671875,-74.1632080078125
1758878002.443586,-0.60400390625,0.0,0.77734375,10.92529296875,5.18798828125,-1.708984375,0.8843994140625,47.6531982421875,-74.1851806640625
1758878002.453666,-0.61083984375,-0.01220703125,0.76513671875,13.0615234375,4.638671875,-2.01416015625,0.98876953125,47.6641845703125,-74.2181396484375
1758878002.4640005,-0.61083984375,-0.01220703125,0.76513671875,13.0615234375,4.638671875,-2.01416015625,1.087646484375,47.669677734375,-74.24560546875
1758878002.4739578,-0.61083984375,-0.01220703125,0.76513671875,22.3388671875,4.82177734375,-2.62451171875,1.2744140625,47.6751708984375,-74.2840576171875
1758878002.4836771,-0.63232421875,-0.01025390625,0.724609375,22.3388671875,4.82177734375,-2.62451171875,1.461181640625,47.6861572265625,-74.3280029296875
1758878002.49419,-0.66259765625,-0.00341796875,0.71240234375,28.62548828125,4.638671875,-3.2958984375,1.6973876953125,47.691650390625,-74.37744140625
1758878002.5040035,-0.66259765625,-0.00341796875,0.71240234375,28.62548828125,4.638671875,-3.2958984375,1.93359375,47.70263671875,-74.432373046875
1758878002.5140224,-0.71142578125,0.041015625,0.7236328125,20.99609375,4.21142578125,-3.35693359375,2.0928955078125,47.7081298828125,-74.4873046875
1758878002.5240412,-0.71142578125,0.041015625,0.7236328125,20.99609375,4.21142578125,-3.35693359375,2.2576904296875,47.7191162109375,-74.542236328125
1758878002.5347092,-0.79541015625,0.1015625,0.73388671875,0.6103515625,3.41796875,-2.5634765625,2.2247314453125,47.7191162109375,-74.5806884765625
1758878002.5437531,-0.79541015625,0.1015625,0.73388671875,0.6103515625,3.41796875,-2.5634765625,2.2027587890625,47.724609375,-74.6136474609375
1758878002.554174,-0.8623046875,0.134765625,0.69140625,-17.51708984375,2.197265625,-0.9765625,2.0159912109375,47.724609375,-74.619140625
1758878002.5639884,-0.8623046875,0.134765625,0.69140625,-17.51708984375,2.197265625,-0.9765625,1.8402099609375,47.7301025390625,-74.619140625
1758878002.574528,-0.83984375,0.0546875,0.62255859375,-19.04296875,1.89208984375,-0.30517578125,1.658935546875,47.7301025390625,-74.608154296875
1758878002.5837939,-0.83984375,0.0546875,0.62255859375,-19.04296875,1.89208984375,-0.30517578125,1.4776611328125,47.7410888671875,-74.59716796875
1758878002.594414,-0.7734375,-0.01708984375,0.58740234375,-18.6767578125,2.197265625,0.1220703125,1.307373046875,47.757568359375,-74.5806884765625
1758878002.604244,-0.7734375,-0.01708984375,0.58740234375,-18.6767578125,2.197265625,0.1220703125,1.131591796875,47.7740478515625,-74.5697021484375
1758878002.6141768,-0.75390625,-0.017578125,0.57568359375,-15.869140625,3.11279296875,0.0,0.9832763671875,47.8070068359375,-74.564208984375
1758878002.624278,-0.75390625,-0.017578125,0.57568359375,-15.869140625,3.11279296875,0.0,0.8349609375,47.8399658203125,-74.5587158203125
1758878002.6349475,-0.74951171875,-0.021484375,0.5859375,-3.41796875,3.662109375,-0.244140625,0.802001953125,47.8839111328125,-74.5587158203125
1758878002.6438878,-0.74951171875,-0.021484375,0.5859375,-3.41796875,3.662109375,-0.244140625,0.76904296875,47.92236328125,-74.564208984375
1758878002.6544547,-0.7568359375,-0.02099609375,0.58984375,7.38525390625,4.0283203125,-0.48828125,0.8404541015625,47.9718017578125,-74.5697021484375
1758878002.6643,-0.7568359375,-0.02099609375,0.58984375,7.38525390625,4.0283203125,-0.48828125,0.911865234375,48.021240234375,-74.5806884765625
1758878002.6748655,-0.771484375,-0.01123046875,0.6416015625,9.33837890625,3.96728515625,-0.732421875,0.9942626953125,48.0706787109375,-74.59716796875
1758878002.6839216,-0.771484375,-0.01123046875,0.6416015625,9.33837890625,3.96728515625,-0.732421875,1.07666015625,48.1201171875,-74.6136474609375
1758878002.693945,-0.7900390625,0.0302734375,0.67626953125,3.5400390625,3.72314453125,-0.6103515625,1.1041259765625,48.1695556640625,-74.630126953125
1758878002.7040403,-0.7900390625,0.0302734375,0.67626953125,3.5400390625,3.72314453125,-0.6103515625,1.131591796875,48.2135009765625,-74.64111328125
1758878002.7139688,-0.79736328125,0.06640625,0.6591796875,-1.77001953125,3.35693359375,-0.30517578125,1.109619140625,48.2574462890625,-74.6466064453125
1758878002.7245073,-0.79736328125,0.06640625,0.6591796875,-1.77001953125,3.35693359375,-0.30517578125,1.0931396484375,48.2958984375,-74.6466064453125
1758878002.7344184,-0.77001953125,0.04931640625,0.63525390625,-10.07080078125,3.11279296875,-0.244140625,0.999755859375,48.33984375,-74.6466064453125
1758878002.7440097,-0.77001953125,0.04931640625,0.63525390625,-10.07080078125,3.11279296875,-0.244140625,0.90087890625,48.3782958984375,-74.6466064453125
1758878002.7540777,-0.7626953125,0.03076171875,0.62451171875,-19.10400390625,3.173828125,-0.244140625,0.7196044921875,48.4222412109375,-74.64111328125
1758878002.7640862,-0.7626953125,0.03076171875,0.62451171875,-19.10400390625,3.173828125,-0.244140625,0.5328369140625,48.460693359375,-74.6356201171875
1758878002.7754111,-0.76220703125,0.01708984375,0.62890625,-20.44677734375,3.0517578125,-0.54931640625,0.3350830078125,48.4991455078125,-74.6356201171875
1758878002.7841349,-0.76220703125,0.01708984375,0.62890625,-20.44677734375,3.0517578125,-0.54931640625,0.1373291015625,48.5430908203125,-74.630126953125
1758878002.794123,-0.76171875,-0.0009765625,0.62841796875,-19.95849609375,2.9296875,-0.91552734375,-0.054931640625,48.58154296875,-74.6356201171875
1758878002.8042722,-0.76171875,-0.0009765625,0.62841796875,-19.95849609375,2.9296875,-0.91552734375,-0.252685546875,48.6199951171875,-74.64111328125
1758878002.8141975,-0.748046875,-0.00830078125,0.6279296875,-19.10400390625,2.9296875,-1.15966796875,-0.4449462890625,48.658447265625,-74.652099609375
1758878002.8241782,-0.748046875,-0.00830078125,0.6279296875,-19.10400390625,2.9296875,-1.15966796875,-0.63720703125,48.6968994140625,-74.6630859375
1758878002.8346114,-0.740234375,-0.01025390625,0.654296875,-17.88330078125,2.99072265625,-1.28173828125,-0.823974609375,48.7353515625,-74.674072265625
1758878002.8441732,-0.740234375,-0.01025390625,0.654296875,-17.88330078125,2.99072265625,-1.28173828125,-1.0052490234375,48.768310546875,-74.68505859375
1758878002.8542318,-0.74169921875,0.0,0.6630859375,-17.15087890625,3.11279296875,-1.3427734375,-1.1810302734375,48.8067626953125,-74.7015380859375
1758878002.8643053,-0.74169921875,0.0,0.6630859375,-17.15087890625,3.11279296875,-1.3427734375,-1.3568115234375,48.8397216796875,-74.7125244140625
1758878002.874243,-0.7373046875,-0.001953125,0.662109375,-18.73779296875,2.9296875,-1.28173828125,-1.5435791015625,48.8726806640625,-74.7235107421875
1758878002.8842688,-0.7373046875,-0.001953125,0.662109375,-18.73779296875,2.9296875,-1.28173828125,-1.73583984375,48.9056396484375,-74.72900390625
1758878002.894306,-0.7392578125,-0.0009765625,0.65087890625,-19.1650390625,3.173828125,-1.28173828125,-1.9281005859375,48.9385986328125,-74.739990234375
1758878002.9046702,-0.7392578125,-0.0009765625,0.65087890625,-19.1650390625,3.173828125,-1.28173828125,-2.120361328125,48.9715576171875,-74.7454833984375
1758878002.914339,-0.73486328125,-0.029296875,0.650390625,-18.85986328125,3.35693359375,-1.220703125,-2.30712890625,49.0045166015625,-74.7509765625
1758878002.9244416,-0.73486328125,-0.029296875,0.650390625,-18.85986328125,3.35693359375,-1.220703125,-2.4993896484375,49.0374755859375,-74.7564697265625
1758878002.9349396,-0.759765625,-0.0478515625,0.6806640625,-13.85498046875,3.662109375,-1.0986328125,-2.6422119140625,49.075927734375,-74.761962890625
1758878002.9444208,-0.759765625,-0.0478515625,0.6806640625,-13.85498046875,3.662109375,-1.0986328125,-2.779541015625,49.10888671875,-74.77294921875
1758878002.954462,-0.791015625,-0.07666015625,0.65966796875,-3.35693359375,3.7841796875,-1.46484375,-2.823486328125,49.1473388671875,-74.7894287109375
1758878002.9645174,-0.791015625,-0.07666015625,0.65966796875,-3.35693359375,3.7841796875,-1.46484375,-2.8729248046875,49.1802978515625,-74.805908203125
1758878002.9744432,-0.78955078125,-0.0654296875,0.65966796875,3.23486328125,3.47900390625,-1.64794921875,-2.8564453125,49.21875,-74.8333740234375
1758878002.984612,-0.78955078125,-0.0654296875,0.65966796875,3.23486328125,3.47900390625,-1.64794921875,-2.845458984375,49.251708984375,-74.86083984375
1758878002.9944563,-0.77685546875,-0.04638671875,0.6455078125,7.01904296875,3.72314453125,-1.15966796875,-2.79052734375,49.28466796875,-74.8773193359375
1758878003.0054805,-0.77685546875,-0.04638671875,0.6455078125,7.01904296875,3.72314453125,-1.15966796875,-2.735595703125,49.3231201171875,-74.8992919921875
1758878003.0144389,-0.77099609375,-0.0517578125,0.6298828125,9.1552734375,4.150390625,-0.9765625,-2.65869140625,49.3670654296875,-74.9212646484375
1758878003.024931,-0.77099609375,-0.0517578125,0.6298828125,9.1552734375,4.150390625,-0.9765625,-2.581787109375,49.4110107421875,-74.937744140625
1758878003.0348554,-0.7685546875,-0.04541015625,0.59716796875,9.1552734375,4.7607421875,-1.15966796875,-2.515869140625,49.46044921875,-74.9652099609375
1758878003.0448296,-0.78076171875,-0.037109375,0.60791015625,13.24462890625,5.2490234375,-1.3427734375,-2.4224853515625,49.5098876953125,-74.99267578125
1758878003.0545378,-0.78076171875,-0.037109375,0.60791015625,13.24462890625,5.2490234375,-1.3427734375,-2.318115234375,49.5648193359375,-75.0201416015625
1758878003.0656626,-0.79150390625,-0.0302734375,0.62109375,15.5029296875,5.615234375,-1.77001953125,-2.197265625,49.625244140625,-75.0531005859375
1758878003.074985,-0.79150390625,-0.0302734375,0.62109375,15.5029296875,5.615234375,-1.77001953125,-2.076416015625,49.6856689453125,-75.091552734375
1758878003.0855541,-0.7958984375,-0.01318359375,0.61474609375,12.451171875,5.859375,-1.5869140625,-1.966552734375,49.7515869140625,-75.1300048828125
1758878003.0946267,-0.7958984375,-0.01318359375,0.61474609375,12.451171875,5.859375,-1.5869140625,-1.86767578125,49.81201171875,-75.1629638671875
1758878003.1057158,-0.80029296875,0.0,0.63330078125,9.94873046875,6.4697265625,-1.220703125,-1.77978515625,49.8834228515625,-75.1904296875
1758878003.1146445,-0.80029296875,0.0,0.63330078125,9.94873046875,6.4697265625,-1.220703125,-1.702880859375,49.954833984375,-75.2178955078125
1758878003.1246533,-0.79052734375,-0.00927734375,0.6240234375,8.4228515625,7.50732421875,-1.0986328125,-1.6314697265625,50.0262451171875,-75.2398681640625
1758878003.134976,-0.79052734375,-0.00927734375,0.6240234375,8.4228515625,7.50732421875,-1.0986328125,-1.5655517578125,50.108642578125,-75.2618408203125
1758878003.144708,-0.798828125,-0.0283203125,0.62548828125,7.26318359375,8.30078125,-0.91552734375,-1.505126953125,50.196533203125,-75.2838134765625
1758878003.154769,-0.798828125,-0.0283203125,0.62548828125,7.26318359375,8.30078125,-0.91552734375,-1.4501953125,50.284423828125,-75.30029296875
1758878003.1647327,-0.80517578125,-0.03271484375,0.61669921875,8.48388671875,8.9111328125,-1.28173828125,-1.395263671875,50.3778076171875,-75.322265625
1758878003.174742,-0.80517578125,-0.03271484375,0.61669921875,8.48388671875,8.9111328125,-1.28173828125,-1.3348388671875,50.47119140625,-75.3497314453125
1758878003.1847482,-0.80810546875,-0.01953125,0.6044921875,8.72802734375,9.09423828125,-1.8310546875,-1.2744140625,50.5645751953125,-75.3826904296875
1758878003.1947806,-0.80810546875,-0.01953125,0.6044921875,8.72802734375,9.09423828125,-1.8310546875,-1.219482421875,50.6634521484375,-75.421142578125
1758878003.2050612,-0.814453125,0.005859375,0.60498046875,6.103515625,8.9111328125,-2.25830078125,-1.175537109375,50.7623291015625,-75.4595947265625
1758878003.214752,-0.814453125,0.005859375,0.60498046875,6.103515625,8.9111328125,-2.25830078125,-1.1480712890625,50.855712890625,-75.5035400390625
1758878003.2247684,-0.81591796875,0.00830078125,0.6015625,3.23486328125,8.36181640625,-2.13623046875,-1.1370849609375,50.9490966796875,-75.5419921875
1758878003.2349281,-0.81591796875,0.00830078125,0.6015625,3.23486328125,8.36181640625,-2.13623046875,-1.131591796875,51.04248046875,-75.574951171875
1758878003.2448428,-0.806640625,-0.00634765625,0.603515625,1.15966796875,7.4462890625,-1.52587890625,-1.1370849609375,51.13037109375,-75.60791015625
1758878003.2548592,-0.806640625,-0.00634765625,0.603515625,1.15966796875,7.4462890625,-1.52587890625,-1.1480712890625,51.2127685546875,-75.6298828125
1758878003.2653146,-0.80712890625,-0.02001953125,0.599609375,-1.52587890625,6.53076171875,-0.67138671875,-1.16455078125,51.2896728515625,-75.65185546875
1758878003.2749004,-0.80712890625,-0.02001953125,0.599609375,-1.52587890625,6.53076171875,-0.67138671875,-1.1920166015625,51.361083984375,-75.662841796875
1758878003.284894,-0.79638671875,-0.02001953125,0.5947265625,-3.662109375,5.31005859375,0.0,-1.219482421875,51.427001953125,-75.6683349609375
1758878003.2949615,-0.79638671875,-0.02001953125,0.5947265625,-3.662109375,5.31005859375,0.0,-1.263427734375,51.4874267578125,-75.6683349609375
1758878003.3051763,-0.794921875,-0.0166015625,0.59765625,-2.86865234375,3.7841796875,0.18310546875,-1.29638671875,51.5423583984375,-75.6683349609375
1758878003.3149385,-0.794921875,-0.0166015625,0.59765625,-2.86865234375,3.7841796875,0.18310546875,-1.3238525390625,51.5863037109375,-75.6683349609375
1758878003.3249767,-0.78076171875,-0.0322265625,0.599609375,1.89208984375,2.0751953125,-0.1220703125,-1.329345703125,51.624755859375,-75.6683349609375
1758878003.335098,-0.78076171875,-0.0322265625,0.599609375,1.89208984375,2.0751953125,-0.1220703125,-1.3128662109375,51.6522216796875,-75.673828125
1758878003.3450048,-0.806640625,-0.02978515625,0.60791015625,7.38525390625,0.244140625,-0.244140625,-1.2744140625,51.668701171875,-75.6793212890625
1758878003.3550582,-0.806640625,-0.02978515625,0.60791015625,7.38525390625,0.244140625,-0.244140625,-1.20849609375,51.6796875,-75.684814453125
1758878003.3652954,-0.80322265625,-0.01611328125,0.60400390625,10.8642578125,-1.220703125,-0.18310546875,-1.12060546875,51.6796875,-75.69580078125
1758878003.3755124,-0.80322265625,-0.01611328125,0.60400390625,10.8642578125,-1.220703125,-0.18310546875,-1.021728515625,51.6741943359375,-75.7012939453125
1758878003.3850155,-0.8037109375,-0.01171875,0.57861328125,8.60595703125,-2.74658203125,0.0,-0.9283447265625,51.6632080078125,-75.706787109375
1758878003.3954124,-0.8037109375,-0.01171875,0.57861328125,8.60595703125,-2.74658203125,0.0,-0.845947265625,51.646728515625,-75.706787109375
1758878003.4055111,-0.81787109375,0.00244140625,0.58349609375,5.615234375,-3.90625,-0.1220703125,-0.780029296875,51.6192626953125,-75.7122802734375
1758878003.4154136,-0.81787109375,0.00244140625,0.58349609375,5.615234375,-3.90625,-0.1220703125,-0.7305908203125,51.591796875,-75.7177734375
1758878003.4251485,-0.8095703125,0.01318359375,0.568359375,5.43212890625,-4.33349609375,-0.67138671875,-0.68115234375,51.5643310546875,-75.728759765625
1758878003.4365833,-0.8095703125,0.01318359375,0.568359375,5.43212890625,-4.33349609375,-0.67138671875,-0.63720703125,51.5313720703125,-75.73974609375
1758878003.445179,-0.82421875,0.01513671875,0.5478515625,5.615234375,-3.96728515625,-1.708984375,-0.5987548828125,51.50390625,-75.7562255859375
1758878003.455445,-0.82421875,0.01513671875,0.5478515625,5.615234375,-3.96728515625,-1.708984375,-0.5657958984375,51.4764404296875,-75.78369140625
1758878003.4651816,-0.8173828125,0.0107421875,0.56201171875,3.90625,-3.0517578125,-2.8076171875,-0.5438232421875,51.4599609375,-75.8221435546875
1758878003.476432,-0.8173828125,0.0107421875,0.56201171875,3.90625,-3.0517578125,-2.8076171875,-0.538330078125,51.4434814453125,-75.860595703125
1758878003.485178,-0.81103515625,0.009765625,0.564453125,4.45556640625,-1.953125,-3.96728515625,-0.538330078125,51.43798828125,-75.91552734375
1758878003.4958246,-0.81103515625,0.009765625,0.564453125,4.45556640625,-1.953125,-3.96728515625,-0.538330078125,51.43798828125,-75.970458984375
1758878003.5053027,-0.79248046875,-0.00390625,0.591796875,8.544921875,-1.28173828125,-4.94384765625,-0.52734375,51.43798828125,-76.0418701171875
1758878003.515861,-0.79248046875,-0.00390625,0.591796875,8.544921875,-1.28173828125,-4.94384765625,-0.4998779296875,51.4434814453125,-76.11328125
1758878003.5252569,-0.77734375,-0.0146484375,0.61181640625,14.46533203125,-1.5869140625,-5.9814453125,-0.450439453125,51.4434814453125,-76.201171875
1758878003.5353534,-0.77734375,-0.0146484375,0.61181640625,14.46533203125,-1.5869140625,-5.9814453125,-0.3790283203125,51.4434814453125,-76.2945556640625
1758878003.545782,-0.76904296875,-0.0205078125,0.63134765625,21.240234375,-2.86865234375,-6.53076171875,-0.2801513671875,51.4324951171875,-76.3934326171875
1758878003.5553672,-0.76904296875,-0.0205078125,0.63134765625,21.240234375,-2.86865234375,-6.53076171875,-0.15380859375,51.416015625,-76.497802734375
1758878003.5653293,-0.759765625,-0.01171875,0.64111328125,26.06201171875,-4.21142578125,-6.591796875,0.0,51.39404296875,-76.6021728515625
1758878003.5754104,-0.759765625,-0.01171875,0.64111328125,26.06201171875,-4.21142578125,-6.591796875,0.164794921875,51.361083984375,-76.70654296875
1758878003.5853312,-0.75927734375,-0.00634765625,0.65234375,26.18408203125,-5.37109375,-6.103515625,0.340576171875,51.317138671875,-76.8109130859375
1758878003.5954251,-0.75927734375,-0.00634765625,0.65234375,26.18408203125,-5.37109375,-6.103515625,0.5218505859375,51.273193359375,-76.915283203125
1758878003.6054385,-0.7607421875,0.00830078125,0.66943359375,20.751953125,-6.103515625,-5.0048828125,0.6756591796875,51.21826171875,-77.0086669921875
1758878003.6157224,-0.7607421875,0.00830078125,0.66943359375,20.751953125,-6.103515625,-5.0048828125,0.81298828125,51.163330078125,-77.091064453125
1758878003.6254442,-0.75439453125,0.01953125,0.67626953125,12.75634765625,-6.2255859375,-3.7841796875,0.9173583984375,51.1029052734375,-77.1624755859375
1758878003.635461,-0.75439453125,0.01953125,0.67626953125,12.75634765625,-6.2255859375,-3.7841796875,0.98876953125,51.0369873046875,-77.2283935546875
1758878003.6458237,-0.7451171875,0.02587890625,0.6845703125,4.21142578125,-6.28662109375,-2.86865234375,1.0272216796875,50.9765625,-77.2833251953125
1758878003.6554525,-0.7451171875,0.02587890625,0.6845703125,4.21142578125,-6.28662109375,-2.86865234375,1.0272216796875,50.91064453125,-77.3272705078125
1758878003.6656969,-0.73583984375,0.03076171875,0.68701171875,-2.197265625,-6.28662109375,-2.44140625,0.999755859375,50.8447265625,-77.3712158203125
1758878003.6758802,-0.73583984375,0.03076171875,0.68701171875,-2.197265625,-6.28662109375,-2.44140625,0.94482421875,50.7733154296875,-77.4041748046875
1758878003.685654,-0.724609375,0.02685546875,0.69482421875,-4.39453125,-6.28662109375,-2.50244140625,0.8843994140625,50.701904296875,-77.442626953125
1758878003.6955876,-0.724609375,0.02685546875,0.69482421875,-4.39453125,-6.28662109375,-2.50244140625,0.8074951171875,50.6304931640625,-77.4755859375
1758878003.7058196,-0.71533203125,0.013671875,0.7041015625,-4.69970703125,-6.04248046875,-2.62451171875,0.7305908203125,50.55908203125,-77.5140380859375
1758878003.7156112,-0.71533203125,0.013671875,0.7041015625,-4.69970703125,-6.04248046875,-2.62451171875,0.6536865234375,50.4876708984375,-77.5469970703125
1758878003.7255738,-0.69775390625,0.00341796875,0.720703125,-4.69970703125,-5.92041015625,-2.8076171875,0.5767822265625,50.416259765625,-77.5799560546875
1758878003.7357867,-0.69775390625,0.00341796875,0.720703125,-4.69970703125,-5.92041015625,-2.8076171875,0.4998779296875,50.33935546875,-77.618408203125
1758878003.7456486,-0.68359375,0.00732421875,0.72705078125,-5.92041015625,-5.43212890625,-2.86865234375,0.41748046875,50.2679443359375,-77.6513671875
1758878003.7557514,-0.68359375,0.00732421875,0.72705078125,-5.92041015625,-5.43212890625,-2.86865234375,0.3240966796875,50.1910400390625,-77.684326171875
1758878003.7657242,-0.68115234375,0.009765625,0.69970703125,-5.55419921875,-4.57763671875,-2.9296875,0.2362060546875,50.11962890625,-77.7227783203125
1758878003.7759225,-0.68115234375,0.009765625,0.69970703125,-5.55419921875,-4.57763671875,-2.9296875,0.15380859375,50.0537109375,-77.7557373046875
1758878003.7857082,-0.646484375,0.0,0.70166015625,-4.8828125,-4.33349609375,-3.11279296875,0.06591796875,49.98779296875,-77.7886962890625
1758878003.795757,-0.646484375,0.0,0.70166015625,-4.8828125,-4.33349609375,-3.11279296875,-0.0054931640625,49.921875,-77.8271484375
1758878003.8067381,-0.64453125,-0.00146484375,0.70849609375,-5.9814453125,-3.7841796875,-2.99072265625,-0.0933837890625,49.8504638671875,-77.860107421875
1758878003.815756,-0.64453125,-0.00146484375,0.70849609375,-5.9814453125,-3.7841796875,-2.99072265625,-0.1812744140625,49.7845458984375,-77.89306640625
1758878003.8260105,-0.6689453125,-0.009765625,0.7041015625,-1.77001953125,-3.47900390625,-3.23486328125,-0.252685546875,49.72412109375,-77.926025390625
1758878003.836242,-0.6689453125,-0.009765625,0.7041015625,-1.77001953125,-3.47900390625,-3.23486328125,-0.3021240234375,49.658203125,-77.9644775390625
1758878003.8463883,-0.70849609375,-0.0595703125,0.6962890625,13.61083984375,-3.35693359375,-4.0283203125,-0.2801513671875,49.59228515625,-78.0084228515625
1758878003.8558033,-0.70849609375,-0.0595703125,0.6962890625,13.61083984375,-3.35693359375,-4.0283203125,-0.1922607421875,49.5318603515625,-78.0633544921875
1758878003.8661947,-0.720703125,-0.09814453125,0.70751953125,35.94970703125,-4.0283203125,-5.2490234375,-0.0054931640625,49.4659423828125,-78.134765625
1758878003.8764374,-0.720703125,-0.09814453125,0.70751953125,35.94970703125,-4.0283203125,-5.2490234375,0.2801513671875,49.4000244140625,-78.2171630859375
1758878003.8865433,-0.73876953125,-0.0595703125,0.666015625,51.513671875,-4.08935546875,-5.79833984375,0.6317138671875,49.3341064453125,-78.3160400390625
1758878003.8958673,-0.73876953125,-0.0595703125,0.666015625,51.513671875,-4.08935546875,-5.79833984375,1.0601806640625,49.273681640625,-78.42041015625
1758878003.9067097,-0.7880859375,0.03857421875,0.7119140625,42.724609375,-5.31005859375,-6.04248046875,1.4337158203125,49.2022705078125,-78.5357666015625
1758878003.9158688,-0.7880859375,0.03857421875,0.7119140625,42.724609375,-5.31005859375,-6.04248046875,1.768798828125,49.130859375,-78.6456298828125
1758878003.926378,-0.85791015625,0.13134765625,0.7568359375,12.0849609375,-6.34765625,-5.31005859375,1.95556640625,49.0594482421875,-78.7445068359375
1758878003.9361036,-0.85791015625,0.13134765625,0.7568359375,12.0849609375,-6.34765625,-5.31005859375,1.99951171875,48.9825439453125,-78.8323974609375
1758878003.9470546,-0.8486328125,0.1240234375,0.54833984375,-4.69970703125,-6.40869140625,-3.5400390625,1.9775390625,48.9056396484375,-78.90380859375
1758878003.955973,-0.8486328125,0.1240234375,0.54833984375,-4.69970703125,-6.40869140625,-3.5400390625,1.8841552734375,48.8397216796875,-78.9532470703125
1758878003.966558,-0.8193359375,-0.0068359375,0.63037109375,-8.72802734375,-8.48388671875,-1.953125,1.790771484375,48.7628173828125,-78.9862060546875
1758878003.9765654,-0.8193359375,-0.0068359375,0.63037109375,-8.72802734375,-8.48388671875,-1.953125,1.680908203125,48.680419921875,-79.0081787109375
1758878003.9886434,-0.82861328125,-0.03125,0.63037109375,-12.39013671875,-7.75146484375,-1.220703125,1.5435791015625,48.6090087890625,-79.024658203125
1758878003.9960294,-0.82861328125,-0.03125,0.63037109375,-12.39013671875,-7.75146484375,-1.220703125,1.4007568359375,48.53759765625,-79.046630859375
1758878004.0061889,-0.7529296875,-0.01416015625,0.529296875,2.0751953125,-7.6904296875,-0.54931640625,1.4117431640625,48.4716796875,-79.0576171875
1758878004.0163202,-0.7529296875,-0.01416015625,0.529296875,2.0751953125,-7.6904296875,-0.54931640625,1.4227294921875,48.40576171875,-79.0740966796875
1758878004.0262566,-0.77685546875,-0.0283203125,0.56201171875,16.05224609375,-6.591796875,-0.18310546875,1.571044921875,48.3563232421875,-79.0850830078125
1758878004.0362897,-0.77685546875,-0.0283203125,0.56201171875,16.05224609375,-6.591796875,-0.18310546875,1.7193603515625,48.306884765625,-79.0960693359375
1758878004.0461252,-0.76611328125,-0.02099609375,0.60791015625,21.30126953125,-6.2255859375,0.0,1.922607421875,48.262939453125,-79.112548828125
1758878004.0561438,-0.76611328125,-0.02099609375,0.60791015625,21.30126953125,-6.2255859375,0.0,2.120361328125,48.218994140625,-79.1290283203125
1758878004.0661252,-0.77099609375,0.017578125,0.6357421875,20.6298828125,-6.04248046875,0.06103515625,2.3126220703125,48.175048828125,-79.1400146484375
1758878004.0762744,-0.77099609375,0.017578125,0.6357421875,20.6298828125,-6.04248046875,0.06103515625,2.5048828125,48.131103515625,-79.156494140625
1758878004.0867817,-0.77001953125,0.044921875,0.6328125,18.00537109375,-5.7373046875,0.6103515625,2.6751708984375,48.0926513671875,-79.1619873046875
1758878004.0962102,-0.77001953125,0.044921875,0.6328125,18.00537109375,-5.7373046875,0.6103515625,2.845458984375,48.05419921875,-79.16748046875
1758878004.1063943,-0.78662109375,0.05615234375,0.63720703125,15.19775390625,-5.126953125,1.0986328125,2.999267578125,48.021240234375,-79.16748046875
1758878004.1162734,-0.78662109375,0.05615234375,0.63720703125,15.19775390625,-5.126953125,1.0986328125,3.153076171875,47.98828125,-79.1619873046875
1758878004.126278,-0.810546875,0.06201171875,0.65234375,5.55419921875,-4.45556640625,1.89208984375,3.218994140625,47.9608154296875,-79.1400146484375
1758878004.1366055,-0.810546875,0.06201171875,0.65234375,5.55419921875,-4.45556640625,1.89208984375,3.284912109375,47.933349609375,-79.12353515625
1758878004.146753,-0.80517578125,0.05224609375,0.61181640625,1.708984375,-3.84521484375,2.44140625,3.3233642578125,47.911376953125,-79.090576171875
1758878004.1562624,-0.80517578125,0.05224609375,0.61181640625,1.708984375,-3.84521484375,2.44140625,3.36181640625,47.8948974609375,-79.0631103515625
1758878004.1663067,-0.79638671875,0.02392578125,0.59619140625,4.150390625,-3.173828125,2.9296875,3.427734375,47.8839111328125,-79.024658203125
1758878004.1768477,-0.79638671875,0.02392578125,0.59619140625,4.150390625,-3.173828125,2.9296875,3.4991455078125,47.8729248046875,-78.99169921875
1758878004.186739,-0.79833984375,0.013671875,0.6123046875,4.0283203125,-2.74658203125,3.35693359375,3.570556640625,47.867431640625,-78.94775390625
1758878004.1964064,-0.79833984375,0.013671875,0.6123046875,4.0283203125,-2.74658203125,3.35693359375,3.636474609375,47.8619384765625,-78.9093017578125
1758878004.2068076,-0.77392578125,0.0390625,0.62158203125,2.8076171875,-2.25830078125,4.08935546875,3.702392578125,47.8564453125,-78.85986328125
1758878004.2163785,-0.77392578125,0.0390625,0.62158203125,2.8076171875,-2.25830078125,4.08935546875,3.768310546875,47.8564453125,-78.8104248046875
1758878004.2264166,-0.75,0.029296875,0.64697265625,-0.1220703125,-1.953125,4.82177734375,3.812255859375,47.8564453125,-78.75
1758878004.236887,-0.75,0.029296875,0.64697265625,-0.1220703125,-1.953125,4.82177734375,3.856201171875,47.8509521484375,-78.6895751953125
1758878004.2468832,-0.7646484375,0.05224609375,0.65869140625,-2.0751953125,-1.40380859375,6.103515625,3.8946533203125,47.8564453125,-78.607177734375
1758878004.2564898,-0.7646484375,0.05224609375,0.65869140625,-2.0751953125,-1.40380859375,6.103515625,3.9385986328125,47.8564453125,-78.5302734375
1758878004.266454,-0.74169921875,0.05078125,0.67578125,-1.89208984375,-0.91552734375,6.89697265625,3.988037109375,47.8564453125,-78.4368896484375
1758878004.2776916,-0.74169921875,0.05078125,0.67578125,-1.89208984375,-0.91552734375,6.89697265625,4.04296875,47.8564453125,-78.343505859375
1758878004.2869978,-0.7392578125,0.04931640625,0.67578125,-5.615234375,0.0,7.4462890625,4.06494140625,47.867431640625,-78.2391357421875
1758878004.2966871,-0.7392578125,0.04931640625,0.67578125,-5.615234375,0.0,7.4462890625,4.0869140625,47.8729248046875,-78.134765625
1758878004.306761,-0.72265625,0.05419921875,0.6875,-7.2021484375,1.28173828125,7.99560546875,4.097900390625,47.889404296875,-78.02490234375
1758878004.3172152,-0.72265625,0.05419921875,0.6875,-7.2021484375,1.28173828125,7.99560546875,4.1143798828125,47.9058837890625,-77.9095458984375
1758878004.326525,-0.7177734375,0.0546875,0.712890625,-8.9111328125,2.5634765625,8.48388671875,4.119873046875,47.9278564453125,-77.7886962890625
1758878004.3376758,-0.7177734375,0.0546875,0.712890625,-8.9111328125,2.5634765625,8.48388671875,4.1253662109375,47.9498291015625,-77.6678466796875
1758878004.3469646,-0.6943359375,0.05908203125,0.740234375,-10.80322265625,3.5400390625,8.6669921875,4.1143798828125,47.9827880859375,-77.5360107421875
1758878004.3568065,-0.6943359375,0.05908203125,0.740234375,-10.80322265625,3.5400390625,8.6669921875,4.1033935546875,48.0047607421875,-77.40966796875
1758878004.3666775,-0.677734375,0.0771484375,0.76708984375,-15.869140625,4.0283203125,8.9111328125,4.04296875,48.0322265625,-77.27783203125
1758878004.3775146,-0.677734375,0.0771484375,0.76708984375,-15.869140625,4.0283203125,8.9111328125,3.988037109375,48.0596923828125,-77.1405029296875
1758878004.3871276,-0.669921875,0.03955078125,0.77001953125,-15.19775390625,4.21142578125,9.21630859375,3.944091796875,48.0816650390625,-76.9976806640625
1758878004.3972692,-0.669921875,0.03955078125,0.77001953125,-15.19775390625,4.21142578125,9.21630859375,3.900146484375,48.09814453125,-76.8603515625
1758878004.4071114,-0.65234375,0.041015625,0.7587890625,-15.44189453125,3.662109375,9.27734375,3.8507080078125,48.109130859375,-76.717529296875
1758878004.417245,-0.65234375,0.041015625,0.7587890625,-15.44189453125,3.662109375,9.27734375,3.8067626953125,48.1201171875,-76.5802001953125
1758878004.4267008,-0.666015625,0.06103515625,0.75732421875,-15.9912109375,2.9296875,8.9111328125,3.746337890625,48.1201171875,-76.44287109375
1758878004.4377754,-0.666015625,0.06103515625,0.75732421875,-15.9912109375,2.9296875,8.9111328125,3.69140625,48.1146240234375,-76.3055419921875
1758878004.4471507,-0.703125,0.076171875,0.75830078125,-16.11328125,2.3193359375,7.99560546875,3.6199951171875,48.109130859375,-76.1846923828125
1758878004.4567266,-0.703125,0.076171875,0.75830078125,-16.11328125,2.3193359375,7.99560546875,3.5595703125,48.09814453125,-76.058349609375
1758878004.4669175,-0.7060546875,0.0673828125,0.7158203125,-14.404296875,2.74658203125,6.28662109375,3.4881591796875,48.09814453125,-75.9539794921875
1758878004.4768298,-0.7060546875,0.0673828125,0.7158203125,-14.404296875,2.74658203125,6.28662109375,3.427734375,48.0926513671875,-75.8551025390625
1758878004.486827,-0.69189453125,0.0419921875,0.68115234375,-10.19287109375,2.25830078125,4.57763671875,3.3837890625,48.087158203125,-75.7781982421875
1758878004.49698,-0.69189453125,0.0419921875,0.68115234375,-10.19287109375,2.25830078125,4.57763671875,3.33984375,48.0816650390625,-75.7012939453125
1758878004.5069933,-0.7314453125,0.021484375,0.68798828125,-2.0751953125,0.9765625,2.99072265625,3.3563232421875,48.0706787109375,-75.65185546875
1758878004.5168073,-0.7314453125,0.021484375,0.68798828125,-2.0751953125,0.9765625,2.99072265625,3.372802734375,48.05419921875,-75.6024169921875
1758878004.526961,-0.7607421875,0.029296875,0.68701171875,5.92041015625,-0.54931640625,1.28173828125,3.44970703125,48.0322265625,-75.5804443359375
1758878004.5372717,-0.7607421875,0.029296875,0.68701171875,5.92041015625,-0.54931640625,1.28173828125,3.526611328125,48.0047607421875,-75.56396484375
1758878004.5469103,-0.7275390625,0.0537109375,0.6572265625,11.90185546875,-1.40380859375,-0.244140625,3.6419677734375,47.977294921875,-75.5694580078125
1758878004.5569663,-0.7275390625,0.0537109375,0.6572265625,11.90185546875,-1.40380859375,-0.244140625,3.75732421875,47.9498291015625,-75.574951171875
1758878004.5670686,-0.7060546875,0.0615234375,0.6357421875,14.46533203125,-1.40380859375,-1.953125,3.878173828125,47.92236328125,-75.6024169921875
1758878004.577215,-0.7060546875,0.0615234375,0.6357421875,14.46533203125,-1.40380859375,-1.953125,3.9990234375,47.900390625,-75.6353759765625
1758878004.5869863,-0.6884765625,0.0673828125,0.64892578125,15.31982421875,-1.15966796875,-3.5400390625,4.1143798828125,47.87841796875,-75.6903076171875
1758878004.5972435,-0.6884765625,0.0673828125,0.64892578125,15.31982421875,-1.15966796875,-3.5400390625,4.229736328125,47.8619384765625,-75.73974609375
1758878004.6071668,-0.68701171875,0.06640625,0.677734375,13.00048828125,-1.3427734375,-4.45556640625,4.3121337890625,47.8399658203125,-75.8056640625
1758878004.6170218,-0.68701171875,0.06640625,0.677734375,13.00048828125,-1.3427734375,-4.45556640625,4.39453125,47.8179931640625,-75.87158203125
1758878004.627359,-0.70947265625,0.06787109375,0.69384765625,9.033203125,-2.38037109375,-4.94384765625,4.427490234375,47.7850341796875,-75.9429931640625
1758878004.6374948,-0.70947265625,0.06787109375,0.69384765625,9.033203125,-2.38037109375,-4.94384765625,4.4659423828125,47.757568359375,-76.014404296875
1758878004.647081,-0.7509765625,0.095703125,0.68994140625,-2.62451171875,-3.60107421875,-4.2724609375,4.39453125,47.713623046875,-76.080322265625
1758878004.6571035,-0.7509765625,0.095703125,0.68994140625,-2.62451171875,-3.60107421875,-4.2724609375,4.3231201171875,47.669677734375,-76.1407470703125
1758878004.6672745,-0.77001953125,0.11181640625,0.669921875,-23.37646484375,-4.33349609375,-2.50244140625,4.06494140625,47.6202392578125,-76.168212890625
1758878004.6771138,-0.77001953125,0.11181640625,0.669921875,-23.37646484375,-4.33349609375,-2.50244140625,3.8177490234375,47.5762939453125,-76.1956787109375
