timestamp,acc_x,acc_y,acc_z,gyro_x,gyro_y,gyro_z,angle_x,angle_y,angle_z
1758183056.8863676,-0.52587890625,0.03271484375,0.84619140625,2.38037109375,-0.18310546875,-0.79345703125,2.8125,33.013916015625,-133.626708984375
1758183056.8971522,-0.52587890625,0.03271484375,0.84619140625,2.38037109375,-0.18310546875,-0.79345703125,2.83447265625,33.0029296875,-133.6376953125
1758183056.913552,-0.53564453125,0.0390625,0.83447265625,1.46484375,-0.244140625,-0.48828125,2.845458984375,32.9974365234375,-133.648681640625
1758183056.9278057,-0.53564453125,0.0390625,0.83447265625,1.46484375,-0.244140625,-0.48828125,2.8509521484375,32.9864501953125,-133.6541748046875
1758183056.9371648,-0.5458984375,0.04296875,0.84326171875,-2.86865234375,-0.18310546875,-0.1220703125,2.823486328125,32.98095703125,-133.65966796875
1758183056.9462292,-0.5458984375,0.04296875,0.84326171875,-2.86865234375,-0.18310546875,-0.1220703125,2.79052734375,32.9754638671875,-133.65966796875
1758183056.9553115,-0.53857421875,0.04052734375,0.83740234375,-2.13623046875,0.244140625,-0.1220703125,2.7685546875,32.9754638671875,-133.6651611328125
1758183056.9642158,-0.53857421875,0.04052734375,0.83740234375,-2.13623046875,0.244140625,-0.1220703125,2.74658203125,32.969970703125,-133.670654296875
1758183056.972774,-0.5322265625,0.033203125,0.83984375,-0.1220703125,0.06103515625,-0.06103515625,2.74658203125,32.969970703125,-133.670654296875
1758183056.9792852,-0.5322265625,0.033203125,0.83984375,-0.1220703125,0.06103515625,-0.06103515625,2.74658203125,32.9644775390625,-133.6761474609375
1758183056.9854739,-0.5498046875,0.03271484375,0.84326171875,-0.67138671875,0.18310546875,0.0,2.735595703125,32.9644775390625,-133.6761474609375
1758183056.9928033,-0.5498046875,0.03271484375,0.84326171875,-0.67138671875,0.18310546875,0.0,2.7301025390625,32.9644775390625,-133.6761474609375
1758183057.0028718,-0.54638671875,0.04248046875,0.826171875,-1.3427734375,0.18310546875,0.06103515625,2.713623046875,32.958984375,-133.6761474609375
1758183057.012843,-0.54638671875,0.04248046875,0.826171875,-1.3427734375,0.18310546875,0.06103515625,2.70263671875,32.958984375,-133.6761474609375
1758183057.0230923,-0.55517578125,0.0419921875,0.83251953125,-2.25830078125,0.18310546875,0.18310546875,2.6806640625,32.958984375,-133.6761474609375
1758183057.032864,-0.55517578125,0.0419921875,0.83251953125,-2.25830078125,0.18310546875,0.18310546875,2.65869140625,32.9644775390625,-133.670654296875
1758183057.0429053,-0.5654296875,0.03857421875,0.837890625,-1.5869140625,0.3662109375,0.244140625,2.647705078125,32.9644775390625,-133.6651611328125
1758183057.0530071,-0.5654296875,0.03857421875,0.837890625,-1.5869140625,0.3662109375,0.244140625,2.6312255859375,32.969970703125,-133.6651611328125
1758183057.0635214,-0.5654296875,0.0283203125,0.81640625,-0.18310546875,0.42724609375,0.3662109375,2.6312255859375,32.9754638671875,-133.65966796875
1758183057.073006,-0.5654296875,0.0283203125,0.81640625,-0.18310546875,0.42724609375,0.3662109375,2.6312255859375,32.98095703125,-133.6541748046875
1758183057.0829704,-0.5703125,0.02392578125,0.8125,1.15966796875,0.18310546875,0.244140625,2.6422119140625,32.9864501953125,-133.648681640625
1758183057.0929801,-0.5703125,0.02392578125,0.8125,1.15966796875,0.18310546875,0.244140625,2.6531982421875,32.991943359375,-133.6431884765625
1758183057.1029687,-0.57177734375,0.0302734375,0.83154296875,1.28173828125,0.30517578125,0.1220703125,2.669677734375,32.9974365234375,-133.6376953125
1758183057.1129742,-0.57177734375,0.0302734375,0.83154296875,1.28173828125,0.30517578125,0.1220703125,2.6806640625,33.0084228515625,-133.6376953125
1758183057.1229854,-0.56884765625,0.0458984375,0.82568359375,1.40380859375,0.54931640625,0.0,2.691650390625,33.0194091796875,-133.6322021484375
1758183057.1329806,-0.56884765625,0.0458984375,0.82568359375,1.40380859375,0.54931640625,0.0,2.70263671875,33.0303955078125,-133.6322021484375
1758183057.142976,-0.57763671875,0.0478515625,0.8193359375,1.89208984375,0.48828125,0.0,2.724609375,33.0413818359375,-133.626708984375
1758183057.1529825,-0.57763671875,0.0478515625,0.8193359375,1.89208984375,0.48828125,0.0,2.7410888671875,33.0523681640625,-133.6212158203125
1758183057.1630197,-0.56982421875,0.03662109375,0.82470703125,2.0751953125,0.42724609375,0.18310546875,2.7630615234375,33.0633544921875,-133.6102294921875
1758183057.1730719,-0.56982421875,0.03662109375,0.82470703125,2.0751953125,0.42724609375,0.18310546875,2.7850341796875,33.0743408203125,-133.604736328125
1758183057.1830206,-0.56982421875,0.03125,0.8203125,3.5400390625,0.30517578125,0.0,2.8179931640625,33.0853271484375,-133.5992431640625
1758183057.1930258,-0.56982421875,0.03125,0.8203125,3.5400390625,0.30517578125,0.0,2.8509521484375,33.0963134765625,-133.59375
1758183057.2030292,-0.56005859375,0.03466796875,0.81982421875,3.96728515625,0.0,0.0,2.889404296875,33.101806640625,-133.59375
1758183057.2130754,-0.56005859375,0.03466796875,0.81982421875,3.96728515625,0.0,0.0,2.9278564453125,33.1072998046875,-133.5882568359375
1758183057.223084,-0.560546875,0.0439453125,0.82861328125,2.25830078125,0.0,0.0,2.9443359375,33.1182861328125,-133.5882568359375
1758183057.2331147,-0.560546875,0.0439453125,0.82861328125,2.25830078125,0.0,0.0,2.96630859375,33.123779296875,-133.582763671875
1758183057.2431607,-0.5615234375,0.0458984375,0.83349609375,2.9296875,0.18310546875,-0.06103515625,2.9937744140625,33.1292724609375,-133.5772705078125
1758183057.2531884,-0.5615234375,0.0458984375,0.83349609375,2.9296875,0.18310546875,-0.06103515625,3.021240234375,33.1402587890625,-133.5772705078125
1758183057.2631872,-0.55224609375,0.0439453125,0.83251953125,5.615234375,0.42724609375,-0.3662109375,3.0706787109375,33.1512451171875,-133.5772705078125
1758183057.2732449,-0.55224609375,0.0439453125,0.83251953125,5.615234375,0.42724609375,-0.3662109375,3.1256103515625,33.1622314453125,-133.5772705078125
1758183057.2832208,-0.55224609375,0.0439453125,0.83251953125,2.3193359375,0.3662109375,-0.06103515625,3.1475830078125,33.167724609375,-133.57177734375
1758183057.293254,-0.552734375,0.044921875,0.828125,2.3193359375,0.3662109375,-0.06103515625,3.1640625,33.1787109375,-133.57177734375
1758183057.3034856,-0.552734375,0.052734375,0.8349609375,-0.30517578125,0.3662109375,-0.1220703125,3.1585693359375,33.189697265625,-133.57177734375
1758183057.3134277,-0.552734375,0.052734375,0.8349609375,-0.30517578125,0.3662109375,-0.1220703125,3.1585693359375,33.1951904296875,-133.5662841796875
1758183057.3232667,-0.55126953125,0.05029296875,0.83935546875,1.46484375,0.48828125,-0.244140625,3.1695556640625,33.2061767578125,-133.5662841796875
1758183057.333284,-0.55126953125,0.05029296875,0.83935546875,1.46484375,0.48828125,-0.244140625,3.1805419921875,33.211669921875,-133.5662841796875
1758183057.343304,-0.548828125,0.04150390625,0.8291015625,2.13623046875,0.54931640625,-0.244140625,3.2025146484375,33.22265625,-133.5662841796875
1758183057.3533094,-0.548828125,0.04150390625,0.8291015625,2.13623046875,0.54931640625,-0.244140625,3.218994140625,33.2281494140625,-133.5662841796875
1758183057.3633425,-0.552734375,0.04443359375,0.83154296875,0.9765625,0.3662109375,-0.1220703125,3.2244873046875,33.2391357421875,-133.560791015625
1758183057.3733938,-0.552734375,0.04443359375,0.83154296875,0.9765625,0.3662109375,-0.1220703125,3.2354736328125,33.24462890625,-133.560791015625
1758183057.3833618,-0.54296875,0.04833984375,0.83447265625,1.3427734375,0.42724609375,-0.1220703125,3.2464599609375,33.2501220703125,-133.560791015625
1758183057.3934977,-0.54296875,0.04833984375,0.83447265625,1.3427734375,0.42724609375,-0.1220703125,3.2574462890625,33.255615234375,-133.560791015625
1758183057.4034007,-0.544921875,0.04345703125,0.83984375,0.0,0.30517578125,0.06103515625,3.2574462890625,33.2611083984375,-133.560791015625
1758183057.4138536,-0.544921875,0.04345703125,0.83984375,0.0,0.30517578125,0.06103515625,3.2574462890625,33.2666015625,-133.5552978515625
1758183057.423509,-0.55322265625,0.04833984375,0.83935546875,-1.03759765625,0.30517578125,0.0,3.2464599609375,33.2720947265625,-133.5552978515625
1758183057.4338655,-0.55322265625,0.04833984375,0.83935546875,-1.03759765625,0.30517578125,0.0,3.2354736328125,33.2720947265625,-133.5552978515625
1758183057.4436576,-0.54736328125,0.0517578125,0.8271484375,0.3662109375,0.3662109375,-0.1220703125,3.2354736328125,33.277587890625,-133.5552978515625
1758183057.4539523,-0.54736328125,0.0517578125,0.8271484375,0.3662109375,0.3662109375,-0.1220703125,3.240966796875,33.2830810546875,-133.5552978515625
1758183057.4636068,-0.5380859375,0.041015625,0.833984375,1.953125,0.30517578125,-0.18310546875,3.2574462890625,33.28857421875,-133.5552978515625
1758183057.474293,-0.5380859375,0.041015625,0.833984375,1.953125,0.30517578125,-0.18310546875,3.27392578125,33.28857421875,-133.5552978515625
1758183057.4841168,-0.53857421875,0.04150390625,0.84716796875,1.52587890625,0.30517578125,-0.06103515625,3.2904052734375,33.2940673828125,-133.5552978515625
1758183057.4941056,-0.53857421875,0.04150390625,0.84716796875,1.52587890625,0.30517578125,-0.06103515625,3.3013916015625,33.2940673828125,-133.560791015625
1758183057.503805,-0.53662109375,0.048828125,0.8427734375,0.8544921875,0.30517578125,-0.18310546875,3.306884765625,33.299560546875,-133.560791015625
1758183057.5145688,-0.53662109375,0.048828125,0.8427734375,0.8544921875,0.30517578125,-0.18310546875,3.3123779296875,33.299560546875,-133.560791015625
1758183057.524257,-0.5361328125,0.052734375,0.84326171875,-0.67138671875,0.18310546875,-0.06103515625,3.306884765625,33.299560546875,-133.5662841796875
1758183057.533973,-0.5361328125,0.052734375,0.84326171875,-0.67138671875,0.18310546875,-0.06103515625,3.3013916015625,33.299560546875,-133.5662841796875
1758183057.5439112,-0.53564453125,0.05078125,0.83740234375,-1.03759765625,0.1220703125,-0.06103515625,3.284912109375,33.2940673828125,-133.5662841796875
1758183057.5546088,-0.53564453125,0.05078125,0.83740234375,-1.03759765625,0.1220703125,-0.06103515625,3.27392578125,33.2940673828125,-133.57177734375
1758183057.5642555,-0.5302734375,0.04296875,0.83740234375,0.6103515625,0.0,0.0,3.284912109375,33.2940673828125,-133.57177734375
1758183057.5740583,-0.5302734375,0.04296875,0.83740234375,0.6103515625,0.0,0.0,3.2904052734375,33.28857421875,-133.57177734375
1758183057.5839677,-0.537109375,0.0390625,0.8486328125,0.42724609375,0.0,0.06103515625,3.2904052734375,33.2830810546875,-133.5772705078125
1758183057.5945725,-0.537109375,0.0390625,0.8486328125,0.42724609375,0.0,0.06103515625,3.2958984375,33.2830810546875,-133.5772705078125
1758183057.604302,-0.5400390625,0.0537109375,0.84912109375,0.0,0.1220703125,0.06103515625,3.2958984375,33.277587890625,-133.582763671875
1758183057.6144502,-0.5400390625,0.0537109375,0.84912109375,0.0,0.1220703125,0.06103515625,3.2958984375,33.277587890625,-133.582763671875
1758183057.625963,-0.548828125,0.05126953125,0.82666015625,0.9765625,0.3662109375,0.0,3.3013916015625,33.277587890625,-133.582763671875
1758183057.634235,-0.548828125,0.05126953125,0.82666015625,0.9765625,0.3662109375,0.0,3.3123779296875,33.277587890625,-133.582763671875
1758183057.6439002,-0.546875,0.05029296875,0.828125,0.67138671875,0.3662109375,0.0,3.31787109375,33.277587890625,-133.5882568359375
1758183057.6542075,-0.546875,0.05029296875,0.828125,0.67138671875,0.3662109375,0.0,3.328857421875,33.277587890625,-133.5882568359375
1758183057.6647425,-0.5546875,0.04638671875,0.85009765625,-0.48828125,0.3662109375,0.0,3.3233642578125,33.2830810546875,-133.5882568359375
1758183057.6741958,-0.5546875,0.04638671875,0.85009765625,-0.48828125,0.3662109375,0.0,3.31787109375,33.2830810546875,-133.5882568359375
1758183057.6840107,-0.5439453125,0.0458984375,0.83056640625,-0.6103515625,0.732421875,0.0,3.3123779296875,33.28857421875,-133.5882568359375
1758183057.694594,-0.5439453125,0.0458984375,0.83056640625,-0.6103515625,0.732421875,0.0,3.3013916015625,33.2940673828125,-133.5882568359375
1758183057.7039626,-0.544921875,0.0478515625,0.82470703125,-1.64794921875,0.18310546875,0.06103515625,3.284912109375,33.2940673828125,-133.5882568359375
1758183057.714236,-0.544921875,0.0478515625,0.82470703125,-1.64794921875,0.18310546875,0.06103515625,3.27392578125,33.2940673828125,-133.5882568359375
1758183057.7250378,-0.55517578125,0.04638671875,0.84814453125,-0.79345703125,0.18310546875,0.06103515625,3.262939453125,33.2940673828125,-133.5882568359375
1758183057.734327,-0.55517578125,0.04638671875,0.84814453125,-0.79345703125,0.18310546875,0.06103515625,3.2574462890625,33.2940673828125,-133.5882568359375
1758183057.7440708,-0.548828125,0.04443359375,0.8310546875,0.0,0.244140625,0.06103515625,3.2574462890625,33.2940673828125,-133.5882568359375
1758183057.7543793,-0.548828125,0.04443359375,0.8310546875,0.0,0.244140625,0.06103515625,3.2574462890625,33.2940673828125,-133.59375
1758183057.764869,-0.54931640625,0.04345703125,0.8212890625,-1.46484375,0.1220703125,0.244140625,3.240966796875,33.299560546875,-133.5882568359375
1758183057.7743227,-0.54931640625,0.04345703125,0.8212890625,-1.46484375,0.1220703125,0.0,3.22998046875,33.299560546875,-133.5882568359375
1758183057.7842267,-0.556640625,0.05029296875,0.8349609375,-1.8310546875,0.0,0.0,3.2080078125,33.299560546875,-133.5882568359375
1758183057.7947392,-0.556640625,0.05029296875,0.8349609375,-1.8310546875,0.0,0.0,3.1915283203125,33.299560546875,-133.5882568359375
1758183057.8041697,-0.54931640625,0.046875,0.8291015625,-0.42724609375,0.18310546875,0.0,3.18603515625,33.299560546875,-133.5882568359375
1758183057.8143404,-0.54931640625,0.046875,0.8291015625,-0.42724609375,0.18310546875,0.0,3.18603515625,33.299560546875,-133.5882568359375
1758183057.8246367,-0.5537109375,0.04296875,0.83447265625,-1.46484375,0.244140625,0.0,3.1695556640625,33.3050537109375,-133.582763671875
1758183057.8348017,-0.5537109375,0.04296875,0.83447265625,-1.46484375,0.244140625,0.0,3.153076171875,33.3050537109375,-133.582763671875
1758183057.8441908,-0.5576171875,0.04638671875,0.84375,-1.708984375,0.244140625,0.0,3.1365966796875,33.310546875,-133.582763671875
1758183057.854444,-0.5576171875,0.04638671875,0.84375,-1.708984375,0.244140625,0.0,3.1201171875,33.310546875,-133.582763671875
1758183057.8650196,-0.552734375,0.04248046875,0.83056640625,1.89208984375,0.244140625,0.0,3.14208984375,33.3160400390625,-133.5772705078125
1758183057.8745155,-0.552734375,0.04248046875,0.83056640625,1.89208984375,0.244140625,0.0,3.1585693359375,33.321533203125,-133.5772705078125
1758183057.884296,-0.54833984375,0.037109375,0.822265625,4.638671875,0.0,0.0,3.2080078125,33.321533203125,-133.5772705078125
1758183057.895181,-0.54833984375,0.037109375,0.822265625,4.638671875,0.0,0.0,3.251953125,33.321533203125,-133.5772705078125
1758183057.9044638,-0.55126953125,0.04541015625,0.8359375,3.11279296875,-0.06103515625,-0.30517578125,3.2794189453125,33.321533203125,-133.582763671875
1758183057.9145198,-0.55126953125,0.04541015625,0.8359375,3.11279296875,-0.06103515625,-0.30517578125,3.306884765625,33.321533203125,-133.5882568359375
1758183057.9250522,-0.54638671875,0.05615234375,0.83447265625,-0.54931640625,0.0,-0.18310546875,3.2958984375,33.321533203125,-133.5882568359375
1758183057.934548,-0.546875,0.05322265625,0.8291015625,-2.50244140625,-0.18310546875,-0.30517578125,3.2794189453125,33.321533203125,-133.59375
1758183057.9444053,-0.546875,0.05322265625,0.8291015625,-2.50244140625,-0.18310546875,-0.30517578125,3.251953125,33.321533203125,-133.59375
1758183057.9549356,-0.55224609375,0.046875,0.83154296875,-0.48828125,-0.06103515625,-0.244140625,3.2354736328125,33.321533203125,-133.5992431640625
1758183057.964472,-0.55224609375,0.046875,0.83154296875,-0.48828125,-0.06103515625,-0.244140625,3.22998046875,33.321533203125,-133.5992431640625
1758183057.974516,-0.5537109375,0.04150390625,0.83251953125,1.77001953125,0.0,-0.3662109375,3.2354736328125,33.321533203125,-133.604736328125
1758183057.984829,-0.5537109375,0.04150390625,0.83251953125,1.77001953125,0.0,-0.3662109375,3.251953125,33.321533203125,-133.6102294921875
1758183057.9947684,-0.5546875,0.0419921875,0.8359375,2.3193359375,0.06103515625,-0.3662109375,3.2684326171875,33.321533203125,-133.6102294921875
1758183058.0042598,-0.5546875,0.0419921875,0.8359375,2.3193359375,0.06103515625,-0.3662109375,3.284912109375,33.3270263671875,-133.61572265625
1758183058.0145826,-0.5517578125,0.048828125,0.83154296875,1.220703125,0.0,-0.3662109375,3.3013916015625,33.3270263671875,-133.6212158203125
1758183058.0251784,-0.5517578125,0.048828125,0.83154296875,1.220703125,0.0,-0.3662109375,3.3123779296875,33.3270263671875,-133.626708984375
1758183058.0345557,-0.55224609375,0.05126953125,0.83251953125,2.01416015625,0.0,-0.42724609375,3.3233642578125,33.3270263671875,-133.626708984375
1758183058.0444078,-0.55224609375,0.05126953125,0.83251953125,2.01416015625,0.0,-0.42724609375,3.33984375,33.33251953125,-133.6322021484375
1758183058.0553877,-0.5537109375,0.04833984375,0.826171875,2.99072265625,-0.1220703125,-0.42724609375,3.36181640625,33.33251953125,-133.6431884765625
1758183058.064819,-0.5537109375,0.04833984375,0.826171875,2.99072265625,-0.1220703125,-0.42724609375,3.3892822265625,33.33251953125,-133.648681640625
1758183058.074622,-0.5576171875,0.0458984375,0.833984375,2.50244140625,-0.1220703125,-0.30517578125,3.4112548828125,33.33251953125,-133.648681640625
1758183058.0845962,-0.5576171875,0.0458984375,0.833984375,2.50244140625,-0.1220703125,-0.30517578125,3.4332275390625,33.33251953125,-133.6541748046875
1758183058.0953302,-0.552734375,0.04833984375,0.82958984375,1.64794921875,0.0,-0.18310546875,3.44970703125,33.33251953125,-133.65966796875
1758183058.1044216,-0.552734375,0.04833984375,0.82958984375,1.64794921875,0.0,-0.18310546875,3.4661865234375,33.33251953125,-133.65966796875
1758183058.1146812,-0.55224609375,0.04931640625,0.833984375,1.46484375,0.0,-0.30517578125,3.4771728515625,33.3380126953125,-133.6651611328125
1758183058.1251633,-0.55224609375,0.04931640625,0.833984375,1.46484375,0.0,-0.30517578125,3.4881591796875,33.3380126953125,-133.670654296875
1758183058.1347036,-0.5517578125,0.04638671875,0.8330078125,3.84521484375,0.18310546875,-0.48828125,3.5101318359375,33.3380126953125,-133.6761474609375
1758183058.1445403,-0.5517578125,0.04638671875,0.8330078125,3.84521484375,0.18310546875,-0.48828125,3.5430908203125,33.343505859375,-133.681640625
1758183058.1547403,-0.54833984375,0.05126953125,0.8291015625,5.859375,0.30517578125,-0.42724609375,3.5870361328125,33.3489990234375,-133.6871337890625
1758183058.1658633,-0.54833984375,0.05126953125,0.8291015625,5.859375,0.30517578125,-0.42724609375,3.6419677734375,33.3489990234375,-133.6981201171875
1758183058.1746533,-0.55224609375,0.05517578125,0.83203125,3.662109375,0.48828125,-0.48828125,3.6859130859375,33.3544921875,-133.70361328125
1758183058.1847053,-0.55224609375,0.05517578125,0.83203125,3.662109375,0.48828125,-0.48828125,3.7188720703125,33.365478515625,-133.7091064453125
1758183058.1955607,-0.552734375,0.06005859375,0.8408203125,2.01416015625,0.732421875,-0.6103515625,3.7408447265625,33.3709716796875,-133.7200927734375
1758183058.2060096,-0.552734375,0.06005859375,0.8408203125,2.01416015625,0.732421875,-0.6103515625,3.7518310546875,33.37646484375,-133.7255859375
1758183058.215049,-0.5498046875,0.05908203125,0.8330078125,3.23486328125,0.8544921875,-0.732421875,3.7738037109375,33.387451171875,-133.736572265625
1758183058.2247038,-0.5498046875,0.05908203125,0.8330078125,3.23486328125,0.8544921875,-0.732421875,3.80126953125,33.3984375,-133.7420654296875
1758183058.23543,-0.5498046875,0.05908203125,0.8330078125,3.84521484375,0.79345703125,-0.9765625,3.8287353515625,33.4039306640625,-133.7530517578125
1758183058.2460546,-0.55517578125,0.05615234375,0.8271484375,3.84521484375,0.79345703125,-0.9765625,3.8616943359375,33.4149169921875,-133.76953125
1758183058.2548084,-0.56005859375,0.0556640625,0.83251953125,3.173828125,0.732421875,-0.9765625,3.88916015625,33.4259033203125,-133.780517578125
1758183058.264836,-0.56005859375,0.0556640625,0.83251953125,3.173828125,0.732421875,-0.9765625,3.9166259765625,33.431396484375,-133.79150390625
1758183058.2753952,-0.5634765625,0.056640625,0.8251953125,3.173828125,0.8544921875,-0.9765625,3.9385986328125,33.4423828125,-133.8079833984375
1758183058.284894,-0.5634765625,0.056640625,0.8251953125,3.173828125,0.8544921875,-0.9765625,3.9605712890625,33.453369140625,-133.8189697265625
1758183058.2948136,-0.560546875,0.0576171875,0.81640625,2.86865234375,0.67138671875,-0.8544921875,3.988037109375,33.46435546875,-133.8299560546875
1758183058.3062172,-0.560546875,0.0576171875,0.81640625,2.86865234375,0.67138671875,-0.8544921875,4.010009765625,33.4698486328125,-133.8409423828125
1758183058.3155272,-0.56494140625,0.060546875,0.82861328125,1.15966796875,0.42724609375,-0.79345703125,4.02099609375,33.4808349609375,-133.8519287109375
1758183058.3248556,-0.56494140625,0.060546875,0.82861328125,1.15966796875,0.42724609375,-0.79345703125,4.0264892578125,33.486328125,-133.8629150390625
1758183058.3356,-0.560546875,0.0576171875,0.826171875,0.54931640625,0.42724609375,-0.732421875,4.031982421875,33.4918212890625,-133.868408203125
1758183058.3449888,-0.560546875,0.0576171875,0.826171875,0.54931640625,0.42724609375,-0.732421875,4.031982421875,33.5028076171875,-133.87939453125
1758183058.3549485,-0.55908203125,0.05810546875,0.818359375,1.0986328125,0.30517578125,-0.8544921875,4.031982421875,33.50830078125,-133.8848876953125
1758183058.3660502,-0.55908203125,0.05810546875,0.818359375,1.0986328125,0.30517578125,-0.8544921875,4.0374755859375,33.5137939453125,-133.8958740234375
1758183058.3753822,-0.56982421875,0.06201171875,0.82958984375,0.42724609375,0.3662109375,-0.9765625,4.0374755859375,33.5247802734375,-133.9068603515625
1758183058.384993,-0.56982421875,0.06201171875,0.82958984375,0.42724609375,0.3662109375,-0.9765625,4.0374755859375,33.5302734375,-133.9178466796875
1758183058.3951015,-0.57177734375,0.0615234375,0.82177734375,0.6103515625,0.3662109375,-0.91552734375,4.031982421875,33.5357666015625,-133.92333984375
1758183058.4062116,-0.57177734375,0.0615234375,0.82177734375,0.6103515625,0.3662109375,-0.91552734375,4.031982421875,33.5467529296875,-133.934326171875
1758183058.4149594,-0.5625,0.0537109375,0.81396484375,1.953125,0.42724609375,-0.9765625,4.04296875,33.55224609375,-133.9398193359375
1758183058.4249878,-0.5625,0.0537109375,0.81396484375,1.953125,0.42724609375,-0.9765625,4.053955078125,33.563232421875,-133.9508056640625
1758183058.4354765,-0.55419921875,0.0556640625,0.83056640625,1.8310546875,0.30517578125,-1.0986328125,4.06494140625,33.57421875,-133.956298828125
1758183058.445732,-0.55419921875,0.0556640625,0.83056640625,1.8310546875,0.30517578125,-1.0986328125,4.075927734375,33.5797119140625,-133.96728515625
1758183058.4549959,-0.56005859375,0.0634765625,0.8369140625,0.244140625,0.42724609375,-0.9765625,4.0814208984375,33.585205078125,-133.978271484375
1758183058.4651906,-0.56005859375,0.0634765625,0.8369140625,0.244140625,0.42724609375,-0.9765625,4.075927734375,33.59619140625,-133.9892578125
1758183058.4757268,-0.55810546875,0.06201171875,0.81884765625,0.0,0.48828125,-0.9765625,4.0704345703125,33.6016845703125,-133.9947509765625
1758183058.4851668,-0.55810546875,0.06201171875,0.81884765625,0.0,0.48828125,-0.9765625,4.06494140625,33.6126708984375,-134.0057373046875
1758183058.4952085,-0.56005859375,0.05859375,0.8203125,0.79345703125,0.67138671875,-1.0986328125,4.0594482421875,33.6236572265625,-134.0167236328125
1758183058.5065756,-0.56005859375,0.05859375,0.8203125,0.79345703125,0.67138671875,-1.0986328125,4.0594482421875,33.629150390625,-134.0277099609375
1758183058.5160084,-0.55078125,0.05908203125,0.833984375,1.15966796875,0.732421875,-1.0986328125,4.06494140625,33.64013671875,-134.0386962890625
1758183058.5262034,-0.55078125,0.05908203125,0.833984375,1.15966796875,0.732421875,-1.0986328125,4.0704345703125,33.651123046875,-134.05517578125
1758183058.5352368,-0.544921875,0.0595703125,0.8388671875,-0.18310546875,0.67138671875,-0.9765625,4.0704345703125,33.662109375,-134.066162109375
1758183058.546406,-0.544921875,0.0595703125,0.8388671875,-0.18310546875,0.67138671875,-0.9765625,4.0594482421875,33.673095703125,-134.0771484375
1758183058.5552998,-0.5439453125,0.05908203125,0.83203125,-0.54931640625,0.54931640625,-0.9765625,4.0484619140625,33.6785888671875,-134.088134765625
1758183058.565709,-0.5439453125,0.05908203125,0.83203125,-0.54931640625,0.54931640625,-0.9765625,4.0374755859375,33.68408203125,-134.09912109375
1758183058.575739,-0.546875,0.05615234375,0.8369140625,-0.48828125,0.42724609375,-0.91552734375,4.0264892578125,33.6895751953125,-134.110107421875
1758183058.5857487,-0.546875,0.05615234375,0.8369140625,-0.48828125,0.42724609375,-0.91552734375,4.0155029296875,33.695068359375,-134.12109375
1758183058.5951815,-0.55029296875,0.05810546875,0.83544921875,0.18310546875,0.42724609375,-0.8544921875,4.010009765625,33.695068359375,-134.132080078125
1758183058.6065257,-0.55029296875,0.05810546875,0.83544921875,0.18310546875,0.42724609375,-0.8544921875,4.0045166015625,33.7005615234375,-134.14306640625
1758183058.6154723,-0.54833984375,0.0537109375,0.822265625,0.732421875,0.244140625,-0.732421875,4.0045166015625,33.7060546875,-134.154052734375
1758183058.6252823,-0.54833984375,0.0537109375,0.822265625,0.732421875,0.244140625,-0.732421875,4.010009765625,33.7060546875,-134.1650390625
1758183058.6354194,-0.55224609375,0.05419921875,0.8330078125,1.28173828125,0.18310546875,-0.732421875,4.0155029296875,33.7060546875,-134.176025390625
1758183058.6463556,-0.55224609375,0.05419921875,0.8330078125,1.28173828125,0.18310546875,-0.732421875,4.02099609375,33.7115478515625,-134.1815185546875
1758183058.6552424,-0.5615234375,0.05615234375,0.83984375,1.3427734375,0.48828125,-0.54931640625,4.031982421875,33.7115478515625,-134.1925048828125
1758183058.665785,-0.5615234375,0.05615234375,0.83984375,1.3427734375,0.48828125,-0.54931640625,4.0374755859375,33.717041015625,-134.197998046875
1758183058.6759903,-0.5517578125,0.0595703125,0.818359375,2.0751953125,0.3662109375,-0.42724609375,4.053955078125,33.7225341796875,-134.2034912109375
1758183058.6858194,-0.5517578125,0.0595703125,0.818359375,2.0751953125,0.3662109375,-0.42724609375,4.0704345703125,33.7225341796875,-134.208984375
1758183058.695341,-0.556640625,0.056640625,0.82568359375,1.40380859375,0.244140625,-0.48828125,4.0814208984375,33.72802734375,-134.219970703125
1758183058.7062747,-0.556640625,0.056640625,0.82568359375,1.40380859375,0.244140625,-0.48828125,4.0924072265625,33.72802734375,-134.2254638671875
1758183058.7158303,-0.55419921875,0.05908203125,0.830078125,0.54931640625,0.244140625,-0.30517578125,4.097900390625,33.72802734375,-134.23095703125
1758183058.7257495,-0.55419921875,0.05908203125,0.830078125,0.54931640625,0.244140625,-0.30517578125,4.1033935546875,33.7335205078125,-134.2364501953125
1758183058.7362444,-0.56005859375,0.060546875,0.82275390625,0.0,0.244140625,-0.3662109375,4.1033935546875,33.7335205078125,-134.241943359375
1758183058.7458518,-0.56005859375,0.060546875,0.82275390625,0.0,0.244140625,-0.3662109375,4.097900390625,33.739013671875,-134.2474365234375
1758183058.7554753,-0.56591796875,0.0625,0.82763671875,-0.06103515625,0.30517578125,-0.6103515625,4.0924072265625,33.739013671875,-134.2529296875
1758183058.7665944,-0.56591796875,0.0625,0.82763671875,-0.06103515625,0.30517578125,-0.6103515625,4.0924072265625,33.7445068359375,-134.2584228515625
1758183058.775597,-0.55810546875,0.064453125,0.8212890625,1.708984375,0.244140625,-0.79345703125,4.0924072265625,33.75,-134.263916015625
1758183058.7857423,-0.55810546875,0.064453125,0.8212890625,1.708984375,0.244140625,-0.79345703125,4.1033935546875,33.7554931640625,-134.27490234375
1758183058.7960832,-0.55029296875,0.05859375,0.82421875,1.15966796875,0.0,-0.67138671875,4.1143798828125,33.7554931640625,-134.2803955078125
1758183058.805916,-0.55029296875,0.05859375,0.82421875,1.15966796875,0.0,-0.67138671875,4.1253662109375,33.7554931640625,-134.2913818359375
1758183058.8154728,-0.5595703125,0.0595703125,0.828125,-1.5869140625,0.06103515625,-0.54931640625,4.1143798828125,33.760986328125,-134.296875
1758183058.82586,-0.5595703125,0.0595703125,0.828125,-1.5869140625,0.06103515625,-0.54931640625,4.097900390625,33.760986328125,-134.3023681640625
1758183058.8361275,-0.5703125,0.0576171875,0.8251953125,-1.15966796875,0.18310546875,-0.48828125,4.0814208984375,33.760986328125,-134.307861328125
1758183058.8457992,-0.5703125,0.0576171875,0.8251953125,-1.15966796875,0.18310546875,-0.48828125,4.06494140625,33.7664794921875,-134.31884765625
1758183058.855603,-0.56103515625,0.05712890625,0.8232421875,1.15966796875,0.30517578125,-0.67138671875,4.06494140625,33.77197265625,-134.3243408203125
1758183058.866656,-0.56103515625,0.05712890625,0.8232421875,1.15966796875,0.30517578125,-0.67138671875,4.0704345703125,33.7774658203125,-134.329833984375
1758183058.8756273,-0.548828125,0.0537109375,0.8232421875,1.3427734375,0.18310546875,-0.67138671875,4.075927734375,33.7774658203125,-134.3408203125
1758183058.8858569,-0.548828125,0.0537109375,0.8232421875,1.3427734375,0.18310546875,-0.67138671875,4.0869140625,33.782958984375,-134.351806640625
1758183058.8956866,-0.5556640625,0.0625,0.83642578125,-0.732421875,0.0,-0.42724609375,4.0869140625,33.7884521484375,-134.3572998046875
1758183058.9064288,-0.5556640625,0.0625,0.83642578125,-0.732421875,0.0,-0.42724609375,4.075927734375,33.7884521484375,-134.36279296875
1758183058.9156432,-0.55517578125,0.0634765625,0.8330078125,-1.220703125,0.1220703125,-0.54931640625,4.0594482421875,33.7884521484375,-134.3682861328125
1758183058.925951,-0.55517578125,0.0634765625,0.8330078125,-1.220703125,0.1220703125,-0.54931640625,4.0484619140625,33.7884521484375,-134.3792724609375
1758183058.9362202,-0.556640625,0.0595703125,0.82177734375,-0.6103515625,0.06103515625,-0.48828125,4.031982421875,33.7939453125,-134.384765625
1758183058.945855,-0.556640625,0.0595703125,0.82177734375,-0.6103515625,0.06103515625,-0.48828125,4.0264892578125,33.7939453125,-134.3902587890625
1758183058.955648,-0.55322265625,0.05810546875,0.82958984375,0.18310546875,0.1220703125,-0.54931640625,4.0264892578125,33.7939453125,-134.4012451171875
1758183058.965975,-0.55322265625,0.05810546875,0.82958984375,0.18310546875,0.1220703125,-0.54931640625,4.02099609375,33.7994384765625,-134.40673828125
1758183058.9764516,-0.55029296875,0.05712890625,0.82763671875,-0.06103515625,0.0,-0.48828125,4.02099609375,33.7994384765625,-134.4122314453125
1758183058.9859962,-0.55029296875,0.05712890625,0.82763671875,-0.06103515625,0.0,-0.48828125,4.0155029296875,33.7994384765625,-134.417724609375
1758183058.9957244,-0.55419921875,0.05517578125,0.83251953125,-1.708984375,0.0,-0.244140625,3.9990234375,33.7994384765625,-134.417724609375
1758183059.006507,-0.55419921875,0.05517578125,0.83251953125,-1.708984375,0.0,-0.244140625,3.97705078125,33.7994384765625,-134.4232177734375
1758183059.0158358,-0.56689453125,0.05517578125,0.82861328125,-2.86865234375,0.18310546875,-0.1220703125,3.9495849609375,33.7994384765625,-134.4232177734375
1758183059.025987,-0.56689453125,0.05517578125,0.82861328125,-2.86865234375,0.18310546875,-0.1220703125,3.922119140625,33.7994384765625,-134.4287109375
1758183059.0364273,-0.5576171875,0.0546875,0.82470703125,-1.46484375,0.30517578125,-0.18310546875,3.9056396484375,33.804931640625,-134.4287109375
1758183059.0464694,-0.5576171875,0.0546875,0.82470703125,-1.46484375,0.30517578125,-0.18310546875,3.88916015625,33.8104248046875,-134.4287109375
1758183059.055808,-0.546875,0.0537109375,0.82861328125,0.244140625,0.30517578125,-0.42724609375,3.88916015625,33.8104248046875,-134.4342041015625
1758183059.0661035,-0.546875,0.0537109375,0.82861328125,0.244140625,0.30517578125,-0.42724609375,3.88916015625,33.81591796875,-134.439697265625
1758183059.0766013,-0.55615234375,0.0537109375,0.82958984375,-0.18310546875,0.18310546875,-0.48828125,3.8836669921875,33.81591796875,-134.4451904296875
1758183059.0860565,-0.55615234375,0.0537109375,0.82958984375,-0.18310546875,0.18310546875,-0.48828125,3.878173828125,33.8214111328125,-134.45068359375
1758183059.095903,-0.564453125,0.0615234375,0.82958984375,-0.1220703125,0.18310546875,-0.67138671875,3.8726806640625,33.8214111328125,-134.461669921875
1758183059.1067007,-0.564453125,0.0615234375,0.82958984375,-0.1220703125,0.18310546875,-0.67138671875,3.8671875,33.8214111328125,-134.4671630859375
1758183059.1173258,-0.55615234375,0.056640625,0.818359375,-0.30517578125,0.0,-0.6103515625,3.8616943359375,33.826904296875,-134.4781494140625
1758183059.1260974,-0.55615234375,0.056640625,0.818359375,-0.30517578125,0.0,-0.6103515625,3.856201171875,33.826904296875,-134.483642578125
1758183059.1369114,-0.5546875,0.0556640625,0.82568359375,-0.67138671875,0.0,-0.6103515625,3.84521484375,33.826904296875,-134.4891357421875
1758183059.1461663,-0.5546875,0.0556640625,0.82568359375,-0.67138671875,0.0,-0.6103515625,3.834228515625,33.826904296875,-134.5001220703125
1758183059.1560135,-0.5537109375,0.05224609375,0.83154296875,-1.0986328125,0.1220703125,-0.54931640625,3.8232421875,33.826904296875,-134.505615234375
1758183059.1664078,-0.5537109375,0.05224609375,0.83154296875,-1.0986328125,0.1220703125,-0.54931640625,3.8067626953125,33.8323974609375,-134.5111083984375
1758183059.176535,-0.56103515625,0.052734375,0.841796875,-1.28173828125,0.244140625,-0.67138671875,3.790283203125,33.8323974609375,-134.5166015625
1758183059.186113,-0.56103515625,0.052734375,0.841796875,-1.28173828125,0.244140625,-0.67138671875,3.7738037109375,33.837890625,-134.527587890625
1758183059.198643,-0.5546875,0.0537109375,0.81982421875,0.0,0.3662109375,-0.732421875,3.768310546875,33.837890625,-134.53857421875
1758183059.207689,-0.5546875,0.0537109375,0.81982421875,0.0,0.3662109375,-0.732421875,3.7628173828125,33.8433837890625,-134.5440673828125
1758183059.2159703,-0.5517578125,0.05517578125,0.82568359375,-0.732421875,0.244140625,-0.67138671875,3.7518310546875,33.848876953125,-134.5550537109375
1758183059.226232,-0.5517578125,0.05517578125,0.82568359375,-0.732421875,0.244140625,-0.67138671875,3.7408447265625,33.848876953125,-134.560546875
1758183059.2380903,-0.5517578125,0.05517578125,0.82568359375,-2.44140625,0.30517578125,-0.54931640625,3.71337890625,33.8543701171875,-134.571533203125
1758183059.2462242,-0.5556640625,0.05712890625,0.83154296875,-2.44140625,0.30517578125,-0.54931640625,3.6859130859375,33.8543701171875,-134.5770263671875
1758183059.2561626,-0.5478515625,0.05126953125,0.830078125,-3.0517578125,0.18310546875,-0.48828125,3.6529541015625,33.85986328125,-134.58251953125
1758183059.2666862,-0.5478515625,0.05126953125,0.830078125,-3.0517578125,0.18310546875,-0.48828125,3.6199951171875,33.85986328125,-134.5880126953125
1758183059.276285,-0.546875,0.0478515625,0.83154296875,-3.173828125,0.1220703125,-0.48828125,3.5870361328125,33.85986328125,-134.593505859375
1758183059.2862751,-0.546875,0.0478515625,0.83154296875,-3.173828125,0.1220703125,-0.48828125,3.5540771484375,33.85986328125,-134.5989990234375
1758183059.2970057,-0.54931640625,0.05029296875,0.83447265625,-2.62451171875,-0.06103515625,-0.732421875,3.5211181640625,33.85986328125,-134.6099853515625
1758183059.306266,-0.54931640625,0.05029296875,0.83447265625,-2.62451171875,-0.06103515625,-0.732421875,3.49365234375,33.8543701171875,-134.6209716796875
1758183059.316142,-0.5537109375,0.05078125,0.82666015625,-2.8076171875,-0.06103515625,-0.91552734375,3.460693359375,33.8543701171875,-134.6319580078125
1758183059.3266308,-0.5537109375,0.05078125,0.82666015625,-2.8076171875,-0.06103515625,-0.91552734375,3.427734375,33.8543701171875,-134.6429443359375
1758183059.336891,-0.55029296875,0.052734375,0.82958984375,-2.5634765625,-0.1220703125,-1.0986328125,3.394775390625,33.848876953125,-134.659423828125
1758183059.3463898,-0.55029296875,0.052734375,0.82958984375,-2.5634765625,-0.1220703125,-1.0986328125,3.36181640625,33.848876953125,-134.67041015625
1758183059.35647,-0.556640625,0.04931640625,0.83935546875,-1.77001953125,-0.06103515625,-1.3427734375,3.3343505859375,33.848876953125,-134.6868896484375
1758183059.3670082,-0.556640625,0.04931640625,0.83935546875,-1.77001953125,-0.06103515625,-1.3427734375,3.3123779296875,33.8433837890625,-134.703369140625
1758183059.3763237,-0.55419921875,0.04443359375,0.83349609375,-1.220703125,0.06103515625,-1.5869140625,3.2904052734375,33.8433837890625,-134.725341796875
1758183059.3864365,-0.55419921875,0.04443359375,0.83349609375,-1.220703125,0.06103515625,-1.5869140625,3.2684326171875,33.8433837890625,-134.7418212890625
1758183059.3971407,-0.54248046875,0.04443359375,0.82421875,-0.1220703125,0.0,-1.89208984375,3.2574462890625,33.8433837890625,-134.7637939453125
1758183059.406858,-0.54248046875,0.04443359375,0.82421875,-0.1220703125,0.0,-1.89208984375,3.240966796875,33.8433837890625,-134.7857666015625
1758183059.4166577,-0.54638671875,0.04150390625,0.84228515625,1.28173828125,0.06103515625,-2.13623046875,3.240966796875,33.8433837890625,-134.813232421875
1758183059.4267938,-0.54638671875,0.04150390625,0.84228515625,1.28173828125,0.06103515625,-2.13623046875,3.240966796875,33.8433837890625,-134.8406982421875
1758183059.436934,-0.55126953125,0.044921875,0.841796875,2.3193359375,0.244140625,-2.44140625,3.2464599609375,33.8433837890625,-134.8681640625
1758183059.4465275,-0.55126953125,0.044921875,0.841796875,2.3193359375,0.244140625,-2.44140625,3.2574462890625,33.8433837890625,-134.901123046875
1758183059.4564147,-0.55029296875,0.04833984375,0.82861328125,1.953125,0.18310546875,-2.50244140625,3.2574462890625,33.8433837890625,-134.93408203125
1758183059.4672089,-0.55029296875,0.04833984375,0.82861328125,1.953125,0.18310546875,-2.50244140625,3.262939453125,33.8433837890625,-134.9615478515625
1758183059.4768503,-0.548828125,0.048828125,0.83154296875,1.953125,0.18310546875,-2.50244140625,3.262939453125,33.848876953125,-134.9945068359375
1758183059.4865158,-0.548828125,0.048828125,0.83154296875,1.953125,0.18310546875,-2.50244140625,3.2684326171875,33.848876953125,-135.0274658203125
1758183059.4964747,-0.55322265625,0.04150390625,0.82958984375,2.25830078125,0.0,-2.5634765625,3.27392578125,33.8433837890625,-135.0604248046875
1758183059.5070777,-0.55322265625,0.04150390625,0.82958984375,2.25830078125,0.0,-2.5634765625,3.2794189453125,33.8433837890625,-135.0933837890625
1758183059.5163732,-0.55322265625,0.04150390625,0.82958984375,3.11279296875,0.06103515625,-2.685546875,3.2904052734375,33.8433837890625,-135.1263427734375
1758183059.5269213,-0.5634765625,0.041015625,0.8291015625,3.11279296875,0.06103515625,-2.685546875,3.3013916015625,33.8433837890625,-135.1593017578125
1758183059.5371766,-0.56591796875,0.04150390625,0.8251953125,4.45556640625,0.244140625,-2.74658203125,3.328857421875,33.848876953125,-135.1922607421875
1758183059.5466504,-0.56591796875,0.04150390625,0.8251953125,4.45556640625,0.244140625,-2.74658203125,3.350830078125,33.848876953125,-135.2252197265625
1758183059.5565526,-0.560546875,0.0478515625,0.8212890625,4.69970703125,0.42724609375,-2.8076171875,3.3782958984375,33.8543701171875,-135.263671875
1758183059.567206,-0.560546875,0.0478515625,0.8212890625,4.69970703125,0.42724609375,-2.8076171875,3.40576171875,33.8653564453125,-135.296630859375
1758183059.576809,-0.56005859375,0.04833984375,0.83203125,5.43212890625,0.42724609375,-2.86865234375,3.438720703125,33.870849609375,-135.32958984375
1758183059.5866416,-0.56005859375,0.04833984375,0.83203125,5.43212890625,0.42724609375,-2.86865234375,3.4716796875,33.8763427734375,-135.362548828125
1758183059.596737,-0.56103515625,0.04541015625,0.82861328125,5.37109375,0.244140625,-2.62451171875,3.504638671875,33.8763427734375,-135.3955078125
1758183059.6071799,-0.56103515625,0.04541015625,0.82861328125,5.37109375,0.244140625,-2.62451171875,3.53759765625,33.8818359375,-135.428466796875
1758183059.616513,-0.5654296875,0.0478515625,0.81689453125,4.21142578125,-0.06103515625,-2.44140625,3.5650634765625,33.8818359375,-135.4559326171875
1758183059.6267824,-0.5654296875,0.0478515625,0.81689453125,4.21142578125,-0.06103515625,-2.44140625,3.5870361328125,33.8873291015625,-135.4833984375
1758183059.6373568,-0.564453125,0.0498046875,0.8173828125,3.72314453125,-0.18310546875,-2.3193359375,3.6090087890625,33.8873291015625,-135.516357421875
1758183059.6467528,-0.564453125,0.0498046875,0.8173828125,3.72314453125,-0.18310546875,-2.3193359375,3.62548828125,33.8873291015625,-135.5438232421875
1758183059.6566556,-0.55908203125,0.04443359375,0.826171875,4.150390625,-0.30517578125,-2.25830078125,3.6474609375,33.8873291015625,-135.5712890625
1758183059.6676323,-0.55908203125,0.04443359375,0.826171875,4.150390625,-0.30517578125,-2.25830078125,3.6749267578125,33.8873291015625,-135.5987548828125
1758183059.6769156,-0.55712890625,0.046875,0.83056640625,4.39453125,-0.42724609375,-2.197265625,3.6968994140625,33.8873291015625,-135.626220703125
1758183059.6867726,-0.55712890625,0.046875,0.83056640625,4.39453125,-0.42724609375,-2.197265625,3.724365234375,33.8818359375,-135.6536865234375
1758183059.696779,-0.56494140625,0.05029296875,0.826171875,4.82177734375,-0.54931640625,-2.38037109375,3.7518310546875,33.8818359375,-135.68115234375
1758183059.7072473,-0.56494140625,0.05029296875,0.826171875,4.82177734375,-0.54931640625,-2.38037109375,3.7847900390625,33.8763427734375,-135.7086181640625
1758183059.7166631,-0.5634765625,0.05810546875,0.82275390625,4.8828125,-0.3662109375,-2.44140625,3.812255859375,33.8763427734375,-135.7415771484375
1758183059.7268589,-0.5634765625,0.05810546875,0.82275390625,4.8828125,-0.3662109375,-2.44140625,3.8397216796875,33.8763427734375,-135.76904296875
1758183059.7372272,-0.56103515625,0.0595703125,0.82470703125,4.8828125,-0.244140625,-2.5634765625,3.8726806640625,33.8763427734375,-135.7965087890625
1758183059.7469096,-0.56103515625,0.0595703125,0.82470703125,4.8828125,-0.244140625,-2.5634765625,3.900146484375,33.8763427734375,-135.8294677734375
1758183059.7567062,-0.56298828125,0.0546875,0.82666015625,4.8828125,-0.30517578125,-2.5634765625,3.9276123046875,33.8763427734375,-135.85693359375
1758183059.7668672,-0.56298828125,0.0546875,0.82666015625,4.8828125,-0.30517578125,-2.5634765625,3.9605712890625,33.8818359375,-135.889892578125
1758183059.777907,-0.56103515625,0.05419921875,0.830078125,4.45556640625,-0.18310546875,-2.685546875,3.9825439453125,33.8818359375,-135.9228515625
1758183059.7868545,-0.56103515625,0.05419921875,0.830078125,4.45556640625,-0.18310546875,-2.685546875,4.010009765625,33.8818359375,-135.955810546875
1758183059.7968657,-0.556640625,0.06005859375,0.82958984375,4.57763671875,0.0,-2.9296875,4.031982421875,33.8873291015625,-135.98876953125
1758183059.8073423,-0.556640625,0.06005859375,0.82958984375,4.57763671875,0.0,-2.9296875,4.053955078125,33.8873291015625,-136.0272216796875
1758183059.816841,-0.56005859375,0.06201171875,0.8291015625,4.94384765625,0.06103515625,-3.0517578125,4.0814208984375,33.892822265625,-136.065673828125
1758183059.8268723,-0.56005859375,0.06201171875,0.8291015625,4.94384765625,0.06103515625,-3.0517578125,4.10888671875,33.8983154296875,-136.0986328125
1758183059.8373559,-0.55712890625,0.06201171875,0.82421875,5.43212890625,0.1220703125,-3.23486328125,4.141845703125,33.8983154296875,-136.1370849609375
1758183059.8474796,-0.55712890625,0.06201171875,0.82421875,5.43212890625,0.1220703125,-3.23486328125,4.1748046875,33.90380859375,-136.175537109375
1758183059.856786,-0.556640625,0.05615234375,0.8232421875,5.859375,0.06103515625,-3.2958984375,4.207763671875,33.9093017578125,-136.219482421875
1758183059.8670588,-0.556640625,0.05615234375,0.8232421875,5.859375,0.06103515625,-3.2958984375,4.24072265625,33.914794921875,-136.2579345703125
1758183059.8779376,-0.56396484375,0.0595703125,0.8271484375,4.8828125,0.0,-3.35693359375,4.2681884765625,33.914794921875,-136.29638671875
1758183059.8869874,-0.56396484375,0.0595703125,0.8271484375,4.8828125,0.0,-3.35693359375,4.2901611328125,33.9202880859375,-136.3348388671875
1758183059.8968506,-0.5625,0.06298828125,0.8251953125,5.0048828125,0.0,-3.662109375,4.3121337890625,33.9202880859375,-136.3787841796875
1758183059.9073186,-0.5625,0.06298828125,0.8251953125,5.0048828125,0.0,-3.662109375,4.339599609375,33.92578125,-136.4227294921875
1758183059.917262,-0.56201171875,0.068359375,0.826171875,5.31005859375,0.18310546875,-3.84521484375,4.361572265625,33.9312744140625,-136.47216796875
1758183059.9268758,-0.56201171875,0.068359375,0.826171875,5.31005859375,0.18310546875,-3.84521484375,4.3890380859375,33.936767578125,-136.51611328125
1758183059.9380527,-0.5556640625,0.06640625,0.83251953125,5.4931640625,0.42724609375,-3.96728515625,4.41650390625,33.94775390625,-136.56005859375
1758183059.9469008,-0.5556640625,0.06640625,0.83251953125,5.4931640625,0.42724609375,-3.96728515625,4.4439697265625,33.9532470703125,-136.6094970703125
1758183059.9570403,-0.55517578125,0.0615234375,0.8271484375,5.2490234375,0.3662109375,-4.150390625,4.4659423828125,33.958740234375,-136.658935546875
1758183059.967688,-0.55517578125,0.0615234375,0.8271484375,5.2490234375,0.3662109375,-4.150390625,4.4879150390625,33.9697265625,-136.7083740234375
1758183059.976933,-0.56640625,0.06103515625,0.8212890625,5.615234375,0.42724609375,-4.33349609375,4.515380859375,33.9752197265625,-136.7578125
1758183059.986892,-0.568359375,0.06591796875,0.82080078125,6.34765625,0.48828125,-4.45556640625,4.5428466796875,33.9862060546875,-136.812744140625
1758183059.9981039,-0.568359375,0.06591796875,0.82080078125,6.34765625,0.48828125,-4.45556640625,4.5758056640625,33.99169921875,-136.8621826171875
1758183060.0078776,-0.56591796875,0.07177734375,0.8154296875,5.31005859375,0.42724609375,-4.57763671875,4.603271484375,34.002685546875,-136.9171142578125
1758183060.0174124,-0.56591796875,0.07177734375,0.8154296875,5.31005859375,0.42724609375,-4.57763671875,4.625244140625,34.013671875,-136.9720458984375
1758183060.0270085,-0.56591796875,0.07177734375,0.8154296875,4.33349609375,0.42724609375,-4.57763671875,4.6417236328125,34.0191650390625,-137.0269775390625
1758183060.038253,-0.56591796875,0.0703125,0.826171875,4.33349609375,0.42724609375,-4.57763671875,4.6527099609375,34.0301513671875,-137.076416015625
1758183060.0477157,-0.55859375,0.06787109375,0.826171875,5.0048828125,0.48828125,-4.7607421875,4.669189453125,34.0411376953125,-137.13134765625
1758183060.057147,-0.55859375,0.06787109375,0.826171875,5.0048828125,0.48828125,-4.7607421875,4.6856689453125,34.0521240234375,-137.186279296875
1758183060.0677361,-0.5537109375,0.06787109375,0.8212890625,5.37109375,0.244140625,-4.94384765625,4.7021484375,34.0576171875,-137.2412109375
1758183060.0771172,-0.5537109375,0.06787109375,0.8212890625,5.37109375,0.244140625,-4.94384765625,4.72412109375,34.0631103515625,-137.3016357421875
1758183060.087118,-0.54736328125,0.0703125,0.8330078125,5.2490234375,0.0,-4.82177734375,4.7406005859375,34.068603515625,-137.3565673828125
1758183060.098449,-0.54736328125,0.0703125,0.8330078125,5.2490234375,0.0,-4.82177734375,4.7625732421875,34.0740966796875,-137.4169921875
1758183060.1071393,-0.548828125,0.06591796875,0.8349609375,3.47900390625,-0.18310546875,-4.39453125,4.7735595703125,34.07958984375,-137.471923828125
1758183060.1170607,-0.548828125,0.06591796875,0.8349609375,3.47900390625,-0.18310546875,-4.39453125,4.779052734375,34.07958984375,-137.5213623046875
1758183060.1274219,-0.55615234375,0.0615234375,0.826171875,2.74658203125,-0.30517578125,-4.150390625,4.779052734375,34.07958984375,-137.5762939453125
1758183060.1380258,-0.55615234375,0.0615234375,0.826171875,2.74658203125,-0.30517578125,-4.150390625,4.7735595703125,34.0740966796875,-137.625732421875
1758183060.1471233,-0.55859375,0.05908203125,0.8212890625,4.2724609375,-0.1220703125,-4.150390625,4.779052734375,34.0740966796875,-137.6751708984375
1758183060.1572602,-0.55859375,0.05908203125,0.8212890625,4.2724609375,-0.1220703125,-4.150390625,4.7955322265625,34.07958984375,-137.7301025390625
1758183060.1677816,-0.55224609375,0.06884765625,0.83251953125,5.37109375,0.0,-4.150390625,4.81201171875,34.07958984375,-137.779541015625
1758183060.177181,-0.55224609375,0.06884765625,0.83251953125,5.37109375,0.0,-4.150390625,4.833984375,34.07958984375,-137.8289794921875
1758183060.1871462,-0.55419921875,0.0732421875,0.8388671875,4.638671875,0.06103515625,-4.0283203125,4.85595703125,34.0850830078125,-137.8839111328125
1758183060.1984978,-0.55419921875,0.0732421875,0.8388671875,4.638671875,0.06103515625,-4.0283203125,4.8724365234375,34.0850830078125,-137.933349609375
1758183060.207289,-0.5625,0.072265625,0.82470703125,4.150390625,0.244140625,-3.90625,4.888916015625,34.090576171875,-137.9827880859375
1758183060.2172368,-0.5625,0.072265625,0.82470703125,4.150390625,0.244140625,-3.90625,4.9053955078125,34.090576171875,-138.0267333984375
1758183060.227556,-0.55615234375,0.06787109375,0.8203125,3.60107421875,0.1220703125,-3.96728515625,4.9163818359375,34.0960693359375,-138.076171875
1758183060.2385206,-0.55615234375,0.06787109375,0.8203125,3.60107421875,0.1220703125,-3.96728515625,4.921875,34.1015625,-138.1201171875
1758183060.247183,-0.55078125,0.07177734375,0.8251953125,3.173828125,0.0,-3.90625,4.9273681640625,34.1015625,-138.1695556640625
1758183060.257304,-0.55078125,0.07177734375,0.8251953125,3.173828125,0.0,-3.90625,4.932861328125,34.1015625,-138.218994140625
1758183060.267727,-0.55712890625,0.0673828125,0.8349609375,3.72314453125,0.0,-3.96728515625,4.9383544921875,34.1070556640625,-138.262939453125
1758183060.2773416,-0.55712890625,0.0673828125,0.8349609375,3.72314453125,0.0,-3.96728515625,4.9493408203125,34.1070556640625,-138.3123779296875
1758183060.2872548,-0.5654296875,0.06689453125,0.82763671875,4.94384765625,0.1220703125,-4.0283203125,4.9603271484375,34.1070556640625,-138.36181640625
1758183060.298887,-0.5654296875,0.06689453125,0.82763671875,4.94384765625,0.1220703125,-4.0283203125,4.9822998046875,34.112548828125,-138.4112548828125
1758183060.3081138,-0.564453125,0.068359375,0.81201171875,6.34765625,0.0,-4.21142578125,5.009765625,34.112548828125,-138.460693359375
1758183060.3181815,-0.564453125,0.068359375,0.81201171875,6.34765625,0.0,-4.21142578125,5.042724609375,34.1180419921875,-138.515625
1758183060.327914,-0.55859375,0.07373046875,0.8203125,7.26318359375,0.0,-4.39453125,5.0811767578125,34.1180419921875,-138.5650634765625
1758183060.3378053,-0.55859375,0.07373046875,0.8203125,7.26318359375,0.0,-4.39453125,5.11962890625,34.12353515625,-138.6199951171875
1758183060.3474858,-0.56005859375,0.08251953125,0.82861328125,5.615234375,-0.1220703125,-4.33349609375,5.152587890625,34.1290283203125,-138.66943359375
1758183060.3585865,-0.56005859375,0.08251953125,0.82861328125,5.615234375,-0.1220703125,-4.33349609375,5.1800537109375,34.1290283203125,-138.724365234375
1758183060.3677757,-0.55810546875,0.078125,0.8271484375,4.2724609375,-0.244140625,-4.21142578125,5.196533203125,34.1290283203125,-138.7738037109375
1758183060.3773935,-0.55810546875,0.078125,0.8271484375,4.2724609375,-0.244140625,-4.21142578125,5.2130126953125,34.1290283203125,-138.8232421875
1758183060.3875053,-0.55419921875,0.07275390625,0.82568359375,4.82177734375,-0.30517578125,-4.2724609375,5.2294921875,34.1290283203125,-138.8726806640625
1758183060.3988006,-0.55419921875,0.07275390625,0.82568359375,4.82177734375,-0.30517578125,-4.2724609375,5.2459716796875,34.1290283203125,-138.9276123046875
1758183060.407314,-0.56005859375,0.0693359375,0.830078125,5.615234375,-0.18310546875,-4.33349609375,5.2679443359375,34.1290283203125,-138.97705078125
1758183060.4174862,-0.56005859375,0.0693359375,0.830078125,5.615234375,-0.18310546875,-4.33349609375,5.2899169921875,34.134521484375,-139.031982421875
1758183060.4279947,-0.55615234375,0.07666015625,0.828125,6.40869140625,-0.1220703125,-4.45556640625,5.3173828125,34.134521484375,-139.0869140625
1758183060.4379096,-0.55615234375,0.07666015625,0.828125,6.40869140625,-0.1220703125,-4.45556640625,5.350341796875,34.134521484375,-139.141845703125
1758183060.4475067,-0.564453125,0.080078125,0.82666015625,6.40869140625,0.0,-4.45556640625,5.38330078125,34.1400146484375,-139.1912841796875
1758183060.4586217,-0.564453125,0.080078125,0.82666015625,6.40869140625,0.0,-4.45556640625,5.416259765625,34.1400146484375,-139.2462158203125
1758183060.467614,-0.56103515625,0.0830078125,0.81982421875,5.06591796875,0.06103515625,-4.2724609375,5.4437255859375,34.1455078125,-139.3011474609375
1758183060.4774117,-0.56103515625,0.0830078125,0.81982421875,5.06591796875,0.06103515625,-4.2724609375,5.460205078125,34.1455078125,-139.3505859375
1758183060.4878669,-0.55810546875,0.0859375,0.82373046875,3.5400390625,0.1220703125,-4.0283203125,5.4766845703125,34.1510009765625,-139.4000244140625
1758183060.4984007,-0.55810546875,0.0859375,0.82373046875,3.5400390625,0.1220703125,-4.0283203125,5.482177734375,34.156494140625,-139.449462890625
1758183060.507416,-0.5546875,0.07373046875,0.83935546875,3.47900390625,0.30517578125,-3.90625,5.4931640625,34.1619873046875,-139.4989013671875
1758183060.5179996,-0.5546875,0.07373046875,0.83935546875,3.47900390625,0.30517578125,-3.90625,5.4986572265625,34.16748046875,-139.54833984375
1758183060.5283473,-0.5634765625,0.0712890625,0.82421875,2.62451171875,0.3662109375,-3.41796875,5.504150390625,34.1729736328125,-139.59228515625
1758183060.5375373,-0.5634765625,0.0712890625,0.82421875,2.62451171875,0.3662109375,-3.41796875,5.504150390625,34.178466796875,-139.63623046875
1758183060.5476465,-0.56982421875,0.07421875,0.818359375,2.01416015625,0.3662109375,-3.2958984375,5.504150390625,34.1839599609375,-139.68017578125
1758183060.5586526,-0.56982421875,0.07421875,0.818359375,2.01416015625,0.3662109375,-3.2958984375,5.504150390625,34.189453125,-139.7186279296875
1758183060.5676184,-0.56298828125,0.07421875,0.8212890625,3.0517578125,0.48828125,-3.41796875,5.504150390625,34.1949462890625,-139.757080078125
1758183060.5775225,-0.56298828125,0.07421875,0.8212890625,3.0517578125,0.48828125,-3.41796875,5.5096435546875,34.2059326171875,-139.801025390625
1758183060.5883415,-0.55517578125,0.0830078125,0.82373046875,3.662109375,0.42724609375,-3.0517578125,5.5206298828125,34.21142578125,-139.8394775390625
1758183060.5983288,-0.55517578125,0.0830078125,0.82373046875,3.662109375,0.42724609375,-3.0517578125,5.5316162109375,34.2169189453125,-139.8779296875
1758183060.6075642,-0.556640625,0.08056640625,0.837890625,2.25830078125,0.30517578125,-2.685546875,5.5426025390625,34.222412109375,-139.910888671875
1758183060.618013,-0.556640625,0.08056640625,0.837890625,2.25830078125,0.30517578125,-2.685546875,5.548095703125,34.2279052734375,-139.94384765625
1758183060.6284328,-0.560546875,0.07470703125,0.82568359375,0.30517578125,0.0,-2.197265625,5.5426025390625,34.2279052734375,-139.976806640625
1758183060.6375532,-0.560546875,0.07470703125,0.82568359375,0.30517578125,0.0,-2.197265625,5.526123046875,34.2279052734375,-140.0042724609375
1758183060.6478462,-0.56396484375,0.0732421875,0.810546875,0.0,-0.30517578125,-2.0751953125,5.51513671875,34.2279052734375,-140.0372314453125
1758183060.6585116,-0.56396484375,0.0732421875,0.810546875,0.0,-0.30517578125,-2.0751953125,5.4986572265625,34.2279052734375,-140.064697265625
1758183060.667806,-0.56103515625,0.07568359375,0.8154296875,0.732421875,-0.42724609375,-2.13623046875,5.4876708984375,34.2279052734375,-140.0921630859375
1758183060.677978,-0.56103515625,0.07568359375,0.8154296875,0.732421875,-0.42724609375,-2.13623046875,5.4766845703125,34.222412109375,-140.11962890625
1758183060.6889129,-0.56689453125,0.08251953125,0.8271484375,1.0986328125,-0.42724609375,-2.13623046875,5.47119140625,34.222412109375,-140.1470947265625
1758183060.698172,-0.56689453125,0.08251953125,0.8271484375,1.0986328125,-0.42724609375,-2.13623046875,5.4656982421875,34.2169189453125,-140.174560546875
1758183060.7076964,-0.5712890625,0.08447265625,0.81689453125,1.77001953125,-0.244140625,-2.01416015625,5.4656982421875,34.2169189453125,-140.2020263671875
1758183060.7187922,-0.5712890625,0.08447265625,0.81689453125,1.77001953125,-0.244140625,-2.01416015625,5.47119140625,34.2169189453125,-140.2239990234375
1758183060.727854,-0.57568359375,0.076171875,0.80419921875,0.42724609375,-0.1220703125,-1.89208984375,5.4656982421875,34.2169189453125,-140.2459716796875
1758183060.7380157,-0.57568359375,0.076171875,0.80419921875,0.42724609375,-0.1220703125,-1.89208984375,5.460205078125,34.2169189453125,-140.2679443359375
1758183060.7485626,-0.57666015625,0.07763671875,0.81689453125,-0.1220703125,0.0,-1.953125,5.44921875,34.222412109375,-140.2899169921875
1758183060.7581294,-0.57666015625,0.07763671875,0.81689453125,-0.1220703125,0.0,-1.953125,5.4327392578125,34.2279052734375,-140.306396484375
1758183060.76786,-0.56494140625,0.07568359375,0.82177734375,1.46484375,0.30517578125,-2.01416015625,5.42724609375,34.2333984375,-140.328369140625
1758183060.778648,-0.56494140625,0.07568359375,0.82177734375,1.46484375,0.30517578125,-2.01416015625,5.42724609375,34.2388916015625,-140.350341796875
1758183060.7880514,-0.57373046875,0.07763671875,0.8212890625,2.685546875,0.30517578125,-2.25830078125,5.4327392578125,34.244384765625,-140.372314453125
1758183060.79817,-0.57373046875,0.07763671875,0.8212890625,2.685546875,0.30517578125,-2.25830078125,5.4437255859375,34.25537109375,-140.3997802734375
1758183060.8080168,-0.56640625,0.08203125,0.81640625,2.38037109375,0.3662109375,-2.13623046875,5.4547119140625,34.2608642578125,-140.4217529296875
1758183060.818716,-0.56640625,0.08203125,0.81640625,2.38037109375,0.3662109375,-2.13623046875,5.4656982421875,34.2718505859375,-140.4437255859375
1758183060.8279934,-0.55712890625,0.0830078125,0.81298828125,0.67138671875,0.18310546875,-1.953125,5.4656982421875,34.27734375,-140.4656982421875
1758183060.8380942,-0.55712890625,0.0830078125,0.81298828125,0.67138671875,0.18310546875,-1.953125,5.460205078125,34.2828369140625,-140.4876708984375
1758183060.8483448,-0.5537109375,0.080078125,0.83251953125,-1.0986328125,0.06103515625,-1.5869140625,5.44921875,34.288330078125,-140.504150390625
1758183060.8582172,-0.5537109375,0.080078125,0.83251953125,-1.0986328125,0.06103515625,-1.5869140625,5.42724609375,34.288330078125,-140.5206298828125
1758183060.8680065,-0.56201171875,0.07568359375,0.830078125,-1.0986328125,0.0,-1.3427734375,5.4052734375,34.2938232421875,-140.537109375
1758183060.8787298,-0.56201171875,0.07568359375,0.830078125,-1.0986328125,0.0,-1.3427734375,5.3887939453125,34.2938232421875,-140.5535888671875
1758183060.8885078,-0.5634765625,0.07177734375,0.81005859375,-0.6103515625,0.0,-1.28173828125,5.372314453125,34.2938232421875,-140.570068359375
1758183060.898221,-0.5634765625,0.07177734375,0.81005859375,-0.6103515625,0.0,-1.28173828125,5.3558349609375,34.2938232421875,-140.5865478515625
1758183060.9087672,-0.5595703125,0.07373046875,0.82470703125,-0.67138671875,-0.18310546875,-1.28173828125,5.33935546875,34.2938232421875,-140.60302734375
1758183060.9190817,-0.5595703125,0.07373046875,0.82470703125,-0.67138671875,-0.18310546875,-1.28173828125,5.3228759765625,34.2938232421875,-140.614013671875
1758183060.9288316,-0.556640625,0.0771484375,0.83642578125,-0.48828125,-0.244140625,-1.28173828125,5.3118896484375,34.2938232421875,-140.6304931640625
1758183060.9382443,-0.556640625,0.0771484375,0.83642578125,-0.48828125,-0.244140625,-1.28173828125,5.29541015625,34.2938232421875,-140.64697265625
1758183060.9487007,-0.5556640625,0.076171875,0.82470703125,-0.6103515625,-0.18310546875,-1.28173828125,5.284423828125,34.2938232421875,-140.657958984375
1758183060.9584222,-0.5556640625,0.076171875,0.82470703125,-0.6103515625,-0.18310546875,-1.28173828125,5.2679443359375,34.288330078125,-140.6744384765625
1758183060.9680972,-0.56201171875,0.0712890625,0.822265625,-1.3427734375,-0.30517578125,-1.220703125,5.25146484375,34.288330078125,-140.69091796875
1758183060.9784107,-0.56201171875,0.0712890625,0.822265625,-1.3427734375,-0.30517578125,-1.220703125,5.2294921875,34.2828369140625,-140.701904296875
1758183060.9888732,-0.56201171875,0.0732421875,0.82763671875,-0.79345703125,0.0,-1.52587890625,5.20751953125,34.2828369140625,-140.7183837890625
1758183060.9983568,-0.56201171875,0.0732421875,0.82763671875,-0.79345703125,0.0,-1.52587890625,5.1910400390625,34.2828369140625,-140.73486328125
1758183061.0083075,-0.55078125,0.080078125,0.82275390625,0.79345703125,0.0,-1.89208984375,5.1800537109375,34.2828369140625,-140.7568359375
1758183061.0190058,-0.55078125,0.080078125,0.82275390625,0.79345703125,0.0,-1.89208984375,5.174560546875,34.2828369140625,-140.77880859375
1758183061.0288534,-0.55078125,0.080078125,0.82275390625,0.6103515625,-0.06103515625,-1.953125,5.1690673828125,34.2828369140625,-140.80078125
1758183061.0382907,-0.5498046875,0.078125,0.8369140625,0.6103515625,-0.06103515625,-1.953125,5.16357421875,34.2828369140625,-140.82275390625
1758183061.0482783,-0.5400390625,0.07568359375,0.84033203125,-0.54931640625,-0.06103515625,-2.13623046875,5.1416015625,34.2828369140625,-140.8502197265625
1758183061.0589168,-0.5400390625,0.07568359375,0.84033203125,-0.54931640625,-0.06103515625,-2.13623046875,5.1251220703125,34.27734375,-140.8721923828125
1758183061.0684814,-0.54052734375,0.0732421875,0.837890625,-0.18310546875,-0.30517578125,-2.13623046875,5.108642578125,34.2718505859375,-140.899658203125
1758183061.0784602,-0.54052734375,0.0732421875,0.837890625,-0.18310546875,-0.30517578125,-2.13623046875,5.0921630859375,34.266357421875,-140.9271240234375
1758183061.088416,-0.5380859375,0.0693359375,0.83154296875,0.244140625,-0.30517578125,-2.197265625,5.0811767578125,34.2608642578125,-140.9600830078125
1758183061.0989778,-0.5380859375,0.0693359375,0.83154296875,0.244140625,-0.30517578125,-2.197265625,5.064697265625,34.25537109375,-140.987548828125
1758183061.108186,-0.54345703125,0.0634765625,0.8388671875,0.0,-0.48828125,-2.13623046875,5.0537109375,34.2498779296875,-141.0205078125
1758183061.1187851,-0.54345703125,0.0634765625,0.8388671875,0.0,-0.48828125,-2.13623046875,5.0372314453125,34.2388916015625,-141.053466796875
1758183061.128438,-0.53515625,0.07080078125,0.8505859375,-0.18310546875,-0.3662109375,-2.0751953125,5.020751953125,34.2279052734375,-141.0809326171875
1758183061.1384635,-0.53515625,0.07080078125,0.8505859375,-0.18310546875,-0.3662109375,-2.0751953125,5.0042724609375,34.222412109375,-141.1138916015625
1758183061.1487694,-0.53076171875,0.0634765625,0.85546875,1.40380859375,-0.48828125,-2.38037109375,4.998779296875,34.21142578125,-141.1468505859375
1758183061.1588056,-0.53076171875,0.0634765625,0.85546875,1.40380859375,-0.48828125,-2.38037109375,4.998779296875,34.200439453125,-141.185302734375
1758183061.1683052,-0.52197265625,0.07177734375,0.845703125,1.8310546875,-0.6103515625,-2.44140625,4.998779296875,34.189453125,-141.2237548828125
1758183061.1786764,-0.52197265625,0.07177734375,0.845703125,1.8310546875,-0.6103515625,-2.44140625,4.998779296875,34.1729736328125,-141.26220703125
1758183061.1892354,-0.52587890625,0.07177734375,0.84228515625,2.8076171875,-1.03759765625,-2.685546875,5.0042724609375,34.156494140625,-141.3006591796875
1758183061.1986337,-0.52587890625,0.07177734375,0.84228515625,2.8076171875,-1.03759765625,-2.685546875,5.0152587890625,34.1400146484375,-141.339111328125
1758183061.2091317,-0.5400390625,0.0673828125,0.8486328125,3.47900390625,-1.3427734375,-2.685546875,5.0262451171875,34.1180419921875,-141.383056640625
1758183061.2188113,-0.5400390625,0.0673828125,0.8486328125,3.47900390625,-1.3427734375,-2.685546875,5.042724609375,34.0960693359375,-141.4215087890625
1758183061.2291603,-0.5439453125,0.06591796875,0.8359375,3.5400390625,-1.28173828125,-2.74658203125,5.0537109375,34.0740966796875,-141.4654541015625
1758183061.2385826,-0.5439453125,0.06591796875,0.8359375,3.5400390625,-1.28173828125,-2.74658203125,5.0701904296875,34.0576171875,-141.5093994140625
1758183061.2486284,-0.546875,0.06640625,0.82861328125,4.69970703125,-1.28173828125,-3.0517578125,5.0921630859375,34.03564453125,-141.5533447265625
1758183061.2588995,-0.546875,0.06640625,0.82861328125,4.69970703125,-1.28173828125,-3.0517578125,5.1141357421875,34.0191650390625,-141.5972900390625
1758183061.2686255,-0.5458984375,0.07080078125,0.83251953125,5.79833984375,-1.15966796875,-3.2958984375,5.1470947265625,34.002685546875,-141.646728515625
1758183061.27879,-0.5458984375,0.07080078125,0.83251953125,5.79833984375,-1.15966796875,-3.2958984375,5.1800537109375,33.9862060546875,-141.690673828125
1758183061.2891314,-0.54296875,0.060546875,0.83203125,4.94384765625,-1.03759765625,-3.72314453125,5.2020263671875,33.9752197265625,-141.74560546875
1758183061.2988224,-0.54296875,0.060546875,0.83203125,4.94384765625,-1.03759765625,-3.72314453125,5.2239990234375,33.958740234375,-141.7950439453125
1758183061.308441,-0.548828125,0.07861328125,0.84375,5.79833984375,-1.03759765625,-3.5400390625,5.25146484375,33.94775390625,-141.844482421875
1758183061.3188243,-0.548828125,0.07861328125,0.84375,5.79833984375,-1.03759765625,-3.5400390625,5.284423828125,33.9312744140625,-141.8939208984375
1758183061.3294616,-0.55029296875,0.0849609375,0.828125,7.9345703125,-0.732421875,-4.21142578125,5.328369140625,33.9202880859375,-141.954345703125
1758183061.3387613,-0.55029296875,0.0849609375,0.828125,7.9345703125,-0.732421875,-4.21142578125,5.3778076171875,33.914794921875,-142.00927734375
1758183061.3486283,-0.544921875,0.08349609375,0.81787109375,7.50732421875,-0.8544921875,-4.2724609375,5.4217529296875,33.90380859375,-142.064208984375
1758183061.3592334,-0.544921875,0.08349609375,0.81787109375,7.50732421875,-0.8544921875,-4.2724609375,5.4656982421875,33.892822265625,-142.119140625
1758183061.3686945,-0.544921875,0.0830078125,0.8349609375,5.43212890625,-0.732421875,-4.33349609375,5.4876708984375,33.8873291015625,-142.1795654296875
1758183061.378895,-0.544921875,0.0830078125,0.8349609375,5.43212890625,-0.732421875,-4.33349609375,5.5096435546875,33.8763427734375,-142.2344970703125
1758183061.3888693,-0.552734375,0.07666015625,0.83056640625,5.859375,-0.79345703125,-4.5166015625,5.537109375,33.870849609375,-142.294921875
1758183061.3993907,-0.552734375,0.07666015625,0.83056640625,5.859375,-0.79345703125,-4.5166015625,5.5645751953125,33.85986328125,-142.349853515625
1758183061.4085908,-0.55419921875,0.07177734375,0.83642578125,6.4697265625,-0.79345703125,-4.45556640625,5.5975341796875,33.8543701171875,-142.4102783203125
1758183061.4190242,-0.55419921875,0.07177734375,0.83642578125,6.4697265625,-0.79345703125,-4.45556640625,5.625,33.848876953125,-142.4652099609375
1758183061.429478,-0.5634765625,0.08251953125,0.8291015625,7.14111328125,-0.42724609375,-4.39453125,5.6634521484375,33.8433837890625,-142.5201416015625
1758183061.4388368,-0.5634765625,0.08251953125,0.8291015625,7.14111328125,-0.42724609375,-4.39453125,5.7073974609375,33.837890625,-142.5750732421875
1758183061.4487617,-0.56884765625,0.08349609375,0.8154296875,6.04248046875,-0.42724609375,-4.94384765625,5.7293701171875,33.837890625,-142.635498046875
1758183061.4594853,-0.56884765625,0.08349609375,0.8154296875,6.04248046875,-0.42724609375,-4.94384765625,5.7568359375,33.837890625,-142.6959228515625
1758183061.4689643,-0.57861328125,0.08642578125,0.8212890625,5.43212890625,-0.3662109375,-5.0048828125,5.7733154296875,33.837890625,-142.75634765625
1758183061.478999,-0.57861328125,0.08642578125,0.8212890625,5.43212890625,-0.3662109375,-5.0048828125,5.789794921875,33.837890625,-142.8167724609375
1758183061.4893765,-0.58251953125,0.083984375,0.8154296875,5.0048828125,0.0,-4.8828125,5.8062744140625,33.8433837890625,-142.8717041015625
1758183061.499098,-0.58251953125,0.083984375,0.8154296875,5.0048828125,0.0,-4.8828125,5.82275390625,33.8543701171875,-142.9266357421875
1758183061.5086927,-0.5859375,0.08447265625,0.8056640625,4.7607421875,0.48828125,-4.8828125,5.8392333984375,33.8653564453125,-142.9815673828125
1758183061.5195093,-0.5859375,0.08447265625,0.8056640625,4.7607421875,0.48828125,-4.8828125,5.8502197265625,33.8763427734375,-143.0364990234375
1758183061.5288677,-0.5966796875,0.08203125,0.8046875,3.35693359375,1.03759765625,-4.69970703125,5.8502197265625,33.8983154296875,-143.0859375
1758183061.5390103,-0.5966796875,0.08203125,0.8046875,3.35693359375,1.03759765625,-4.69970703125,5.855712890625,33.9202880859375,-143.1298828125
1758183061.5494568,-0.59521484375,0.0869140625,0.81005859375,2.685546875,1.8310546875,-4.82177734375,5.8502197265625,33.94775390625,-143.1793212890625
1758183061.559048,-0.59521484375,0.0869140625,0.81005859375,2.685546875,1.8310546875,-4.82177734375,5.8447265625,33.9752197265625,-143.228759765625
1758183061.568893,-0.5810546875,0.08837890625,0.80078125,3.7841796875,2.25830078125,-5.06591796875,5.8502197265625,34.0081787109375,-143.2781982421875
1758183061.5795014,-0.5810546875,0.08837890625,0.80078125,3.7841796875,2.25830078125,-5.06591796875,5.855712890625,34.046630859375,-143.32763671875
1758183061.5902095,-0.568359375,0.091796875,0.81494140625,5.37109375,2.0751953125,-5.2490234375,5.8721923828125,34.07958984375,-143.382568359375
1758183061.599081,-0.568359375,0.091796875,0.81494140625,5.37109375,2.0751953125,-5.2490234375,5.8941650390625,34.112548828125,-143.4375
1758183061.6088731,-0.5625,0.08251953125,0.81982421875,6.04248046875,1.77001953125,-5.31005859375,5.921630859375,34.1400146484375,-143.492431640625
1758183061.6192818,-0.5625,0.08251953125,0.81982421875,6.04248046875,1.77001953125,-5.31005859375,5.943603515625,34.16748046875,-143.54736328125
1758183061.6290858,-0.5615234375,0.08056640625,0.8154296875,5.0048828125,1.28173828125,-5.06591796875,5.9600830078125,34.189453125,-143.602294921875
1758183061.6390421,-0.5615234375,0.08056640625,0.8154296875,5.0048828125,1.28173828125,-5.06591796875,5.9765625,34.21142578125,-143.6572265625
1758183061.6496391,-0.5732421875,0.07958984375,0.81494140625,4.45556640625,0.9765625,-4.94384765625,5.987548828125,34.2279052734375,-143.712158203125
1758183061.6592226,-0.5732421875,0.07958984375,0.81494140625,4.45556640625,0.9765625,-4.94384765625,5.99853515625,34.2498779296875,-143.76708984375
1758183061.6689794,-0.5771484375,0.083984375,0.8056640625,4.94384765625,0.91552734375,-5.0048828125,6.0150146484375,34.266357421875,-143.822021484375
1758183061.6791587,-0.5771484375,0.083984375,0.8056640625,4.94384765625,0.91552734375,-5.0048828125,6.031494140625,34.288330078125,-143.8714599609375
1758183061.6901898,-0.57470703125,0.0869140625,0.80810546875,5.0048828125,1.03759765625,-4.94384765625,6.0479736328125,34.3048095703125,-143.9263916015625
1758183061.699169,-0.57470703125,0.0869140625,0.80810546875,5.0048828125,1.03759765625,-4.94384765625,6.064453125,34.3267822265625,-143.9813232421875
1758183061.708995,-0.576171875,0.08447265625,0.82275390625,4.638671875,1.220703125,-5.06591796875,6.075439453125,34.3487548828125,-144.0362548828125
1758183061.7191715,-0.576171875,0.08447265625,0.82275390625,4.638671875,1.220703125,-5.06591796875,6.08642578125,34.3707275390625,-144.0911865234375
1758183061.7305868,-0.5654296875,0.087890625,0.8173828125,4.8828125,1.64794921875,-4.82177734375,6.1029052734375,34.3927001953125,-144.140625
1758183061.7390273,-0.5654296875,0.087890625,0.8173828125,4.8828125,1.64794921875,-4.82177734375,6.119384765625,34.420166015625,-144.195556640625
1758183061.7491539,-0.56494140625,0.0869140625,0.818359375,4.39453125,1.77001953125,-4.69970703125,6.13037109375,34.442138671875,-144.2449951171875
1758183061.7597756,-0.56494140625,0.0869140625,0.818359375,4.39453125,1.77001953125,-4.69970703125,6.141357421875,34.4696044921875,-144.2999267578125
1758183061.7694197,-0.57080078125,0.08837890625,0.8271484375,2.62451171875,2.197265625,-4.5166015625,6.1358642578125,34.4970703125,-144.349365234375
1758183061.7791374,-0.57080078125,0.08837890625,0.8271484375,2.62451171875,2.197265625,-4.5166015625,6.1358642578125,34.5245361328125,-144.3988037109375
1758183061.7892213,-0.56640625,0.09033203125,0.8193359375,2.74658203125,2.44140625,-4.5166015625,6.13037109375,34.5574951171875,-144.4427490234375
1758183061.8000665,-0.56640625,0.09033203125,0.8193359375,2.74658203125,2.44140625,-4.5166015625,6.13037109375,34.5849609375,-144.4921875
1758183061.8105743,-0.56396484375,0.08447265625,0.8125,5.06591796875,2.5634765625,-4.638671875,6.1468505859375,34.617919921875,-144.547119140625
1758183061.8191414,-0.56396484375,0.08447265625,0.8125,5.06591796875,2.5634765625,-4.638671875,6.1688232421875,34.6453857421875,-144.5965576171875
1758183061.82932,-0.56787109375,0.08203125,0.8173828125,5.79833984375,2.38037109375,-4.45556640625,6.1962890625,34.6783447265625,-144.64599609375
1758183061.8394706,-0.56787109375,0.08203125,0.8173828125,5.79833984375,2.38037109375,-4.45556640625,6.2237548828125,34.705810546875,-144.6954345703125
1758183061.8493047,-0.57177734375,0.08935546875,0.81689453125,4.7607421875,2.44140625,-4.21142578125,6.2457275390625,34.7332763671875,-144.744873046875
1758183061.859295,-0.57177734375,0.08935546875,0.81689453125,4.7607421875,2.44140625,-4.21142578125,6.26220703125,34.7607421875,-144.788818359375
1758183061.870456,-0.58056640625,0.0869140625,0.810546875,3.72314453125,2.3193359375,-3.90625,6.273193359375,34.7882080078125,-144.832763671875
1758183061.8795428,-0.58056640625,0.0869140625,0.810546875,3.72314453125,2.3193359375,-3.90625,6.2841796875,34.815673828125,-144.876708984375
1758183061.8892694,-0.59619140625,0.08544921875,0.80419921875,3.173828125,2.44140625,-3.662109375,6.2896728515625,34.8486328125,-144.920654296875
1758183061.900123,-0.59619140625,0.08544921875,0.80419921875,3.173828125,2.44140625,-3.662109375,6.295166015625,34.8760986328125,-144.9591064453125
1758183061.9107637,-0.59521484375,0.08935546875,0.79443359375,3.96728515625,2.5634765625,-3.84521484375,6.3116455078125,34.9090576171875,-145.0030517578125
1758183061.9192455,-0.59521484375,0.08935546875,0.79443359375,3.96728515625,2.5634765625,-3.84521484375,6.3226318359375,34.9420166015625,-145.0469970703125
1758183061.9304323,-0.58642578125,0.10009765625,0.7919921875,4.638671875,2.5634765625,-3.84521484375,6.3446044921875,34.9749755859375,-145.08544921875
1758183061.9395175,-0.58642578125,0.10009765625,0.7919921875,4.638671875,2.5634765625,-3.84521484375,6.3665771484375,35.0079345703125,-145.1239013671875
1758183061.949423,-0.58251953125,0.0986328125,0.79248046875,4.39453125,2.50244140625,-3.90625,6.383056640625,35.0408935546875,-145.162353515625
1758183061.959577,-0.58251953125,0.0986328125,0.79248046875,4.39453125,2.50244140625,-3.90625,6.405029296875,35.0738525390625,-145.206298828125
1758183061.9705567,-0.5908203125,0.09716796875,0.81103515625,2.5634765625,2.0751953125,-3.72314453125,6.405029296875,35.101318359375,-145.2447509765625
1758183061.979348,-0.5908203125,0.09716796875,0.81103515625,2.5634765625,2.0751953125,-3.72314453125,6.405029296875,35.1287841796875,-145.283203125
1758183061.9894357,-0.58154296875,0.08642578125,0.81982421875,1.52587890625,1.953125,-3.60107421875,6.3995361328125,35.15625,-145.316162109375
1758183062.0000575,-0.58154296875,0.08642578125,0.81982421875,1.52587890625,1.953125,-3.60107421875,6.3885498046875,35.1837158203125,-145.3546142578125
1758183062.0094218,-0.57275390625,0.0859375,0.80126953125,2.38037109375,1.8310546875,-3.662109375,6.3885498046875,35.2056884765625,-145.39306640625
1758183062.0193942,-0.57275390625,0.0859375,0.80126953125,2.38037109375,1.8310546875,-3.662109375,6.3885498046875,35.233154296875,-145.4315185546875
1758183062.0307374,-0.57275390625,0.0859375,0.80126953125,2.8076171875,1.64794921875,-3.60107421875,6.39404296875,35.255126953125,-145.4754638671875
1758183062.03953,-0.5751953125,0.08837890625,0.80224609375,2.8076171875,1.64794921875,-3.60107421875,6.3995361328125,35.277099609375,-145.513916015625
1758183062.0494373,-0.58154296875,0.08935546875,0.8154296875,2.0751953125,1.8310546875,-3.47900390625,6.39404296875,35.299072265625,-145.5523681640625
1758183062.0596638,-0.5751953125,0.08837890625,0.81982421875,2.38037109375,1.89208984375,-3.2958984375,6.39404296875,35.321044921875,-145.5908203125
1758183062.0708716,-0.5751953125,0.08837890625,0.81982421875,2.38037109375,1.89208984375,-3.2958984375,6.39404296875,35.343017578125,-145.623779296875
1758183062.0795062,-0.572265625,0.08642578125,0.80908203125,3.35693359375,1.89208984375,-3.2958984375,6.405029296875,35.3704833984375,-145.6622314453125
1758183062.0896466,-0.572265625,0.08642578125,0.80908203125,3.35693359375,1.89208984375,-3.2958984375,6.416015625,35.3924560546875,-145.70068359375
1758183062.1002371,-0.57470703125,0.087890625,0.8125,4.0283203125,1.64794921875,-3.35693359375,6.427001953125,35.408935546875,-145.74462890625
1758183062.1109798,-0.57470703125,0.087890625,0.8125,4.0283203125,1.64794921875,-3.35693359375,6.4434814453125,35.430908203125,-145.7830810546875
1758183062.1196735,-0.57763671875,0.09130859375,0.80810546875,3.173828125,1.40380859375,-3.23486328125,6.4599609375,35.4473876953125,-145.821533203125
1758183062.129713,-0.57763671875,0.09130859375,0.80810546875,3.173828125,1.40380859375,-3.23486328125,6.4654541015625,35.4638671875,-145.8599853515625
1758183062.1413,-0.580078125,0.09228515625,0.8046875,2.99072265625,1.15966796875,-3.173828125,6.4764404296875,35.4803466796875,-145.8984375
1758183062.1496446,-0.580078125,0.09228515625,0.8046875,2.99072265625,1.15966796875,-3.173828125,6.48193359375,35.496826171875,-145.9368896484375
1758183062.1597636,-0.57958984375,0.0888671875,0.80859375,3.47900390625,1.15966796875,-3.11279296875,6.492919921875,35.5078125,-145.975341796875
1758183062.1710455,-0.57958984375,0.0888671875,0.80859375,3.47900390625,1.15966796875,-3.11279296875,6.50390625,35.5242919921875,-146.0137939453125
1758183062.1797311,-0.5791015625,0.087890625,0.80908203125,3.35693359375,0.9765625,-3.173828125,6.514892578125,35.5352783203125,-146.05224609375
1758183062.189657,-0.5791015625,0.087890625,0.80908203125,3.35693359375,0.9765625,-3.173828125,6.52587890625,35.5517578125,-146.09619140625
1758183062.2006035,-0.57568359375,0.09130859375,0.80615234375,3.72314453125,0.8544921875,-3.23486328125,6.536865234375,35.562744140625,-146.1346435546875
1758183062.2097685,-0.57568359375,0.09130859375,0.80615234375,3.72314453125,0.8544921875,-3.23486328125,6.5533447265625,35.57373046875,-146.173095703125
1758183062.219697,-0.5908203125,0.095703125,0.79736328125,3.173828125,0.732421875,-3.23486328125,6.5643310546875,35.584716796875,-146.217041015625
1758183062.2301745,-0.5908203125,0.095703125,0.79736328125,3.173828125,0.732421875,-3.23486328125,6.56982421875,35.595703125,-146.2554931640625
1758183062.2405922,-0.5908203125,0.095703125,0.79736328125,3.96728515625,0.79345703125,-3.173828125,6.580810546875,35.606689453125,-146.2939453125
1758183062.2496896,-0.6005859375,0.095703125,0.8115234375,3.96728515625,0.79345703125,-3.173828125,6.602783203125,35.61767578125,-146.3323974609375
1758183062.259836,-0.59375,0.08837890625,0.7958984375,4.39453125,1.15966796875,-3.11279296875,6.6192626953125,35.628662109375,-146.370849609375
1758183062.270971,-0.59375,0.08837890625,0.7958984375,4.39453125,1.15966796875,-3.11279296875,6.6412353515625,35.6451416015625,-146.4093017578125
1758183062.279941,-0.587890625,0.09130859375,0.78955078125,4.5166015625,0.91552734375,-3.11279296875,6.6632080078125,35.66162109375,-146.4422607421875
1758183062.2897701,-0.587890625,0.09130859375,0.78955078125,4.5166015625,0.91552734375,-3.11279296875,6.6851806640625,35.6781005859375,-146.480712890625
1758183062.3002582,-0.58056640625,0.0947265625,0.80615234375,4.82177734375,0.54931640625,-3.0517578125,6.712646484375,35.6890869140625,-146.5191650390625
1758183062.311048,-0.58056640625,0.0947265625,0.80615234375,4.82177734375,0.54931640625,-3.0517578125,6.734619140625,35.7000732421875,-146.5576171875
1758183062.3198223,-0.576171875,0.09765625,0.806640625,3.90625,0.1220703125,-2.86865234375,6.756591796875,35.70556640625,-146.590576171875
1758183062.3310416,-0.576171875,0.09765625,0.806640625,3.90625,0.1220703125,-2.86865234375,6.7730712890625,35.7110595703125,-146.6290283203125
1758183062.3398788,-0.58837890625,0.09423828125,0.80419921875,2.44140625,0.0,-2.50244140625,6.7840576171875,35.716552734375,-146.6619873046875
1758183062.3497472,-0.58837890625,0.09423828125,0.80419921875,2.44140625,0.0,-2.50244140625,6.78955078125,35.7220458984375,-146.6949462890625
1758183062.3603287,-0.58642578125,0.09033203125,0.80517578125,3.0517578125,-0.06103515625,-2.25830078125,6.800537109375,35.7220458984375,-146.722412109375
1758183062.3709698,-0.58642578125,0.09033203125,0.80517578125,3.0517578125,-0.06103515625,-2.25830078125,6.8115234375,35.7275390625,-146.75537109375
1758183062.3798864,-0.5771484375,0.08740234375,0.80615234375,4.150390625,-0.244140625,-2.3193359375,6.83349609375,35.7275390625,-146.7828369140625
1758183062.3902729,-0.5771484375,0.08740234375,0.80615234375,4.150390625,-0.244140625,-2.3193359375,6.85546875,35.7275390625,-146.8157958984375
1758183062.4007926,-0.56591796875,0.0888671875,0.80615234375,4.5166015625,-0.42724609375,-2.38037109375,6.87744140625,35.7275390625,-146.8487548828125
1758183062.4097624,-0.56591796875,0.0888671875,0.80615234375,4.5166015625,-0.42724609375,-2.38037109375,6.9049072265625,35.7275390625,-146.8817138671875
1758183062.4199224,-0.564453125,0.09765625,0.8193359375,4.08935546875,-0.6103515625,-2.50244140625,6.9268798828125,35.7220458984375,-146.9146728515625
1758183062.4313228,-0.564453125,0.09765625,0.8193359375,4.08935546875,-0.6103515625,-2.50244140625,6.943359375,35.7220458984375,-146.953125
1758183062.4402938,-0.57080078125,0.09814453125,0.82666015625,4.21142578125,-0.42724609375,-2.38037109375,6.96533203125,35.716552734375,-146.986083984375
1758183062.4498093,-0.57080078125,0.09814453125,0.82666015625,4.21142578125,-0.42724609375,-2.38037109375,6.9873046875,35.7110595703125,-147.0245361328125
1758183062.4600446,-0.57421875,0.1025390625,0.8173828125,5.06591796875,-0.48828125,-2.197265625,7.0147705078125,35.70556640625,-147.0574951171875
1758183062.4711225,-0.57421875,0.1025390625,0.8173828125,5.06591796875,-0.48828125,-2.197265625,7.0477294921875,35.7000732421875,-147.095947265625
1758183062.48003,-0.5673828125,0.0947265625,0.80322265625,5.06591796875,-0.48828125,-2.197265625,7.0806884765625,35.694580078125,-147.12890625
1758183062.490368,-0.5673828125,0.0947265625,0.80322265625,5.06591796875,-0.48828125,-2.197265625,7.1136474609375,35.6890869140625,-147.161865234375
1758183062.5007372,-0.5712890625,0.09912109375,0.8056640625,4.39453125,-0.91552734375,-2.25830078125,7.14111328125,35.68359375,-147.2003173828125
1758183062.510357,-0.5712890625,0.09912109375,0.8056640625,4.39453125,-0.91552734375,-2.25830078125,7.1630859375,35.672607421875,-147.23876953125
1758183062.5200331,-0.576171875,0.10498046875,0.81884765625,6.16455078125,-0.8544921875,-2.5634765625,7.196044921875,35.66162109375,-147.2772216796875
1758183062.5303805,-0.576171875,0.10498046875,0.81884765625,6.16455078125,-0.8544921875,-2.5634765625,7.2344970703125,35.6561279296875,-147.315673828125
1758183062.5408561,-0.57421875,0.107421875,0.81640625,7.01904296875,-0.67138671875,-2.685546875,7.2784423828125,35.6451416015625,-147.3541259765625
1758183062.5503192,-0.57421875,0.107421875,0.81640625,7.01904296875,-0.67138671875,-2.685546875,7.327880859375,35.6396484375,-147.392578125
1758183062.5601811,-0.5703125,0.10791015625,0.8115234375,5.06591796875,-0.48828125,-2.685546875,7.3663330078125,35.6341552734375,-147.4310302734375
1758183062.5711255,-0.5703125,0.10791015625,0.8115234375,5.06591796875,-0.48828125,-2.685546875,7.393798828125,35.628662109375,-147.469482421875
1758183062.5803525,-0.56689453125,0.10791015625,0.81591796875,4.21142578125,-0.6103515625,-2.685546875,7.4212646484375,35.6231689453125,-147.5079345703125
1758183062.590437,-0.56689453125,0.10791015625,0.81591796875,4.21142578125,-0.6103515625,-2.685546875,7.4432373046875,35.61767578125,-147.54638671875
1758183062.6005347,-0.568359375,0.1044921875,0.8134765625,5.4931640625,-0.8544921875,-2.62451171875,7.470703125,35.6121826171875,-147.59033203125
1758183062.6105316,-0.568359375,0.1044921875,0.8134765625,5.4931640625,-0.8544921875,-2.62451171875,7.503662109375,35.6011962890625,-147.6287841796875
1758183062.620225,-0.5693359375,0.1064453125,0.81103515625,4.7607421875,-0.9765625,-2.50244140625,7.5311279296875,35.5902099609375,-147.667236328125
1758183062.6304965,-0.5693359375,0.1064453125,0.81103515625,4.7607421875,-0.9765625,-2.50244140625,7.55859375,35.5792236328125,-147.7056884765625
1758183062.6409318,-0.5810546875,0.10888671875,0.8056640625,3.72314453125,-0.91552734375,-2.25830078125,7.58056640625,35.5682373046875,-147.7386474609375
1758183062.6505647,-0.5810546875,0.10888671875,0.8056640625,3.72314453125,-0.91552734375,-2.25830078125,7.6025390625,35.562744140625,-147.777099609375
1758183062.660228,-0.5751953125,0.10595703125,0.79833984375,2.38037109375,-0.91552734375,-1.953125,7.613525390625,35.5517578125,-147.8045654296875
1758183062.6705973,-0.5751953125,0.10595703125,0.79833984375,2.38037109375,-0.91552734375,-1.953125,7.6190185546875,35.540771484375,-147.8375244140625
1758183062.6811132,-0.5869140625,0.1083984375,0.81640625,2.38037109375,-1.0986328125,-1.953125,7.6300048828125,35.52978515625,-147.864990234375
1758183062.690575,-0.5869140625,0.1083984375,0.81640625,2.38037109375,-1.0986328125,-1.953125,7.635498046875,35.518798828125,-147.89794921875
1758183062.7002552,-0.5908203125,0.107421875,0.802734375,0.9765625,-0.79345703125,-1.708984375,7.635498046875,35.5133056640625,-147.9254150390625
1758183062.7113447,-0.5908203125,0.107421875,0.802734375,0.9765625,-0.79345703125,-1.708984375,7.635498046875,35.5078125,-147.952880859375
1758183062.7209585,-0.583984375,0.11572265625,0.791015625,-1.40380859375,-0.91552734375,-1.64794921875,7.6190185546875,35.496826171875,-147.974853515625
1758183062.7306092,-0.583984375,0.11572265625,0.791015625,-1.40380859375,-0.91552734375,-1.64794921875,7.591552734375,35.4913330078125,-148.0023193359375
1758183062.740626,-0.58251953125,0.11181640625,0.8076171875,-2.01416015625,-0.8544921875,-1.52587890625,7.5640869140625,35.48583984375,-148.0242919921875
1758183062.7510996,-0.58251953125,0.11181640625,0.8076171875,-2.01416015625,-0.8544921875,-1.52587890625,7.5311279296875,35.4803466796875,-148.040771484375
1758183062.7604518,-0.58642578125,0.10498046875,0.80029296875,-1.708984375,-1.03759765625,-1.52587890625,7.503662109375,35.4693603515625,-148.062744140625
1758183062.7706816,-0.58642578125,0.10498046875,0.80029296875,-1.708984375,-1.03759765625,-1.52587890625,7.4761962890625,35.4638671875,-148.084716796875
1758183062.7813826,-0.58056640625,0.10205078125,0.7998046875,-0.91552734375,-1.0986328125,-1.708984375,7.44873046875,35.452880859375,-148.1011962890625
1758183062.7907417,-0.58056640625,0.10205078125,0.7998046875,-0.91552734375,-1.0986328125,-1.708984375,7.4267578125,35.4473876953125,-148.1231689453125
1758183062.8003967,-0.58349609375,0.10498046875,0.8125,-2.44140625,-0.9765625,-1.708984375,7.3992919921875,35.44189453125,-148.1451416015625
1758183062.8107784,-0.58349609375,0.10498046875,0.8125,-2.44140625,-0.9765625,-1.708984375,7.36083984375,35.4364013671875,-148.1671142578125
1758183062.8211687,-0.58056640625,0.109375,0.8125,-2.99072265625,-0.79345703125,-1.89208984375,7.3223876953125,35.430908203125,-148.1890869140625
1758183062.8307676,-0.58056640625,0.109375,0.8125,-2.99072265625,-0.79345703125,-1.89208984375,7.2784423828125,35.4254150390625,-148.216552734375
1758183062.840562,-0.57373046875,0.10595703125,0.8037109375,-0.732421875,-0.8544921875,-2.13623046875,7.2509765625,35.419921875,-148.238525390625
1758183062.8513134,-0.57373046875,0.10595703125,0.8037109375,-0.732421875,-0.8544921875,-2.13623046875,7.22900390625,35.4144287109375,-148.2659912109375
1758183062.860673,-0.56884765625,0.1005859375,0.8115234375,0.48828125,-1.03759765625,-2.3193359375,7.2125244140625,35.408935546875,-148.29345703125
1758183062.870763,-0.56884765625,0.1005859375,0.8115234375,0.48828125,-1.03759765625,-2.3193359375,7.2015380859375,35.39794921875,-148.326416015625
1758183062.8806748,-0.56787109375,0.09814453125,0.81689453125,-0.30517578125,-1.0986328125,-2.3193359375,7.18505859375,35.3924560546875,-148.3538818359375
1758183062.8914692,-0.56787109375,0.09814453125,0.81689453125,-0.30517578125,-1.0986328125,-2.3193359375,7.1685791015625,35.3814697265625,-148.3868408203125
1758183062.9005132,-0.572265625,0.099609375,0.8125,-0.91552734375,-1.15966796875,-2.44140625,7.1466064453125,35.3759765625,-148.4197998046875
1758183062.9108558,-0.572265625,0.099609375,0.8125,-0.91552734375,-1.15966796875,-2.44140625,7.119140625,35.364990234375,-148.4527587890625
1758183062.9210927,-0.56640625,0.091796875,0.81298828125,-0.8544921875,-1.3427734375,-2.685546875,7.0916748046875,35.35400390625,-148.4857177734375
1758183062.9312427,-0.56640625,0.091796875,0.81298828125,-0.8544921875,-1.3427734375,-2.685546875,7.064208984375,35.343017578125,-148.524169921875
1758183062.940614,-0.56884765625,0.09814453125,0.8232421875,-0.06103515625,-1.40380859375,-2.685546875,7.0367431640625,35.33203125,-148.5626220703125
1758183062.9509087,-0.56884765625,0.09814453125,0.8232421875,-0.06103515625,-1.40380859375,-2.685546875,7.020263671875,35.321044921875,-148.60107421875
1758183062.9612975,-0.5634765625,0.1005859375,0.81884765625,0.9765625,-1.3427734375,-2.86865234375,7.0037841796875,35.3045654296875,-148.6395263671875
1758183062.970849,-0.5634765625,0.1005859375,0.81884765625,0.9765625,-1.3427734375,-2.86865234375,6.9927978515625,35.2935791015625,-148.677978515625
1758183062.9808033,-0.56201171875,0.09765625,0.81591796875,0.91552734375,-1.46484375,-3.173828125,6.976318359375,35.2825927734375,-148.7164306640625
1758183062.9911056,-0.56201171875,0.09765625,0.81591796875,0.91552734375,-1.46484375,-3.173828125,6.96533203125,35.26611328125,-148.7603759765625
1758183063.001621,-0.568359375,0.10009765625,0.8203125,0.9765625,-1.40380859375,-3.41796875,6.9488525390625,35.255126953125,-148.8043212890625
1758183063.011389,-0.568359375,0.10009765625,0.8203125,0.9765625,-1.40380859375,-3.41796875,6.932373046875,35.244140625,-148.8482666015625
1758183063.0207872,-0.5703125,0.099609375,0.81640625,3.41796875,-1.64794921875,-3.96728515625,6.932373046875,35.2276611328125,-148.897705078125
1758183063.0312204,-0.5703125,0.099609375,0.81640625,3.41796875,-1.64794921875,-3.96728515625,6.932373046875,35.211181640625,-148.95263671875
1758183063.0417051,-0.5693359375,0.1005859375,0.81298828125,4.45556640625,-1.708984375,-4.39453125,6.943359375,35.2001953125,-149.007568359375
1758183063.050989,-0.5693359375,0.1005859375,0.81298828125,4.45556640625,-1.708984375,-4.39453125,6.954345703125,35.1837158203125,-149.0679931640625
1758183063.060837,-0.56689453125,0.10400390625,0.80419921875,2.8076171875,-1.953125,-4.638671875,6.9598388671875,35.167236328125,-149.12841796875
1758183063.071361,-0.56689453125,0.10400390625,0.80419921875,2.8076171875,-1.953125,-4.638671875,6.954345703125,35.1507568359375,-149.1888427734375
1758183063.0809004,-0.576171875,0.1064453125,0.81005859375,1.8310546875,-2.01416015625,-4.82177734375,6.943359375,35.13427734375,-149.249267578125
1758183063.091015,-0.576171875,0.1064453125,0.81005859375,1.8310546875,-2.01416015625,-4.82177734375,6.9268798828125,35.123291015625,-149.3096923828125
1758183063.1008935,-0.5888671875,0.10107421875,0.81494140625,2.99072265625,-1.8310546875,-5.06591796875,6.92138671875,35.1068115234375,-149.3756103515625
1758183063.1115324,-0.5888671875,0.10107421875,0.81494140625,2.99072265625,-1.8310546875,-5.06591796875,6.9158935546875,35.0958251953125,-149.43603515625
1758183063.1208744,-0.58544921875,0.095703125,0.80029296875,3.7841796875,-1.52587890625,-5.126953125,6.9158935546875,35.0848388671875,-149.501953125
1758183063.1311598,-0.58544921875,0.095703125,0.80029296875,3.7841796875,-1.52587890625,-5.126953125,6.92138671875,35.079345703125,-149.5623779296875
1758183063.141265,-0.5966796875,0.095703125,0.79443359375,3.2958984375,-1.40380859375,-5.126953125,6.9158935546875,35.068359375,-149.622802734375
1758183063.1512887,-0.5966796875,0.095703125,0.79443359375,3.2958984375,-1.40380859375,-5.126953125,6.910400390625,35.0628662109375,-149.6832275390625
1758183063.1609707,-0.59765625,0.09521484375,0.802734375,3.2958984375,-0.9765625,-5.126953125,6.910400390625,35.0628662109375,-149.74365234375
1758183063.171661,-0.59765625,0.09521484375,0.802734375,3.2958984375,-0.9765625,-5.126953125,6.9049072265625,35.0628662109375,-149.798583984375
1758183063.1810346,-0.59423828125,0.0947265625,0.802734375,4.638671875,-0.79345703125,-5.0048828125,6.9158935546875,35.068359375,-149.8590087890625
1758183063.1912386,-0.59423828125,0.0947265625,0.802734375,4.638671875,-0.79345703125,-5.0048828125,6.9268798828125,35.068359375,-149.9139404296875
1758183063.2016215,-0.58642578125,0.091796875,0.80224609375,5.31005859375,-0.91552734375,-4.69970703125,6.9488525390625,35.068359375,-149.9688720703125
1758183063.2112622,-0.58642578125,0.091796875,0.80224609375,5.31005859375,-0.91552734375,-4.69970703125,6.96533203125,35.068359375,-150.018310546875
1758183063.2210493,-0.58056640625,0.09423828125,0.79150390625,4.21142578125,-1.28173828125,-4.39453125,6.976318359375,35.068359375,-150.0732421875
1758183063.2312717,-0.58056640625,0.09423828125,0.79150390625,4.21142578125,-1.28173828125,-4.39453125,6.9873046875,35.0628662109375,-150.1226806640625
1758183063.2423267,-0.58056640625,0.09423828125,0.79150390625,2.25830078125,-1.5869140625,-4.0283203125,6.976318359375,35.057373046875,-150.172119140625
1758183063.2512243,-0.58740234375,0.10009765625,0.80078125,2.25830078125,-1.5869140625,-4.0283203125,6.9708251953125,35.0518798828125,-150.216064453125
1758183063.2611475,-0.587890625,0.09716796875,0.80712890625,0.91552734375,-1.708984375,-3.60107421875,6.954345703125,35.04638671875,-150.260009765625
1758183063.2720294,-0.587890625,0.09716796875,0.80712890625,0.91552734375,-1.708984375,-3.60107421875,6.9378662109375,35.035400390625,-150.2984619140625
1758183063.2814898,-0.58740234375,0.09423828125,0.8056640625,1.5869140625,-1.52587890625,-3.60107421875,6.9268798828125,35.0299072265625,-150.3424072265625
1758183063.291253,-0.58740234375,0.09423828125,0.8056640625,1.5869140625,-1.52587890625,-3.60107421875,6.9158935546875,35.0244140625,-150.380859375
1758183063.301205,-0.5771484375,0.09228515625,0.80322265625,3.35693359375,-1.40380859375,-3.662109375,6.92138671875,35.0244140625,-150.4248046875
1758183063.3118298,-0.5771484375,0.09228515625,0.80322265625,3.35693359375,-1.40380859375,-3.662109375,6.9268798828125,35.0189208984375,-150.4632568359375
1758183063.321135,-0.57958984375,0.09228515625,0.81298828125,4.08935546875,-1.46484375,-3.72314453125,6.9378662109375,35.013427734375,-150.5072021484375
1758183063.3313754,-0.57958984375,0.09228515625,0.81298828125,4.08935546875,-1.46484375,-3.72314453125,6.954345703125,35.0079345703125,-150.5511474609375
1758183063.3416572,-0.5673828125,0.10205078125,0.81591796875,4.150390625,-1.28173828125,-3.90625,6.96533203125,35.00244140625,-150.5950927734375
1758183063.351603,-0.5673828125,0.10205078125,0.81591796875,4.150390625,-1.28173828125,-3.90625,6.976318359375,34.9969482421875,-150.64453125
1758183063.3612554,-0.56884765625,0.10205078125,0.81787109375,2.99072265625,-1.03759765625,-3.662109375,6.976318359375,34.9969482421875,-150.6884765625
1758183063.371373,-0.56884765625,0.10205078125,0.81787109375,2.99072265625,-1.03759765625,-3.662109375,6.9818115234375,34.991455078125,-150.732421875
1758183063.3826187,-0.5703125,0.0966796875,0.8193359375,2.38037109375,-0.9765625,-3.5400390625,6.976318359375,34.9859619140625,-150.7763671875
1758183063.3913362,-0.5703125,0.0966796875,0.8193359375,2.38037109375,-0.9765625,-3.5400390625,6.976318359375,34.9859619140625,-150.8148193359375
1758183063.4011798,-0.56640625,0.09716796875,0.81298828125,4.08935546875,-0.79345703125,-3.662109375,6.9927978515625,34.98046875,-150.8587646484375
1758183063.412104,-0.56640625,0.09716796875,0.81298828125,4.08935546875,-0.79345703125,-3.662109375,7.0037841796875,34.98046875,-150.908203125
1758183063.4215438,-0.56298828125,0.09326171875,0.81689453125,6.2255859375,-0.79345703125,-3.5400390625,7.042236328125,34.9749755859375,-150.9466552734375
1758183063.4313843,-0.56298828125,0.09326171875,0.81689453125,6.2255859375,-0.79345703125,-3.5400390625,7.0751953125,34.9749755859375,-150.9906005859375
1758183063.4413245,-0.56396484375,0.08984375,0.826171875,5.126953125,-0.54931640625,-3.2958984375,7.1026611328125,34.969482421875,-151.0345458984375
1758183063.4519181,-0.56396484375,0.08984375,0.826171875,5.126953125,-0.54931640625,-3.2958984375,7.1246337890625,34.969482421875,-151.0784912109375
1758183063.4613452,-0.56201171875,0.09912109375,0.8212890625,3.96728515625,-0.30517578125,-3.11279296875,7.14111328125,34.969482421875,-151.116943359375
1758183063.4713817,-0.56201171875,0.09912109375,0.8212890625,3.96728515625,-0.30517578125,-3.11279296875,7.1575927734375,34.969482421875,-151.160888671875
1758183063.4819267,-0.5615234375,0.10009765625,0.814453125,5.2490234375,-0.244140625,-3.11279296875,7.18505859375,34.969482421875,-151.1993408203125
1758183063.4914975,-0.5615234375,0.10009765625,0.814453125,5.2490234375,-0.244140625,-3.11279296875,7.2125244140625,34.969482421875,-151.23779296875
1758183063.501358,-0.5556640625,0.1005859375,0.8203125,4.08935546875,-0.1220703125,-2.74658203125,7.22900390625,34.969482421875,-151.2762451171875
1758183063.511373,-0.5556640625,0.1005859375,0.8203125,4.08935546875,-0.1220703125,-2.74658203125,7.2509765625,34.969482421875,-151.3092041015625
1758183063.5226543,-0.556640625,0.1005859375,0.8291015625,2.5634765625,-0.18310546875,-2.5634765625,7.2564697265625,34.9639892578125,-151.34765625
1758183063.5313802,-0.556640625,0.1005859375,0.8291015625,2.5634765625,-0.18310546875,-2.5634765625,7.261962890625,34.9639892578125,-151.380615234375
1758183063.5413373,-0.55517578125,0.09912109375,0.82568359375,3.662109375,-0.3662109375,-2.50244140625,7.2784423828125,34.95849609375,-151.4190673828125
1758183063.551807,-0.55517578125,0.09912109375,0.82568359375,3.662109375,-0.3662109375,-2.50244140625,7.294921875,34.9530029296875,-151.4520263671875
1758183063.5619683,-0.556640625,0.10498046875,0.81787109375,3.84521484375,-0.54931640625,-2.0751953125,7.3114013671875,34.947509765625,-151.4849853515625
1758183063.5714405,-0.556640625,0.10498046875,0.81787109375,3.84521484375,-0.54931640625,-2.0751953125,7.3333740234375,34.9420166015625,-151.5179443359375
1758183063.5829923,-0.5654296875,0.1025390625,0.8115234375,2.86865234375,-0.732421875,-2.197265625,7.3443603515625,34.9310302734375,-151.5509033203125
1758183063.5915236,-0.5654296875,0.1025390625,0.8115234375,2.86865234375,-0.732421875,-2.197265625,7.3553466796875,34.925537109375,-151.5838623046875
1758183063.601463,-0.56884765625,0.10400390625,0.8134765625,2.01416015625,-0.732421875,-1.89208984375,7.36083984375,34.91455078125,-151.611328125
1758183063.6120079,-0.56884765625,0.10400390625,0.8134765625,2.01416015625,-0.732421875,-1.89208984375,7.3663330078125,34.9090576171875,-151.6387939453125
1758183063.6229157,-0.564453125,0.1044921875,0.82177734375,2.5634765625,-0.6103515625,-1.89208984375,7.371826171875,34.8980712890625,-151.666259765625
1758183063.631514,-0.564453125,0.1044921875,0.82177734375,2.5634765625,-0.6103515625,-1.89208984375,7.3828125,34.892578125,-151.6937255859375
1758183063.6425083,-0.56005859375,0.1005859375,0.81201171875,3.662109375,-0.3662109375,-1.708984375,7.40478515625,34.8870849609375,-151.72119140625
1758183063.6517277,-0.56005859375,0.1005859375,0.81201171875,3.662109375,-0.3662109375,-1.708984375,7.4267578125,34.881591796875,-151.7486572265625
1758183063.6626658,-0.5654296875,0.0986328125,0.81298828125,3.0517578125,-0.244140625,-1.46484375,7.44873046875,34.881591796875,-151.7706298828125
1758183063.6715188,-0.5654296875,0.0986328125,0.81298828125,3.0517578125,-0.244140625,-1.46484375,7.4652099609375,34.8760986328125,-151.7926025390625
1758183063.6816816,-0.5732421875,0.10107421875,0.81787109375,2.62451171875,-0.06103515625,-1.46484375,7.4761962890625,34.8760986328125,-151.8145751953125
1758183063.692028,-0.5732421875,0.10107421875,0.81787109375,2.62451171875,-0.06103515625,-1.46484375,7.49267578125,34.8760986328125,-151.8365478515625
1758183063.701931,-0.5625,0.10107421875,0.810546875,2.99072265625,0.06103515625,-1.28173828125,7.5091552734375,34.8760986328125,-151.85302734375
1758183063.7115283,-0.5625,0.10107421875,0.810546875,2.99072265625,0.06103515625,-1.28173828125,7.525634765625,34.8760986328125,-151.875
1758183063.721711,-0.56396484375,0.099609375,0.81982421875,4.21142578125,0.0,-1.40380859375,7.55859375,34.8760986328125,-151.89697265625
1758183063.732285,-0.56396484375,0.099609375,0.81982421875,4.21142578125,0.0,-1.40380859375,7.5860595703125,34.87060546875,-151.9134521484375
1758183063.7415924,-0.56640625,0.1044921875,0.81396484375,4.69970703125,0.06103515625,-1.46484375,7.6190185546875,34.87060546875,-151.9354248046875
1758183063.7516937,-0.56640625,0.1044921875,0.81396484375,4.69970703125,0.06103515625,-1.46484375,7.6519775390625,34.8760986328125,-151.9573974609375
1758183063.7627747,-0.55859375,0.11474609375,0.8134765625,2.86865234375,0.0,-1.40380859375,7.66845703125,34.87060546875,-151.9793701171875
1758183063.7717938,-0.55859375,0.11474609375,0.8134765625,2.86865234375,0.0,-1.40380859375,7.6849365234375,34.87060546875,-152.0013427734375
1758183063.781736,-0.56494140625,0.126953125,0.833984375,1.64794921875,0.06103515625,-1.15966796875,7.6904296875,34.87060546875,-152.017822265625
1758183063.7916875,-0.56494140625,0.126953125,0.833984375,1.64794921875,0.06103515625,-1.15966796875,7.6959228515625,34.87060546875,-152.039794921875
1758183063.8028636,-0.55908203125,0.11279296875,0.822265625,2.74658203125,0.06103515625,-1.0986328125,7.7178955078125,34.87060546875,-152.0562744140625
1758183063.8116171,-0.55908203125,0.11279296875,0.822265625,2.74658203125,0.06103515625,-1.0986328125,7.734375,34.8651123046875,-152.07275390625
1758183063.8217046,-0.5595703125,0.10302734375,0.81298828125,1.953125,0.0,-0.67138671875,7.7508544921875,34.8651123046875,-152.083740234375
1758183063.83263,-0.5595703125,0.10302734375,0.81298828125,1.953125,0.0,-0.67138671875,7.7618408203125,34.859619140625,-152.0947265625
1758183063.842004,-0.56005859375,0.10791015625,0.82275390625,0.79345703125,0.0,-0.67138671875,7.767333984375,34.859619140625,-152.1112060546875
1758183063.8516693,-0.56005859375,0.10791015625,0.82275390625,0.79345703125,0.0,-0.67138671875,7.767333984375,34.8541259765625,-152.1221923828125
1758183063.861886,-0.5673828125,0.10693359375,0.82666015625,0.79345703125,0.06103515625,-0.6103515625,7.767333984375,34.8541259765625,-152.1331787109375
1758183063.872524,-0.5673828125,0.10693359375,0.82666015625,0.79345703125,0.06103515625,-0.6103515625,7.7728271484375,34.8541259765625,-152.1441650390625
1758183063.881955,-0.57080078125,0.1103515625,0.822265625,2.197265625,0.06103515625,-0.67138671875,7.7838134765625,34.8486328125,-152.16064453125
1758183063.8917518,-0.57080078125,0.1103515625,0.822265625,2.197265625,0.06103515625,-0.67138671875,7.80029296875,34.8486328125,-152.171630859375
1758183063.9028697,-0.57080078125,0.1142578125,0.81591796875,3.60107421875,0.0,-0.732421875,7.833251953125,34.8431396484375,-152.1826171875
1758183063.9134064,-0.57080078125,0.1142578125,0.81591796875,3.60107421875,0.0,-0.732421875,7.8607177734375,34.8431396484375,-152.1990966796875
1758183063.9218996,-0.58642578125,0.10498046875,0.81396484375,2.44140625,0.0,-0.48828125,7.877197265625,34.8431396484375,-152.20458984375
1758183063.9318507,-0.58642578125,0.10498046875,0.81396484375,2.44140625,0.0,-0.48828125,7.899169921875,34.8431396484375,-152.215576171875
1758183063.9428244,-0.59130859375,0.1220703125,0.8017578125,-1.708984375,-0.06103515625,-0.1220703125,7.877197265625,34.837646484375,-152.215576171875
1758183063.9523957,-0.59130859375,0.1220703125,0.8017578125,-1.708984375,-0.06103515625,-0.1220703125,7.8607177734375,34.837646484375,-152.2210693359375
1758183063.9618566,-0.59228515625,0.119140625,0.80322265625,-3.72314453125,-0.30517578125,-0.30517578125,7.822265625,34.837646484375,-152.2210693359375
1758183063.9719834,-0.59228515625,0.119140625,0.80322265625,-3.72314453125,-0.30517578125,-0.30517578125,7.7838134765625,34.837646484375,-152.2210693359375
1758183063.982632,-0.59716796875,0.1103515625,0.8017578125,-3.96728515625,-0.3662109375,-0.06103515625,7.7398681640625,34.8321533203125,-152.2210693359375
1758183063.9917445,-0.59716796875,0.1103515625,0.8017578125,-3.96728515625,-0.3662109375,-0.06103515625,7.701416015625,34.8321533203125,-152.2210693359375
1758183064.0023863,-0.591796875,0.1083984375,0.7919921875,-2.86865234375,-0.54931640625,-0.18310546875,7.6739501953125,34.8321533203125,-152.215576171875
1758183064.0121694,-0.591796875,0.1083984375,0.7919921875,-2.86865234375,-0.54931640625,-0.18310546875,7.6409912109375,34.8321533203125,-152.215576171875
1758183064.0219123,-0.58447265625,0.10791015625,0.79150390625,-2.9296875,-0.79345703125,0.0,7.613525390625,34.82666015625,-152.215576171875
1758183064.0320182,-0.58447265625,0.10791015625,0.79150390625,-2.9296875,-0.79345703125,0.0,7.5860595703125,34.82666015625,-152.2100830078125
1758183064.043006,-0.58837890625,0.10546875,0.79931640625,-3.7841796875,-0.91552734375,0.0,7.547607421875,34.8211669921875,-152.20458984375
1758183064.0519266,-0.58837890625,0.10546875,0.79931640625,-3.7841796875,-0.91552734375,0.0,7.5146484375,34.815673828125,-152.1990966796875
1758183064.0619566,-0.580078125,0.107421875,0.79833984375,-4.33349609375,-1.03759765625,0.0,7.470703125,34.815673828125,-152.193603515625
1758183064.0720177,-0.580078125,0.107421875,0.79833984375,-4.33349609375,-1.03759765625,0.0,7.4267578125,34.8101806640625,-152.193603515625
1758183064.08334,-0.58544921875,0.109375,0.8046875,-4.5166015625,-0.8544921875,-0.06103515625,7.3828125,34.8046875,-152.1881103515625
1758183064.091964,-0.58544921875,0.109375,0.8046875,-4.5166015625,-0.8544921875,-0.06103515625,7.3388671875,34.8046875,-152.1826171875
1758183064.102048,-0.583984375,0.1083984375,0.8056640625,-3.84521484375,-0.9765625,-0.18310546875,7.3004150390625,34.7991943359375,-152.1771240234375
1758183064.1126692,-0.583984375,0.1083984375,0.8056640625,-3.84521484375,-0.9765625,-0.18310546875,7.261962890625,34.793701171875,-152.171630859375
1758183064.1227493,-0.57470703125,0.09375,0.80029296875,-2.197265625,-0.732421875,-0.3662109375,7.239990234375,34.793701171875,-152.171630859375
1758183064.1320581,-0.57763671875,0.08984375,0.80712890625,-0.8544921875,-0.732421875,-0.67138671875,7.2235107421875,34.793701171875,-152.171630859375
1758183064.1424396,-0.57763671875,0.08984375,0.80712890625,-0.8544921875,-0.732421875,-0.67138671875,7.2125244140625,34.793701171875,-152.1771240234375
1758183064.1528242,-0.57421875,0.0947265625,0.82373046875,3.41796875,-0.732421875,-1.03759765625,7.218017578125,34.793701171875,-152.1826171875
1758183064.162501,-0.57421875,0.0947265625,0.82373046875,3.41796875,-0.732421875,-1.03759765625,7.2454833984375,34.7882080078125,-152.193603515625
1758183064.1720781,-0.5703125,0.10107421875,0.81298828125,6.4697265625,-0.67138671875,-1.3427734375,7.283935546875,34.7882080078125,-152.20458984375
1758183064.1831264,-0.5703125,0.10107421875,0.81298828125,6.4697265625,-0.67138671875,-1.3427734375,7.3388671875,34.7882080078125,-152.215576171875
1758183064.1926165,-0.5712890625,0.10595703125,0.81005859375,6.34765625,-0.54931640625,-1.8310546875,7.3883056640625,34.7882080078125,-152.2320556640625
1758183064.2024386,-0.5712890625,0.10595703125,0.81005859375,6.34765625,-0.54931640625,-1.8310546875,7.437744140625,34.7882080078125,-152.2540283203125
1758183064.2121994,-0.56884765625,0.11328125,0.81005859375,6.77490234375,-0.54931640625,-2.0751953125,7.4871826171875,34.7882080078125,-152.2760009765625
1758183064.2234209,-0.56884765625,0.11328125,0.81005859375,6.77490234375,-0.54931640625,-2.0751953125,7.5421142578125,34.7882080078125,-152.2979736328125
1758183064.232226,-0.5703125,0.10986328125,0.8212890625,9.33837890625,-0.42724609375,-2.5634765625,7.6025390625,34.7882080078125,-152.325439453125
1758183064.2478254,-0.5703125,0.10986328125,0.8212890625,9.33837890625,-0.42724609375,-2.5634765625,7.679443359375,34.7882080078125,-152.3529052734375
1758183064.2579982,-0.57373046875,0.1044921875,0.8154296875,10.07080078125,-0.3662109375,-2.99072265625,7.7508544921875,34.7882080078125,-152.3858642578125
1758183064.265449,-0.57373046875,0.1044921875,0.8154296875,10.07080078125,-0.3662109375,-2.99072265625,7.8277587890625,34.793701171875,-152.42431640625
1758183064.2728553,-0.5771484375,0.11767578125,0.80322265625,8.36181640625,-0.3662109375,-3.47900390625,7.899169921875,34.793701171875,-152.4627685546875
1758183064.2853436,-0.5771484375,0.11767578125,0.80322265625,8.36181640625,-0.3662109375,-3.47900390625,7.9541015625,34.7991943359375,-152.501220703125
1758183064.2937229,-0.5703125,0.1455078125,0.8076171875,7.87353515625,-0.48828125,-3.72314453125,8.009033203125,34.7991943359375,-152.545166015625
1758183064.3025649,-0.5703125,0.1455078125,0.8076171875,7.87353515625,-0.48828125,-3.72314453125,8.0584716796875,34.8046875,-152.589111328125
1758183064.3122337,-0.58251953125,0.12744140625,0.814453125,7.568359375,-0.42724609375,-4.08935546875,8.10791015625,34.8046875,-152.633056640625
1758183064.3235583,-0.58251953125,0.12744140625,0.814453125,7.568359375,-0.42724609375,-4.08935546875,8.1573486328125,34.8101806640625,-152.6824951171875
1758183064.3323905,-0.58447265625,0.11669921875,0.80859375,6.591796875,-0.6103515625,-3.84521484375,8.2012939453125,34.8101806640625,-152.7264404296875
1758183064.342438,-0.58447265625,0.11669921875,0.80859375,6.591796875,-0.6103515625,-3.84521484375,8.23974609375,34.8101806640625,-152.7703857421875
1758183064.3524284,-0.576171875,0.11572265625,0.79931640625,5.79833984375,-0.732421875,-4.0283203125,8.272705078125,34.815673828125,-152.8143310546875
1758183064.363397,-0.576171875,0.11572265625,0.79931640625,5.79833984375,-0.732421875,-4.0283203125,8.3001708984375,34.815673828125,-152.8582763671875
1758183064.3722935,-0.572265625,0.115234375,0.80224609375,5.43212890625,-0.9765625,-4.0283203125,8.32763671875,34.815673828125,-152.9022216796875
1758183064.3826041,-0.572265625,0.115234375,0.80224609375,5.43212890625,-0.9765625,-4.0283203125,8.349609375,34.815673828125,-152.95166015625
1758183064.393496,-0.5712890625,0.11572265625,0.81884765625,4.5166015625,-1.15966796875,-3.84521484375,8.37158203125,34.8101806640625,-152.99560546875
1758183064.402776,-0.5712890625,0.11572265625,0.81884765625,4.5166015625,-1.15966796875,-3.84521484375,8.3880615234375,34.8046875,-153.03955078125
1758183064.4123027,-0.56689453125,0.1181640625,0.81591796875,2.8076171875,-1.28173828125,-3.5400390625,8.3990478515625,34.8046875,-153.08349609375
1758183064.4233096,-0.56689453125,0.1181640625,0.81591796875,2.8076171875,-1.28173828125,-3.5400390625,8.3990478515625,34.793701171875,-153.12744140625
1758183064.4324121,-0.5703125,0.1181640625,0.8076171875,2.3193359375,-1.52587890625,-3.35693359375,8.3990478515625,34.7882080078125,-153.17138671875
1758183064.4426575,-0.5703125,0.1181640625,0.8076171875,2.3193359375,-1.52587890625,-3.35693359375,8.3935546875,34.7772216796875,-153.2098388671875
1758183064.4532053,-0.57080078125,0.11669921875,0.81787109375,3.90625,-1.52587890625,-3.173828125,8.3990478515625,34.771728515625,-153.2537841796875
1758183064.4629161,-0.57080078125,0.11669921875,0.81787109375,3.90625,-1.52587890625,-3.173828125,8.41552734375,34.7607421875,-153.292236328125
1758183064.4724808,-0.5693359375,0.11083984375,0.82177734375,5.43212890625,-1.40380859375,-2.9296875,8.4375,34.749755859375,-153.3306884765625
1758183064.4827437,-0.5693359375,0.11083984375,0.82177734375,5.43212890625,-1.40380859375,-2.9296875,8.470458984375,34.7442626953125,-153.369140625
1758183064.4933805,-0.56640625,0.11279296875,0.806640625,4.8828125,-1.40380859375,-2.5634765625,8.4979248046875,34.7332763671875,-153.4075927734375
1758183064.502803,-0.56640625,0.11279296875,0.806640625,4.8828125,-1.40380859375,-2.5634765625,8.525390625,34.7222900390625,-153.446044921875
1758183064.5129323,-0.56103515625,0.12060546875,0.81298828125,3.2958984375,-1.28173828125,-2.197265625,8.54736328125,34.716796875,-153.47900390625
1758183064.523131,-0.56103515625,0.12060546875,0.81298828125,3.2958984375,-1.28173828125,-2.197265625,8.558349609375,34.705810546875,-153.5064697265625
1758183064.5334935,-0.55908203125,0.12060546875,0.82470703125,2.74658203125,-1.15966796875,-1.8310546875,8.5748291015625,34.7003173828125,-153.533935546875
1758183064.5427175,-0.55908203125,0.12060546875,0.82470703125,2.74658203125,-1.15966796875,-1.8310546875,8.5858154296875,34.6893310546875,-153.5614013671875
1758183064.5526607,-0.55615234375,0.119140625,0.81884765625,3.41796875,-1.220703125,-1.5869140625,8.5968017578125,34.6783447265625,-153.5888671875
1758183064.5642507,-0.55615234375,0.119140625,0.81884765625,3.41796875,-1.220703125,-1.5869140625,8.6187744140625,34.6673583984375,-153.61083984375
1758183064.5726705,-0.5556640625,0.11279296875,0.82373046875,3.662109375,-0.91552734375,-1.220703125,8.6407470703125,34.6563720703125,-153.6383056640625
1758183064.5828702,-0.5556640625,0.11279296875,0.82373046875,3.662109375,-0.91552734375,-1.220703125,8.6627197265625,34.65087890625,-153.65478515625
1758183064.5935464,-0.56201171875,0.1162109375,0.82470703125,3.84521484375,-0.67138671875,-1.0986328125,8.690185546875,34.639892578125,-153.6767578125
1758183064.6028993,-0.56201171875,0.1162109375,0.82470703125,3.84521484375,-0.67138671875,-1.0986328125,8.7176513671875,34.6343994140625,-153.69873046875
1758183064.6125844,-0.55859375,0.1171875,0.8125,5.37109375,-0.42724609375,-0.9765625,8.7506103515625,34.62890625,-153.7152099609375
1758183064.6230094,-0.55859375,0.1171875,0.8125,5.37109375,-0.42724609375,-0.9765625,8.7945556640625,34.6234130859375,-153.731689453125
1758183064.6335688,-0.56103515625,0.126953125,0.82666015625,7.38525390625,-0.18310546875,-0.9765625,8.843994140625,34.617919921875,-153.753662109375
1758183064.6428833,-0.56103515625,0.126953125,0.82666015625,7.38525390625,-0.18310546875,-0.9765625,8.909912109375,34.617919921875,-153.7701416015625
1758183064.6527793,-0.55615234375,0.12353515625,0.82568359375,8.30078125,0.0,-0.9765625,8.975830078125,34.6124267578125,-153.78662109375
1758183064.6634834,-0.55615234375,0.12353515625,0.82568359375,8.30078125,0.0,-0.9765625,9.0472412109375,34.6124267578125,-153.80859375
1758183064.6729665,-0.55712890625,0.13232421875,0.81982421875,7.32421875,0.0,-0.67138671875,9.11865234375,34.6124267578125,-153.8250732421875
1758183064.6829572,-0.55712890625,0.13232421875,0.81982421875,7.32421875,0.0,-0.67138671875,9.1790771484375,34.60693359375,-153.841552734375
1758183064.6929626,-0.55712890625,0.134765625,0.81298828125,7.50732421875,0.06103515625,-0.8544921875,9.2449951171875,34.60693359375,-153.8580322265625
1758183064.703523,-0.55712890625,0.134765625,0.81298828125,7.50732421875,0.06103515625,-0.8544921875,9.3109130859375,34.60693359375,-153.87451171875
1758183064.71273,-0.548828125,0.13671875,0.82080078125,7.14111328125,-0.244140625,-0.67138671875,9.371337890625,34.6014404296875,-153.8909912109375
1758183064.7230928,-0.548828125,0.13671875,0.82080078125,7.14111328125,-0.244140625,-0.67138671875,9.437255859375,34.595947265625,-153.907470703125
1758183064.7336035,-0.5498046875,0.1513671875,0.8232421875,7.8125,-0.18310546875,-0.42724609375,9.503173828125,34.5904541015625,-153.91845703125
1758183064.74299,-0.5498046875,0.1513671875,0.8232421875,7.8125,-0.18310546875,-0.42724609375,9.5745849609375,34.5849609375,-153.9349365234375
1758183064.752882,-0.55712890625,0.1328125,0.80712890625,8.6669921875,-0.244140625,-0.48828125,9.6514892578125,34.5794677734375,-153.9459228515625
1758183064.763482,-0.55712890625,0.1328125,0.80712890625,8.6669921875,-0.244140625,-0.48828125,9.7283935546875,34.573974609375,-153.96240234375
1758183064.77344,-0.55712890625,0.1328125,0.80712890625,8.30078125,-0.3662109375,-0.244140625,9.8052978515625,34.5684814453125,-153.973388671875
1758183064.7831156,-0.56005859375,0.12744140625,0.81689453125,8.30078125,-0.3662109375,-0.244140625,9.8822021484375,34.56298828125,-153.984375
1758183064.7929952,-0.55810546875,0.1279296875,0.82763671875,9.8876953125,-0.244140625,-0.54931640625,9.964599609375,34.5574951171875,-153.995361328125
1758183064.8036413,-0.55810546875,0.1279296875,0.82763671875,9.8876953125,-0.244140625,-0.54931640625,10.052490234375,34.552001953125,-154.0118408203125
1758183064.8135543,-0.55712890625,0.13134765625,0.80810546875,10.009765625,-0.244140625,-0.3662109375,10.1458740234375,34.5465087890625,-154.0283203125
1758183064.823194,-0.55712890625,0.13134765625,0.80810546875,10.009765625,-0.244140625,-0.3662109375,10.2337646484375,34.541015625,-154.0447998046875
1758183064.8337028,-0.560546875,0.14111328125,0.81298828125,11.04736328125,-0.30517578125,-0.48828125,10.3271484375,34.5355224609375,-154.0557861328125
1758183064.843668,-0.560546875,0.14111328125,0.81298828125,11.04736328125,-0.30517578125,-0.48828125,10.426025390625,34.530029296875,-154.072265625
1758183064.8531065,-0.56787109375,0.1494140625,0.814453125,12.5732421875,-0.18310546875,-0.42724609375,10.535888671875,34.5245361328125,-154.0887451171875
1758183064.8637385,-0.56787109375,0.1494140625,0.814453125,12.5732421875,-0.18310546875,-0.42724609375,10.6512451171875,34.51904296875,-154.105224609375
1758183064.8732243,-0.5673828125,0.1513671875,0.806640625,12.14599609375,-0.18310546875,-0.48828125,10.7611083984375,34.51904296875,-154.1162109375
1758183064.8833373,-0.5673828125,0.1513671875,0.806640625,12.14599609375,-0.18310546875,-0.48828125,10.8709716796875,34.5135498046875,-154.1326904296875
1758183064.8935418,-0.56884765625,0.1513671875,0.80615234375,13.18359375,-0.06103515625,-0.54931640625,10.986328125,34.5135498046875,-154.149169921875
1758183064.9034514,-0.56884765625,0.1513671875,0.80615234375,13.18359375,-0.06103515625,-0.54931640625,11.107177734375,34.5135498046875,-154.16015625
1758183064.9129305,-0.57568359375,0.15576171875,0.79931640625,15.380859375,-0.1220703125,-0.732421875,11.239013671875,34.5135498046875,-154.1766357421875
1758183064.923334,-0.57568359375,0.15576171875,0.79931640625,15.380859375,-0.1220703125,-0.732421875,11.3763427734375,34.508056640625,-154.193115234375
1758183064.9338522,-0.5791015625,0.166015625,0.80615234375,15.625,-0.18310546875,-0.79345703125,11.5191650390625,34.508056640625,-154.2095947265625
1758183064.9432306,-0.5791015625,0.166015625,0.80615234375,15.625,-0.18310546875,-0.79345703125,11.6619873046875,34.508056640625,-154.22607421875
1758183064.9531422,-0.57275390625,0.16552734375,0.7978515625,12.939453125,0.0,-0.9765625,11.788330078125,34.5135498046875,-154.2425537109375
1758183064.9636757,-0.57275390625,0.16552734375,0.7978515625,12.939453125,0.0,-0.9765625,11.9036865234375,34.5135498046875,-154.259033203125
1758183064.9734848,-0.572265625,0.1806640625,0.79931640625,12.6953125,-0.1220703125,-1.0986328125,12.01904296875,34.51904296875,-154.281005859375
1758183064.9831667,-0.572265625,0.1806640625,0.79931640625,12.6953125,-0.1220703125,-1.0986328125,12.12890625,34.51904296875,-154.2974853515625
