timestamp,acc_x,acc_y,acc_z,gyro_x,gyro_y,gyro_z,angle_x,angle_y,angle_z
1758876156.7144508,-0.53662109375,-0.83154296875,1.1865234375,173.27880859375,-4.5166015625,1.953125,-8.2891845703125,40.968017578125,-5.73486328125
1758876156.7241893,-0.57080078125,0.1142578125,0.7587890625,-5.9814453125,-17.822265625,3.23486328125,-7.4981689453125,40.869140625,-5.855712890625
1758876156.7340086,-0.57080078125,0.1142578125,0.7587890625,-5.9814453125,-17.822265625,3.23486328125,-7.5750732421875,40.704345703125,-5.9381103515625
1758876156.7596824,-0.68212890625,0.23046875,1.123046875,-86.9140625,-13.671875,2.8076171875,-8.0419921875,40.5560302734375,-6.0150146484375
1758876156.7666674,-0.68212890625,0.23046875,1.123046875,-86.9140625,-13.671875,2.8076171875,-8.887939453125,40.4241943359375,-6.0699462890625
1758876156.773784,-0.515625,-0.03125,0.3134765625,-42.17529296875,-12.51220703125,6.53076171875,-9.481201171875,40.2923583984375,-6.0809326171875
1758876156.7811084,-0.515625,-0.03125,0.3134765625,-42.17529296875,-12.51220703125,6.53076171875,-9.832763671875,40.177001953125,-6.0699462890625
1758876156.788197,-0.63427734375,-0.2822265625,0.79833984375,62.80517578125,-11.04736328125,-1.15966796875,-9.6844482421875,40.0726318359375,-6.119384765625
1758876156.7949364,-0.63427734375,-0.2822265625,0.79833984375,62.80517578125,-11.04736328125,-1.15966796875,-9.063720703125,39.9627685546875,-6.21826171875
1758876156.8037689,-0.45947265625,-0.32861328125,0.17919921875,65.24658203125,0.1220703125,-4.39453125,-8.45947265625,39.913330078125,-6.3665771484375
1758876156.8138576,-0.45947265625,-0.32861328125,0.17919921875,65.24658203125,0.1220703125,-4.39453125,-7.877197265625,39.9188232421875,-6.558837890625
1758876156.823814,-0.86328125,-0.25048828125,1.4228515625,76.72119140625,-7.8125,-13.3056640625,-7.2784423828125,39.891357421875,-6.8115234375
1758876156.8338172,-0.86328125,-0.25048828125,1.4228515625,76.72119140625,-7.8125,-13.3056640625,-6.65771484375,39.803466796875,-7.108154296875
1758876156.84375,-0.6962890625,-0.17431640625,1.07568359375,20.5078125,-2.74658203125,-7.14111328125,-6.3006591796875,39.7430419921875,-7.36083984375
1758876156.8537922,-0.6962890625,-0.17431640625,1.07568359375,20.5078125,-2.74658203125,-7.14111328125,-6.1962890625,39.70458984375,-7.5750732421875
1758876156.8644521,-0.64501953125,0.04345703125,0.45556640625,-7.568359375,-6.591796875,-10.3759765625,-6.240234375,39.6441650390625,-7.80029296875
1758876156.8737977,-0.64501953125,0.04345703125,0.45556640625,-7.568359375,-6.591796875,-10.3759765625,-6.427001953125,39.5672607421875,-8.0419921875
1758876156.8839767,-0.59912109375,-0.0166015625,0.48828125,-32.2265625,-6.103515625,-12.20703125,-6.734619140625,39.5013427734375,-8.294677734375
1758876156.8953428,-0.59912109375,-0.0166015625,0.48828125,-32.2265625,-6.103515625,-12.20703125,-7.1685791015625,39.4354248046875,-8.5528564453125
1758876156.904032,-0.7705078125,-0.072265625,0.5302734375,21.484375,-5.79833984375,-12.14599609375,-7.327880859375,39.3804931640625,-8.8165283203125
1758876156.913884,-0.7705078125,-0.072265625,0.5302734375,21.484375,-5.79833984375,-12.14599609375,-7.2125244140625,39.3310546875,-9.0802001953125
1758876156.9239385,-0.8515625,-0.3701171875,0.828125,85.99853515625,-3.90625,-14.2822265625,-6.78955078125,39.298095703125,-9.3658447265625
1758876156.9339323,-0.8515625,-0.3701171875,0.828125,85.99853515625,-3.90625,-14.2822265625,-6.064453125,39.276123046875,-9.6734619140625
1758876156.9439304,-0.833984375,-0.271484375,0.84912109375,75.5615234375,-4.33349609375,-17.822265625,-5.482177734375,39.2486572265625,-10.0360107421875
1758876156.954002,-0.833984375,-0.271484375,0.84912109375,75.5615234375,-4.33349609375,-17.822265625,-4.9053955078125,39.2266845703125,-10.3985595703125
1758876156.9641101,-1.4833984375,0.01318359375,1.291015625,31.1279296875,-14.2822265625,-19.71435546875,-4.7735595703125,39.1058349609375,-10.7720947265625
1758876156.9739432,-1.4833984375,0.01318359375,1.291015625,31.1279296875,-14.2822265625,-19.71435546875,-4.63623046875,38.990478515625,-11.14013671875
1758876156.9839628,-0.5263671875,0.2763671875,0.3681640625,-55.72509765625,3.84521484375,-9.46044921875,-5.2734375,39.0673828125,-11.3818359375
1758876156.993974,-0.5263671875,0.2763671875,0.3681640625,-55.72509765625,3.84521484375,-9.46044921875,-5.899658203125,39.1387939453125,-11.6180419921875
1758876157.003989,-0.642578125,-0.12451171875,-0.48046875,22.705078125,-4.82177734375,-11.53564453125,-5.745849609375,39.144287109375,-11.876220703125
1758876157.014016,-0.642578125,-0.12451171875,-0.48046875,22.705078125,-4.82177734375,-11.53564453125,-5.592041015625,39.17724609375,-12.15087890625
1758876157.0239716,-0.71826171875,-0.16259765625,0.53076171875,36.31591796875,6.40869140625,-14.70947265625,-5.33935546875,39.3255615234375,-12.4859619140625
1758876157.0339742,-0.71826171875,-0.16259765625,0.53076171875,36.31591796875,6.40869140625,-14.70947265625,-5.0921630859375,39.4683837890625,-12.8265380859375
1758876157.0439966,-0.67333984375,-0.212890625,0.7578125,15.07568359375,9.27734375,-6.77490234375,-5.009765625,39.6441650390625,-13.062744140625
1758876157.0541074,-0.67333984375,-0.212890625,0.7578125,15.07568359375,9.27734375,-6.77490234375,-4.9273681640625,39.814453125,-13.3099365234375
1758876157.0640502,-0.93603515625,-0.408203125,0.81640625,135.009765625,4.5166015625,-10.68115234375,-3.69140625,39.9298095703125,-13.6065673828125
1758876157.074003,-0.93603515625,-0.408203125,0.81640625,135.009765625,4.5166015625,-10.68115234375,-2.471923828125,40.045166015625,-13.90869140625
1758876157.0841162,-0.89404296875,-0.20166015625,0.96728515625,98.81591796875,6.103515625,-8.11767578125,-1.60400390625,40.177001953125,-14.183349609375
1758876157.094061,-0.89404296875,-0.20166015625,0.96728515625,98.81591796875,6.103515625,-8.11767578125,-0.7415771484375,40.3033447265625,-14.4580078125
1758876157.1040647,-1.01123046875,-0.06494140625,1.0517578125,123.10791015625,-1.52587890625,-10.986328125,0.3350830078125,40.3472900390625,-14.7601318359375
1758876157.1140838,-1.01123046875,-0.06494140625,1.0517578125,123.10791015625,-1.52587890625,-10.986328125,1.417236328125,40.3912353515625,-15.062255859375
1758876157.1240814,-0.38720703125,-0.21728515625,0.04833984375,111.6943359375,11.65771484375,-9.33837890625,2.39501953125,40.572509765625,-15.3424072265625
1758876157.134127,-0.38720703125,-0.21728515625,0.04833984375,111.6943359375,11.65771484375,-9.33837890625,3.36181640625,40.770263671875,-15.6390380859375
1758876157.1441875,-0.59228515625,0.0234375,0.1708984375,44.5556640625,6.89697265625,-11.3525390625,3.6419677734375,40.924072265625,-15.963134765625
1758876157.154148,-0.59228515625,0.0234375,0.1708984375,44.5556640625,6.89697265625,-11.3525390625,3.93310546875,41.0888671875,-16.2872314453125
1758876157.164185,-0.70947265625,0.29150390625,0.6552734375,-48.15673828125,13.427734375,-5.31005859375,3.36181640625,41.30859375,-16.5069580078125
1758876157.174106,-0.70947265625,0.29150390625,0.6552734375,-48.15673828125,13.427734375,-5.31005859375,2.8125,41.517333984375,-16.7156982421875
1758876157.1841602,-0.591796875,0.26806640625,0.71435546875,-84.41162109375,11.1083984375,4.57763671875,1.99951171875,41.6876220703125,-16.7706298828125
1758876157.1941504,-0.591796875,0.26806640625,0.71435546875,-84.41162109375,11.1083984375,4.57763671875,1.20849609375,41.846923828125,-16.8145751953125
1758876157.2041626,-0.74169921875,0.04541015625,0.59912109375,-43.02978515625,13.427734375,4.33349609375,0.8294677734375,42.0281982421875,-16.8585205078125
1758876157.2141452,-0.74169921875,0.04541015625,0.59912109375,-43.02978515625,13.427734375,4.33349609375,0.450439453125,42.20947265625,-16.89697265625
1758876157.2221272,-0.74169921875,0.04541015625,0.59912109375,-43.02978515625,13.427734375,4.33349609375,114.3731689453125,-13.7164306640625,-5.03173828125
1758876157.2241945,-0.74169921875,0.04541015625,0.59912109375,62.6220703125,-0.18310546875,-3.47900390625,1.0382080078125,42.2479248046875,-17.0562744140625
1758876157.2341852,-1.21923828125,-0.447265625,1.6064453125,62.6220703125,-0.18310546875,-3.47900390625,1.60400390625,42.275390625,-17.2265625
1758876157.2442136,-0.4482421875,-0.1142578125,0.5361328125,88.0126953125,11.71875,-1.953125,2.4334716796875,42.4127197265625,-17.369384765625
1758876157.2542224,-0.4482421875,-0.1142578125,0.5361328125,88.0126953125,11.71875,-1.953125,3.251953125,42.5555419921875,-17.5177001953125
1758876157.264216,-0.857421875,0.265625,0.21044921875,49.13330078125,5.126953125,0.48828125,3.71337890625,42.637939453125,-17.633056640625
1758876157.2742543,-0.857421875,0.265625,0.21044921875,49.13330078125,5.126953125,0.48828125,4.185791015625,42.73681640625,-17.742919921875
1758876157.2842402,-1.3818359375,0.38525390625,0.9765625,46.44775390625,0.6103515625,3.60107421875,4.6746826171875,42.7862548828125,-17.7978515625
1758876157.2943428,-1.3818359375,0.38525390625,0.9765625,46.44775390625,0.6103515625,3.60107421875,5.1800537109375,42.8411865234375,-17.8363037109375
1758876157.304325,-1.11083984375,-0.0302734375,0.84326171875,23.49853515625,-2.13623046875,0.244140625,5.416259765625,42.86865234375,-17.9296875
1758876157.314463,-1.11083984375,-0.0302734375,0.84326171875,23.49853515625,-2.13623046875,0.244140625,5.6524658203125,42.901611328125,-18.028564453125
1758876157.3245606,-0.63330078125,-0.1201171875,0.87548828125,1.40380859375,-2.3193359375,1.3427734375,5.6689453125,42.923583984375,-18.116455078125
1758876157.3344166,-0.63330078125,-0.1201171875,0.87548828125,1.40380859375,-2.3193359375,1.3427734375,5.679931640625,42.9400634765625,-18.2098388671875
1758876157.344443,-0.43798828125,-0.0009765625,0.24560546875,0.48828125,-2.38037109375,-0.79345703125,5.657958984375,42.95654296875,-18.336181640625
1758876157.3543825,-0.43798828125,-0.0009765625,0.24560546875,0.48828125,-2.38037109375,-0.79345703125,5.635986328125,42.978515625,-18.4625244140625
1758876157.3644555,-0.41845703125,0.12646484375,0.31884765625,6.591796875,0.54931640625,-3.23486328125,5.657958984375,43.033447265625,-18.61083984375
1758876157.3744156,-0.41845703125,0.12646484375,0.31884765625,6.591796875,0.54931640625,-3.23486328125,5.6854248046875,43.08837890625,-18.753662109375
1758876157.3843815,-0.40087890625,0.28515625,0.4755859375,-30.3955078125,6.591796875,-2.8076171875,5.3668212890625,43.1927490234375,-18.87451171875
1758876157.3944345,-0.40087890625,0.28515625,0.4755859375,-30.3955078125,6.591796875,-2.8076171875,5.0592041015625,43.2916259765625,-18.973388671875
1758876157.4044535,-1.00341796875,0.5341796875,1.24755859375,-96.0693359375,-1.40380859375,0.18310546875,4.1363525390625,43.3026123046875,-19.0228271484375
1758876157.4144435,-1.00341796875,0.5341796875,1.24755859375,-96.0693359375,-1.40380859375,0.18310546875,3.22998046875,43.297119140625,-19.0557861328125
1758876157.4244697,-0.8466796875,0.12451171875,1.32080078125,-93.20068359375,-6.591796875,2.13623046875,2.373046875,43.2366943359375,-19.05029296875
1758876157.4345183,-0.8466796875,0.12451171875,1.32080078125,-93.20068359375,-6.591796875,2.13623046875,1.51611328125,43.1597900390625,-19.0447998046875
1758876157.4445882,-0.39990234375,-0.21142578125,0.4267578125,-69.15283203125,-3.11279296875,5.859375,0.9283447265625,43.121337890625,-18.995361328125
1758876157.4545348,-0.39990234375,-0.21142578125,0.4267578125,-69.15283203125,-3.11279296875,5.859375,0.32958984375,43.0828857421875,-18.951416015625
1758876157.464482,-0.6025390625,-0.25927734375,0.3662109375,-5.7373046875,-3.47900390625,-1.953125,0.28564453125,43.0499267578125,-19.0228271484375
1758876157.4749942,-0.6025390625,-0.25927734375,0.3662109375,-5.7373046875,-3.47900390625,-1.953125,0.2252197265625,43.0224609375,-19.1162109375
1758876157.4847898,-1.1162109375,-0.306640625,0.93359375,113.70849609375,-6.77490234375,-4.33349609375,1.3128662109375,42.967529296875,-19.259033203125
1758876157.4945793,-1.1162109375,-0.306640625,0.93359375,113.70849609375,-6.77490234375,-4.33349609375,2.3895263671875,42.923583984375,-19.4183349609375
1758876157.5045266,-0.40869140625,-0.1328125,0.7783203125,120.17822265625,0.244140625,-13.671875,3.427734375,42.9510498046875,-19.70947265625
1758876157.5154693,-0.40869140625,-0.1328125,0.7783203125,120.17822265625,0.244140625,-13.671875,4.449462890625,42.9730224609375,-20.0006103515625
1758876157.524656,-0.30810546875,0.2138671875,0.4150390625,25.45166015625,0.06103515625,-9.521484375,4.5703125,42.9840087890625,-20.225830078125
1758876157.5349653,-0.30810546875,0.2138671875,0.4150390625,25.45166015625,0.06103515625,-9.521484375,4.7021484375,42.989501953125,-20.4400634765625
1758876157.5447116,-0.5849609375,0.5546875,0.85400390625,-37.4755859375,-1.953125,-9.21630859375,4.2352294921875,42.9730224609375,-20.621337890625
1758876157.5554368,-0.5849609375,0.5546875,0.85400390625,-37.4755859375,-1.953125,-9.21630859375,3.790283203125,42.945556640625,-20.7806396484375
1758876157.5646086,-0.59423828125,0.3701171875,1.0302734375,-89.599609375,-2.01416015625,-2.44140625,2.9058837890625,42.9071044921875,-20.8245849609375
1758876157.5749555,-0.59423828125,0.3701171875,1.0302734375,-89.599609375,-2.01416015625,-2.44140625,2.04345703125,42.857666015625,-20.85205078125
1758876157.584917,-0.78125,-0.19775390625,0.9345703125,-57.18994140625,-8.544921875,-1.64794921875,1.4996337890625,42.747802734375,-20.8795166015625
1758876157.5950522,-0.78125,-0.19775390625,0.9345703125,-57.18994140625,-8.544921875,-1.64794921875,0.9393310546875,42.637939453125,-20.9234619140625
1758876157.60465,-0.60107421875,-0.2939453125,1.14013671875,-17.822265625,-9.521484375,-0.54931640625,0.7745361328125,42.5115966796875,-20.9564208984375
1758876157.6149938,-0.60107421875,-0.2939453125,1.14013671875,-17.822265625,-9.521484375,-0.54931640625,0.59326171875,42.3797607421875,-21.0003662109375
1758876157.624712,-0.41357421875,-0.05078125,0.4052734375,-1.52587890625,-6.9580078125,-2.99072265625,0.54931640625,42.2808837890625,-21.0772705078125
1758876157.635007,-0.41357421875,-0.05078125,0.4052734375,-1.52587890625,-6.9580078125,-2.99072265625,0.4998779296875,42.176513671875,-21.15966796875
1758876157.644799,-0.5029296875,0.1083984375,0.57373046875,6.2255859375,-8.60595703125,-3.23486328125,0.5328369140625,42.066650390625,-21.24755859375
1758876157.6553862,-0.5029296875,0.1083984375,0.57373046875,6.2255859375,-8.60595703125,-3.23486328125,0.5712890625,41.956787109375,-21.324462890625
1758876157.6650493,-0.6904296875,0.1416015625,1.25830078125,-21.17919921875,-8.85009765625,-3.11279296875,0.340576171875,41.8359375,-21.3958740234375
1758876157.6753476,-0.6904296875,0.1416015625,1.25830078125,-21.17919921875,-8.85009765625,-3.11279296875,0.1153564453125,41.7095947265625,-21.4508056640625
1758876157.6848562,-0.6083984375,0.12353515625,0.87646484375,-70.25146484375,-8.9111328125,3.41796875,-0.52734375,41.583251953125,-21.4178466796875
1758876157.6957808,-0.6083984375,0.12353515625,0.87646484375,-70.25146484375,-8.9111328125,3.41796875,-1.1700439453125,41.46240234375,-21.3739013671875
1758876157.7051437,-0.42626953125,0.06005859375,0.3671875,-25.57373046875,-5.4931640625,4.21142578125,-1.351318359375,41.37451171875,-21.324462890625
1758876157.7150154,-0.42626953125,0.06005859375,0.3671875,-25.57373046875,-5.4931640625,4.21142578125,-1.5325927734375,41.2921142578125,-21.2750244140625
1758876157.724814,-0.56787109375,-0.0791015625,0.53955078125,-3.173828125,-3.7841796875,3.23486328125,-1.505126953125,41.231689453125,-21.2420654296875
1758876157.735146,-0.56787109375,-0.0791015625,0.53955078125,-3.173828125,-3.7841796875,3.23486328125,-1.4776611328125,41.1767578125,-21.2200927734375
1758876157.7453525,-0.57666015625,-0.14013671875,0.98291015625,25.20751953125,-1.89208984375,0.0,-1.20849609375,41.1328125,-21.24755859375
1758876157.7549503,-0.57666015625,-0.14013671875,0.98291015625,25.20751953125,-1.89208984375,0.0,-0.9503173828125,41.0888671875,-21.280517578125
1758876157.7648172,-1.07568359375,-0.0869140625,1.32470703125,77.2705078125,-8.72802734375,3.96728515625,-0.142822265625,40.97900390625,-21.2640380859375
1758876157.7752447,-1.07568359375,-0.0869140625,1.32470703125,77.2705078125,-8.72802734375,3.96728515625,0.648193359375,40.869140625,-21.2530517578125
1758876157.78497,-0.52783203125,-0.185546875,0.71875,64.3310546875,-1.28173828125,-2.5634765625,1.2469482421875,40.836181640625,-21.3409423828125
1758876157.7949743,-0.52783203125,-0.185546875,0.71875,64.3310546875,-1.28173828125,-2.5634765625,1.834716796875,40.80322265625,-21.434326171875
1758876157.8049176,-0.5927734375,0.0,0.15234375,18.37158203125,-3.35693359375,0.42724609375,1.9940185546875,40.75927734375,-21.500244140625
1758876157.8150523,-0.5927734375,0.0,0.15234375,18.37158203125,-3.35693359375,0.42724609375,2.1478271484375,40.7318115234375,-21.5716552734375
1758876157.824934,-1.13330078125,0.1806640625,0.61767578125,68.359375,-2.62451171875,-1.40380859375,2.7960205078125,40.7208251953125,-21.6705322265625
1758876157.8350317,-1.13330078125,0.1806640625,0.61767578125,68.359375,-2.62451171875,-1.40380859375,3.44970703125,40.726318359375,-21.77490234375
1758876157.8453374,-1.126953125,0.41796875,0.87841796875,52.18505859375,-2.197265625,4.8828125,4.010009765625,40.7373046875,-21.7803955078125
1758876157.855012,-1.126953125,0.41796875,0.87841796875,52.18505859375,-2.197265625,4.8828125,4.581298828125,40.7537841796875,-21.77490234375
1758876157.864941,-0.82763671875,0.42138671875,0.84375,-26.67236328125,0.18310546875,10.55908203125,4.4329833984375,40.78125,-21.6815185546875
1758876157.8750467,-0.82763671875,0.42138671875,0.84375,-26.67236328125,0.18310546875,10.55908203125,4.2901611328125,40.8087158203125,-21.5771484375
1758876157.8853872,-0.6513671875,0.3466796875,0.33935546875,-52.91748046875,-2.197265625,10.68115234375,3.9056396484375,40.814208984375,-21.46728515625
1758876157.8949995,-0.6513671875,0.3466796875,0.33935546875,-52.91748046875,-2.197265625,10.68115234375,3.526611328125,40.8251953125,-21.346435546875
1758876157.9049916,-0.7138671875,-0.28125,0.44873046875,-80.9326171875,2.5634765625,12.451171875,2.8839111328125,40.89111328125,-21.214599609375
1758876157.9155278,-0.7138671875,-0.28125,0.44873046875,-80.9326171875,2.5634765625,12.451171875,2.2247314453125,40.9625244140625,-21.09375
1758876157.9251418,-0.8935546875,-0.4931640625,1.0322265625,-36.80419921875,0.244140625,8.6669921875,1.95556640625,41.011962890625,-21.0498046875
1758876157.9350693,-0.8935546875,-0.4931640625,1.0322265625,-36.80419921875,0.244140625,8.6669921875,1.658935546875,41.055908203125,-21.02783203125
1758876157.9450836,-0.6904296875,-0.30224609375,0.87060546875,15.93017578125,1.5869140625,7.9345703125,1.86767578125,41.11083984375,-21.0223388671875
1758876157.9550834,-0.6904296875,-0.30224609375,0.87060546875,15.93017578125,1.5869140625,7.9345703125,2.0654296875,41.1602783203125,-21.02783203125
1758876157.9651012,-0.435546875,-0.09228515625,0.326171875,21.54541015625,3.662109375,2.685546875,2.2686767578125,41.231689453125,-21.104736328125
1758876157.9754503,-0.380859375,0.0859375,0.30224609375,9.33837890625,7.2021484375,1.5869140625,2.406005859375,41.3250732421875,-21.1871337890625
1758876157.9861352,-0.380859375,0.0859375,0.30224609375,9.33837890625,7.2021484375,1.5869140625,2.48291015625,41.429443359375,-21.26953125
1758876157.995411,-0.69287109375,0.13916015625,0.90771484375,-22.52197265625,6.28662109375,-0.54931640625,2.4005126953125,41.5338134765625,-21.3629150390625
1758876158.0054586,-0.69287109375,0.13916015625,0.90771484375,-22.52197265625,6.28662109375,-0.54931640625,2.1533203125,41.627197265625,-21.4508056640625
1758876158.015108,-0.9921875,0.1396484375,1.275390625,-93.81103515625,1.77001953125,2.685546875,1.571044921875,41.6876220703125,-21.51123046875
1758876158.0260665,-0.9921875,0.1396484375,1.275390625,-93.81103515625,1.77001953125,2.685546875,0.6591796875,41.715087890625,-21.5386962890625
1758876158.035108,-0.83447265625,0.06591796875,0.60693359375,-65.673828125,-0.48828125,9.94873046875,-0.06591796875,41.7315673828125,-21.5057373046875
1758876158.0454443,-0.83447265625,0.06591796875,0.60693359375,-65.673828125,-0.48828125,9.94873046875,-0.6207275390625,41.737060546875,-21.42333984375
1758876158.0552018,-0.70166015625,-0.01708984375,0.4794921875,-9.70458984375,0.9765625,8.36181640625,-0.8953857421875,41.7645263671875,-21.357421875
1758876158.0664582,-0.70166015625,-0.01708984375,0.4794921875,-9.70458984375,0.9765625,8.36181640625,-0.90087890625,41.7974853515625,-21.302490234375
1758876158.0751684,-0.49951171875,-0.228515625,0.08447265625,41.3818359375,8.4228515625,3.7841796875,-0.6756591796875,41.8743896484375,-21.280517578125
1758876158.085854,-0.49951171875,-0.228515625,0.08447265625,41.3818359375,8.4228515625,3.7841796875,-0.2252197265625,42.000732421875,-21.3079833984375
1758876158.0956423,-0.638671875,-0.23876953125,0.9638671875,62.744140625,9.3994140625,0.54931640625,0.3021240234375,42.1380615234375,-21.368408203125
1758876158.1058643,-0.638671875,-0.23876953125,0.9638671875,62.744140625,9.3994140625,0.54931640625,0.911865234375,42.264404296875,-21.4508056640625
1758876158.115228,-0.62353515625,0.0078125,1.17431640625,48.15673828125,10.7421875,0.244140625,1.4337158203125,42.3907470703125,-21.5386962890625
1758876158.12598,-0.62353515625,0.0078125,1.17431640625,48.15673828125,10.7421875,0.244140625,1.8841552734375,42.506103515625,-21.6156005859375
1758876158.1356053,-0.58349609375,0.2392578125,0.56640625,3.11279296875,13.5498046875,-0.732421875,2.109375,42.6214599609375,-21.6815185546875
1758876158.1452787,-0.58349609375,0.2392578125,0.56640625,3.11279296875,13.5498046875,-0.732421875,2.1148681640625,42.7587890625,-21.7474365234375
1758876158.1552603,-0.7548828125,0.251953125,0.64306640625,-73.73046875,10.31494140625,-1.708984375,1.746826171875,42.8741455078125,-21.807861328125
1758876158.16552,-0.7548828125,0.251953125,0.64306640625,-73.73046875,10.31494140625,-1.708984375,1.0052490234375,42.9840087890625,-21.8682861328125
1758876158.1753116,-0.81689453125,0.0830078125,0.93017578125,-99.9755859375,9.6435546875,1.953125,0.1593017578125,43.0828857421875,-21.895751953125
1758876158.1853325,-0.81689453125,0.0830078125,0.93017578125,-99.9755859375,9.6435546875,1.953125,-0.7855224609375,43.1817626953125,-21.895751953125
1758876158.195603,-0.720703125,-0.04833984375,0.79931640625,-18.49365234375,8.97216796875,5.43212890625,-1.3128662109375,43.275146484375,-21.8682861328125
1758876158.2053444,-0.720703125,-0.04833984375,0.79931640625,-18.49365234375,8.97216796875,5.43212890625,-1.4227294921875,43.363037109375,-21.8243408203125
1758876158.2153451,-0.5087890625,-0.119140625,0.5361328125,8.9111328125,9.521484375,5.18798828125,-1.4007568359375,43.450927734375,-21.7803955078125
1758876158.2256565,-0.5087890625,-0.119140625,0.5361328125,8.9111328125,9.521484375,5.18798828125,-1.2469482421875,43.5443115234375,-21.741943359375
1758876158.23558,-0.5810546875,-0.0703125,0.6298828125,23.4375,8.97216796875,1.953125,-1.043701171875,43.6376953125,-21.7364501953125
1758876158.245366,-0.5810546875,-0.0703125,0.6298828125,23.4375,8.97216796875,1.953125,-0.791015625,43.7200927734375,-21.7474365234375
1758876158.2553613,-0.7314453125,0.0595703125,0.9873046875,25.0244140625,6.8359375,2.38037109375,-0.52734375,43.7969970703125,-21.7584228515625
1758876158.265373,-0.7314453125,0.0595703125,0.9873046875,25.0244140625,6.8359375,2.38037109375,-0.252685546875,43.8519287109375,-21.7584228515625
1758876158.2756526,-0.806640625,-0.05322265625,0.8115234375,19.71435546875,5.18798828125,2.9296875,-0.0054931640625,43.9013671875,-21.7529296875
1758876158.2853978,-0.806640625,-0.05322265625,0.8115234375,19.71435546875,5.18798828125,2.9296875,0.2142333984375,43.9398193359375,-21.741943359375
1758876158.295465,-0.78857421875,-0.10498046875,0.65380859375,-4.5166015625,2.01416015625,3.662109375,0.3131103515625,43.96728515625,-21.7364501953125
1758876158.305478,-0.78857421875,-0.10498046875,0.65380859375,-4.5166015625,2.01416015625,3.662109375,0.296630859375,43.9837646484375,-21.73095703125
1758876158.3157015,-0.7216796875,0.087890625,0.7578125,-17.27294921875,2.9296875,2.44140625,0.2032470703125,44.0057373046875,-21.7364501953125
1758876158.3255355,-0.7216796875,0.087890625,0.7578125,-17.27294921875,2.9296875,2.44140625,0.0494384765625,44.033203125,-21.741943359375
1758876158.335495,-0.7119140625,0.00732421875,0.62646484375,-12.63427734375,1.89208984375,3.47900390625,-0.06591796875,44.05517578125,-21.741943359375
1758876158.3459573,-0.7119140625,0.00732421875,0.62646484375,-12.63427734375,1.89208984375,3.47900390625,-0.1593017578125,44.0771484375,-21.7364501953125
1758876158.3555546,-0.6552734375,-0.0078125,0.79833984375,-11.41357421875,2.13623046875,0.6103515625,-0.2581787109375,44.09912109375,-21.7474365234375
1758876158.365546,-0.6552734375,-0.0078125,0.79833984375,-11.41357421875,2.13623046875,0.6103515625,-0.3680419921875,44.1156005859375,-21.77490234375
1758876158.3755155,-0.66064453125,-0.09423828125,0.6943359375,6.04248046875,4.08935546875,-0.06103515625,-0.3900146484375,44.1485595703125,-21.807861328125
1758876158.3860278,-0.66064453125,-0.09423828125,0.6943359375,6.04248046875,4.08935546875,-0.06103515625,-0.3350830078125,44.1815185546875,-21.851806640625
1758876158.3955157,-0.662109375,-0.13623046875,0.59423828125,32.8369140625,4.82177734375,-2.74658203125,-0.164794921875,44.2254638671875,-21.9122314453125
1758876158.4055498,-0.662109375,-0.13623046875,0.59423828125,32.8369140625,4.82177734375,-2.74658203125,0.1153564453125,44.27490234375,-22.005615234375
1758876158.4161465,-0.68505859375,-0.0244140625,0.70068359375,42.6025390625,5.37109375,-5.92041015625,0.428466796875,44.3243408203125,-22.1209716796875
1758876158.4257846,-0.68505859375,-0.0244140625,0.70068359375,42.6025390625,5.37109375,-5.92041015625,0.7745361328125,44.3792724609375,-22.25830078125
1758876158.4357462,-0.62890625,0.09619140625,0.75,25.57373046875,5.7373046875,-5.859375,1.03271484375,44.4342041015625,-22.39013671875
1758876158.445704,-0.62890625,0.09619140625,0.75,25.57373046875,5.7373046875,-5.859375,1.2139892578125,44.49462890625,-22.5164794921875
1758876158.4562783,-0.54150390625,0.1259765625,0.72412109375,7.01904296875,5.67626953125,-6.16455078125,1.307373046875,44.5440673828125,-22.6373291015625
1758876158.4657817,-0.54150390625,0.1259765625,0.72412109375,7.01904296875,5.67626953125,-6.16455078125,1.3128662109375,44.593505859375,-22.752685546875
1758876158.4758677,-0.6259765625,0.1171875,0.72119140625,7.38525390625,4.638671875,-5.06591796875,1.329345703125,44.6319580078125,-22.8460693359375
1758876158.4856558,-0.6259765625,0.1171875,0.72119140625,7.38525390625,4.638671875,-5.06591796875,1.3568115234375,44.6649169921875,-22.9339599609375
1758876158.496512,-0.888671875,-0.02294921875,1.09228515625,41.19873046875,-0.6103515625,-5.615234375,1.5545654296875,44.67041015625,-23.0218505859375
1758876158.5057478,-0.888671875,-0.02294921875,1.09228515625,41.19873046875,-0.6103515625,-5.615234375,1.9061279296875,44.6429443359375,-23.115234375
1758876158.5159152,-0.6962890625,-0.189453125,0.9013671875,32.2265625,-1.708984375,-6.103515625,2.208251953125,44.615478515625,-23.2196044921875
1758876158.5257635,-0.6962890625,-0.189453125,0.9013671875,32.2265625,-1.708984375,-6.103515625,2.4554443359375,44.5770263671875,-23.3349609375
1758876158.5367992,-0.5654296875,0.01708984375,0.5849609375,3.60107421875,-2.3193359375,-6.2255859375,2.548828125,44.53857421875,-23.455810546875
1758876158.54577,-0.5654296875,0.01708984375,0.5849609375,3.60107421875,-2.3193359375,-6.2255859375,2.4993896484375,44.5001220703125,-23.57666015625
1758876158.5563664,-0.70849609375,0.1220703125,0.7490234375,2.0751953125,-5.55419921875,-6.8359375,2.43896484375,44.4451904296875,-23.7030029296875
1758876158.5658243,-0.70849609375,0.1220703125,0.7490234375,2.0751953125,-5.55419921875,-6.8359375,2.3785400390625,44.373779296875,-23.829345703125
1758876158.5765963,-0.77197265625,0.04833984375,0.77880859375,-1.40380859375,-4.21142578125,-6.40869140625,2.30712890625,44.3133544921875,-23.9501953125
1758876158.58613,-0.77197265625,0.04833984375,0.77880859375,-1.40380859375,-4.21142578125,-6.40869140625,2.2247314453125,44.2584228515625,-24.0655517578125
1758876158.5965798,-0.71435546875,-0.0380859375,0.759765625,-20.8740234375,-5.79833984375,-6.89697265625,2.0379638671875,44.197998046875,-24.1864013671875
1758876158.6061864,-0.71435546875,-0.0380859375,0.759765625,-20.8740234375,-5.79833984375,-6.89697265625,1.7578125,44.132080078125,-24.312744140625
1758876158.6158018,-0.5478515625,0.07568359375,0.63134765625,-14.09912109375,-2.9296875,-4.94384765625,1.51611328125,44.0771484375,-24.422607421875
1758876158.6258261,-0.5478515625,0.07568359375,0.63134765625,-14.09912109375,-2.9296875,-4.94384765625,1.329345703125,44.0386962890625,-24.5159912109375
1758876158.635893,-0.5205078125,0.07861328125,0.552734375,-8.23974609375,-0.54931640625,-4.8828125,1.1700439453125,44.01123046875,-24.609375
1758876158.6459093,-0.5205078125,0.07861328125,0.552734375,-8.23974609375,-0.54931640625,-4.8828125,1.0491943359375,44.000244140625,-24.6917724609375
1758876158.6558948,-0.75537109375,0.0908203125,0.88916015625,-14.83154296875,-1.03759765625,-5.37109375,0.8953857421875,43.978271484375,-24.774169921875
1758876158.6659315,-0.75537109375,0.0908203125,0.88916015625,-14.83154296875,-1.03759765625,-5.37109375,0.7086181640625,43.956298828125,-24.862060546875
1758876158.6762447,-0.8896484375,0.06591796875,0.95751953125,-38.2080078125,-0.9765625,-4.7607421875,0.4119873046875,43.934326171875,-24.9334716796875
1758876158.685964,-0.8896484375,0.06591796875,0.95751953125,-38.2080078125,-0.9765625,-4.7607421875,0.0054931640625,43.9178466796875,-25.0048828125
1758876158.695929,-0.6357421875,0.01416015625,0.64892578125,-60.1806640625,-0.3662109375,-2.0751953125,-0.494384765625,43.8958740234375,-25.0543212890625
1758876158.7063158,-0.6357421875,0.01416015625,0.64892578125,-60.1806640625,-0.3662109375,-2.0751953125,-1.087646484375,43.8848876953125,-25.0872802734375
1758876158.7160082,-0.5615234375,-0.091796875,0.4677734375,-24.7802734375,2.25830078125,-2.13623046875,-1.5106201171875,43.8848876953125,-25.1202392578125
1758876158.725954,-0.5615234375,-0.091796875,0.4677734375,-24.7802734375,2.25830078125,-2.13623046875,-1.7578125,43.9013671875,-25.15869140625
1758876158.735958,-0.5615234375,-0.091796875,0.4677734375,9.521484375,4.94384765625,-3.7841796875,-1.845703125,43.934326171875,-25.213623046875
1758876158.7461164,-0.5966796875,-0.1328125,0.6591796875,9.521484375,4.94384765625,-3.7841796875,-1.7742919921875,43.978271484375,-25.2850341796875
1758876158.7561903,-0.73828125,-0.1103515625,0.90380859375,31.005859375,4.45556640625,-2.8076171875,-1.60400390625,44.022216796875,-25.3564453125
1758876158.7660506,-0.73828125,-0.1103515625,0.90380859375,31.005859375,4.45556640625,-2.8076171875,-1.3238525390625,44.05517578125,-25.42236328125
1758876158.7763412,-0.775390625,-0.216796875,0.84130859375,61.6455078125,4.94384765625,-6.103515625,-0.9173583984375,44.0936279296875,-25.5157470703125
1758876158.7862055,-0.775390625,-0.216796875,0.84130859375,61.6455078125,4.94384765625,-6.103515625,-0.3790283203125,44.132080078125,-25.64208984375
1758876158.7960775,-0.701171875,0.01416015625,0.6669921875,35.58349609375,5.615234375,-6.77490234375,0.0054931640625,44.176025390625,-25.77392578125
1758876158.8062425,-0.701171875,0.01416015625,0.6669921875,35.58349609375,5.615234375,-6.77490234375,0.2691650390625,44.2254638671875,-25.9112548828125
1758876158.8163412,-0.755859375,0.2822265625,0.8037109375,-18.798828125,7.01904296875,-7.87353515625,0.2581787109375,44.285888671875,-26.048583984375
1758876158.826112,-0.755859375,0.2822265625,0.8037109375,-18.798828125,7.01904296875,-7.87353515625,-0.0054931640625,44.3463134765625,-26.180419921875
1758876158.8360898,-0.734375,0.2080078125,0.68603515625,-39.794921875,10.31494140625,-5.43212890625,-0.3515625,44.4287109375,-26.279296875
1758876158.846195,-0.734375,0.2080078125,0.68603515625,-39.794921875,10.31494140625,-5.43212890625,-0.7855224609375,44.5220947265625,-26.356201171875
1758876158.8564286,-0.734375,-0.14306640625,0.61767578125,-32.8369140625,12.20703125,-5.7373046875,-1.175537109375,44.6319580078125,-26.43310546875
1758876158.8662481,-0.734375,-0.14306640625,0.61767578125,-32.8369140625,12.20703125,-5.7373046875,-1.5435791015625,44.7528076171875,-26.52099609375
1758876158.8768117,-0.59521484375,-0.26171875,0.57373046875,0.42724609375,15.7470703125,-8.4228515625,-1.768798828125,44.89013671875,-26.641845703125
1758876158.886653,-0.59521484375,-0.26171875,0.57373046875,0.42724609375,15.7470703125,-8.4228515625,-1.8511962890625,45.0439453125,-26.7901611328125
1758876158.8961854,-0.767578125,-0.1767578125,0.5849609375,33.99658203125,16.17431640625,-10.1318359375,-1.790771484375,45.2032470703125,-26.96044921875
1758876158.9076226,-0.767578125,-0.1767578125,0.5849609375,33.99658203125,16.17431640625,-10.1318359375,-1.571044921875,45.362548828125,-27.158203125
1758876158.9161942,-0.6826171875,0.0986328125,1.00390625,51.45263671875,12.63427734375,-11.3525390625,-1.2799072265625,45.5108642578125,-27.3614501953125
1758876158.926409,-0.6826171875,0.0986328125,1.00390625,51.45263671875,12.63427734375,-11.3525390625,-0.90087890625,45.6317138671875,-27.5537109375
1758876158.9362204,-0.5185546875,0.11962890625,0.7607421875,-17.578125,10.25390625,-8.056640625,-0.8404541015625,45.7305908203125,-27.7130126953125
1758876158.947427,-0.5185546875,0.11962890625,0.7607421875,-17.578125,10.25390625,-8.056640625,-1.1041259765625,45.81298828125,-27.8338623046875
1758876158.9564064,-0.58251953125,0.0498046875,0.68701171875,-57.4951171875,5.67626953125,-6.4697265625,-1.549072265625,45.867919921875,-27.938232421875
1758876158.9664423,-0.58251953125,0.0498046875,0.68701171875,-57.4951171875,5.67626953125,-6.4697265625,-2.17529296875,45.90087890625,-28.0206298828125
1758876158.9762273,-0.70458984375,-0.10791015625,0.607421875,-37.29248046875,3.2958984375,-4.69970703125,-2.691650390625,45.9173583984375,-28.092041015625
1758876158.987121,-0.70458984375,-0.10791015625,0.607421875,-37.29248046875,3.2958984375,-4.69970703125,-3.1036376953125,45.9283447265625,-28.157958984375
1758876158.9962492,-0.63134765625,-0.10302734375,0.76318359375,-16.41845703125,2.0751953125,-3.2958984375,-3.2904052734375,45.9283447265625,-28.201904296875
1758876159.0069945,-0.63134765625,-0.10302734375,0.76318359375,-16.41845703125,2.0751953125,-3.2958984375,-3.482666015625,45.9228515625,-28.245849609375
1758876159.016676,-0.60693359375,-0.0244140625,0.92431640625,-34.36279296875,-0.79345703125,-3.35693359375,-3.8507080078125,45.889892578125,-28.2843017578125
1758876159.026931,-0.60693359375,-0.0244140625,0.92431640625,-34.36279296875,-0.79345703125,-3.35693359375,-4.2132568359375,45.845947265625,-28.311767578125
1758876159.0363066,-0.55517578125,-0.10791015625,0.61328125,-0.54931640625,1.03759765625,-2.38037109375,-4.229736328125,45.823974609375,-28.333740234375
1758876159.046345,-0.55517578125,-0.10791015625,0.61328125,-0.54931640625,1.03759765625,-2.38037109375,-4.251708984375,45.802001953125,-28.355712890625
1758876159.057254,-0.63525390625,-0.220703125,0.5751953125,31.31103515625,0.8544921875,-4.57763671875,-3.9935302734375,45.780029296875,-28.4161376953125
1758876159.0663733,-0.63525390625,-0.220703125,0.5751953125,31.31103515625,0.8544921875,-4.57763671875,-3.7353515625,45.758056640625,-28.4930419921875
1758876159.076351,-1.20361328125,-0.1923828125,1.00439453125,80.078125,-1.46484375,-3.662109375,-2.9937744140625,45.72509765625,-28.564453125
1758876159.0864122,-1.20361328125,-0.1923828125,1.00439453125,80.078125,-1.46484375,-3.662109375,-2.26318359375,45.6976318359375,-28.641357421875
1758876159.096647,-1.123046875,-0.0390625,0.689453125,95.458984375,2.86865234375,-5.615234375,-1.4007568359375,45.7196044921875,-28.76220703125
1758876159.1066046,-1.123046875,-0.0390625,0.689453125,95.458984375,2.86865234375,-5.615234375,-0.538330078125,45.758056640625,-28.883056640625
1758876159.1163692,-0.6484375,0.11669921875,0.27880859375,30.8837890625,0.3662109375,-8.30078125,-0.340576171875,45.7745361328125,-29.0423583984375
1758876159.126503,-0.6484375,0.11669921875,0.27880859375,30.8837890625,0.3662109375,-8.30078125,-0.142822265625,45.802001953125,-29.20166015625
1758876159.1364017,-0.6982421875,0.1826171875,0.5390625,21.91162109375,3.173828125,-7.99560546875,-0.02197265625,45.85693359375,-29.3499755859375
1758876159.1464043,-0.6982421875,0.1826171875,0.5390625,21.91162109375,3.173828125,-7.99560546875,0.1043701171875,45.911865234375,-29.4873046875
1758876159.1569886,-0.65283203125,-0.0166015625,0.59228515625,7.50732421875,4.94384765625,-9.6435546875,0.076904296875,45.98876953125,-29.6466064453125
1758876159.1669161,-0.65283203125,-0.0166015625,0.59228515625,7.50732421875,4.94384765625,-9.6435546875,0.0494384765625,46.0601806640625,-29.805908203125
1758876159.1764503,-0.67626953125,-0.046875,0.7822265625,-31.494140625,1.52587890625,-5.55419921875,-0.318603515625,46.0931396484375,-29.9102783203125
1758876159.1865156,-0.67626953125,-0.046875,0.7822265625,-31.494140625,1.52587890625,-5.55419921875,-0.6976318359375,46.12060546875,-30.0091552734375
1758876159.1967785,-0.607421875,-0.07275390625,0.75244140625,-56.15234375,0.6103515625,-4.638671875,-1.307373046875,46.131591796875,-30.091552734375
1758876159.2073932,-0.607421875,-0.07275390625,0.75244140625,-56.15234375,0.6103515625,-4.638671875,-1.922607421875,46.142578125,-30.1739501953125
1758876159.2164752,-0.58349609375,0.046875,0.5576171875,-51.94091796875,-1.40380859375,-3.90625,-2.4774169921875,46.1260986328125,-30.2398681640625
1758876159.226529,-0.58349609375,0.046875,0.5576171875,-51.94091796875,-1.40380859375,-3.90625,-3.0267333984375,46.109619140625,-30.30029296875
1758876159.237024,-0.6044921875,-0.076171875,0.7646484375,2.9296875,-2.38037109375,-3.662109375,-3.021240234375,46.0821533203125,-30.3497314453125
1758876159.2465243,-0.6044921875,-0.076171875,0.7646484375,2.9296875,-2.38037109375,-3.662109375,-3.0267333984375,46.0546875,-30.4046630859375
1758876159.2569497,-0.70654296875,-0.2041015625,0.92138671875,33.02001953125,-3.47900390625,-5.55419921875,-2.7520751953125,46.0052490234375,-30.487060546875
1758876159.2665694,-0.70654296875,-0.2041015625,0.92138671875,33.02001953125,-3.47900390625,-5.55419921875,-2.4884033203125,45.9503173828125,-30.5694580078125
1758876159.2769096,-0.89501953125,-0.05908203125,0.90283203125,29.72412109375,-5.67626953125,-7.080078125,-2.274169921875,45.8734130859375,-30.6793212890625
1758876159.2866163,-0.89501953125,-0.05908203125,0.90283203125,29.72412109375,-5.67626953125,-7.080078125,-2.0599365234375,45.802001953125,-30.78369140625
1758876159.2966573,-1.029296875,-0.115234375,0.94921875,-16.7236328125,-10.6201171875,-10.7421875,-2.35107421875,45.68115234375,-30.9429931640625
1758876159.3075638,-1.029296875,-0.115234375,0.94921875,-16.7236328125,-10.6201171875,-10.7421875,-2.63671875,45.560302734375,-31.102294921875
1758876159.3168507,-0.4765625,0.19482421875,0.154296875,-39.00146484375,-3.90625,-1.40380859375,-3.043212890625,45.5218505859375,-31.1297607421875
1758876159.3266695,-0.4765625,0.19482421875,0.154296875,-39.00146484375,-3.90625,-1.40380859375,-3.438720703125,45.4888916015625,-31.146240234375
1758876159.336998,-0.59326171875,-0.09423828125,0.283203125,-19.287109375,-2.44140625,-2.9296875,-3.6529541015625,45.4779052734375,-31.1956787109375
1758876159.34713,-0.59326171875,-0.09423828125,0.283203125,-19.287109375,-2.44140625,-2.9296875,-3.8671875,45.472412109375,-31.2506103515625
1758876159.3570247,-1.302734375,-0.30810546875,0.39453125,61.34033203125,0.79345703125,-0.42724609375,-3.2684326171875,45.516357421875,-31.2945556640625
1758876159.3666818,-1.302734375,-0.30810546875,0.39453125,61.34033203125,0.79345703125,-0.42724609375,-2.6751708984375,45.5767822265625,-31.3604736328125
1758876159.3775685,-1.2998046875,-0.16796875,0.416015625,99.9755859375,0.42724609375,-4.2724609375,-1.746826171875,45.648193359375,-31.4923095703125
1758876159.386821,-1.2998046875,-0.16796875,0.416015625,99.9755859375,0.42724609375,-4.2724609375,-0.823974609375,45.7305908203125,-31.6351318359375
1758876159.396951,-0.83203125,0.0322265625,0.416015625,35.21728515625,4.57763671875,-6.591796875,-0.5712890625,45.8624267578125,-31.8109130859375
1758876159.4071953,-0.83203125,0.0322265625,0.416015625,35.21728515625,4.57763671875,-6.591796875,-0.3131103515625,45.98876953125,-31.9757080078125
1758876159.4170449,-0.642578125,0.39111328125,0.52734375,-30.21240234375,2.99072265625,-3.84521484375,-0.6646728515625,46.0986328125,-32.091064453125
1758876159.4272609,-0.642578125,0.39111328125,0.52734375,-30.21240234375,2.99072265625,-3.84521484375,-0.999755859375,46.2030029296875,-32.178955078125
1758876159.437391,-0.93359375,0.08447265625,0.95849609375,-8.36181640625,-0.3662109375,-1.0986328125,-1.07666015625,46.263427734375,-32.2174072265625
1758876159.446827,-0.93359375,0.08447265625,0.95849609375,-8.36181640625,-0.3662109375,-1.0986328125,-1.1480712890625,46.318359375,-32.244873046875
1758876159.4574502,-0.794921875,-0.251953125,0.58203125,2.5634765625,1.5869140625,0.30517578125,-1.109619140625,46.38427734375,-32.2613525390625
1758876159.4669785,-0.794921875,-0.251953125,0.58203125,2.5634765625,1.5869140625,0.30517578125,-1.0821533203125,46.4501953125,-32.2943115234375
1758876159.477761,-0.72265625,-0.0498046875,0.4736328125,-16.54052734375,1.15966796875,0.54931640625,-1.2469482421875,46.51611328125,-32.32177734375
1758876159.4875927,-0.72265625,-0.0498046875,0.4736328125,-16.54052734375,1.15966796875,0.54931640625,-1.4117431640625,46.5765380859375,-32.354736328125
1758876159.4975054,-0.74560546875,0.0908203125,0.64794921875,1.52587890625,1.8310546875,-1.03759765625,-1.40625,46.64794921875,-32.4041748046875
1758876159.5077264,-0.74560546875,0.0908203125,0.64794921875,1.52587890625,1.8310546875,-1.03759765625,-1.4007568359375,46.7083740234375,-32.4481201171875
1758876159.5168698,-0.72509765625,-0.04296875,0.80859375,1.8310546875,1.77001953125,-1.40380859375,-1.395263671875,46.7633056640625,-32.486572265625
1758876159.527191,-0.72509765625,-0.04296875,0.80859375,1.8310546875,1.77001953125,-1.40380859375,-1.3897705078125,46.812744140625,-32.530517578125
1758876159.5371053,-0.67919921875,-0.046875,0.7529296875,-1.220703125,2.44140625,-0.3662109375,-1.40625,46.8621826171875,-32.552490234375
1758876159.54719,-0.67919921875,-0.046875,0.7529296875,-1.220703125,2.44140625,-0.3662109375,-1.4227294921875,46.9061279296875,-32.574462890625
1758876159.5569093,-0.67626953125,-0.01513671875,0.6982421875,2.01416015625,2.38037109375,-0.54931640625,-1.4117431640625,46.944580078125,-32.596435546875
1758876159.567536,-0.67626953125,-0.01513671875,0.6982421875,2.01416015625,2.38037109375,-0.54931640625,-1.4007568359375,46.9775390625,-32.618408203125
1758876159.5771284,-0.7109375,-0.04638671875,0.75390625,-0.3662109375,3.0517578125,-1.220703125,-1.417236328125,47.0159912109375,-32.6458740234375
1758876159.5871563,-0.7109375,-0.04638671875,0.75390625,-0.3662109375,3.0517578125,-1.220703125,-1.439208984375,47.054443359375,-32.67333984375
1758876159.5971484,-0.6171875,-0.09912109375,0.72021484375,-3.0517578125,4.2724609375,-2.74658203125,-1.505126953125,47.098388671875,-32.7227783203125
1758876159.6073627,-0.6171875,-0.09912109375,0.72021484375,-3.0517578125,4.2724609375,-2.74658203125,-1.5765380859375,47.1368408203125,-32.7777099609375
1758876159.616984,-0.634765625,-0.07470703125,0.84423828125,4.39453125,3.35693359375,-2.0751953125,-1.5655517578125,47.1588134765625,-32.816162109375
1758876159.6275144,-0.634765625,-0.07470703125,0.84423828125,4.39453125,3.35693359375,-2.0751953125,-1.56005859375,47.1807861328125,-32.8546142578125
1758876159.637058,-0.548828125,0.0439453125,0.83349609375,22.39990234375,3.11279296875,-3.96728515625,-1.3897705078125,47.186279296875,-32.9095458984375
1758876159.6472394,-0.548828125,0.0439453125,0.83349609375,22.39990234375,3.11279296875,-3.96728515625,-1.2139892578125,47.1917724609375,-32.9534912109375
1758876159.6571681,-0.3857421875,0.0029296875,0.8017578125,15.07568359375,2.38037109375,-5.31005859375,-1.1260986328125,47.1807861328125,-33.013916015625
1758876159.6672525,-0.3857421875,0.0029296875,0.8017578125,15.07568359375,2.38037109375,-5.31005859375,-1.0382080078125,47.1588134765625,-33.0633544921875
1758876159.6771042,-0.453125,0.21435546875,1.2841796875,22.03369140625,-4.2724609375,-6.65283203125,-0.87890625,47.0599365234375,-33.1072998046875
1758876159.687295,-0.453125,0.21435546875,1.2841796875,22.03369140625,-4.2724609375,-6.65283203125,-0.703125,46.9500732421875,-33.1292724609375
1758876159.697088,-0.32373046875,-0.1259765625,1.27685546875,19.53125,-7.62939453125,-4.08935546875,-0.5328369140625,46.790771484375,-33.0963134765625
1758876159.7072833,-0.32373046875,-0.1259765625,1.27685546875,19.53125,-7.62939453125,-4.08935546875,-0.3570556640625,46.6204833984375,-33.0633544921875
1758876159.7172678,-0.298828125,-0.21435546875,1.03076171875,29.9072265625,-9.8876953125,-5.126953125,-0.1043701171875,46.417236328125,-33.035888671875
1758876159.7272573,-0.298828125,-0.21435546875,1.03076171875,29.9072265625,-9.8876953125,-5.126953125,0.1373291015625,46.20849609375,-33.013916015625
1758876159.737182,-0.298828125,-0.21435546875,1.03076171875,49.560546875,-17.02880859375,-12.39013671875,0.494384765625,45.9228515625,-33.101806640625
1758876159.747528,-0.40380859375,-0.36767578125,1.1220703125,49.560546875,-17.02880859375,-12.39013671875,0.8349609375,45.63720703125,-33.1951904296875
1758876159.7572467,-0.333984375,0.2265625,1.0390625,-32.28759765625,-15.31982421875,-6.65283203125,0.428466796875,45.362548828125,-33.1951904296875
1758876159.7672384,-0.333984375,0.2265625,1.0390625,-32.28759765625,-15.31982421875,-6.65283203125,0.0439453125,45.0823974609375,-33.1732177734375
1758876159.778024,-1.3935546875,0.20068359375,1.5791015625,-4.57763671875,-34.97314453125,-1.52587890625,0.0,44.62646484375,-33.0853271484375
1758876159.7880108,-1.3935546875,0.20068359375,1.5791015625,-4.57763671875,-34.97314453125,-1.52587890625,-0.0439453125,44.18701171875,-33.013916015625
1758876159.7972243,0.0322265625,-0.0810546875,0.54638671875,6.40869140625,-9.3994140625,-4.82177734375,-0.010986328125,44.000244140625,-32.98095703125
1758876159.8079634,0.0322265625,-0.0810546875,0.54638671875,6.40869140625,-9.3994140625,-4.82177734375,0.0164794921875,43.8079833984375,-32.947998046875
1758876159.8173401,0.0458984375,-0.03076171875,-0.52685546875,-38.4521484375,-10.31494140625,-8.85009765625,-0.439453125,43.6102294921875,-32.969970703125
1758876159.8274534,0.0458984375,-0.03076171875,-0.52685546875,-38.4521484375,-10.31494140625,-8.85009765625,-0.8953857421875,43.41796875,-33.0029296875
1758876159.837316,-0.20947265625,-0.0771484375,-0.55322265625,22.76611328125,16.4794921875,-6.8359375,-0.7305908203125,43.5113525390625,-33.0413818359375
1758876159.8479495,-0.20947265625,-0.0771484375,-0.55322265625,22.76611328125,16.4794921875,-6.8359375,-0.582275390625,43.6322021484375,-33.11279296875
1758876159.8574398,-2.0380859375,0.36572265625,2.86181640625,178.8330078125,-23.4375,-3.72314453125,1.1590576171875,43.3575439453125,-33.123779296875
1758876159.8674946,-2.0380859375,0.36572265625,2.86181640625,178.8330078125,-23.4375,-3.72314453125,2.911376953125,43.0828857421875,-33.134765625
1758876159.877369,-0.50146484375,0.0859375,1.4482421875,-140.2587890625,8.85009765625,-6.34765625,1.461181640625,43.1268310546875,-33.145751953125
1758876159.8878994,-0.50146484375,0.0859375,1.4482421875,-140.2587890625,8.85009765625,-6.34765625,0.0274658203125,43.154296875,-33.145751953125
1758876159.8975086,-0.8974609375,-0.041015625,0.1669921875,-78.7353515625,-18.6767578125,6.65283203125,-0.6646728515625,42.9180908203125,-32.98095703125
1758876159.907916,-0.8974609375,-0.041015625,0.1669921875,-78.7353515625,-18.6767578125,6.65283203125,-1.3623046875,42.7093505859375,-32.838134765625
1758876159.9173806,-0.9013671875,-0.1220703125,0.8427734375,54.443359375,-7.99560546875,-0.30517578125,-0.802001953125,42.6104736328125,-32.7996826171875
1758876159.9284675,-0.9013671875,-0.1220703125,0.8427734375,54.443359375,-7.99560546875,-0.30517578125,-0.252685546875,42.5115966796875,-32.7777099609375
1758876159.9374015,-0.55078125,-0.11572265625,0.20166015625,27.40478515625,-3.84521484375,4.150390625,0.054931640625,42.4676513671875,-32.706298828125
1758876159.9479113,-0.55078125,-0.11572265625,0.20166015625,27.40478515625,-3.84521484375,4.150390625,0.3570556640625,42.4346923828125,-32.6458740234375
1758876159.9577851,-0.8369140625,-0.00537109375,0.48974609375,-16.54052734375,-3.47900390625,6.9580078125,0.2471923828125,42.4127197265625,-32.5579833984375
1758876159.9674585,-0.8369140625,-0.00537109375,0.48974609375,-16.54052734375,-3.47900390625,6.9580078125,0.1373291015625,42.4017333984375,-32.4755859375
1758876159.9774697,-0.84912109375,-0.01123046875,0.76611328125,3.60107421875,1.708984375,6.34765625,0.2252197265625,42.440185546875,-32.4041748046875
1758876159.987455,-0.84912109375,-0.01123046875,0.76611328125,3.60107421875,1.708984375,6.34765625,0.3131103515625,42.484130859375,-32.332763671875
1758876159.9979665,-0.6513671875,-0.1669921875,0.24267578125,26.7333984375,2.86865234375,5.4931640625,0.615234375,42.5445556640625,-32.2833251953125
1758876160.007488,-0.6513671875,-0.1669921875,0.24267578125,26.7333984375,2.86865234375,5.4931640625,0.911865234375,42.6104736328125,-32.244873046875
1758876160.0174677,-1.4755859375,0.22607421875,1.0263671875,-74.40185546875,-5.79833984375,4.08935546875,0.19775390625,42.5994873046875,-32.222900390625
1758876160.0277023,-1.00341796875,0.44287109375,0.49462890625,-104.4921875,-2.44140625,11.474609375,-0.615234375,42.6104736328125,-32.135009765625
1758876160.0377035,-1.00341796875,0.44287109375,0.49462890625,-104.4921875,-2.44140625,11.474609375,-1.5216064453125,42.64892578125,-31.9866943359375
1758876160.0474708,-0.5703125,-0.06884765625,0.26416015625,-43.45703125,-5.55419921875,14.46533203125,-2.0928955078125,42.6763916015625,-31.7999267578125
1758876160.057525,-0.5703125,-0.06884765625,0.26416015625,-43.45703125,-5.55419921875,14.46533203125,-2.35107421875,42.6983642578125,-31.6021728515625
1758876160.0679536,-0.78076171875,-0.3740234375,0.498046875,-11.53564453125,-3.84521484375,12.6953125,-2.4609375,42.725830078125,-31.4263916015625
1758876160.0777006,-0.78076171875,-0.3740234375,0.498046875,-11.53564453125,-3.84521484375,12.6953125,-2.43896484375,42.769775390625,-31.278076171875
1758876160.0875783,-0.9677734375,-0.37451171875,0.95703125,69.03076171875,-5.06591796875,8.48388671875,-2.054443359375,42.802734375,-31.17919921875
1758876160.0976622,-0.9677734375,-0.37451171875,0.95703125,69.03076171875,-5.06591796875,8.48388671875,-1.3018798828125,42.8192138671875,-31.1187744140625
1758876160.1078255,-0.59033203125,-0.2197265625,0.65576171875,89.78271484375,-0.30517578125,4.45556640625,-0.4833984375,42.8521728515625,-31.0968017578125
1758876160.1175718,-0.59033203125,-0.2197265625,0.65576171875,89.78271484375,-0.30517578125,4.45556640625,0.406494140625,42.9071044921875,-31.11328125
1758876160.1275702,-0.42919921875,-0.00537109375,0.43505859375,29.47998046875,1.28173828125,3.173828125,0.9832763671875,42.9620361328125,-31.13525390625
1758876160.1379557,-0.42919921875,-0.00537109375,0.43505859375,29.47998046875,1.28173828125,3.173828125,1.2579345703125,43.0224609375,-31.1627197265625
1758876160.1476343,-0.4599609375,0.17578125,0.51904296875,39.1845703125,6.16455078125,1.52587890625,1.571044921875,43.1048583984375,-31.201171875
1758876160.1576545,-0.4599609375,0.17578125,0.51904296875,39.1845703125,6.16455078125,1.52587890625,1.9390869140625,43.2037353515625,-31.2286376953125
1758876160.16762,-0.55029296875,0.123046875,0.7255859375,46.93603515625,7.14111328125,2.01416015625,2.3565673828125,43.3026123046875,-31.2396240234375
1758876160.1779554,-0.55029296875,0.123046875,0.7255859375,46.93603515625,7.14111328125,2.01416015625,2.823486328125,43.4014892578125,-31.2396240234375
1758876160.1876261,-0.9619140625,0.1015625,1.42041015625,-37.2314453125,1.64794921875,0.91552734375,2.8619384765625,43.4619140625,-31.2286376953125
1758876160.1977983,-0.9619140625,0.1015625,1.42041015625,-37.2314453125,1.64794921875,0.91552734375,2.48291015625,43.48388671875,-31.2176513671875
1758876160.2078476,-0.9951171875,0.12451171875,1.103515625,-50.537109375,-2.25830078125,8.60595703125,2.0819091796875,43.472900390625,-31.1407470703125
1758876160.2177057,-0.9951171875,0.12451171875,1.103515625,-50.537109375,-2.25830078125,8.60595703125,1.658935546875,43.4454345703125,-31.0089111328125
1758876160.2277238,-0.42138671875,-0.06689453125,0.33837890625,32.16552734375,4.0283203125,0.8544921875,1.614990234375,43.450927734375,-30.926513671875
1758876160.2378142,-0.42138671875,-0.06689453125,0.33837890625,32.16552734375,4.0283203125,0.8544921875,1.9390869140625,43.4893798828125,-30.904541015625
1758876160.247949,-0.35693359375,-0.0068359375,0.16455078125,0.6103515625,3.23486328125,1.03759765625,2.109375,43.5223388671875,-30.882568359375
1758876160.258291,-0.35693359375,-0.0068359375,0.16455078125,0.6103515625,3.23486328125,1.03759765625,2.1148681640625,43.5662841796875,-30.8660888671875
1758876160.26778,-0.65185546875,0.0625,0.6845703125,18.73779296875,8.30078125,0.0,2.2137451171875,43.6322021484375,-30.860595703125
1758876160.2782958,-0.65185546875,0.0625,0.6845703125,18.73779296875,8.30078125,0.0,2.39501953125,43.7200927734375,-30.8551025390625
1758876160.2878685,-0.994140625,-0.00341796875,1.48876953125,22.88818359375,-1.40380859375,1.220703125,2.603759765625,43.758544921875,-30.838623046875
1758876160.298429,-0.994140625,-0.00341796875,1.48876953125,22.88818359375,-1.40380859375,1.220703125,2.83447265625,43.736572265625,-30.8111572265625
1758876160.3077717,-0.68359375,-0.08984375,0.8173828125,21.91162109375,2.50244140625,3.84521484375,3.0706787109375,43.7310791015625,-30.76171875
1758876160.3187401,-0.68359375,-0.08984375,0.8173828125,21.91162109375,2.50244140625,3.84521484375,3.3123779296875,43.736572265625,-30.7012939453125
1758876160.328303,-0.60791015625,0.01416015625,0.3076171875,33.203125,-2.0751953125,2.25830078125,3.592529296875,43.7255859375,-30.6573486328125
1758876160.3381705,-0.60791015625,0.01416015625,0.3076171875,33.203125,-2.0751953125,2.25830078125,3.922119140625,43.6981201171875,-30.6353759765625
1758876160.3478682,-0.771484375,0.1484375,0.728515625,36.92626953125,-1.03759765625,0.244140625,4.2572021484375,43.681640625,-30.6298828125
1758876160.3594332,-0.771484375,0.1484375,0.728515625,36.92626953125,-1.03759765625,0.244140625,4.6087646484375,43.6761474609375,-30.6353759765625
1758876160.3682632,-0.7607421875,0.1904296875,0.9462890625,-31.67724609375,-1.46484375,3.41796875,4.63623046875,43.6651611328125,-30.6134033203125
1758876160.3788133,-0.7607421875,0.1904296875,0.9462890625,-31.67724609375,-1.46484375,3.41796875,4.3450927734375,43.648681640625,-30.5584716796875
1758876160.3879478,-0.98779296875,0.1181640625,0.7353515625,-111.51123046875,-5.859375,6.77490234375,3.680419921875,43.6102294921875,-30.4815673828125
1758876160.3989573,-0.98779296875,0.1181640625,0.7353515625,-111.51123046875,-5.859375,6.77490234375,2.63671875,43.5498046875,-30.377197265625
1758876160.4080033,-0.66259765625,-0.01611328125,0.82470703125,-104.3701171875,-8.11767578125,6.89697265625,1.636962890625,43.4893798828125,-30.2728271484375
1758876160.4187713,-0.66259765625,-0.01611328125,0.82470703125,-104.3701171875,-8.11767578125,6.89697265625,0.68115234375,43.4124755859375,-30.16845703125
1758876160.428031,-0.57421875,-0.13818359375,0.41357421875,2.44140625,-2.44140625,10.55908203125,0.274658203125,43.363037109375,-30.03662109375
1758876160.4396522,-0.57421875,-0.13818359375,0.41357421875,2.44140625,-2.44140625,10.55908203125,0.406494140625,43.35205078125,-29.893798828125
1758876160.44802,-0.6044921875,-0.08837890625,0.66259765625,13.48876953125,-5.859375,6.7138671875,0.5712890625,43.319091796875,-29.7784423828125
1758876160.4580433,-0.6044921875,-0.08837890625,0.66259765625,13.48876953125,-5.859375,6.7138671875,0.76904296875,43.275146484375,-29.7015380859375
1758876160.4688044,-0.59814453125,0.01025390625,0.9013671875,28.74755859375,-2.38037109375,5.126953125,1.0272216796875,43.2366943359375,-29.630126953125
1758876160.4781015,-0.59814453125,0.01025390625,0.9013671875,28.74755859375,-2.38037109375,5.126953125,1.3568115234375,43.2147216796875,-29.5697021484375
1758876160.4880555,-0.59716796875,0.01123046875,0.78076171875,23.0712890625,-3.23486328125,6.591796875,1.658935546875,43.1817626953125,-29.4927978515625
1758876160.498093,-0.59716796875,0.01123046875,0.78076171875,23.0712890625,-3.23486328125,6.591796875,1.9390869140625,43.143310546875,-29.4049072265625
1758876160.5081646,-0.70654296875,0.1435546875,0.82861328125,-7.99560546875,-4.8828125,7.62939453125,2.0709228515625,43.08837890625,-29.3115234375
1758876160.5183344,-0.70654296875,0.1435546875,0.82861328125,-7.99560546875,-4.8828125,7.62939453125,2.054443359375,43.0279541015625,-29.20166015625
1758876160.5281348,-0.6689453125,0.01025390625,0.794921875,-12.20703125,-4.94384765625,7.2021484375,2.021484375,42.967529296875,-29.091796875
1758876160.5382526,-0.6689453125,0.01025390625,0.794921875,-12.20703125,-4.94384765625,7.2021484375,1.966552734375,42.9071044921875,-28.9874267578125
1758876160.5483177,-0.78759765625,-0.07470703125,0.79345703125,19.8974609375,-7.080078125,5.67626953125,2.0599365234375,42.835693359375,-28.89404296875
1758876160.5582023,-0.78759765625,-0.07470703125,0.79345703125,19.8974609375,-7.080078125,5.67626953125,2.3016357421875,42.7532958984375,-28.8226318359375
1758876160.5684829,-0.54345703125,-0.01708984375,0.61767578125,23.0712890625,-2.685546875,3.662109375,2.5433349609375,42.6983642578125,-28.773193359375
1758876160.5784032,-0.54345703125,-0.01708984375,0.61767578125,23.0712890625,-2.685546875,3.662109375,2.7960205078125,42.6654052734375,-28.740234375
1758876160.5881908,-0.47021484375,0.095703125,0.4716796875,-15.80810546875,-0.67138671875,2.99072265625,2.845458984375,42.6434326171875,-28.707275390625
1758876160.598198,-0.47021484375,0.095703125,0.4716796875,-15.80810546875,-0.67138671875,2.99072265625,2.70263671875,42.6324462890625,-28.67431640625
1758876160.608225,-0.74169921875,0.10498046875,0.74169921875,-10.3759765625,0.42724609375,2.62451171875,2.5927734375,42.626953125,-28.6468505859375
1758876160.6190178,-0.74169921875,0.10498046875,0.74169921875,-10.3759765625,0.42724609375,2.62451171875,2.515869140625,42.6324462890625,-28.6138916015625
1758876160.6282167,-1.166015625,0.0634765625,1.1689453125,-41.1376953125,-4.45556640625,4.2724609375,2.2906494140625,42.6104736328125,-28.575439453125
1758876160.6383228,-1.166015625,0.0634765625,1.1689453125,-41.1376953125,-4.45556640625,4.2724609375,1.922607421875,42.5665283203125,-28.5205078125
1758876160.6484158,-0.568359375,0.03369140625,0.6787109375,-41.32080078125,-3.96728515625,5.18798828125,1.56005859375,42.528076171875,-28.465576171875
1758876160.6583052,-0.568359375,0.03369140625,0.6787109375,-41.32080078125,-3.96728515625,5.18798828125,1.2030029296875,42.4896240234375,-28.399658203125
1758876160.6684659,-0.4794921875,-0.01611328125,0.3037109375,-15.7470703125,0.0,3.96728515625,0.9722900390625,42.47314453125,-28.3392333984375
1758876160.6789289,-0.4794921875,-0.01611328125,0.3037109375,-15.7470703125,0.0,3.96728515625,0.8624267578125,42.4786376953125,-28.2952880859375
1758876160.6896844,-0.595703125,0.04833984375,0.5576171875,-20.69091796875,0.67138671875,0.3662109375,0.7086181640625,42.4951171875,-28.27880859375
1758876160.6983466,-0.595703125,0.04833984375,0.5576171875,-20.69091796875,0.67138671875,0.3662109375,0.516357421875,42.51708984375,-28.2843017578125
1758876160.7094262,-0.74072265625,0.1103515625,0.97119140625,-23.98681640625,-0.67138671875,3.0517578125,0.3240966796875,42.528076171875,-28.267822265625
1758876160.7187557,-0.74072265625,0.1103515625,0.97119140625,-23.98681640625,-0.67138671875,3.0517578125,0.1318359375,42.528076171875,-28.2293701171875
1758876160.7285767,-0.6396484375,0.0107421875,0.77880859375,-4.82177734375,0.91552734375,5.0048828125,0.0494384765625,42.5335693359375,-28.1689453125
1758876160.738442,-0.6396484375,0.0107421875,0.77880859375,-4.82177734375,0.91552734375,5.0048828125,0.06591796875,42.5390625,-28.0975341796875
1758876160.7492974,-0.5322265625,-0.24462890625,0.44482421875,2.13623046875,3.11279296875,1.5869140625,0.098876953125,42.56103515625,-28.0535888671875
1758876160.758463,-0.5322265625,-0.24462890625,0.44482421875,2.13623046875,3.11279296875,1.5869140625,0.1373291015625,42.593994140625,-28.048095703125
1758876160.7690773,-0.70947265625,-0.0888671875,0.79833984375,6.34765625,0.67138671875,-0.79345703125,0.17578125,42.6214599609375,-28.070068359375
1758876160.7786295,-0.70947265625,-0.0888671875,0.79833984375,6.34765625,0.67138671875,-0.79345703125,0.2197265625,42.626953125,-28.1085205078125
1758876160.788875,-0.87255859375,0.07421875,1.08056640625,10.55908203125,0.1220703125,-1.40380859375,0.2801513671875,42.637939453125,-28.157958984375
1758876160.7984965,-0.87255859375,0.07421875,1.08056640625,10.55908203125,0.1220703125,-1.40380859375,0.362548828125,42.637939453125,-28.1964111328125
1758876160.8090649,-0.888671875,0.13232421875,0.8642578125,-3.11279296875,-2.5634765625,-0.6103515625,0.384521484375,42.6214599609375,-28.2293701171875
1758876160.8193643,-0.888671875,0.13232421875,0.8642578125,-3.11279296875,-2.5634765625,-0.6103515625,0.3515625,42.593994140625,-28.2513427734375
1758876160.8290706,-0.67822265625,0.1025390625,0.6630859375,-30.94482421875,-2.3193359375,0.3662109375,0.186767578125,42.572021484375,-28.2568359375
1758876160.83852,-0.67822265625,0.1025390625,0.6630859375,-30.94482421875,-2.3193359375,0.3662109375,-0.098876953125,42.5555419921875,-28.2568359375
1758876160.8490865,-0.58544921875,-0.0234375,0.44384765625,-32.71484375,-0.9765625,0.244140625,-0.4010009765625,42.5445556640625,-28.2568359375
1758876160.8590128,-0.58544921875,-0.0234375,0.44384765625,-32.71484375,-0.9765625,0.244140625,-0.7086181640625,42.5390625,-28.2623291015625
1758876160.8694143,-0.70263671875,-0.18408203125,0.7294921875,3.662109375,-0.18310546875,-2.44140625,-0.8514404296875,42.550048828125,-28.2952880859375
1758876160.8786004,-0.70263671875,-0.18408203125,0.7294921875,3.662109375,-0.18310546875,-2.44140625,-0.8294677734375,42.5555419921875,-28.3502197265625
1758876160.888558,-1.16455078125,-0.2890625,0.72802734375,37.109375,1.40380859375,-7.6904296875,-0.68115234375,42.5775146484375,-28.45458984375
1758876160.8990076,-1.16455078125,-0.2890625,0.72802734375,37.109375,1.40380859375,-7.6904296875,-0.3955078125,42.615966796875,-28.6138916015625
1758876160.9086063,-1.5009765625,-0.078125,0.27197265625,38.2080078125,-0.48828125,-6.77490234375,-0.10986328125,42.659912109375,-28.7786865234375
1758876160.9186008,-1.5009765625,-0.078125,0.27197265625,38.2080078125,-0.48828125,-6.77490234375,0.1812744140625,42.71484375,-28.9544677734375
1758876160.928805,-0.90771484375,0.22021484375,-0.1357421875,7.14111328125,3.72314453125,0.06103515625,0.362548828125,42.813720703125,-29.091796875
1758876160.9387577,-0.90771484375,0.22021484375,-0.1357421875,7.14111328125,3.72314453125,0.06103515625,0.4339599609375,42.9510498046875,-29.168701171875
1758876160.9486263,-0.66845703125,0.11181640625,0.048828125,-26.2451171875,8.544921875,-0.42724609375,0.3515625,43.1268310546875,-29.2510986328125
1758876160.95866,-0.66845703125,0.11181640625,0.048828125,-26.2451171875,8.544921875,-0.42724609375,0.10986328125,43.3355712890625,-29.3280029296875
1758876160.9687445,-0.66845703125,0.11181640625,0.048828125,-17.9443359375,9.58251953125,-1.64794921875,-0.0933837890625,43.5498046875,-29.410400390625
1758876160.9786646,-0.73876953125,0.01220703125,0.654296875,-17.9443359375,9.58251953125,-1.64794921875,-0.263671875,43.758544921875,-29.498291015625
1758876160.9887044,-0.703125,-0.19970703125,1.3623046875,-6.40869140625,4.57763671875,-0.6103515625,-0.37353515625,43.9288330078125,-29.5806884765625
1758876160.9987395,-0.703125,-0.19970703125,1.3623046875,-6.40869140625,4.57763671875,-0.6103515625,-0.439453125,44.044189453125,-29.652099609375
1758876161.008693,-0.50537109375,-0.025390625,1.150390625,-2.44140625,4.33349609375,1.708984375,-0.4888916015625,44.1375732421875,-29.7015380859375
1758876161.0187047,-0.50537109375,-0.025390625,1.150390625,-2.44140625,4.33349609375,1.708984375,-0.50537109375,44.208984375,-29.72900390625
1758876161.0287302,-0.49365234375,0.08544921875,0.67919921875,6.4697265625,3.84521484375,0.42724609375,-0.4833984375,44.263916015625,-29.7509765625
1758876161.0388055,-0.49365234375,0.08544921875,0.67919921875,6.4697265625,3.84521484375,0.42724609375,-0.41748046875,44.307861328125,-29.77294921875
1758876161.0490732,-0.6591796875,0.00927734375,0.7236328125,6.89697265625,4.39453125,-2.74658203125,-0.3790283203125,44.3572998046875,-29.8333740234375
1758876161.058776,-0.6591796875,0.00927734375,0.7236328125,6.89697265625,4.39453125,-2.74658203125,-0.3350830078125,44.40673828125,-29.893798828125
1758876161.0687637,-0.79248046875,-0.01953125,0.7666015625,7.50732421875,5.92041015625,-1.64794921875,-0.2801513671875,44.4671630859375,-29.937744140625
1758876161.0789495,-0.79248046875,-0.01953125,0.7666015625,7.50732421875,5.92041015625,-1.64794921875,-0.2252197265625,44.527587890625,-29.981689453125
1758876161.0889106,-0.72998046875,-0.0224609375,0.6181640625,1.5869140625,6.8359375,-0.8544921875,-0.2252197265625,44.5989990234375,-30.0146484375
1758876161.0987816,-0.72998046875,-0.0224609375,0.6181640625,1.5869140625,6.8359375,-0.8544921875,-0.2197265625,44.6759033203125,-30.0531005859375
1758876161.108787,-0.697265625,-0.03955078125,0.66796875,-4.57763671875,6.8359375,0.30517578125,-0.2691650390625,44.7528076171875,-30.0750732421875
1758876161.1188846,-0.697265625,-0.03955078125,0.66796875,-4.57763671875,6.8359375,0.30517578125,-0.318603515625,44.8297119140625,-30.0970458984375
1758876161.128848,-0.67333984375,-0.03515625,0.7666015625,-5.92041015625,6.77490234375,1.52587890625,-0.3680419921875,44.901123046875,-30.1025390625
1758876161.1389008,-0.67333984375,-0.03515625,0.7666015625,-5.92041015625,6.77490234375,1.52587890625,-0.4229736328125,44.967041015625,-30.1025390625
1758876161.1489837,-0.6533203125,-0.05078125,0.78564453125,-4.45556640625,7.26318359375,1.89208984375,-0.4559326171875,45.0384521484375,-30.0970458984375
1758876161.159054,-0.6533203125,-0.05078125,0.78564453125,-4.45556640625,7.26318359375,1.89208984375,-0.4888916015625,45.1043701171875,-30.0970458984375
1758876161.1688845,-0.70068359375,-0.046875,0.7177734375,11.1083984375,7.87353515625,0.48828125,-0.384521484375,45.1812744140625,-30.1080322265625
1758876161.1795347,-0.70068359375,-0.046875,0.7177734375,11.1083984375,7.87353515625,0.48828125,-0.28564453125,45.252685546875,-30.12451171875
1758876161.1890783,-0.65673828125,-0.08154296875,0.6845703125,45.7763671875,8.60595703125,-4.33349609375,0.10986328125,45.32958984375,-30.21240234375
1758876161.1990805,-0.65673828125,-0.08154296875,0.6845703125,45.7763671875,8.60595703125,-4.33349609375,0.4998779296875,45.406494140625,-30.30029296875
1758876161.208902,-0.74072265625,-0.0107421875,0.75830078125,56.0302734375,9.21630859375,-6.28662109375,0.9722900390625,45.494384765625,-30.4156494140625
1758876161.2198849,-0.74072265625,-0.0107421875,0.75830078125,56.0302734375,9.21630859375,-6.28662109375,1.4447021484375,45.5767822265625,-30.5255126953125
1758876161.2289271,-0.751953125,0.21435546875,0.64990234375,40.771484375,9.3994140625,-7.75146484375,1.7578125,45.670166015625,-30.6573486328125
1758876161.2392702,-0.751953125,0.21435546875,0.64990234375,40.771484375,9.3994140625,-7.75146484375,2.0819091796875,45.758056640625,-30.772705078125
1758876161.2494113,-0.70947265625,0.13623046875,0.64599609375,10.55908203125,7.99560546875,-8.30078125,2.1038818359375,45.8404541015625,-30.8935546875
1758876161.2592313,-0.70947265625,0.13623046875,0.64599609375,10.55908203125,7.99560546875,-8.30078125,2.13134765625,45.9173583984375,-31.0089111328125
1758876161.2690206,-0.69091796875,-0.02392578125,0.7314453125,-1.46484375,7.32421875,-8.48388671875,2.032470703125,45.98876953125,-31.124267578125
1758876161.2800825,-0.69091796875,-0.02392578125,0.7314453125,-1.46484375,7.32421875,-8.48388671875,1.93359375,46.0601806640625,-31.2451171875
1758876161.2891076,-0.69140625,-0.0595703125,0.74755859375,7.38525390625,7.6904296875,-8.23974609375,1.922607421875,46.131591796875,-31.365966796875
1758876161.2996998,-0.69140625,-0.0595703125,0.74755859375,7.38525390625,7.6904296875,-8.23974609375,1.9061279296875,46.2030029296875,-31.48681640625
1758876161.3092048,-0.71728515625,-0.013671875,0.69873046875,22.5830078125,8.23974609375,-9.033203125,2.032470703125,46.2799072265625,-31.6241455078125
1758876161.3199427,-0.71728515625,-0.013671875,0.69873046875,22.5830078125,8.23974609375,-9.033203125,2.1533203125,46.3568115234375,-31.761474609375
1758876161.329134,-0.66943359375,0.0390625,0.67138671875,40.58837890625,9.09423828125,-11.29150390625,2.4334716796875,46.4447021484375,-31.9317626953125
1758876161.3401208,-0.66943359375,0.0390625,0.67138671875,40.58837890625,9.09423828125,-11.29150390625,2.713623046875,46.5325927734375,-32.0965576171875
1758876161.3495634,-0.7138671875,0.04052734375,0.77490234375,73.54736328125,10.7421875,-14.70947265625,3.284912109375,46.6314697265625,-32.310791015625
1758876161.3600013,-0.7138671875,0.04052734375,0.77490234375,73.54736328125,10.7421875,-14.70947265625,3.856201171875,46.73583984375,-32.51953125
1758876161.3691761,-0.7119140625,0.0048828125,0.76953125,101.5625,11.962890625,-16.4794921875,4.6856689453125,46.8511962890625,-32.7557373046875
1758876161.379629,-0.7119140625,0.0048828125,0.76953125,101.5625,11.962890625,-16.4794921875,5.51513671875,46.9720458984375,-32.991943359375
1758876161.3891373,-0.7314453125,0.05615234375,0.677734375,113.76953125,9.82666015625,-15.31982421875,6.470947265625,47.0709228515625,-33.211669921875
1758876161.3997386,-0.7314453125,0.05615234375,0.677734375,113.76953125,9.82666015625,-15.31982421875,7.4212646484375,47.1697998046875,-33.431396484375
1758876161.4093819,-0.74658203125,0.06689453125,0.625,115.78369140625,5.7373046875,-15.31982421875,8.382568359375,47.2357177734375,-33.6676025390625
1758876161.4194176,-0.74658203125,0.06689453125,0.625,115.78369140625,5.7373046875,-15.31982421875,9.349365234375,47.30712890625,-33.8983154296875
1758876161.429204,-0.73486328125,0.1044921875,0.6240234375,92.59033203125,2.44140625,-14.70947265625,10.0799560546875,47.3455810546875,-34.134521484375
1758876161.4399624,-0.73486328125,0.1044921875,0.6240234375,92.59033203125,2.44140625,-14.70947265625,10.8050537109375,47.39501953125,-34.3707275390625
1758876161.4492185,-0.732421875,0.13427734375,0.69384765625,74.40185546875,-1.0986328125,-14.22119140625,11.3543701171875,47.406005859375,-34.60693359375
1758876161.459479,-0.732421875,0.13427734375,0.69384765625,74.40185546875,-1.0986328125,-14.22119140625,11.9036865234375,47.4169921875,-34.8431396484375
1758876161.4693396,-0.72412109375,0.16015625,0.61328125,50.6591796875,-3.5400390625,-13.671875,12.216796875,47.406005859375,-35.0738525390625
1758876161.4793499,-0.72412109375,0.16015625,0.61328125,50.6591796875,-3.5400390625,-13.671875,12.535400390625,47.39501953125,-35.31005859375
1758876161.4893117,-0.73388671875,0.1953125,0.6279296875,53.22265625,-4.5166015625,-16.17431640625,12.8485107421875,47.384033203125,-35.5792236328125
1758876161.499278,-0.73388671875,0.1953125,0.6279296875,53.22265625,-4.5166015625,-16.17431640625,13.172607421875,47.3785400390625,-35.848388671875
1758876161.5095112,-0.734375,0.13525390625,0.77587890625,81.1767578125,-5.0048828125,-18.49365234375,13.743896484375,47.3675537109375,-36.1505126953125
1758876161.519281,-0.734375,0.13525390625,0.77587890625,81.1767578125,-5.0048828125,-18.49365234375,14.315185546875,47.362060546875,-36.45263671875
1758876161.52933,-0.7265625,0.12060546875,0.7626953125,109.4970703125,-5.06591796875,-18.73779296875,15.1666259765625,47.35107421875,-36.76025390625
1758876161.539756,-0.7265625,0.12060546875,0.7626953125,109.4970703125,-5.06591796875,-18.73779296875,16.007080078125,47.3455810546875,-37.0733642578125
1758876161.549392,-0.70361328125,0.21142578125,0.6474609375,148.49853515625,-5.43212890625,-16.78466796875,17.2540283203125,47.3345947265625,-37.3590087890625
1758876161.5593226,-0.70361328125,0.21142578125,0.6474609375,148.49853515625,-5.43212890625,-16.78466796875,18.5009765625,47.3236083984375,-37.650146484375
1758876161.569369,-0.70556640625,0.1884765625,0.74951171875,137.8173828125,-6.16455078125,-15.380859375,19.6435546875,47.30712890625,-37.9248046875
1758876161.5800345,-0.70556640625,0.1884765625,0.74951171875,137.8173828125,-6.16455078125,-15.380859375,20.7861328125,47.2906494140625,-38.199462890625
1758876161.5902984,-0.740234375,0.32470703125,0.57421875,73.974609375,-5.67626953125,-8.7890625,21.3629150390625,47.26318359375,-38.3807373046875
1758876161.5993853,-0.740234375,0.32470703125,0.57421875,73.974609375,-5.67626953125,-8.7890625,21.939697265625,47.2357177734375,-38.56201171875
1758876161.6096942,-0.74365234375,0.349609375,0.388671875,38.4521484375,-6.7138671875,-4.69970703125,22.21435546875,47.186279296875,-38.682861328125
1758876161.6197538,-0.74365234375,0.349609375,0.388671875,38.4521484375,-6.7138671875,-4.69970703125,22.4945068359375,47.1478271484375,-38.8037109375
1758876161.629949,-0.69970703125,0.251953125,0.53662109375,2.0751953125,-5.126953125,-3.41796875,22.4395751953125,47.120361328125,-38.8916015625
1758876161.6394696,-0.69970703125,0.251953125,0.53662109375,2.0751953125,-5.126953125,-3.41796875,22.39013671875,47.0928955078125,-38.9849853515625
1758876161.6500878,-0.70654296875,0.2490234375,0.6455078125,-21.3623046875,-5.37109375,-1.15966796875,22.12646484375,47.054443359375,-39.04541015625
1758876161.6597023,-0.70654296875,0.2490234375,0.6455078125,-21.3623046875,-5.37109375,-1.15966796875,21.8682861328125,47.010498046875,-39.100341796875
1758876161.66977,-0.7158203125,0.2236328125,0.70263671875,-16.66259765625,-6.16455078125,0.79345703125,21.6705322265625,46.95556640625,-39.1387939453125
1758876161.6794794,-0.7158203125,0.2236328125,0.70263671875,-16.66259765625,-6.16455078125,0.79345703125,21.4727783203125,46.8951416015625,-39.17724609375
1758876161.6901379,-0.7314453125,0.18994140625,0.69189453125,-4.638671875,-5.615234375,2.13623046875,21.412353515625,46.834716796875,-39.1937255859375
1758876161.6996014,-0.7314453125,0.18994140625,0.69189453125,-4.638671875,-5.615234375,2.13623046875,21.3519287109375,46.7742919921875,-39.2156982421875
1758876161.7097712,-0.70947265625,0.19091796875,0.69873046875,23.98681640625,-5.55419921875,1.8310546875,21.566162109375,46.7193603515625,-39.2431640625
1758876161.719548,-0.70947265625,0.19091796875,0.69873046875,23.98681640625,-5.55419921875,1.8310546875,21.7803955078125,46.658935546875,-39.2706298828125
1758876161.7307847,-0.701171875,0.22802734375,0.67431640625,34.912109375,-5.79833984375,2.44140625,22.1044921875,46.593017578125,-39.298095703125
1758876161.7395906,-0.701171875,0.22802734375,0.67431640625,34.912109375,-5.79833984375,2.44140625,22.4285888671875,46.527099609375,-39.3255615234375
1758876161.7502246,-0.70654296875,0.30712890625,0.61767578125,33.26416015625,-5.9814453125,3.5400390625,22.7471923828125,46.4556884765625,-39.3365478515625
1758876161.759691,-0.70654296875,0.30712890625,0.61767578125,33.26416015625,-5.9814453125,3.5400390625,23.0712890625,46.38427734375,-39.342041015625
1758876161.769601,-0.71044921875,0.345703125,0.62060546875,26.79443359375,-5.9814453125,4.08935546875,23.3349609375,46.3128662109375,-39.342041015625
1758876161.779603,-0.71044921875,0.345703125,0.62060546875,26.79443359375,-5.9814453125,4.08935546875,23.6041259765625,46.241455078125,-39.3310546875
1758876161.789767,-0.69384765625,0.31982421875,0.61376953125,9.27734375,-6.4697265625,4.8828125,23.7030029296875,46.1590576171875,-39.3145751953125
1758876161.799665,-0.69384765625,0.31982421875,0.61376953125,9.27734375,-6.4697265625,4.8828125,23.807373046875,46.07666015625,-39.2926025390625
1758876161.8097038,-0.708984375,0.357421875,0.56884765625,-16.6015625,-7.14111328125,5.18798828125,23.6590576171875,45.98876953125,-39.2706298828125
1758876161.8198707,-0.708984375,0.357421875,0.56884765625,-16.6015625,-7.14111328125,5.18798828125,23.5162353515625,45.9063720703125,-39.2376708984375
1758876161.8296986,-0.70263671875,0.361328125,0.57275390625,-41.6259765625,-7.99560546875,6.40869140625,23.13720703125,45.8074951171875,-39.1937255859375
1758876161.8397532,-0.70263671875,0.361328125,0.57275390625,-41.6259765625,-7.99560546875,6.40869140625,22.763671875,45.7086181640625,-39.1387939453125
1758876161.850139,-0.708984375,0.32177734375,0.56298828125,-79.89501953125,-9.58251953125,8.85009765625,22.0330810546875,45.5877685546875,-39.0618896484375
1758876161.8597336,-0.708984375,0.32177734375,0.56298828125,-79.89501953125,-9.58251953125,8.85009765625,21.3134765625,45.472412109375,-38.9739990234375
1758876161.8697674,-0.7099609375,0.30029296875,0.59912109375,-127.44140625,-10.92529296875,11.1083984375,20.1434326171875,45.340576171875,-38.858642578125
1758876161.8805768,-0.7099609375,0.30029296875,0.59912109375,-127.44140625,-10.92529296875,11.1083984375,18.9788818359375,45.208740234375,-38.73779296875
1758876161.889772,-0.6904296875,0.27685546875,0.67138671875,-178.466796875,-12.75634765625,13.36669921875,17.3309326171875,45.0494384765625,-38.583984375
1758876161.8997629,-0.6904296875,0.27685546875,0.67138671875,-178.466796875,-12.75634765625,13.36669921875,15.6939697265625,44.901123046875,-38.419189453125
1758876161.9102435,-0.662109375,0.1787109375,0.68505859375,-235.4736328125,-13.5498046875,14.2822265625,13.5076904296875,44.7418212890625,-38.2379150390625
1758876161.9197407,-0.662109375,0.1787109375,0.68505859375,-235.4736328125,-13.5498046875,14.2822265625,11.3323974609375,44.5880126953125,-38.0401611328125
1758876161.9300091,-0.6357421875,0.13916015625,0.6337890625,-288.0859375,-13.916015625,14.46533203125,8.646240234375,44.4342041015625,-37.8314208984375
1758876161.9401052,-0.6357421875,0.13916015625,0.6337890625,-288.0859375,-13.916015625,14.46533203125,5.9820556640625,44.285888671875,-37.606201171875
1758876161.9498634,-0.7861328125,0.0888671875,0.73193359375,-295.22705078125,-18.4326171875,13.85498046875,3.2464599609375,44.1046142578125,-37.3809814453125
1758876161.95982,-0.7861328125,0.0888671875,0.73193359375,-295.22705078125,-18.4326171875,13.85498046875,0.5218505859375,43.934326171875,-37.144775390625
1758876161.970017,-0.7861328125,0.0888671875,0.73193359375,-217.59033203125,-19.34814453125,11.77978515625,-1.4337158203125,43.7530517578125,-36.9305419921875
1758876161.9803226,-0.6806640625,-0.185546875,1.07958984375,-217.59033203125,-19.34814453125,11.77978515625,-3.4002685546875,43.5662841796875,-36.71630859375
1758876161.989859,-0.5595703125,-0.3896484375,0.84765625,-113.28125,-20.8740234375,9.033203125,-4.361572265625,43.363037109375,-36.5350341796875
1758876161.999887,-0.5595703125,-0.3896484375,0.84765625,-113.28125,-20.8740234375,9.033203125,-5.3338623046875,43.1597900390625,-36.36474609375
1758876162.0103674,-0.701171875,-0.18310546875,0.66015625,-50.10986328125,-21.78955078125,5.92041015625,-5.712890625,42.945556640625,-36.2384033203125
1758876162.0198784,-0.701171875,-0.18310546875,0.66015625,-50.10986328125,-21.78955078125,5.92041015625,-6.097412109375,42.7313232421875,-36.123046875
1758876162.030079,-0.69677734375,0.01611328125,0.57470703125,-29.60205078125,-21.240234375,2.01416015625,-6.317138671875,42.528076171875,-36.0516357421875
1758876162.0406942,-0.69677734375,0.01611328125,0.57470703125,-29.60205078125,-21.240234375,2.01416015625,-6.5313720703125,42.330322265625,-35.9857177734375
1758876162.0499425,-0.685546875,-0.01025390625,0.607421875,-29.35791015625,-20.751953125,1.46484375,-6.74560546875,42.1380615234375,-35.9197998046875
1758876162.0601947,-0.65185546875,-0.142578125,0.720703125,-20.32470703125,-20.5078125,0.6103515625,-6.9268798828125,41.9512939453125,-35.8648681640625
1758876162.070013,-0.65185546875,-0.142578125,0.720703125,-20.32470703125,-20.5078125,0.6103515625,-7.064208984375,41.7645263671875,-35.8154296875
1758876162.0813763,-0.6240234375,-0.13720703125,0.85546875,-31.18896484375,-19.71435546875,0.67138671875,-7.2674560546875,41.5777587890625,-35.771484375
1758876162.0900495,-0.6240234375,-0.13720703125,0.85546875,-31.18896484375,-19.71435546875,0.67138671875,-7.525634765625,41.396484375,-35.7275390625
1758876162.1002367,-0.625,-0.052734375,0.9052734375,-59.99755859375,-20.3857421875,1.77001953125,-7.921142578125,41.2042236328125,-35.6671142578125
1758876162.1103418,-0.625,-0.052734375,0.9052734375,-59.99755859375,-20.3857421875,1.77001953125,-8.448486328125,41.0064697265625,-35.595703125
1758876162.120421,-0.58837890625,-0.064453125,0.83203125,-80.01708984375,-22.8271484375,0.91552734375,-9.0802001953125,40.7977294921875,-35.518798828125
1758876162.1302092,-0.58837890625,-0.064453125,0.83203125,-80.01708984375,-22.8271484375,0.91552734375,-9.7998046875,40.572509765625,-35.4364013671875
1758876162.140707,-0.6044921875,-0.1484375,0.8095703125,-80.38330078125,-25.45166015625,0.8544921875,-10.5194091796875,40.330810546875,-35.3485107421875
1758876162.1501598,-0.6044921875,-0.1484375,0.8095703125,-80.38330078125,-25.45166015625,0.8544921875,-11.239013671875,40.078125,-35.2496337890625
1758876162.1603048,-0.6259765625,-0.2734375,0.74951171875,-73.1201171875,-25.69580078125,0.6103515625,-11.9146728515625,39.8309326171875,-35.15625
1758876162.170083,-0.6259765625,-0.2734375,0.74951171875,-73.1201171875,-25.69580078125,0.6103515625,-12.5628662109375,39.5782470703125,-35.0628662109375
1758876162.1824338,-0.61962890625,-0.208984375,0.7470703125,-76.5380859375,-25.81787109375,3.23486328125,-13.216552734375,39.3310546875,-34.9530029296875
1758876162.1901913,-0.61962890625,-0.208984375,0.7470703125,-76.5380859375,-25.81787109375,3.23486328125,-13.8812255859375,39.0838623046875,-34.82666015625
1758876162.2018712,-0.6162109375,-0.22900390625,0.72216796875,-64.5751953125,-24.96337890625,3.7841796875,-14.4744873046875,38.84765625,-34.7003173828125
1758876162.2102344,-0.6162109375,-0.22900390625,0.72216796875,-64.5751953125,-24.96337890625,3.7841796875,-15.0128173828125,38.6224365234375,-34.5684814453125
1758876162.2201061,-0.59765625,-0.29833984375,0.72509765625,-37.41455078125,-23.3154296875,3.35693359375,-15.4193115234375,38.4027099609375,-34.442138671875
1758876162.2304523,-0.59765625,-0.29833984375,0.72509765625,-37.41455078125,-23.3154296875,3.35693359375,-15.699462890625,38.1884765625,-34.3267822265625
1758876162.2402196,-0.587890625,-0.31884765625,0.76904296875,-18.9208984375,-21.54541015625,4.45556640625,-15.88623046875,37.99072265625,-34.21142578125
1758876162.250263,-0.587890625,-0.31884765625,0.76904296875,-18.9208984375,-21.54541015625,4.45556640625,-15.985107421875,37.7984619140625,-34.0960693359375
1758876162.260256,-0.59521484375,-0.24951171875,0.78564453125,-18.1884765625,-20.1416015625,5.0048828125,-16.083984375,37.6116943359375,-33.980712890625
1758876162.2706249,-0.59521484375,-0.24951171875,0.78564453125,-18.1884765625,-20.1416015625,5.0048828125,-16.182861328125,37.4359130859375,-33.8653564453125
1758876162.2811432,-0.5546875,-0.2392578125,0.81884765625,-32.1044921875,-18.49365234375,6.77490234375,-16.3421630859375,37.2711181640625,-33.7445068359375
1758876162.2902582,-0.5546875,-0.2392578125,0.81884765625,-32.1044921875,-18.49365234375,6.77490234375,-16.5673828125,37.11181640625,-33.6126708984375
1758876162.300281,-0.529296875,-0.1953125,0.896484375,-46.32568359375,-18.24951171875,7.9345703125,-16.8585205078125,36.9580078125,-33.4698486328125
1758876162.3103318,-0.529296875,-0.1953125,0.896484375,-46.32568359375,-18.24951171875,7.9345703125,-17.215576171875,36.7987060546875,-33.310546875
1758876162.3202574,-0.48779296875,-0.29931640625,0.92236328125,-46.81396484375,-17.02880859375,10.8642578125,-17.55615234375,36.650390625,-33.134765625
1758876162.3307927,-0.48779296875,-0.29931640625,0.92236328125,-46.81396484375,-17.02880859375,10.8642578125,-17.896728515625,36.507568359375,-32.9425048828125
1758876162.3403459,-0.3515625,-0.29736328125,1.013671875,-71.8994140625,-18.98193359375,12.8173828125,-18.34716796875,36.3592529296875,-32.7227783203125
1758876162.3505924,-0.3515625,-0.29736328125,1.013671875,-71.8994140625,-18.98193359375,12.8173828125,-18.9129638671875,36.1944580078125,-32.4810791015625
1758876162.3603122,-0.28955078125,-0.17333984375,1.1025390625,-73.79150390625,-20.01953125,13.97705078125,-19.478759765625,36.0186767578125,-32.222900390625
1758876162.3703656,-0.28955078125,-0.17333984375,1.1025390625,-73.79150390625,-20.01953125,13.97705078125,-20.0335693359375,35.83740234375,-31.937255859375
1758876162.3817255,-0.22998046875,-0.25048828125,1.0498046875,-73.30322265625,-21.6064453125,14.95361328125,-20.577392578125,35.6396484375,-31.6241455078125
1758876162.3904855,-0.22998046875,-0.25048828125,1.0498046875,-73.30322265625,-21.6064453125,14.95361328125,-21.104736328125,35.4364013671875,-31.2945556640625
1758876162.400424,-0.31396484375,-0.6298828125,1.001953125,-25.87890625,-23.193359375,12.87841796875,-21.4013671875,35.2166748046875,-30.9649658203125
1758876162.4104784,-0.31396484375,-0.6298828125,1.001953125,-25.87890625,-23.193359375,12.87841796875,-21.478271484375,34.98046875,-30.65185546875
1758876162.4206817,-0.015625,-0.22705078125,0.7548828125,27.587890625,-18.06640625,17.88330078125,-21.2860107421875,34.771728515625,-30.322265625
1758876162.430943,-0.015625,-0.22705078125,0.7548828125,27.587890625,-18.06640625,17.88330078125,-20.819091796875,34.5849609375,-29.9652099609375
1758876162.4404929,-0.12060546875,-0.234375,0.75048828125,40.71044921875,-12.6953125,12.75634765625,-20.313720703125,34.4091796875,-29.6466064453125
1758876162.450737,-0.12060546875,-0.234375,0.75048828125,40.71044921875,-12.6953125,12.75634765625,-19.7698974609375,34.2388916015625,-29.3719482421875
1758876162.4604845,-0.515625,-0.669921875,0.8056640625,82.58056640625,-6.65283203125,11.29150390625,-19.039306640625,34.0960693359375,-29.11376953125
1758876162.4705358,-0.515625,-0.669921875,0.8056640625,82.58056640625,-6.65283203125,11.29150390625,-18.1329345703125,33.980712890625,-28.9105224609375
1758876162.481391,-0.515625,-0.669921875,0.8056640625,155.517578125,1.3427734375,6.9580078125,-16.907958984375,33.8983154296875,-28.7677001953125
1758876162.4917104,-0.4091796875,-0.58935546875,0.607421875,155.517578125,1.3427734375,6.9580078125,-15.3643798828125,33.8543701171875,-28.685302734375
1758876162.5004854,-1.056640625,-0.24267578125,1.14501953125,133.9111328125,-5.7373046875,5.43212890625,-13.9471435546875,33.7774658203125,-28.6248779296875
1758876162.510705,-1.056640625,-0.24267578125,1.14501953125,133.9111328125,-5.7373046875,5.43212890625,-12.63427734375,33.68408203125,-28.5809326171875
1758876162.5205214,-1.1708984375,0.0771484375,1.576171875,56.396484375,-3.84521484375,-0.8544921875,-11.7279052734375,33.607177734375,-28.5809326171875
1758876162.5322053,-1.1708984375,0.0771484375,1.576171875,56.396484375,-3.84521484375,-0.8544921875,-11.2060546875,33.541259765625,-28.6138916015625
1758876162.5405295,-0.39501953125,0.0986328125,-0.009765625,1.5869140625,-0.42724609375,2.86865234375,-10.9368896484375,33.50830078125,-28.6248779296875
1758876162.5507808,-0.39501953125,0.0986328125,-0.009765625,1.5869140625,-0.42724609375,2.86865234375,-10.9259033203125,33.5028076171875,-28.6248779296875
1758876162.5605822,-0.3642578125,0.0615234375,-0.00390625,6.28662109375,5.0048828125,1.708984375,-10.8984375,33.5357666015625,-28.6468505859375
1758876162.571606,-0.3642578125,0.0615234375,-0.00390625,6.28662109375,5.0048828125,1.708984375,-10.8489990234375,33.607177734375,-28.6907958984375
1758876162.5806127,-0.626953125,-0.0400390625,0.4384765625,79.2236328125,10.6201171875,2.44140625,-10.4315185546875,33.717041015625,-28.740234375
1758876162.5911412,-0.626953125,-0.0400390625,0.4384765625,79.2236328125,10.6201171875,2.44140625,-9.64599609375,33.85986328125,-28.8006591796875
1758876162.6008441,-0.6748046875,-0.25,1.22509765625,54.3212890625,11.962890625,-0.6103515625,-9.0032958984375,34.013671875,-28.8720703125
1758876162.6116226,-0.6748046875,-0.25,1.22509765625,54.3212890625,11.962890625,-0.6103515625,-8.492431640625,34.156494140625,-28.9599609375
1758876162.6206124,-0.71240234375,-0.10888671875,0.98681640625,-62.8662109375,11.5966796875,4.33349609375,-8.558349609375,34.29931640625,-29.014892578125
1758876162.6312346,-0.71240234375,-0.10888671875,0.98681640625,-62.8662109375,11.5966796875,4.33349609375,-9.1790771484375,34.4366455078125,-29.036865234375
1758876162.6407669,-0.7001953125,-0.1640625,0.5166015625,-45.166015625,9.82666015625,2.9296875,-9.7174072265625,34.56298828125,-29.0643310546875
1758876162.6507215,-0.7001953125,-0.1640625,0.5166015625,-45.166015625,9.82666015625,2.9296875,-10.1678466796875,34.6893310546875,-29.102783203125
1758876162.6606932,-0.71337890625,-0.310546875,0.96044921875,-10.43701171875,10.1318359375,2.62451171875,-10.4425048828125,34.8211669921875,-29.1522216796875
1758876162.670954,-0.71337890625,-0.310546875,0.96044921875,-10.43701171875,10.1318359375,2.62451171875,-10.5523681640625,34.9530029296875,-29.2071533203125
1758876162.6807606,-0.638671875,-0.3154296875,0.88671875,23.5595703125,10.55908203125,3.41796875,-10.491943359375,35.079345703125,-29.2620849609375
1758876162.6907735,-0.638671875,-0.3154296875,0.88671875,23.5595703125,10.55908203125,3.41796875,-10.2667236328125,35.211181640625,-29.3115234375
1758876162.7007658,-0.509765625,-0.3134765625,0.61181640625,52.55126953125,10.25390625,3.72314453125,-9.9041748046875,35.3375244140625,-29.3609619140625
1758876162.7110791,-0.509765625,-0.3134765625,0.61181640625,52.55126953125,10.25390625,3.72314453125,-9.3988037109375,35.4583740234375,-29.4158935546875
1758876162.7207425,-0.5,-0.25048828125,0.67041015625,26.55029296875,10.92529296875,3.662109375,-9.03076171875,35.584716796875,-29.476318359375
1758876162.7307842,-0.5,-0.25048828125,0.67041015625,26.55029296875,10.92529296875,3.662109375,-8.800048828125,35.716552734375,-29.542236328125
1758876162.741174,-0.5,-0.25048828125,0.67041015625,42.96875,10.6201171875,0.67138671875,-8.4979248046875,35.83740234375,-29.619140625
1758876162.750829,-0.576171875,-0.21728515625,0.8408203125,42.96875,10.6201171875,0.67138671875,-8.1243896484375,35.9527587890625,-29.718017578125
1758876162.7608483,-0.68505859375,-0.18017578125,0.93017578125,58.04443359375,11.41357421875,1.28173828125,-7.6739501953125,36.0736083984375,-29.805908203125
1758876162.7708693,-0.68505859375,-0.18017578125,0.93017578125,58.04443359375,11.41357421875,1.28173828125,-7.1466064453125,36.1944580078125,-29.893798828125
1758876162.78106,-0.66455078125,-0.00390625,0.7763671875,76.5380859375,11.41357421875,-0.18310546875,-6.5313720703125,36.3153076171875,-29.981689453125
1758876162.7908697,-0.66455078125,-0.00390625,0.7763671875,76.5380859375,11.41357421875,-0.18310546875,-5.82275390625,36.4361572265625,-30.0750732421875
1758876162.8008692,-0.603515625,0.01171875,0.7177734375,75.86669921875,12.51220703125,0.1220703125,-5.108642578125,36.5625,-30.157470703125
1758876162.8109086,-0.603515625,0.01171875,0.7177734375,75.86669921875,12.51220703125,0.1220703125,-4.39453125,36.6943359375,-30.234375
1758876162.8212526,-0.513671875,-0.01953125,0.7490234375,45.83740234375,13.7939453125,-0.6103515625,-3.834228515625,36.837158203125,-30.311279296875
1758876162.8309047,-0.513671875,-0.01953125,0.7490234375,45.83740234375,13.7939453125,-0.6103515625,-3.4222412109375,36.97998046875,-30.38818359375
1758876162.8408825,-0.4521484375,-0.06298828125,0.80859375,22.39990234375,14.5263671875,-1.0986328125,-3.1256103515625,37.122802734375,-30.465087890625
1758876162.8509314,-0.4521484375,-0.06298828125,0.80859375,22.39990234375,14.5263671875,-1.0986328125,-2.9498291015625,37.265625,-30.5419921875
1758876162.861197,-0.48779296875,-0.111328125,0.81396484375,21.91162109375,15.625,-1.0986328125,-2.7740478515625,37.408447265625,-30.6134033203125
1758876162.8709264,-0.48779296875,-0.111328125,0.81396484375,21.91162109375,15.625,-1.0986328125,-2.603759765625,37.55126953125,-30.684814453125
1758876162.880975,-1.1943359375,-0.07568359375,0.93115234375,30.3955078125,11.8408203125,-1.220703125,-2.3895263671875,37.6776123046875,-30.7562255859375
1758876162.8910108,-1.1943359375,-0.07568359375,0.93115234375,30.3955078125,11.8408203125,-1.220703125,-2.13134765625,37.7984619140625,-30.838623046875
1758876162.9012172,-1.09765625,0.150390625,0.57666015625,3.0517578125,11.8408203125,0.9765625,-1.9940185546875,37.9302978515625,-30.904541015625
1758876162.9110267,-1.09765625,0.150390625,0.57666015625,3.0517578125,11.8408203125,0.9765625,-1.9775390625,38.07861328125,-30.95947265625
1758876162.9209716,-0.7197265625,0.1025390625,0.34912109375,-47.119140625,13.427734375,1.52587890625,-2.197265625,38.243408203125,-31.0089111328125
1758876162.9312663,-0.7197265625,0.1025390625,0.34912109375,-47.119140625,13.427734375,1.52587890625,-2.65869140625,38.4246826171875,-31.0528564453125
1758876162.941677,-0.78857421875,0.0166015625,0.36279296875,-55.5419921875,14.46533203125,5.9814453125,-3.1365966796875,38.6224365234375,-31.0693359375
1758876162.9510274,-0.78857421875,0.0166015625,0.36279296875,-55.5419921875,14.46533203125,5.9814453125,-3.636474609375,38.8311767578125,-31.058349609375
1758876162.961408,-0.734375,-0.310546875,0.73583984375,-6.65283203125,15.44189453125,0.30517578125,-3.9166259765625,39.04541015625,-31.09130859375
1758876162.9714062,-0.734375,-0.310546875,0.73583984375,-6.65283203125,15.44189453125,0.30517578125,-3.9825439453125,39.2596435546875,-31.168212890625
1758876162.9818509,-0.61181640625,-0.37890625,0.84521484375,7.01904296875,15.68603515625,2.13623046875,-3.988037109375,39.473876953125,-31.2451171875
1758876162.9910786,-0.61181640625,-0.37890625,0.84521484375,7.01904296875,15.68603515625,2.13623046875,-3.93310546875,39.6771240234375,-31.3165283203125
1758876163.0013847,-0.5361328125,-0.068359375,0.84716796875,25.7568359375,15.80810546875,1.89208984375,-3.790283203125,39.8748779296875,-31.3934326171875
1758876163.0113492,-0.5361328125,-0.068359375,0.84716796875,25.7568359375,15.80810546875,1.89208984375,-3.5595703125,40.067138671875,-31.46484375
1758876163.0216012,-0.55712890625,0.0771484375,0.875,20.5078125,15.2587890625,0.48828125,-3.3563232421875,40.242919921875,-31.5362548828125
1758876163.0311847,-0.55712890625,0.0771484375,0.875,20.5078125,15.2587890625,0.48828125,-3.175048828125,40.40771484375,-31.5966796875
1758876163.0414999,-0.57958984375,0.1298828125,0.88818359375,3.23486328125,15.2587890625,-1.0986328125,-3.0816650390625,40.5670166015625,-31.6571044921875
1758876163.0516348,-0.57958984375,0.1298828125,0.88818359375,3.23486328125,15.2587890625,-1.0986328125,-3.076171875,40.71533203125,-31.7120361328125
1758876163.061736,-0.62841796875,-0.0126953125,0.81591796875,-2.9296875,14.95361328125,-2.44140625,-3.0926513671875,40.8636474609375,-31.7669677734375
1758876163.0711942,-0.62841796875,-0.0126953125,0.81591796875,-2.9296875,14.95361328125,-2.44140625,-3.153076171875,41.0009765625,-31.827392578125
1758876163.082004,-0.63037109375,-0.10693359375,0.716796875,12.02392578125,14.2822265625,-3.72314453125,-3.0706787109375,41.1328125,-31.904296875
1758876163.0929396,-0.63037109375,-0.10693359375,0.716796875,12.02392578125,14.2822265625,-3.72314453125,-2.9937744140625,41.2701416015625,-31.9866943359375
1758876163.101848,-0.5947265625,-0.0849609375,0.68994140625,45.2880859375,12.14599609375,-3.72314453125,-2.5872802734375,41.3800048828125,-32.069091796875
1758876163.111236,-0.5947265625,-0.0849609375,0.68994140625,45.2880859375,12.14599609375,-3.72314453125,-2.186279296875,41.4898681640625,-32.1514892578125
1758876163.1223915,-0.654296875,-0.04638671875,0.83349609375,66.40625,10.6201171875,-4.150390625,-1.5765380859375,41.583251953125,-32.2393798828125
1758876163.1313274,-0.654296875,-0.04638671875,0.83349609375,66.40625,10.6201171875,-4.150390625,-0.9722900390625,41.68212890625,-32.32177734375
1758876163.1412861,-0.6240234375,0.0703125,0.82861328125,80.2001953125,7.75146484375,-5.31005859375,-0.2362060546875,41.7425537109375,-32.4151611328125
1758876163.1514964,-0.6240234375,0.0703125,0.82861328125,80.2001953125,7.75146484375,-5.31005859375,0.494384765625,41.8084716796875,-32.508544921875
1758876163.161444,-0.51904296875,0.06103515625,0.7724609375,84.16748046875,5.37109375,-5.92041015625,1.2689208984375,41.8414306640625,-32.6019287109375
1758876163.1713,-0.51904296875,0.06103515625,0.7724609375,84.16748046875,5.37109375,-5.92041015625,2.0379638671875,41.8798828125,-32.6898193359375
1758876163.1813989,-0.546875,0.18994140625,0.89990234375,62.6220703125,4.08935546875,-6.40869140625,2.5927734375,41.8963623046875,-32.7777099609375
1758876163.1915119,-0.546875,0.18994140625,0.89990234375,62.6220703125,4.08935546875,-6.40869140625,3.153076171875,41.912841796875,-32.8546142578125
1758876163.2013001,-0.50439453125,0.21728515625,0.9677734375,39.85595703125,3.60107421875,-7.26318359375,3.482666015625,41.9183349609375,-32.9315185546875
1758876163.2114835,-0.50439453125,0.21728515625,0.9677734375,39.85595703125,3.60107421875,-7.26318359375,3.8232421875,41.9183349609375,-32.9974365234375
1758876163.221497,-0.4912109375,0.08984375,0.91650390625,14.34326171875,1.8310546875,-6.53076171875,3.9111328125,41.8963623046875,-33.0523681640625
1758876163.2317502,-0.4912109375,0.08984375,0.91650390625,14.34326171875,1.8310546875,-6.53076171875,4.0045166015625,41.868896484375,-33.1072998046875
1758876163.2414086,-0.279296875,-0.01416015625,1.1572265625,11.8408203125,-0.244140625,-8.97216796875,4.04296875,41.81396484375,-33.1842041015625
1758876163.2515018,-0.279296875,-0.01416015625,1.1572265625,11.8408203125,-0.244140625,-8.97216796875,4.0869140625,41.748046875,-33.2611083984375
1758876163.2618985,-0.861328125,-0.2275390625,1.45556640625,38.75732421875,-9.8876953125,-11.41357421875,4.3505859375,41.583251953125,-33.3819580078125
1758876163.2714763,-0.861328125,-0.2275390625,1.45556640625,38.75732421875,-9.8876953125,-11.41357421875,4.6087646484375,41.4239501953125,-33.5247802734375
1758876163.2814205,-0.3408203125,-0.2158203125,1.0087890625,146.484375,-6.16455078125,-12.75634765625,5.9161376953125,41.3031005859375,-33.6895751953125
1758876163.2919354,-0.3408203125,-0.2158203125,1.0087890625,146.484375,-6.16455078125,-12.75634765625,7.20703125,41.1767578125,-33.85986328125
1758876163.3014722,-0.06787109375,-0.509765625,0.619140625,157.16552734375,-10.009765625,-17.27294921875,8.5308837890625,41.0174560546875,-34.12353515625
1758876163.311488,-0.06787109375,-0.509765625,0.619140625,157.16552734375,-10.009765625,-17.27294921875,9.8272705078125,40.858154296875,-34.4091796875
1758876163.3215115,0.09423828125,-0.21044921875,0.4921875,71.2890625,-6.2255859375,-18.24951171875,10.2447509765625,40.7318115234375,-34.7113037109375
1758876163.3315892,0.09423828125,-0.21044921875,0.4921875,71.2890625,-6.2255859375,-18.24951171875,10.65673828125,40.5999755859375,-35.013427734375
1758876163.3418016,0.19189453125,-0.05908203125,0.15673828125,68.17626953125,3.72314453125,-22.705078125,11.00830078125,40.5670166015625,-35.3485107421875
1758876163.3515165,0.19189453125,-0.05908203125,0.15673828125,68.17626953125,3.72314453125,-22.705078125,11.35986328125,40.5230712890625,-35.672607421875
1758876163.361806,-0.017578125,0.0478515625,0.107421875,26.42822265625,12.6953125,-23.5595703125,11.304931640625,40.5615234375,-35.9857177734375
1758876163.3715818,-0.017578125,0.0478515625,0.107421875,26.42822265625,12.6953125,-23.5595703125,11.25,40.60546875,-36.287841796875
1758876163.381679,-1.57958984375,1.15673828125,2.5478515625,-135.8642578125,-9.6435546875,-7.568359375,9.7503662109375,40.40771484375,-36.38671875
1758876163.3923104,-1.57958984375,1.15673828125,2.5478515625,-135.8642578125,-9.6435546875,-7.568359375,8.3111572265625,40.23193359375,-36.441650390625
1758876163.401734,-0.7939453125,0.8603515625,1.94482421875,-157.2265625,-6.103515625,-7.6904296875,6.70166015625,40.089111328125,-36.463623046875
1758876163.4117744,-0.7939453125,0.8603515625,1.94482421875,-157.2265625,-6.103515625,-7.6904296875,5.1251220703125,39.9462890625,-36.45263671875
1758876163.4216132,-0.40380859375,0.05224609375,-0.19921875,-185.24169921875,-11.29150390625,3.11279296875,3.372802734375,39.7540283203125,-36.309814453125
1758876163.4320328,-0.40380859375,0.05224609375,-0.19921875,-185.24169921875,-11.29150390625,3.11279296875,1.6314697265625,39.5782470703125,-36.1724853515625
1758876163.4427288,-0.51123046875,-0.14453125,-0.0810546875,-80.01708984375,-5.7373046875,0.48828125,0.9228515625,39.473876953125,-36.0791015625
1758876163.452215,-0.51123046875,-0.14453125,-0.0810546875,-80.01708984375,-5.7373046875,0.48828125,0.208740234375,39.385986328125,-36.002197265625
1758876163.4617143,-1.2607421875,-0.06591796875,1.25146484375,4.7607421875,-9.27734375,-7.75146484375,0.2581787109375,39.276123046875,-36.05712890625
1758876163.471994,-1.2607421875,-0.06591796875,1.25146484375,4.7607421875,-9.27734375,-7.75146484375,0.296630859375,39.17724609375,-36.123046875
1758876163.4818184,-0.87109375,0.07861328125,1.17138671875,-63.96484375,-10.498046875,4.150390625,-0.2581787109375,39.0673828125,-36.046142578125
1758876163.4923966,-0.87109375,0.07861328125,1.17138671875,-63.96484375,-10.498046875,4.150390625,-0.81298828125,38.9520263671875,-35.9637451171875
1758876163.501748,-0.8017578125,-0.3125,0.55419921875,0.48828125,-8.48388671875,1.52587890625,-0.758056640625,38.86962890625,-35.9307861328125
1758876163.5127087,-0.8017578125,-0.3125,0.55419921875,0.48828125,-8.48388671875,1.52587890625,-0.7196044921875,38.792724609375,-35.914306640625
1758876163.521864,-1.0419921875,-0.0322265625,0.490234375,-54.3212890625,-11.71875,-3.11279296875,-1.263427734375,38.6993408203125,-35.96923828125
1758876163.5320463,-1.0419921875,-0.0322265625,0.490234375,-54.3212890625,-11.71875,-3.11279296875,-1.812744140625,38.616943359375,-36.0296630859375
1758876163.5420763,-0.919921875,0.2529296875,0.3955078125,-116.69921875,-13.427734375,2.3193359375,-2.92236328125,38.5345458984375,-36.01318359375
1758876163.5529516,-0.919921875,0.2529296875,0.3955078125,-116.69921875,-13.427734375,2.3193359375,-4.0155029296875,38.4576416015625,-35.9912109375
1758876163.561909,-0.75341796875,-0.02294921875,0.77490234375,-19.10400390625,-9.82666015625,4.57763671875,-4.1143798828125,38.4246826171875,-35.936279296875
1758876163.5724878,-0.75341796875,-0.02294921875,0.77490234375,-19.10400390625,-9.82666015625,4.57763671875,-4.21875,38.38623046875,-35.88134765625
1758876163.5822022,-0.68701171875,-0.193359375,0.21142578125,6.16455078125,-4.5166015625,5.31005859375,-4.0704345703125,38.408203125,-35.8319091796875
1758876163.5934591,-0.68701171875,-0.193359375,0.21142578125,6.16455078125,-4.5166015625,5.31005859375,-3.93310546875,38.441162109375,-35.79345703125
1758876163.6019282,-0.8486328125,-0.017578125,0.7216796875,-2.13623046875,-10.07080078125,1.64794921875,-3.9111328125,38.419189453125,-35.7989501953125
1758876163.6119199,-0.8486328125,-0.017578125,0.7216796875,-2.13623046875,-10.07080078125,1.64794921875,-3.88916015625,38.397216796875,-35.804443359375
1758876163.6222336,-0.64697265625,-0.01123046875,1.07568359375,3.662109375,-5.4931640625,1.89208984375,-3.8067626953125,38.408203125,-35.804443359375
1758876163.6319032,-0.64697265625,-0.01123046875,1.07568359375,3.662109375,-5.4931640625,1.89208984375,-3.7298583984375,38.4027099609375,-35.7989501953125
1758876163.6421354,-0.4189453125,-0.025390625,0.54638671875,-38.26904296875,-3.84521484375,4.69970703125,-4.053955078125,38.4136962890625,-35.760498046875
1758876163.6522007,-0.4189453125,-0.025390625,0.54638671875,-38.26904296875,-3.84521484375,4.69970703125,-4.37255859375,38.4246826171875,-35.716552734375
1758876163.6620877,-0.357421875,-0.0625,0.388671875,-35.888671875,-0.1220703125,3.0517578125,-4.6856689453125,38.463134765625,-35.694580078125
1758876163.6719575,-0.357421875,-0.0625,0.388671875,-35.888671875,-0.1220703125,3.0517578125,-4.998779296875,38.507080078125,-35.6781005859375
1758876163.6820517,-0.39599609375,-0.166015625,0.5693359375,21.97265625,3.41796875,3.90625,-4.735107421875,38.5784912109375,-35.6561279296875
1758876163.692908,-0.39599609375,-0.166015625,0.5693359375,21.97265625,3.41796875,3.90625,-4.482421875,38.6444091796875,-35.6396484375
1758876163.7020524,-0.4619140625,-0.14453125,1.0205078125,17.7001953125,5.859375,0.9765625,-4.3011474609375,38.7213134765625,-35.66162109375
1758876163.712018,-0.4619140625,-0.14453125,1.0205078125,17.7001953125,5.859375,0.9765625,-4.1253662109375,38.7872314453125,-35.6781005859375
1758876163.7220306,-0.7451171875,0.173828125,1.46044921875,-43.64013671875,0.06103515625,6.28662109375,-4.50439453125,38.7872314453125,-35.6011962890625
1758876163.7322786,-0.7451171875,0.173828125,1.46044921875,-43.64013671875,0.06103515625,6.28662109375,-4.8724365234375,38.7762451171875,-35.5078125
1758876163.7424953,-0.7451171875,0.173828125,1.46044921875,49.49951171875,2.25830078125,6.34765625,-4.3121337890625,38.78173828125,-35.408935546875
1758876163.7520375,-0.47607421875,-0.0869140625,0.82861328125,49.49951171875,2.25830078125,6.34765625,-3.7518310546875,38.78173828125,-35.3155517578125
1758876163.7620788,-0.77734375,-0.40576171875,0.62353515625,81.787109375,-2.99072265625,9.1552734375,-2.867431640625,38.7432861328125,-35.2001953125
1758876163.7723968,-0.77734375,-0.40576171875,0.62353515625,81.787109375,-2.99072265625,9.1552734375,-2.0050048828125,38.704833984375,-35.1123046875
1758876163.7821758,-0.84375,-0.27001953125,1.28564453125,116.88232421875,-3.5400390625,-0.18310546875,-0.8734130859375,38.660888671875,-35.15625
1758876163.7927184,-0.84375,-0.27001953125,1.28564453125,116.88232421875,-3.5400390625,-0.18310546875,0.2362060546875,38.616943359375,-35.2001953125
1758876163.8024907,-0.39111328125,0.025390625,0.5009765625,45.0439453125,-0.244140625,0.06103515625,0.6317138671875,38.6004638671875,-35.2496337890625
1758876163.812196,-0.39111328125,0.025390625,0.5009765625,45.0439453125,-0.244140625,0.06103515625,1.03271484375,38.5894775390625,-35.2935791015625
1758876163.8221757,-0.4296875,0.26171875,0.40771484375,-15.13671875,2.74658203125,2.0751953125,0.85693359375,38.60595703125,-35.3045654296875
1758876163.8321853,-0.4296875,0.26171875,0.40771484375,-15.13671875,2.74658203125,2.0751953125,0.6976318359375,38.6279296875,-35.299072265625
1758876163.8428655,-0.72265625,0.17529296875,0.93896484375,9.09423828125,0.244140625,3.60107421875,0.802001953125,38.6279296875,-35.2716064453125
1758876163.8521733,-0.72265625,0.17529296875,0.93896484375,9.09423828125,0.244140625,3.60107421875,0.9173583984375,38.6224365234375,-35.233154296875
1758876163.8622098,-0.7509765625,-0.01611328125,1.0771484375,-9.58251953125,1.46484375,4.7607421875,0.85693359375,38.6334228515625,-35.17822265625
1758876163.8722022,-0.7509765625,-0.01611328125,1.0771484375,-9.58251953125,1.46484375,4.7607421875,0.791015625,38.638916015625,-35.123291015625
1758876163.8831184,-0.61572265625,0.11376953125,0.92041015625,-82.58056640625,-0.1220703125,7.50732421875,0.0274658203125,38.6224365234375,-35.0299072265625
1758876163.892727,-0.61572265625,0.11376953125,0.92041015625,-82.58056640625,-0.1220703125,7.50732421875,-0.7196044921875,38.6114501953125,-34.9310302734375
1758876163.9025378,-0.58544921875,0.0947265625,0.4697265625,-61.34033203125,0.6103515625,8.85009765625,-1.2469482421875,38.6114501953125,-34.8101806640625
1758876163.9123895,-0.58544921875,0.0947265625,0.4697265625,-61.34033203125,0.6103515625,8.85009765625,-1.7633056640625,38.616943359375,-34.683837890625
1758876163.9236152,-0.6357421875,-0.15185546875,0.5703125,4.69970703125,-0.18310546875,7.99560546875,-1.6314697265625,38.6224365234375,-34.5849609375
1758876163.9323244,-0.6357421875,-0.15185546875,0.5703125,4.69970703125,-0.18310546875,7.99560546875,-1.5106201171875,38.6279296875,-34.4915771484375
1758876163.9431524,-0.53076171875,-0.26025390625,0.52978515625,21.54541015625,5.18798828125,6.9580078125,-1.241455078125,38.69384765625,-34.420166015625
1758876163.9524705,-0.53076171875,-0.26025390625,0.52978515625,21.54541015625,5.18798828125,6.9580078125,-0.9832763671875,38.7542724609375,-34.3707275390625
1758876163.9627492,-0.5625,-0.13916015625,0.66943359375,17.333984375,6.53076171875,-0.9765625,-0.8404541015625,38.836669921875,-34.420166015625
1758876163.9723291,-0.5625,-0.13916015625,0.66943359375,17.333984375,6.53076171875,-0.9765625,-0.703125,38.91357421875,-34.4805908203125
1758876163.9830184,-0.90185546875,0.53857421875,0.97216796875,-24.0478515625,1.03759765625,7.8125,-0.8843994140625,38.935546875,-34.4036865234375
1758876163.9925694,-0.90185546875,0.53857421875,0.97216796875,-24.0478515625,1.03759765625,7.8125,-1.0382080078125,38.95751953125,-34.29931640625
1758876164.0030777,-0.533203125,0.31494140625,0.61083984375,-43.27392578125,4.7607421875,9.27734375,-1.3623046875,39.0234375,-34.16748046875
1758876164.0125127,-0.533203125,0.31494140625,0.61083984375,-43.27392578125,4.7607421875,9.27734375,-1.669921875,39.0838623046875,-34.0191650390625
1758876164.0230298,-1.43115234375,-0.28759765625,0.873046875,3.11279296875,-5.92041015625,14.0380859375,-1.483154296875,39.056396484375,-33.826904296875
1758876164.0329597,-1.43115234375,-0.28759765625,0.873046875,3.11279296875,-5.92041015625,14.0380859375,-1.3128662109375,39.0399169921875,-33.6566162109375
1758876164.0431588,-1.22119140625,-0.39599609375,1.39794921875,54.74853515625,-11.3525390625,2.99072265625,-0.736083984375,38.9630126953125,-33.6456298828125
1758876164.0524585,-1.22119140625,-0.39599609375,1.39794921875,54.74853515625,-11.3525390625,2.99072265625,-0.17578125,38.8861083984375,-33.651123046875
1758876164.062708,-0.34619140625,0.00634765625,0.33349609375,-38.87939453125,-7.01904296875,7.50732421875,-0.516357421875,38.8531494140625,-33.59619140625
1758876164.072626,-0.44091796875,0.18701171875,0.0986328125,-58.41064453125,-3.90625,5.31005859375,-0.955810546875,38.836669921875,-33.5577392578125
1758876164.0826364,-0.44091796875,0.18701171875,0.0986328125,-58.41064453125,-3.90625,5.31005859375,-1.494140625,38.84765625,-33.5247802734375
1758876164.0926585,-0.5380859375,0.15576171875,0.34814453125,22.94921875,0.1220703125,4.45556640625,-1.6204833984375,38.880615234375,-33.486328125
1758876164.1030335,-0.5380859375,0.15576171875,0.34814453125,22.94921875,0.1220703125,4.45556640625,-1.3348388671875,38.9410400390625,-33.453369140625
1758876164.1125867,-0.74560546875,-0.02490234375,1.10791015625,27.16064453125,0.91552734375,4.2724609375,-1.0272216796875,39.00146484375,-33.42041015625
1758876164.1225104,-0.74560546875,-0.02490234375,1.10791015625,27.16064453125,0.91552734375,4.2724609375,-0.703125,39.0509033203125,-33.3819580078125
1758876164.1327152,-0.86083984375,-0.05859375,1.29296875,-18.00537109375,0.30517578125,5.79833984375,-0.604248046875,39.08935546875,-33.33251953125
1758876164.1426568,-0.86083984375,-0.05859375,1.29296875,-18.00537109375,0.30517578125,5.79833984375,-0.7305908203125,39.1168212890625,-33.2720947265625
1758876164.1526196,-0.5556640625,0.00439453125,0.70166015625,-33.63037109375,1.3427734375,5.0048828125,-0.9393310546875,39.144287109375,-33.211669921875
1758876164.1626513,-0.5556640625,0.00439453125,0.70166015625,-33.63037109375,1.3427734375,5.0048828125,-1.2249755859375,39.1717529296875,-33.15673828125
1758876164.172764,-0.42529296875,0.08642578125,0.4052734375,-34.11865234375,3.0517578125,4.69970703125,-1.5106201171875,39.210205078125,-33.101806640625
1758876164.1827078,-0.42529296875,0.08642578125,0.4052734375,-34.11865234375,3.0517578125,4.69970703125,-1.8017578125,39.2596435546875,-33.046875
1758876164.1925774,-0.41748046875,0.04248046875,0.66748046875,2.62451171875,6.103515625,4.39453125,-1.900634765625,39.320068359375,-32.991943359375
1758876164.2026231,-0.41748046875,0.04248046875,0.66748046875,2.62451171875,6.103515625,4.39453125,-1.8182373046875,39.3914794921875,-32.93701171875
1758876164.2126853,-0.43505859375,-0.07568359375,0.953125,0.67138671875,7.9345703125,6.103515625,-1.7413330078125,39.4683837890625,-32.8656005859375
1758876164.222626,-0.43505859375,-0.07568359375,0.953125,0.67138671875,7.9345703125,6.103515625,-1.669921875,39.5452880859375,-32.7777099609375
1758876164.2326784,-0.71875,-0.1240234375,1.115234375,-4.5166015625,4.08935546875,8.11767578125,-1.6204833984375,39.5892333984375,-32.67333984375
1758876164.2427084,-0.71875,-0.1240234375,1.115234375,-4.5166015625,4.08935546875,8.11767578125,-1.593017578125,39.61669921875,-32.5634765625
1758876164.2530339,-1.166015625,-0.10498046875,1.4072265625,50.6591796875,-5.67626953125,4.45556640625,-1.307373046875,39.5892333984375,-32.4755859375
1758876164.2627409,-1.166015625,-0.10498046875,1.4072265625,50.6591796875,-5.67626953125,4.45556640625,-0.76904296875,39.517822265625,-32.4151611328125
1758876164.2727108,-0.3857421875,-0.0595703125,0.62890625,10.6201171875,-0.3662109375,8.056640625,-0.4229736328125,39.473876953125,-32.3382568359375
1758876164.2829096,-0.3857421875,-0.0595703125,0.62890625,10.6201171875,-0.3662109375,8.056640625,-0.263671875,39.451904296875,-32.2393798828125
1758876164.2934036,-0.30517578125,0.0625,0.1328125,-28.62548828125,-1.708984375,8.6669921875,-0.3021240234375,39.4244384765625,-32.135009765625
1758876164.3027444,-0.30517578125,0.0625,0.1328125,-28.62548828125,-1.708984375,8.6669921875,-0.5218505859375,39.39697265625,-32.0306396484375
1758876164.3127275,-1.09375,0.0390625,1.08837890625,52.06298828125,-7.62939453125,7.62939453125,-0.3460693359375,39.3475341796875,-31.9317626953125
1758876164.3230171,-1.09375,0.0390625,1.08837890625,52.06298828125,-7.62939453125,7.62939453125,0.2252197265625,39.276123046875,-31.849365234375
1758876164.3328207,-0.67236328125,-0.12109375,1.1142578125,70.4345703125,-2.99072265625,5.2490234375,0.87890625,39.2266845703125,-31.7779541015625
1758876164.3428302,-0.67236328125,-0.12109375,1.1142578125,70.4345703125,-2.99072265625,5.2490234375,1.6094970703125,39.1937255859375,-31.728515625
1758876164.3529434,-0.23095703125,0.01904296875,0.3203125,-43.02978515625,-3.662109375,10.1318359375,1.7852783203125,39.1497802734375,-31.651611328125
1758876164.3631127,-0.23095703125,0.01904296875,0.3203125,-43.02978515625,-3.662109375,10.1318359375,1.417236328125,39.1058349609375,-31.541748046875
1758876164.3732946,-0.365234375,0.1826171875,0.3857421875,-45.83740234375,0.9765625,8.97216796875,1.03271484375,39.0838623046875,-31.431884765625
1758876164.382835,-0.365234375,0.1826171875,0.3857421875,-45.83740234375,0.9765625,8.97216796875,0.648193359375,39.08935546875,-31.322021484375
1758876164.3934257,-0.4130859375,0.03515625,0.51513671875,28.01513671875,5.43212890625,8.36181640625,0.6317138671875,39.1168212890625,-31.212158203125
1758876164.4033403,-0.4130859375,0.03515625,0.51513671875,28.01513671875,5.43212890625,8.36181640625,0.98876953125,39.166259765625,-31.102294921875
1758876164.4132504,-0.4248046875,-0.0810546875,0.625,19.59228515625,10.7421875,7.4462890625,1.2908935546875,39.2431640625,-31.00341796875
1758876164.422878,-0.4248046875,-0.0810546875,0.625,19.59228515625,10.7421875,7.4462890625,1.549072265625,39.342041015625,-30.9100341796875
1758876164.434252,-0.58349609375,-0.0322265625,0.66943359375,4.21142578125,15.19775390625,5.31005859375,1.7138671875,39.4573974609375,-30.82763671875
1758876164.4429827,-0.58349609375,-0.0322265625,0.66943359375,4.21142578125,15.19775390625,5.31005859375,1.790771484375,39.6002197265625,-30.7672119140625
1758876164.453211,-1.5810546875,0.1669921875,1.71044921875,3.7841796875,1.3427734375,3.2958984375,1.856689453125,39.6771240234375,-30.7177734375
1758876164.4630141,-1.5810546875,0.1669921875,1.71044921875,3.7841796875,1.3427734375,3.2958984375,1.9171142578125,39.6881103515625,-30.684814453125
1758876164.4739673,-1.01513671875,0.31982421875,1.49560546875,-36.68212890625,2.62451171875,4.33349609375,1.7852783203125,39.7100830078125,-30.640869140625
1758876164.4830122,-1.01513671875,0.31982421875,1.49560546875,-36.68212890625,2.62451171875,4.33349609375,1.47216796875,39.7320556640625,-30.574951171875
1758876164.4935963,-0.47705078125,0.03173828125,-0.02978515625,-64.697265625,-2.13623046875,11.23046875,1.0491943359375,39.7265625,-30.4541015625
1758876164.5033133,-0.47705078125,0.03173828125,-0.02978515625,-64.697265625,-2.13623046875,11.23046875,0.5218505859375,39.7100830078125,-30.30029296875
1758876164.5135968,-0.6943359375,-0.08642578125,0.17041015625,-52.79541015625,1.708984375,7.75146484375,0.0439453125,39.7265625,-30.1739501953125
1758876164.522985,-0.6943359375,-0.08642578125,0.17041015625,-52.79541015625,1.708984375,7.75146484375,-0.3900146484375,39.7760009765625,-30.08056640625
1758876164.533041,-1.06396484375,0.046875,0.3447265625,-20.5078125,4.8828125,5.615234375,-0.6756591796875,39.8529052734375,-30.0091552734375
1758876164.5435138,-1.06396484375,0.046875,0.3447265625,-20.5078125,4.8828125,5.615234375,-0.8074951171875,39.9627685546875,-29.959716796875
1758876164.5530257,-1.078125,0.06640625,0.60888671875,25.20751953125,2.74658203125,9.94873046875,-0.6866455078125,40.078125,-29.8828125
1758876164.5630987,-1.078125,0.06640625,0.60888671875,25.20751953125,2.74658203125,9.94873046875,-0.3240966796875,40.1824951171875,-29.783935546875
1758876164.573271,-1.0283203125,-0.14111328125,0.68408203125,-29.11376953125,2.86865234375,11.962890625,-0.2197265625,40.2923583984375,-29.6685791015625
1758876164.5830863,-1.0283203125,-0.14111328125,0.68408203125,-29.11376953125,2.86865234375,11.962890625,-0.3900146484375,40.4022216796875,-29.5477294921875
1758876164.5930943,-0.7421875,-0.12060546875,0.4833984375,-42.17529296875,-0.42724609375,12.0849609375,-0.6317138671875,40.49560546875,-29.4378662109375
1758876164.6033,-0.7421875,-0.12060546875,0.4833984375,-42.17529296875,-0.42724609375,12.0849609375,-0.933837890625,40.5780029296875,-29.3280029296875
1758876164.6131868,-0.6845703125,-0.15966796875,0.6015625,-5.31005859375,-0.91552734375,8.85009765625,-1.07666015625,40.6549072265625,-29.24560546875
1758876164.6231265,-0.6845703125,-0.15966796875,0.6015625,-5.31005859375,-0.91552734375,8.85009765625,-1.0546875,40.7318115234375,-29.1851806640625
1758876164.6331708,-0.66943359375,-0.02587890625,0.75927734375,1.220703125,-0.8544921875,9.70458984375,-0.9942626953125,40.7977294921875,-29.124755859375
1758876164.6432102,-0.66943359375,-0.02587890625,0.75927734375,1.220703125,-0.8544921875,9.70458984375,-0.9063720703125,40.8636474609375,-29.0533447265625
1758876164.6531477,-0.673828125,0.06640625,0.83837890625,-8.544921875,-1.52587890625,9.09423828125,-0.867919921875,40.9130859375,-28.98193359375
1758876164.6632204,-0.673828125,0.06640625,0.83837890625,-8.544921875,-1.52587890625,9.09423828125,-0.8734130859375,40.9515380859375,-28.905029296875
1758876164.673401,-0.60986328125,0.0126953125,0.81005859375,-19.1650390625,-1.64794921875,8.36181640625,-0.9393310546875,40.9844970703125,-28.828125
