timestamp,acc_x,acc_y,acc_z,gyro_x,gyro_y,gyro_z,angle_x,angle_y,angle_z
1758524884.733749,-0.849609375,0.0859375,0.5146484375,0.0,-0.48828125,0.0,10.0799560546875,57.667236328125,160.6146240234375
1758524884.7444808,-0.849609375,0.0859375,0.5146484375,0.0,-0.48828125,0.0,10.074462890625,57.6617431640625,160.6146240234375
1758524884.7536151,-0.84375,0.08984375,0.52978515625,1.3427734375,-0.244140625,0.06103515625,10.0799560546875,57.6617431640625,160.6146240234375
1758524884.7647278,-0.84375,0.08984375,0.52978515625,1.3427734375,-0.244140625,0.06103515625,10.0909423828125,57.6617431640625,160.6146240234375
1758524884.7757516,-0.84033203125,0.0927734375,0.5390625,1.52587890625,-0.06103515625,0.244140625,10.1019287109375,57.6617431640625,160.6201171875
1758524884.788049,-0.84033203125,0.0927734375,0.5390625,1.52587890625,-0.06103515625,0.244140625,10.118408203125,57.6617431640625,160.6201171875
1758524884.7983544,-0.8447265625,0.0869140625,0.53369140625,0.0,-0.18310546875,0.54931640625,10.12939453125,57.65625,160.6256103515625
1758524884.8083453,-0.8447265625,0.0869140625,0.53369140625,0.0,-0.18310546875,0.54931640625,10.1348876953125,57.65625,160.6365966796875
1758524884.8177524,-0.8515625,0.08544921875,0.5205078125,-1.52587890625,-0.30517578125,0.79345703125,10.1348876953125,57.6507568359375,160.6475830078125
1758524884.8242006,-0.8515625,0.08544921875,0.5205078125,-1.52587890625,-0.30517578125,0.79345703125,10.12939453125,57.645263671875,160.6585693359375
1758524884.8316336,-0.8505859375,0.087890625,0.517578125,-1.220703125,-0.244140625,0.8544921875,10.1239013671875,57.645263671875,160.6695556640625
1758524884.8416266,-0.8505859375,0.087890625,0.517578125,-1.220703125,-0.244140625,0.8544921875,10.118408203125,57.6397705078125,160.68603515625
1758524884.8516397,-0.84765625,0.09521484375,0.52490234375,0.0,-0.1220703125,0.8544921875,10.1239013671875,57.6397705078125,160.697021484375
1758524884.8616304,-0.84765625,0.09521484375,0.52490234375,0.0,-0.1220703125,0.8544921875,10.1348876953125,57.6397705078125,160.7135009765625
1758524884.8716679,-0.8427734375,0.09423828125,0.533203125,0.18310546875,-0.06103515625,0.732421875,10.1458740234375,57.6397705078125,160.7244873046875
1758524884.8816693,-0.8427734375,0.09423828125,0.533203125,0.18310546875,-0.06103515625,0.732421875,10.1513671875,57.63427734375,160.740966796875
1758524884.8918078,-0.84375,0.09130859375,0.533203125,-0.42724609375,-0.244140625,0.67138671875,10.162353515625,57.63427734375,160.7464599609375
1758524884.901697,-0.84375,0.09130859375,0.533203125,-0.42724609375,-0.244140625,0.67138671875,10.162353515625,57.6287841796875,160.7574462890625
1758524884.911799,-0.8486328125,0.0927734375,0.52490234375,-1.15966796875,-0.48828125,0.67138671875,10.162353515625,57.6287841796875,160.7684326171875
1758524884.921886,-0.8486328125,0.0927734375,0.52490234375,-1.15966796875,-0.48828125,0.67138671875,10.1568603515625,57.623291015625,160.7794189453125
1758524884.9317756,-0.85302734375,0.0908203125,0.51513671875,-1.40380859375,-0.67138671875,0.54931640625,10.1513671875,57.6123046875,160.784912109375
1758524884.9417703,-0.85302734375,0.0908203125,0.51513671875,-1.40380859375,-0.67138671875,0.54931640625,10.140380859375,57.6068115234375,160.7958984375
1758524884.9517517,-0.84765625,0.08935546875,0.515625,-0.06103515625,-0.79345703125,0.3662109375,10.1348876953125,57.601318359375,160.806884765625
1758524884.9617717,-0.84765625,0.08935546875,0.515625,-0.06103515625,-0.79345703125,0.3662109375,10.140380859375,57.5958251953125,160.8123779296875
1758524884.9717658,-0.84423828125,0.09521484375,0.52734375,1.0986328125,-0.91552734375,0.1220703125,10.1458740234375,57.59033203125,160.8123779296875
1758524884.9817882,-0.84423828125,0.09521484375,0.52734375,1.0986328125,-0.91552734375,0.1220703125,10.1568603515625,57.579345703125,160.8123779296875
1758524884.9918265,-0.84375,0.09765625,0.537109375,0.8544921875,-1.0986328125,-0.06103515625,10.1568603515625,57.568359375,160.806884765625
1758524885.001813,-0.84375,0.09765625,0.537109375,0.8544921875,-1.0986328125,-0.06103515625,10.162353515625,57.5628662109375,160.8013916015625
1758524885.0118182,-0.84716796875,0.09423828125,0.5283203125,0.3662109375,-1.220703125,-0.244140625,10.1568603515625,57.5518798828125,160.7958984375
1758524885.02184,-0.84716796875,0.09423828125,0.5283203125,0.3662109375,-1.220703125,-0.244140625,10.1513671875,57.5408935546875,160.784912109375
1758524885.0318418,-0.8466796875,0.0869140625,0.51904296875,0.91552734375,-1.28173828125,-0.3662109375,10.1513671875,57.5299072265625,160.7794189453125
1758524885.0418773,-0.8466796875,0.0869140625,0.51904296875,0.91552734375,-1.28173828125,-0.3662109375,10.1513671875,57.5189208984375,160.7684326171875
1758524885.051865,-0.85009765625,0.0947265625,0.52490234375,1.708984375,-1.220703125,-0.48828125,10.1568603515625,57.5079345703125,160.7574462890625
1758524885.0618763,-0.85009765625,0.0947265625,0.52490234375,1.708984375,-1.220703125,-0.48828125,10.162353515625,57.50244140625,160.7464599609375
1758524885.071904,-0.845703125,0.09423828125,0.5302734375,0.9765625,-1.220703125,-0.6103515625,10.1568603515625,57.491455078125,160.72998046875
1758524885.0819018,-0.845703125,0.09423828125,0.5302734375,0.9765625,-1.220703125,-0.6103515625,10.1513671875,57.48046875,160.718994140625
1758524885.091936,-0.84375,0.09033203125,0.53271484375,1.15966796875,-1.15966796875,-0.732421875,10.1513671875,57.4749755859375,160.7025146484375
1758524885.1019351,-0.84375,0.09033203125,0.53271484375,1.15966796875,-1.15966796875,-0.732421875,10.1458740234375,57.4639892578125,160.68603515625
1758524885.1119235,-0.84765625,0.09716796875,0.53125,1.52587890625,-0.9765625,-0.79345703125,10.1458740234375,57.45849609375,160.6695556640625
1758524885.121946,-0.84765625,0.09716796875,0.53125,1.52587890625,-0.9765625,-0.79345703125,10.1458740234375,57.447509765625,160.653076171875
1758524885.1319633,-0.84423828125,0.09423828125,0.5244140625,0.67138671875,-0.91552734375,-0.8544921875,10.1348876953125,57.4420166015625,160.6365966796875
1758524885.1423087,-0.84423828125,0.09423828125,0.5244140625,0.67138671875,-0.91552734375,-0.8544921875,10.1239013671875,57.4365234375,160.6201171875
1758524885.1519892,-0.84228515625,0.08544921875,0.53271484375,0.6103515625,-0.79345703125,-0.9765625,10.1129150390625,57.4310302734375,160.6036376953125
1758524885.161992,-0.84228515625,0.08544921875,0.53271484375,0.6103515625,-0.79345703125,-0.9765625,10.1019287109375,57.425537109375,160.587158203125
1758524885.1720016,-0.8408203125,0.0947265625,0.5341796875,1.220703125,-0.79345703125,-0.91552734375,10.096435546875,57.4200439453125,160.5706787109375
1758524885.1820118,-0.8408203125,0.0947265625,0.5341796875,1.220703125,-0.79345703125,-0.91552734375,10.0909423828125,57.41455078125,160.5487060546875
1758524885.1924107,-0.84375,0.09130859375,0.53125,1.0986328125,-0.79345703125,-0.8544921875,10.08544921875,57.4090576171875,160.5322265625
1758524885.2020607,-0.84375,0.09130859375,0.53125,1.0986328125,-0.79345703125,-0.8544921875,10.0799560546875,57.403564453125,160.5157470703125
1758524885.212062,-0.84619140625,0.08544921875,0.525390625,1.28173828125,-0.79345703125,-0.67138671875,10.074462890625,57.3980712890625,160.5047607421875
1758524885.222067,-0.84619140625,0.08544921875,0.525390625,1.28173828125,-0.79345703125,-0.67138671875,10.074462890625,57.392578125,160.48828125
1758524885.2320814,-0.84814453125,0.08837890625,0.52392578125,1.220703125,-0.732421875,-0.54931640625,10.074462890625,57.3870849609375,160.477294921875
1758524885.2424953,-0.84814453125,0.08837890625,0.52392578125,1.220703125,-0.732421875,-0.54931640625,10.074462890625,57.381591796875,160.46630859375
1758524885.252141,-0.8447265625,0.09130859375,0.53076171875,1.03759765625,-0.54931640625,-0.42724609375,10.074462890625,57.381591796875,160.4608154296875
1758524885.2621176,-0.8447265625,0.09130859375,0.53076171875,1.03759765625,-0.54931640625,-0.42724609375,10.074462890625,57.3760986328125,160.4498291015625
1758524885.2721472,-0.84130859375,0.08935546875,0.53369140625,0.79345703125,-0.48828125,-0.244140625,10.074462890625,57.3760986328125,160.4498291015625
1758524885.28215,-0.84130859375,0.08935546875,0.53369140625,0.79345703125,-0.48828125,-0.244140625,10.074462890625,57.37060546875,160.4443359375
1758524885.2926257,-0.84033203125,0.09130859375,0.53466796875,0.3662109375,-0.3662109375,-0.1220703125,10.074462890625,57.37060546875,160.4388427734375
1758524885.3022246,-0.84033203125,0.09130859375,0.53466796875,0.3662109375,-0.3662109375,-0.1220703125,10.074462890625,57.3651123046875,160.4388427734375
1758524885.312175,-0.84375,0.0908203125,0.53662109375,-0.3662109375,-0.30517578125,0.0,10.0689697265625,57.3651123046875,160.433349609375
1758524885.322279,-0.84375,0.0908203125,0.53662109375,-0.3662109375,-0.30517578125,0.0,10.0579833984375,57.359619140625,160.433349609375
1758524885.3322911,-0.84375,0.08740234375,0.5302734375,-0.54931640625,-0.244140625,0.1220703125,10.052490234375,57.359619140625,160.433349609375
1758524885.34312,-0.84375,0.08740234375,0.5302734375,-0.54931640625,-0.244140625,0.1220703125,10.0469970703125,57.3541259765625,160.4388427734375
1758524885.352316,-0.8427734375,0.09228515625,0.5283203125,0.06103515625,-0.1220703125,0.18310546875,10.0469970703125,57.3541259765625,160.4388427734375
1758524885.3626146,-0.8427734375,0.09228515625,0.5283203125,0.06103515625,-0.1220703125,0.18310546875,10.0469970703125,57.3541259765625,160.4388427734375
1758524885.3722694,-0.8447265625,0.09130859375,0.53173828125,0.0,-0.18310546875,0.244140625,10.0469970703125,57.3541259765625,160.4443359375
1758524885.382582,-0.8447265625,0.09130859375,0.53173828125,0.0,-0.18310546875,0.244140625,10.0469970703125,57.3486328125,160.4498291015625
1758524885.3969185,-0.84521484375,0.087890625,0.53076171875,-0.54931640625,-0.244140625,0.30517578125,10.0469970703125,57.3486328125,160.455322265625
1758524885.4040854,-0.84521484375,0.087890625,0.53076171875,-0.54931640625,-0.244140625,0.30517578125,10.04150390625,57.3431396484375,160.4608154296875
1758524885.4124737,-0.84521484375,0.0888671875,0.52978515625,-0.67138671875,-0.244140625,0.30517578125,10.0360107421875,57.3431396484375,160.46630859375
1758524885.4228196,-0.84521484375,0.0888671875,0.52978515625,-0.67138671875,-0.244140625,0.30517578125,10.030517578125,57.3431396484375,160.4718017578125
1758524885.432479,-0.845703125,0.09375,0.5302734375,-0.244140625,-0.06103515625,0.244140625,10.030517578125,57.3431396484375,160.477294921875
1758524885.4429684,-0.845703125,0.09375,0.5302734375,-0.244140625,-0.06103515625,0.244140625,10.030517578125,57.3431396484375,160.4827880859375
1758524885.4526856,-0.84130859375,0.0947265625,0.529296875,0.54931640625,-0.06103515625,0.06103515625,10.0360107421875,57.3431396484375,160.4827880859375
1758524885.463277,-0.84130859375,0.0947265625,0.529296875,0.54931640625,-0.06103515625,0.06103515625,10.0360107421875,57.3431396484375,160.4827880859375
1758524885.4724274,-0.841796875,0.0927734375,0.53564453125,0.8544921875,0.0,0.0,10.0469970703125,57.3431396484375,160.4827880859375
1758524885.4829512,-0.841796875,0.0927734375,0.53564453125,0.8544921875,0.0,0.0,10.052490234375,57.3431396484375,160.4827880859375
1758524885.4924374,-0.84423828125,0.09033203125,0.533203125,0.06103515625,-0.06103515625,0.0,10.052490234375,57.3431396484375,160.4827880859375
1758524885.5024304,-0.84423828125,0.09033203125,0.533203125,0.06103515625,-0.06103515625,0.0,10.0469970703125,57.3431396484375,160.4827880859375
1758524885.5125115,-0.8447265625,0.087890625,0.52392578125,-0.30517578125,-0.18310546875,-0.06103515625,10.04150390625,57.3431396484375,160.4827880859375
1758524885.5225196,-0.8447265625,0.087890625,0.52392578125,-0.30517578125,-0.18310546875,-0.06103515625,10.0360107421875,57.337646484375,160.4827880859375
1758524885.532813,-0.84716796875,0.0927734375,0.5244140625,0.3662109375,-0.244140625,-0.18310546875,10.0360107421875,57.337646484375,160.477294921875
1758524885.5425134,-0.84716796875,0.0927734375,0.5244140625,0.3662109375,-0.244140625,-0.18310546875,10.0360107421875,57.337646484375,160.477294921875
1758524885.5525904,-0.84521484375,0.09619140625,0.52978515625,0.9765625,-0.18310546875,-0.42724609375,10.0360107421875,57.337646484375,160.4718017578125
1758524885.5626433,-0.84521484375,0.09619140625,0.52978515625,0.9765625,-0.18310546875,-0.42724609375,10.0360107421875,57.337646484375,160.46630859375
1758524885.5726924,-0.84228515625,0.0927734375,0.53271484375,1.28173828125,-0.18310546875,-0.67138671875,10.0360107421875,57.337646484375,160.455322265625
1758524885.5825262,-0.84228515625,0.0927734375,0.53271484375,1.28173828125,-0.18310546875,-0.67138671875,10.0360107421875,57.337646484375,160.4443359375
1758524885.5926266,-0.84228515625,0.091796875,0.53369140625,1.46484375,-0.244140625,-0.732421875,10.04150390625,57.337646484375,160.433349609375
1758524885.6031868,-0.84228515625,0.091796875,0.53369140625,1.46484375,-0.244140625,-0.732421875,10.04150390625,57.337646484375,160.42236328125
1758524885.6126146,-0.84228515625,0.091796875,0.53369140625,0.8544921875,-0.3662109375,-0.732421875,10.0360107421875,57.337646484375,160.411376953125
1758524885.6226764,-0.8447265625,0.091796875,0.52978515625,0.8544921875,-0.3662109375,-0.732421875,10.030517578125,57.337646484375,160.400390625
1758524885.632884,-0.8466796875,0.0869140625,0.5244140625,0.6103515625,-0.3662109375,-0.79345703125,10.0250244140625,57.3321533203125,160.389404296875
1758524885.642668,-0.8466796875,0.0869140625,0.5244140625,0.6103515625,-0.3662109375,-0.79345703125,10.0140380859375,57.3321533203125,160.3729248046875
1758524885.6526952,-0.8427734375,0.0908203125,0.52587890625,1.40380859375,-0.42724609375,-0.8544921875,10.0140380859375,57.3321533203125,160.3619384765625
1758524885.6628146,-0.8427734375,0.0908203125,0.52587890625,1.40380859375,-0.42724609375,-0.8544921875,10.0140380859375,57.3321533203125,160.345458984375
1758524885.6739533,-0.8427734375,0.09521484375,0.533203125,2.197265625,-0.3662109375,-1.03759765625,10.0140380859375,57.3321533203125,160.3289794921875
1758524885.6827636,-0.8427734375,0.09521484375,0.533203125,2.197265625,-0.3662109375,-1.03759765625,10.01953125,57.32666015625,160.3070068359375
1758524885.6928782,-0.84521484375,0.0947265625,0.53759765625,1.708984375,-0.3662109375,-1.0986328125,10.01953125,57.32666015625,160.29052734375
1758524885.7034304,-0.84521484375,0.0947265625,0.53759765625,1.708984375,-0.3662109375,-1.0986328125,10.0140380859375,57.32666015625,160.2685546875
1758524885.7128077,-0.8447265625,0.0888671875,0.53271484375,0.1220703125,-0.42724609375,-1.03759765625,9.99755859375,57.32666015625,160.2520751953125
1758524885.7228062,-0.8447265625,0.0888671875,0.53271484375,0.1220703125,-0.42724609375,-1.03759765625,9.9810791015625,57.3211669921875,160.2301025390625
1758524885.7328234,-0.84228515625,0.0869140625,0.52734375,0.18310546875,-0.42724609375,-1.03759765625,9.964599609375,57.3211669921875,160.213623046875
1758524885.743539,-0.84228515625,0.0869140625,0.52734375,0.18310546875,-0.42724609375,-1.03759765625,9.9481201171875,57.3211669921875,160.191650390625
1758524885.7536106,-0.84765625,0.09423828125,0.52978515625,0.79345703125,-0.48828125,-1.03759765625,9.9371337890625,57.315673828125,160.1751708984375
1758524885.7628133,-0.84765625,0.09423828125,0.52978515625,0.79345703125,-0.48828125,-1.03759765625,9.9261474609375,57.315673828125,160.1531982421875
1758524885.7736416,-0.84716796875,0.09521484375,0.5341796875,-0.18310546875,-0.48828125,-1.15966796875,9.9041748046875,57.315673828125,160.13671875
1758524885.7835395,-0.84716796875,0.09521484375,0.5341796875,-0.18310546875,-0.48828125,-1.15966796875,9.8822021484375,57.3101806640625,160.11474609375
1758524885.7939117,-0.84228515625,0.08837890625,0.5341796875,-1.0986328125,-0.6103515625,-1.220703125,9.854736328125,57.3101806640625,160.0927734375
1758524885.8028684,-0.84228515625,0.08837890625,0.5341796875,-1.0986328125,-0.6103515625,-1.220703125,9.82177734375,57.3046875,160.07080078125
1758524885.8142633,-0.841796875,0.08935546875,0.53076171875,-0.6103515625,-0.79345703125,-1.220703125,9.7943115234375,57.2991943359375,160.048828125
1758524885.8230305,-0.841796875,0.08935546875,0.53076171875,-0.6103515625,-0.79345703125,-1.220703125,9.766845703125,57.293701171875,160.02685546875
1758524885.833591,-0.8447265625,0.087890625,0.5302734375,-0.48828125,-1.0986328125,-1.220703125,9.7393798828125,57.2882080078125,160.0048828125
1758524885.8435218,-0.8447265625,0.087890625,0.5302734375,-0.48828125,-1.0986328125,-1.220703125,9.7119140625,57.28271484375,159.98291015625
1758524885.8538675,-0.83935546875,0.0791015625,0.5244140625,-0.3662109375,-1.52587890625,-1.15966796875,9.6844482421875,57.2662353515625,159.9609375
1758524885.8629668,-0.83935546875,0.0791015625,0.5244140625,-0.3662109375,-1.52587890625,-1.15966796875,9.6624755859375,57.2552490234375,159.9334716796875
1758524885.8737478,-0.83203125,0.08056640625,0.52294921875,0.91552734375,-2.13623046875,-1.03759765625,9.64599609375,57.23876953125,159.9114990234375
1758524885.8835528,-0.83203125,0.08056640625,0.52294921875,0.91552734375,-2.13623046875,-1.03759765625,9.635009765625,57.2222900390625,159.8895263671875
1758524885.8939648,-0.83837890625,0.08935546875,0.53564453125,2.44140625,-2.8076171875,-0.9765625,9.635009765625,57.19482421875,159.8675537109375
1758524885.9030528,-0.83837890625,0.08935546875,0.53564453125,2.44140625,-2.8076171875,-0.9765625,9.635009765625,57.1728515625,159.840087890625
1758524885.9139886,-0.8486328125,0.087890625,0.53759765625,2.38037109375,-3.35693359375,-0.8544921875,9.635009765625,57.139892578125,159.818115234375
1758524885.923319,-0.8486328125,0.087890625,0.53759765625,2.38037109375,-3.35693359375,-0.8544921875,9.635009765625,57.1124267578125,159.7906494140625
1758524885.9333348,-0.85107421875,0.0908203125,0.52978515625,0.30517578125,-3.662109375,-0.732421875,9.613037109375,57.0794677734375,159.7686767578125
1758524885.9431038,-0.85107421875,0.0908203125,0.52978515625,0.30517578125,-3.662109375,-0.732421875,9.5965576171875,57.0465087890625,159.7467041015625
1758524885.9534361,-0.84912109375,0.09130859375,0.5224609375,-1.8310546875,-3.72314453125,-0.79345703125,9.55810546875,57.0135498046875,159.7247314453125
1758524885.9633756,-0.84814453125,0.083984375,0.5341796875,-2.25830078125,-3.2958984375,-1.0986328125,9.51416015625,56.986083984375,159.7027587890625
1758524885.9733355,-0.84814453125,0.083984375,0.5341796875,-2.25830078125,-3.2958984375,-1.0986328125,9.4647216796875,56.9586181640625,159.67529296875
1758524885.9831028,-0.83447265625,0.08056640625,0.54345703125,1.708984375,-2.38037109375,-1.28173828125,9.437255859375,56.9366455078125,159.6478271484375
1758524885.994049,-0.83447265625,0.08056640625,0.54345703125,1.708984375,-2.38037109375,-1.28173828125,9.42626953125,56.9146728515625,159.6258544921875
1758524886.004495,-0.828125,0.0888671875,0.5576171875,4.08935546875,-1.708984375,-1.28173828125,9.4317626953125,56.898193359375,159.598388671875
1758524886.013453,-0.828125,0.0888671875,0.5576171875,4.08935546875,-1.708984375,-1.28173828125,9.4427490234375,56.88720703125,159.5709228515625
1758524886.0231135,-0.83056640625,0.08935546875,0.5576171875,2.0751953125,-1.52587890625,-1.3427734375,9.4482421875,56.876220703125,159.54345703125
1758524886.0335445,-0.83056640625,0.08935546875,0.5576171875,2.0751953125,-1.52587890625,-1.3427734375,9.4427490234375,56.8597412109375,159.5159912109375
1758524886.043677,-0.830078125,0.0859375,0.548828125,0.0,-1.77001953125,-1.3427734375,9.4317626953125,56.8487548828125,159.488525390625
1758524886.053558,-0.830078125,0.0859375,0.548828125,0.0,-1.77001953125,-1.3427734375,9.404296875,56.832275390625,159.4610595703125
1758524886.06329,-0.8388671875,0.0888671875,0.541015625,-0.1220703125,-2.25830078125,-1.220703125,9.3768310546875,56.8157958984375,159.4281005859375
1758524886.0737884,-0.8388671875,0.0888671875,0.541015625,-0.1220703125,-2.25830078125,-1.220703125,9.349365234375,56.7938232421875,159.400634765625
1758524886.0833147,-0.83740234375,0.08740234375,0.533203125,-0.67138671875,-2.38037109375,-0.9765625,9.3218994140625,56.7718505859375,159.378662109375
1758524886.0936248,-0.83740234375,0.08740234375,0.533203125,-0.67138671875,-2.38037109375,-0.9765625,9.29443359375,56.7498779296875,159.356689453125
1758524886.1034207,-0.83251953125,0.0703125,0.5400390625,-0.79345703125,-2.25830078125,-0.6103515625,9.2669677734375,56.7279052734375,159.334716796875
1758524886.1138752,-0.83251953125,0.0703125,0.5400390625,-0.79345703125,-2.25830078125,-0.6103515625,9.2449951171875,56.7059326171875,159.3182373046875
1758524886.1233032,-0.82958984375,0.083984375,0.55615234375,-0.48828125,-1.89208984375,-0.42724609375,9.2230224609375,56.689453125,159.3017578125
1758524886.1336653,-0.82958984375,0.083984375,0.55615234375,-0.48828125,-1.89208984375,-0.42724609375,9.20654296875,56.6729736328125,159.290771484375
1758524886.1436713,-0.822265625,0.1005859375,0.5634765625,-3.2958984375,-1.3427734375,-0.06103515625,9.173583984375,56.656494140625,159.27978515625
1758524886.1543202,-0.822265625,0.1005859375,0.5634765625,-3.2958984375,-1.3427734375,-0.06103515625,9.1351318359375,56.6400146484375,159.2742919921875
1758524886.1634011,-0.8115234375,0.05859375,0.56298828125,-4.57763671875,-0.732421875,0.48828125,9.0966796875,56.6290283203125,159.268798828125
1758524886.173816,-0.8115234375,0.05859375,0.56298828125,-4.57763671875,-0.732421875,0.48828125,9.052734375,56.6180419921875,159.2742919921875
1758524886.1838486,-0.8076171875,0.05712890625,0.5849609375,-1.15966796875,0.244140625,1.0986328125,9.0362548828125,56.612548828125,159.27978515625
1758524886.193783,-0.8076171875,0.05712890625,0.5849609375,-1.15966796875,0.244140625,1.0986328125,9.0362548828125,56.6070556640625,159.290771484375
1758524886.2049158,-0.7890625,0.1044921875,0.6025390625,-0.30517578125,0.54931640625,1.8310546875,9.041748046875,56.6015625,159.312744140625
1758524886.2137456,-0.7890625,0.1044921875,0.6025390625,-0.30517578125,0.54931640625,1.8310546875,9.063720703125,56.5960693359375,159.334716796875
1758524886.2240422,-0.7998046875,0.1142578125,0.623046875,-9.09423828125,0.1220703125,3.35693359375,9.052734375,56.5850830078125,159.36767578125
1758524886.2342103,-0.7998046875,0.1142578125,0.623046875,-9.09423828125,0.1220703125,3.35693359375,9.0087890625,56.5740966796875,159.4171142578125
1758524886.2439473,-0.81591796875,0.07763671875,0.6484375,-23.8037109375,-0.67138671875,5.126953125,8.9044189453125,56.5521240234375,159.4775390625
1758524886.2539258,-0.81591796875,0.07763671875,0.6484375,-23.8037109375,-0.67138671875,5.126953125,8.7396240234375,56.5191650390625,159.554443359375
1758524886.2648253,-0.80322265625,0.08447265625,0.65185546875,-40.771484375,-1.77001953125,6.591796875,8.4979248046875,56.480712890625,159.6368408203125
1758524886.273751,-0.80322265625,0.08447265625,0.65185546875,-40.771484375,-1.77001953125,6.591796875,8.184814453125,56.436767578125,159.730224609375
1758524886.284097,-0.7744140625,0.07470703125,0.640625,-52.24609375,-3.23486328125,7.50732421875,7.8167724609375,56.3818359375,159.8291015625
1758524886.294867,-0.7744140625,0.07470703125,0.640625,-52.24609375,-3.23486328125,7.50732421875,7.40478515625,56.3214111328125,159.93896484375
1758524886.3058488,-0.7607421875,0.04345703125,0.6630859375,-47.36328125,-4.21142578125,7.568359375,7.0147705078125,56.25,160.0433349609375
1758524886.3141131,-0.7607421875,0.04345703125,0.6630859375,-47.36328125,-4.21142578125,7.568359375,6.646728515625,56.1785888671875,160.1422119140625
1758524886.3255026,-0.76513671875,0.046875,0.68603515625,-32.89794921875,-4.45556640625,7.01904296875,6.3446044921875,56.1016845703125,160.2410888671875
1758524886.3339665,-0.76513671875,0.046875,0.68603515625,-32.89794921875,-4.45556640625,7.01904296875,6.1138916015625,56.019287109375,160.3289794921875
1758524886.3435733,-0.75732421875,0.0595703125,0.658203125,-25.20751953125,-4.94384765625,6.103515625,5.9161376953125,55.9368896484375,160.4058837890625
1758524886.354615,-0.75732421875,0.0595703125,0.658203125,-25.20751953125,-4.94384765625,6.103515625,5.745849609375,55.8544921875,160.4718017578125
1758524886.3647444,-0.736328125,0.0517578125,0.6669921875,-19.47021484375,-5.4931640625,4.638671875,5.592041015625,55.7666015625,160.5322265625
1758524886.3738868,-0.736328125,0.0517578125,0.6669921875,-19.47021484375,-5.4931640625,4.638671875,5.460205078125,55.6787109375,160.5706787109375
1758524886.3837752,-0.7470703125,0.03076171875,0.6875,-7.87353515625,-5.92041015625,3.35693359375,5.372314453125,55.5853271484375,160.6036376953125
1758524886.3941822,-0.7470703125,0.03076171875,0.6875,-7.87353515625,-5.92041015625,3.35693359375,5.3338623046875,55.4864501953125,160.6201171875
1758524886.40421,-0.79638671875,-0.0380859375,0.58056640625,7.2021484375,-6.591796875,1.5869140625,5.350341796875,55.3875732421875,160.6201171875
1758524886.4139903,-0.79638671875,-0.0380859375,0.58056640625,7.2021484375,-6.591796875,1.5869140625,5.42724609375,55.294189453125,160.6036376953125
1758524886.4241068,-0.880859375,0.12158203125,0.85107421875,16.7236328125,-8.056640625,0.91552734375,5.5426025390625,55.1898193359375,160.5816650390625
1758524886.434137,-0.880859375,0.12158203125,0.85107421875,16.7236328125,-8.056640625,0.91552734375,5.701904296875,55.074462890625,160.5487060546875
1758524886.4437325,-0.80078125,0.080078125,0.9150390625,8.9111328125,-12.3291015625,1.5869140625,5.82275390625,54.9371337890625,160.521240234375
1758524886.4544678,-0.80078125,0.080078125,0.9150390625,8.9111328125,-12.3291015625,1.5869140625,5.9051513671875,54.77783203125,160.48828125
1758524886.4640064,-0.53759765625,0.0,0.91259765625,5.92041015625,-15.7470703125,1.15966796875,5.965576171875,54.591064453125,160.4443359375
1758524886.4740481,-0.53759765625,0.0,0.91259765625,5.92041015625,-15.7470703125,1.15966796875,5.99853515625,54.38232421875,160.3839111328125
1758524886.4837337,-0.3349609375,0.0595703125,0.89501953125,11.1083984375,-15.380859375,-1.40380859375,6.0369873046875,54.1680908203125,160.29052734375
1758524886.4947414,-0.3349609375,0.0595703125,0.89501953125,11.1083984375,-15.380859375,-1.40380859375,6.0809326171875,53.94287109375,160.1641845703125
1758524886.5044327,-0.3173828125,0.1259765625,0.9609375,7.38525390625,-13.24462890625,-3.173828125,6.0919189453125,53.72314453125,160.015869140625
1758524886.5141616,-0.3173828125,0.1259765625,0.9609375,7.38525390625,-13.24462890625,-3.173828125,6.0699462890625,53.50341796875,159.8455810546875
1758524886.5238662,-0.416015625,-0.0166015625,0.8359375,5.18798828125,-13.5498046875,-3.11279296875,6.04248046875,53.272705078125,159.67529296875
1758524886.5345423,-0.416015625,-0.0166015625,0.8359375,5.18798828125,-13.5498046875,-3.11279296875,5.99853515625,53.0364990234375,159.4940185546875
1758524886.5438988,-0.52880859375,-0.31787109375,0.93798828125,49.6826171875,-17.02880859375,-5.37109375,6.1468505859375,52.7838134765625,159.290771484375
1758524886.5556746,-0.52880859375,-0.31787109375,0.93798828125,49.6826171875,-17.02880859375,-5.37109375,6.48193359375,52.5146484375,159.0545654296875
1758524886.5641022,-0.4736328125,0.07666015625,0.96142578125,65.4296875,-18.73779296875,-8.1787109375,6.866455078125,52.239990234375,158.7908935546875
1758524886.5741487,-0.4736328125,0.07666015625,0.96142578125,65.4296875,-18.73779296875,-8.1787109375,7.305908203125,51.954345703125,158.4942626953125
1758524886.5840027,-0.31591796875,0.09716796875,0.73486328125,28.1982421875,-18.9208984375,-8.7890625,7.55859375,51.668701171875,158.1976318359375
1758524886.594451,-0.31591796875,0.09716796875,0.73486328125,28.1982421875,-18.9208984375,-8.7890625,7.62451171875,51.3775634765625,157.8955078125
1758524886.6039758,-0.3369140625,0.14697265625,0.5263671875,6.8359375,-11.65771484375,-11.41357421875,7.5750732421875,51.1248779296875,157.5823974609375
1758524886.6144059,-0.3369140625,0.14697265625,0.5263671875,6.8359375,-11.65771484375,-11.41357421875,7.4267578125,50.9051513671875,157.2637939453125
1758524886.6245866,-0.4853515625,-0.083984375,0.36376953125,29.47998046875,-1.8310546875,-15.68603515625,7.3773193359375,50.745849609375,156.9287109375
1758524886.6350777,-0.4853515625,-0.083984375,0.36376953125,29.47998046875,-1.8310546875,-15.68603515625,7.4212646484375,50.64697265625,156.5771484375
1758524886.643985,-0.7138671875,0.14208984375,0.67529296875,25.93994140625,4.2724609375,-15.31982421875,7.459716796875,50.5810546875,156.24755859375
1758524886.6549823,-0.7138671875,0.14208984375,0.67529296875,25.93994140625,4.2724609375,-15.31982421875,7.49267578125,50.55908203125,155.9344482421875
1758524886.6645327,-0.8857421875,0.17919921875,0.68115234375,-4.150390625,2.01416015625,-9.8876953125,7.415771484375,50.526123046875,155.6707763671875
1758524886.6746023,-0.8857421875,0.17919921875,0.68115234375,-4.150390625,2.01416015625,-9.8876953125,7.2344970703125,50.4931640625,155.4620361328125
1758524886.6840203,-1.51025390625,0.28515625,0.82666015625,-31.3720703125,-2.74658203125,-1.77001953125,6.9708251953125,50.438232421875,155.32470703125
1758524886.694555,-1.51025390625,0.28515625,0.82666015625,-31.3720703125,-2.74658203125,-1.77001953125,6.6357421875,50.3778076171875,155.269775390625
1758524886.7046595,-1.60302734375,0.1025390625,1.6162109375,13.24462890625,-20.01953125,0.06103515625,6.5313720703125,50.2349853515625,155.2313232421875
1758524886.7145302,-1.60302734375,0.1025390625,1.6162109375,13.24462890625,-20.01953125,0.06103515625,6.6412353515625,50.0152587890625,155.181884765625
1758524886.7240448,-0.76416015625,0.275390625,0.69970703125,-22.39990234375,-21.66748046875,-2.9296875,6.5533447265625,49.7845458984375,155.1104736328125
1758524886.735024,-0.76416015625,0.275390625,0.69970703125,-22.39990234375,-21.66748046875,-2.9296875,6.2786865234375,49.54833984375,155.0225830078125
1758524886.7445335,-0.59814453125,0.20263671875,0.1416015625,-48.33984375,-21.8505859375,2.50244140625,5.9161376953125,49.3121337890625,154.984130859375
1758524886.7549913,-0.59814453125,0.20263671875,0.1416015625,-48.33984375,-21.8505859375,2.50244140625,5.4656982421875,49.0814208984375,155.006103515625
1758524886.7642028,-0.74169921875,0.13525390625,0.04150390625,-58.28857421875,-14.404296875,-0.79345703125,4.9658203125,48.9056396484375,155.0225830078125
1758524886.7751534,-0.74169921875,0.13525390625,0.04150390625,-58.28857421875,-14.404296875,-0.79345703125,4.4110107421875,48.779296875,155.0390625
1758524886.7841952,-0.77392578125,0.12158203125,0.1220703125,-33.38623046875,-4.5166015625,0.67138671875,3.9935302734375,48.7188720703125,155.093994140625
1758524886.7944798,-0.77392578125,0.12158203125,0.1220703125,-33.38623046875,-4.5166015625,0.67138671875,3.7188720703125,48.7188720703125,155.181884765625
1758524886.8044152,-0.6728515625,0.2109375,0.130859375,-11.71875,1.953125,1.5869140625,3.5595703125,48.7628173828125,155.291748046875
1758524886.814991,-0.6728515625,0.2109375,0.130859375,-11.71875,1.953125,1.5869140625,3.5211181640625,48.8507080078125,155.4290771484375
1758524886.8241663,-0.7666015625,-0.08642578125,0.26953125,1.77001953125,7.75146484375,-0.9765625,3.53759765625,48.9715576171875,155.5609130859375
1758524886.8344831,-0.7666015625,-0.08642578125,0.26953125,1.77001953125,7.75146484375,-0.9765625,3.592529296875,49.130859375,155.6707763671875
1758524886.8447099,-0.892578125,-0.3291015625,0.369140625,25.0244140625,10.80322265625,-5.4931640625,3.724365234375,49.306640625,155.7476806640625
1758524886.8544624,-0.892578125,-0.3291015625,0.369140625,25.0244140625,10.80322265625,-5.4931640625,3.9166259765625,49.4989013671875,155.775146484375
1758524886.864299,-1.32763671875,-0.4345703125,0.23291015625,35.64453125,13.00048828125,-11.16943359375,4.1033935546875,49.7076416015625,155.7476806640625
1758524886.874454,-1.32763671875,-0.4345703125,0.23291015625,35.64453125,13.00048828125,-11.16943359375,4.28466796875,49.9383544921875,155.6707763671875
1758524886.884796,-1.32763671875,-0.4345703125,0.23291015625,39.0625,0.30517578125,-10.3759765625,4.4549560546875,50.1141357421875,155.5828857421875
1758524886.8959272,-1.673828125,0.02197265625,0.99755859375,39.0625,0.30517578125,-10.3759765625,4.658203125,50.2130126953125,155.489501953125
1758524886.904778,-0.978515625,0.22900390625,1.357421875,4.33349609375,-11.90185546875,-10.07080078125,4.691162109375,50.240478515625,155.390625
1758524886.9144475,-0.978515625,0.22900390625,1.357421875,4.33349609375,-11.90185546875,-10.07080078125,4.5648193359375,50.1910400390625,155.2752685546875
1758524886.9250278,-0.75634765625,0.4072265625,0.4892578125,-52.1240234375,-14.70947265625,-7.4462890625,4.185791015625,50.108642578125,155.1708984375
1758524886.9344583,-0.75634765625,0.4072265625,0.4892578125,-52.1240234375,-14.70947265625,-7.4462890625,3.5650634765625,50.0152587890625,155.0994873046875
1758524886.9443426,-0.82861328125,0.17578125,0.30810546875,-49.560546875,-17.578125,-7.26318359375,2.977294921875,49.9053955078125,155.0390625
1758524886.954942,-0.82861328125,0.17578125,0.30810546875,-49.560546875,-17.578125,-7.26318359375,2.406005859375,49.7900390625,154.9951171875
1758524886.9648569,-0.8134765625,-0.05908203125,0.4130859375,10.25390625,-12.3291015625,-7.01904296875,2.4444580078125,49.7296142578125,154.962158203125
1758524886.9744527,-0.8134765625,-0.05908203125,0.4130859375,10.25390625,-12.3291015625,-7.01904296875,2.471923828125,49.669189453125,154.9237060546875
1758524886.9845054,-0.61083984375,0.06787109375,0.2490234375,60.36376953125,-5.92041015625,-6.77490234375,2.999267578125,49.6746826171875,154.9017333984375
1758524886.9946237,-0.61083984375,0.06787109375,0.2490234375,60.36376953125,-5.92041015625,-6.77490234375,3.526611328125,49.6856689453125,154.8797607421875
1758524887.0044944,-0.50048828125,0.1748046875,0.26220703125,53.28369140625,1.708984375,-8.72802734375,3.9715576171875,49.7735595703125,154.8358154296875
1758524887.0144565,-0.50048828125,0.1748046875,0.26220703125,53.28369140625,1.708984375,-8.72802734375,4.41650390625,49.866943359375,154.8028564453125
1758524887.024874,-0.4990234375,0.2265625,0.3046875,27.7099609375,9.70458984375,-8.7890625,4.625244140625,50.03173828125,154.7808837890625
1758524887.0349972,-0.4990234375,0.2265625,0.3046875,27.7099609375,9.70458984375,-8.7890625,4.8394775390625,50.2020263671875,154.7589111328125
1758524887.0448318,-0.6533203125,0.14111328125,0.43359375,-4.82177734375,15.0146484375,-9.94873046875,4.7296142578125,50.416259765625,154.7259521484375
1758524887.0544798,-0.6533203125,0.14111328125,0.43359375,-4.82177734375,15.0146484375,-9.94873046875,4.6197509765625,50.6304931640625,154.6929931640625
1758524887.0660343,-0.81591796875,0.1005859375,0.55859375,-25.5126953125,19.8974609375,-9.27734375,4.317626953125,50.888671875,154.66552734375
1758524887.074537,-0.81591796875,0.1005859375,0.55859375,-25.5126953125,19.8974609375,-9.27734375,4.010009765625,51.141357421875,154.632568359375
1758524887.0849967,-0.9013671875,-0.20458984375,0.58984375,-26.06201171875,20.93505859375,-10.8642578125,3.6639404296875,51.405029296875,154.5611572265625
1758524887.0946152,-0.9013671875,-0.20458984375,0.58984375,-26.06201171875,20.93505859375,-10.8642578125,3.3013916015625,51.6632080078125,154.4677734375
1758524887.1060872,-1.0712890625,-0.5751953125,0.90478515625,16.90673828125,16.41845703125,-13.97705078125,3.2904052734375,51.866455078125,154.2974853515625
1758524887.1145177,-1.0712890625,-0.5751953125,0.90478515625,16.90673828125,16.41845703125,-13.97705078125,3.2464599609375,52.064208984375,154.0997314453125
1758524887.125066,-0.9453125,-0.3310546875,1.17041015625,61.279296875,10.3759765625,-17.822265625,3.570556640625,52.1905517578125,153.80859375
1758524887.135542,-0.9453125,-0.3310546875,1.17041015625,61.279296875,10.3759765625,-17.822265625,3.8836669921875,52.305908203125,153.5009765625
1758524887.1451764,-0.88720703125,0.3916015625,0.69921875,14.0380859375,6.591796875,-16.2353515625,3.75732421875,52.3828125,153.21533203125
1758524887.1545463,-0.88720703125,0.3916015625,0.69921875,14.0380859375,6.591796875,-16.2353515625,3.658447265625,52.4542236328125,152.9461669921875
1758524887.165608,-0.83837890625,0.3388671875,0.36328125,-49.13330078125,4.94384765625,-12.20703125,2.9937744140625,52.5091552734375,152.75390625
1758524887.1753604,-0.83837890625,0.3388671875,0.36328125,-49.13330078125,4.94384765625,-12.20703125,2.3565673828125,52.5750732421875,152.5726318359375
1758524887.1851172,-0.841796875,0.01708984375,0.35888671875,-58.10546875,8.056640625,-9.1552734375,1.669921875,52.6739501953125,152.4517822265625
1758524887.1952999,-0.841796875,0.01708984375,0.35888671875,-58.10546875,8.056640625,-9.1552734375,0.98876953125,52.7728271484375,152.33642578125
1758524887.2067873,-0.904296875,-0.1318359375,0.49169921875,-19.34814453125,9.33837890625,-8.30078125,0.6976318359375,52.8936767578125,152.2320556640625
1758524887.2150526,-0.904296875,-0.1318359375,0.49169921875,-19.34814453125,9.33837890625,-8.30078125,0.4010009765625,53.009033203125,152.1221923828125
1758524887.2246897,-0.79150390625,-0.09765625,0.85986328125,15.68603515625,5.4931640625,-9.82666015625,0.428466796875,53.0859375,151.9793701171875
1758524887.2346513,-0.79150390625,-0.09765625,0.85986328125,15.68603515625,5.4931640625,-9.82666015625,0.4449462890625,53.15185546875,151.8255615234375
1758524887.245878,-0.70361328125,-0.0009765625,0.79296875,1.64794921875,3.5400390625,-8.544921875,0.340576171875,53.184814453125,151.67724609375
1758524887.2551472,-0.70361328125,-0.0009765625,0.79296875,1.64794921875,3.5400390625,-8.544921875,0.2362060546875,53.2177734375,151.5289306640625
1758524887.2647674,-0.59423828125,0.06689453125,0.7451171875,-21.30126953125,-0.42724609375,-8.30078125,-0.0823974609375,53.19580078125,151.3751220703125
1758524887.274791,-0.59423828125,0.06689453125,0.7451171875,-21.30126953125,-0.42724609375,-8.30078125,-0.406494140625,53.173828125,151.2158203125
1758524887.2847676,-0.54296875,-0.0107421875,0.5927734375,-34.912109375,2.685546875,-8.1787109375,-0.85693359375,53.173828125,151.0565185546875
1758524887.294715,-0.54296875,-0.0107421875,0.5927734375,-34.912109375,2.685546875,-8.1787109375,-1.307373046875,53.173828125,150.897216796875
1758524887.3047192,-0.6083984375,-0.1416015625,0.4873046875,0.48828125,6.77490234375,-10.8642578125,-1.4501953125,53.2122802734375,150.6829833984375
1758524887.3149831,-0.6083984375,-0.1416015625,0.4873046875,0.48828125,6.77490234375,-10.8642578125,-1.593017578125,53.250732421875,150.46875
1758524887.3258371,-0.77099609375,-0.123046875,0.548828125,55.96923828125,9.70458984375,-12.26806640625,-1.2139892578125,53.3221435546875,150.2325439453125
1758524887.334797,-0.77099609375,-0.123046875,0.548828125,55.96923828125,9.70458984375,-12.26806640625,-0.8404541015625,53.3935546875,149.996337890625
1758524887.3457637,-0.953125,-0.06298828125,0.859375,82.82470703125,7.080078125,-13.18359375,-0.2142333984375,53.4429931640625,149.74365234375
1758524887.3549304,-0.953125,-0.06298828125,0.859375,82.82470703125,7.080078125,-13.18359375,0.4010009765625,53.4869384765625,149.4854736328125
1758524887.3649352,-0.9140625,-0.17626953125,0.93701171875,77.81982421875,1.64794921875,-15.13671875,0.933837890625,53.4814453125,149.1888427734375
1758524887.3752935,-0.9140625,-0.17626953125,0.93701171875,77.81982421875,1.64794921875,-15.13671875,1.461181640625,53.470458984375,148.88671875
1758524887.3856692,-1.12158203125,-0.013671875,0.7724609375,65.12451171875,-4.57763671875,-16.90673828125,1.834716796875,53.404541015625,148.5516357421875
1758524887.3948855,-1.12158203125,-0.013671875,0.7724609375,65.12451171875,-4.57763671875,-16.90673828125,2.2137451171875,53.3441162109375,148.2275390625
1758524887.4049146,-1.0361328125,0.1787109375,1.02490234375,11.53564453125,-14.16015625,-14.09912109375,2.098388671875,53.184814453125,147.94189453125
1758524887.4158428,-1.0361328125,0.1787109375,1.02490234375,11.53564453125,-14.16015625,-14.09912109375,1.9940185546875,53.0255126953125,147.6617431640625
1758524887.4249928,-0.9462890625,-0.1572265625,0.720703125,8.23974609375,-20.3857421875,-12.14599609375,1.878662109375,52.8057861328125,147.41455078125
1758524887.43494,-0.9462890625,-0.1572265625,0.720703125,8.23974609375,-20.3857421875,-12.14599609375,1.7633056640625,52.5860595703125,147.1673583984375
1758524887.4448743,-0.76123046875,-0.06298828125,0.5791015625,15.80810546875,-23.0712890625,-11.04736328125,1.73583984375,52.3443603515625,146.9366455078125
1758524887.4559205,-0.76123046875,-0.06298828125,0.5791015625,15.80810546875,-23.0712890625,-11.04736328125,1.7083740234375,52.1026611328125,146.71142578125
1758524887.4656885,-0.703125,-0.03076171875,0.34912109375,30.94482421875,-21.17919921875,-9.58251953125,1.8511962890625,51.888427734375,146.5191650390625
1758524887.475356,-0.703125,-0.03076171875,0.34912109375,30.94482421875,-21.17919921875,-9.58251953125,1.99951171875,51.6796875,146.326904296875
1758524887.4849637,-0.76416015625,0.0703125,0.35791015625,50.23193359375,-18.24951171875,-8.9111328125,2.3455810546875,51.5093994140625,146.1566162109375
1758524887.496236,-0.76416015625,0.0703125,0.35791015625,50.23193359375,-18.24951171875,-8.9111328125,2.6971435546875,51.3446044921875,145.997314453125
1758524887.5049942,-0.7978515625,-0.0595703125,0.30419921875,49.49951171875,-12.451171875,-9.521484375,3.0377197265625,51.2457275390625,145.83251953125
1758524887.5158103,-0.7978515625,-0.0595703125,0.30419921875,49.49951171875,-12.451171875,-9.521484375,3.3673095703125,51.1578369140625,145.6787109375
1758524887.5250893,-0.73046875,-0.2158203125,0.29931640625,60.9130859375,-8.4228515625,-12.39013671875,3.7738037109375,51.1138916015625,145.48095703125
1758524887.536265,-0.73046875,-0.2158203125,0.29931640625,60.9130859375,-8.4228515625,-12.39013671875,4.1583251953125,51.075439453125,145.283203125
1758524887.5450885,-0.765625,-0.150390625,0.388671875,62.5,-3.2958984375,-14.22119140625,4.537353515625,51.097412109375,145.0579833984375
1758524887.5555875,-0.765625,-0.150390625,0.388671875,62.5,-3.2958984375,-14.22119140625,4.9053955078125,51.119384765625,144.832763671875
1758524887.566756,-0.7607421875,-0.1435546875,0.466796875,60.1806640625,-0.54931640625,-16.41845703125,5.2239990234375,51.17431640625,144.5745849609375
1758524887.5757055,-0.7607421875,-0.1435546875,0.466796875,60.1806640625,-0.54931640625,-16.41845703125,5.5316162109375,51.229248046875,144.31640625
1758524887.5851169,-0.85107421875,0.17333984375,0.3095703125,25.7568359375,2.0751953125,-15.0146484375,5.526123046875,51.3116455078125,144.085693359375
1758524887.5957494,-0.85107421875,0.17333984375,0.3095703125,25.7568359375,2.0751953125,-15.0146484375,5.537109375,51.3995361328125,143.8714599609375
1758524887.6063416,-0.93408203125,0.306640625,0.35693359375,-24.4140625,2.13623046875,-9.521484375,5.130615234375,51.4874267578125,143.7615966796875
1758524887.616013,-0.93408203125,0.306640625,0.35693359375,-24.4140625,2.13623046875,-9.521484375,4.74609375,51.580810546875,143.6572265625
1758524887.625099,-1.103515625,0.18701171875,0.52490234375,-49.31640625,0.732421875,-2.99072265625,4.207763671875,51.65771484375,143.6627197265625
1758524887.6362472,-1.103515625,0.18701171875,0.52490234375,-49.31640625,0.732421875,-2.99072265625,3.680419921875,51.734619140625,143.6737060546875
1758524887.6451275,-1.16015625,0.0791015625,0.75048828125,-49.62158203125,-5.67626953125,1.52587890625,3.2080078125,51.7401123046875,143.7506103515625
1758524887.6550756,-1.16015625,0.0791015625,0.75048828125,-49.62158203125,-5.67626953125,1.52587890625,2.7410888671875,51.7401123046875,143.822021484375
1758524887.6659107,-1.0244140625,-0.0654296875,0.71533203125,-46.56982421875,-9.70458984375,4.5166015625,2.3345947265625,51.6961669921875,143.931884765625
1758524887.6758566,-1.0244140625,-0.0654296875,0.71533203125,-46.56982421875,-9.70458984375,4.5166015625,1.9281005859375,51.6522216796875,144.0362548828125
1758524887.6851292,-0.904296875,-0.064453125,0.57373046875,-25.7568359375,-12.451171875,4.69970703125,1.724853515625,51.5753173828125,144.140625
1758524887.6951363,-0.904296875,-0.064453125,0.57373046875,-25.7568359375,-12.451171875,4.69970703125,1.51611328125,51.4984130859375,144.2449951171875
1758524887.7060056,-0.8046875,0.11474609375,0.580078125,-23.62060546875,-10.92529296875,4.150390625,1.3348388671875,51.43798828125,144.33837890625
1758524887.716138,-0.8046875,0.11474609375,0.580078125,-23.62060546875,-10.92529296875,4.150390625,1.153564453125,51.3720703125,144.437255859375
1758524887.7251685,-0.625,0.09912109375,0.5751953125,-34.85107421875,-9.33837890625,2.99072265625,0.85693359375,51.317138671875,144.51416015625
1758524887.7352412,-0.625,0.09912109375,0.5751953125,-34.85107421875,-9.33837890625,2.99072265625,0.560302734375,51.26220703125,144.5855712890625
1758524887.745897,-0.47265625,0.0029296875,0.66064453125,-35.70556640625,-5.79833984375,1.64794921875,0.2471923828125,51.229248046875,144.635009765625
1758524887.75524,-0.47265625,0.0029296875,0.66064453125,-35.70556640625,-5.79833984375,1.64794921875,-0.0604248046875,51.1907958984375,144.6734619140625
1758524887.766015,-0.38330078125,-0.021484375,0.9365234375,-32.71484375,-3.35693359375,0.18310546875,-0.3680419921875,51.1578369140625,144.6734619140625
1758524887.7759159,-0.38330078125,-0.021484375,0.9365234375,-32.71484375,-3.35693359375,0.18310546875,-0.670166015625,51.1083984375,144.6514892578125
1758524887.7855957,-0.40625,-0.02734375,0.833984375,-32.958984375,-1.46484375,-1.3427734375,-0.999755859375,51.064453125,144.60205078125
1758524887.7961051,-0.40625,-0.02734375,0.833984375,-32.958984375,-1.46484375,-1.3427734375,-1.3348388671875,51.009521484375,144.5361328125
1758524887.8070679,-0.41064453125,0.1220703125,0.7880859375,-32.71484375,-1.28173828125,-3.5400390625,-1.6864013671875,50.9490966796875,144.4317626953125
1758524887.8161712,-0.41064453125,0.1220703125,0.7880859375,-32.71484375,-1.28173828125,-3.5400390625,-2.032470703125,50.8721923828125,144.327392578125
1758524887.8256042,-0.4462890625,-0.05712890625,0.7080078125,-20.751953125,3.5400390625,-5.126953125,-2.2796630859375,50.8447265625,144.1845703125
1758524887.835331,-0.4462890625,-0.05712890625,0.7080078125,-20.751953125,3.5400390625,-5.126953125,-2.5323486328125,50.811767578125,144.041748046875
1758524887.8460925,-0.49169921875,0.01513671875,0.65869140625,16.4794921875,8.544921875,-7.75146484375,-2.449951171875,50.82275390625,143.85498046875
1758524887.8554204,-0.49169921875,0.01513671875,0.65869140625,16.4794921875,8.544921875,-7.75146484375,-2.3675537109375,50.833740234375,143.6627197265625
1758524887.8663812,-0.626953125,0.041015625,0.5927734375,26.85546875,13.85498046875,-9.21630859375,-2.2027587890625,50.899658203125,143.448486328125
1758524887.8758788,-0.626953125,0.041015625,0.5927734375,26.85546875,13.85498046875,-9.21630859375,-2.032470703125,50.9710693359375,143.23974609375
1758524887.8862543,-0.626953125,0.041015625,0.5927734375,-4.5166015625,12.51220703125,-11.962890625,-2.2027587890625,51.0260009765625,142.9925537109375
1758524887.8953953,-1.0234375,0.26806640625,1.13232421875,-4.5166015625,12.51220703125,-11.962890625,-2.362060546875,51.0809326171875,142.745361328125
1758524887.9056368,-0.970703125,0.09521484375,1.27099609375,-57.43408203125,4.08935546875,-3.0517578125,-2.933349609375,51.0589599609375,142.646484375
1758524887.9165585,-0.970703125,0.09521484375,1.27099609375,-57.43408203125,4.08935546875,-3.0517578125,-3.4991455078125,51.0260009765625,142.5421142578125
1758524887.9260516,-0.87744140625,-0.23828125,0.6015625,-16.2353515625,-5.0048828125,4.33349609375,-3.5650634765625,50.9161376953125,142.5640869140625
1758524887.9356713,-0.87744140625,-0.23828125,0.6015625,-16.2353515625,-5.0048828125,4.33349609375,-3.6419677734375,50.8172607421875,142.5970458984375
1758524887.946381,-0.8134765625,-0.06396484375,0.46142578125,30.09033203125,-7.75146484375,3.35693359375,-3.27392578125,50.701904296875,142.6190185546875
1758524887.9554203,-0.8134765625,-0.06396484375,0.46142578125,30.09033203125,-7.75146484375,3.35693359375,-2.9058837890625,50.592041015625,142.6409912109375
1758524887.9659414,-0.82373046875,0.0166015625,0.52587890625,-7.26318359375,-6.8359375,3.72314453125,-2.911376953125,50.504150390625,142.679443359375
1758524887.9757538,-0.82373046875,0.0166015625,0.52587890625,-7.26318359375,-6.8359375,3.72314453125,-2.9168701171875,50.416259765625,142.723388671875
1758524887.9863746,-0.99072265625,-0.2724609375,0.2529296875,-33.203125,-5.859375,1.953125,-3.2135009765625,50.3558349609375,142.745361328125
1758524887.9954803,-1.5078125,-0.5068359375,0.3720703125,-11.90185546875,-9.33837890625,-0.6103515625,-3.427734375,50.2899169921875,142.7618408203125
1758524888.0065181,-1.5078125,-0.5068359375,0.3720703125,-11.90185546875,-9.33837890625,-0.6103515625,-3.5760498046875,50.2294921875,142.7728271484375
1758524888.0162618,-1.4208984375,-0.02783203125,0.54638671875,-19.287109375,-16.7236328125,2.99072265625,-3.75732421875,50.1416015625,142.822265625
1758524888.0264168,-1.4208984375,-0.02783203125,0.54638671875,-19.287109375,-16.7236328125,2.99072265625,-3.9385986328125,50.03173828125,142.9156494140625
1758524888.035555,-1.15478515625,0.0732421875,0.18701171875,-37.4755859375,-21.6064453125,6.103515625,-4.1912841796875,49.9053955078125,143.0474853515625
1758524888.0472016,-1.15478515625,0.0732421875,0.18701171875,-37.4755859375,-21.6064453125,6.103515625,-4.5098876953125,49.76806640625,143.2232666015625
1758524888.0558283,-0.97412109375,-0.037109375,-0.03662109375,-39.61181640625,-19.1650390625,8.1787109375,-4.822998046875,49.658203125,143.426513671875
1758524888.0658782,-0.97412109375,-0.037109375,-0.03662109375,-39.61181640625,-19.1650390625,8.1787109375,-5.1416015625,49.5758056640625,143.6627197265625
1758524888.075666,-0.91552734375,-0.0390625,0.10986328125,-22.27783203125,-13.00048828125,9.033203125,-5.38330078125,49.5318603515625,143.9154052734375
1758524888.0864747,-0.91552734375,-0.0390625,0.10986328125,-22.27783203125,-13.00048828125,9.033203125,-5.5426025390625,49.5263671875,144.1790771484375
1758524888.0959961,-0.77880859375,-0.02685546875,0.13134765625,-8.056640625,-5.67626953125,10.6201171875,-5.625,49.5648193359375,144.459228515625
1758524888.106075,-0.77880859375,-0.02685546875,0.13134765625,-8.056640625,-5.67626953125,10.6201171875,-5.635986328125,49.6417236328125,144.744873046875
1758524888.1160095,-0.74951171875,-0.15234375,0.4501953125,-7.50732421875,-0.67138671875,12.75634765625,-5.635986328125,49.74609375,145.052490234375
1758524888.1262252,-0.74951171875,-0.15234375,0.4501953125,-7.50732421875,-0.67138671875,12.75634765625,-5.625,49.8724365234375,145.360107421875
1758524888.1356678,-0.75244140625,-0.1171875,0.77197265625,-1.0986328125,-0.79345703125,13.5498046875,-5.570068359375,49.98779296875,145.6622314453125
1758524888.1459963,-0.75244140625,-0.1171875,0.77197265625,-1.0986328125,-0.79345703125,13.5498046875,-5.47119140625,50.086669921875,145.96435546875
1758524888.1564195,-0.68212890625,-0.0185546875,0.94091796875,-7.568359375,-1.52587890625,13.18359375,-5.394287109375,50.16357421875,146.2445068359375
1758524888.1660154,-0.68212890625,-0.0185546875,0.94091796875,-7.568359375,-1.52587890625,13.18359375,-5.33935546875,50.2239990234375,146.513671875
1758524888.1757476,-0.5537109375,-0.02880859375,0.94091796875,-7.99560546875,-2.13623046875,11.41357421875,-5.284423828125,50.262451171875,146.7498779296875
1758524888.1864533,-0.5537109375,-0.02880859375,0.94091796875,-7.99560546875,-2.13623046875,11.41357421875,-5.2294921875,50.284423828125,146.9586181640625
1758524888.1958842,-0.46484375,0.05859375,0.8857421875,-12.8173828125,-1.0986328125,8.23974609375,-5.218505859375,50.2899169921875,147.12890625
1758524888.2061017,-0.46484375,0.05859375,0.8857421875,-12.8173828125,-1.0986328125,8.23974609375,-5.240478515625,50.284423828125,147.2607421875
1758524888.216332,-0.45068359375,0.11767578125,0.84716796875,-28.564453125,-1.28173828125,5.4931640625,-5.350341796875,50.2679443359375,147.359619140625
1758524888.2263591,-0.45068359375,0.11767578125,0.84716796875,-28.564453125,-1.28173828125,5.4931640625,-5.548095703125,50.2349853515625,147.425537109375
1758524888.2359147,-0.42138671875,0.04150390625,0.892578125,-39.12353515625,-2.25830078125,4.94384765625,-5.789794921875,50.1910400390625,147.4859619140625
1758524888.2461252,-0.42138671875,0.04150390625,0.892578125,-39.12353515625,-2.25830078125,4.94384765625,-6.08642578125,50.1251220703125,147.5299072265625
1758524888.256579,-0.43896484375,-0.1611328125,1.029296875,-8.97216796875,-5.7373046875,2.99072265625,-6.2457275390625,50.03173828125,147.5518798828125
1758524888.2662141,-0.43896484375,-0.1611328125,1.029296875,-8.97216796875,-5.7373046875,2.99072265625,-6.2677001953125,49.910888671875,147.5518798828125
1758524888.2759626,-0.50537109375,0.08447265625,0.66015625,-0.9765625,-3.84521484375,1.28173828125,-6.2677001953125,49.7900390625,147.5299072265625
1758524888.2865145,-0.50537109375,0.08447265625,0.66015625,-0.9765625,-3.84521484375,1.28173828125,-6.2347412109375,49.68017578125,147.491455078125
1758524888.2969694,-0.5595703125,0.2216796875,0.73095703125,-27.4658203125,-5.92041015625,-1.03759765625,-6.339111328125,49.5538330078125,147.4420166015625
1758524888.3062024,-0.5595703125,0.2216796875,0.73095703125,-27.4658203125,-5.92041015625,-1.03759765625,-6.56982421875,49.4219970703125,147.381591796875
1758524888.316592,-0.8662109375,0.00732421875,0.90771484375,-34.97314453125,-5.31005859375,-6.103515625,-6.866455078125,49.2901611328125,147.2882080078125
1758524888.3267689,-0.8662109375,0.00732421875,0.90771484375,-34.97314453125,-5.31005859375,-6.103515625,-7.2235107421875,49.163818359375,147.1563720703125
1758524888.336608,-0.92822265625,0.04345703125,1.12548828125,-90.8203125,-11.65771484375,-7.6904296875,-7.8607177734375,49.0045166015625,147.030029296875
1758524888.346244,-0.92822265625,0.04345703125,1.12548828125,-90.8203125,-11.65771484375,-7.6904296875,-8.7725830078125,48.8177490234375,146.9036865234375
1758524888.3571281,-0.876953125,-0.39013671875,0.7177734375,-40.58837890625,-13.18359375,-4.69970703125,-9.4097900390625,48.62548828125,146.8048095703125
1758524888.3663867,-0.876953125,-0.39013671875,0.7177734375,-40.58837890625,-13.18359375,-4.69970703125,-9.7943115234375,48.438720703125,146.7333984375
1758524888.3765438,-1.20947265625,-0.2744140625,1.0439453125,3.96728515625,-15.80810546875,-10.43701171875,-9.9920654296875,48.240966796875,146.634521484375
1758524888.386983,-1.20947265625,-0.2744140625,1.0439453125,3.96728515625,-15.80810546875,-10.43701171875,-10.008544921875,48.0322265625,146.502685546875
1758524888.396813,-1.20947265625,-0.2744140625,1.0439453125,28.3203125,-23.01025390625,-3.2958984375,-9.8602294921875,47.7960205078125,146.4312744140625
1758524888.4063227,-0.587890625,-0.28564453125,1.10693359375,28.3203125,-23.01025390625,-3.2958984375,-9.55810546875,47.52685546875,146.4093017578125
1758524888.4167502,-0.26806640625,-0.287109375,0.39013671875,60.6689453125,-19.4091796875,-4.45556640625,-9.1131591796875,47.2686767578125,146.370849609375
1758524888.4269297,-0.26806640625,-0.287109375,0.39013671875,60.6689453125,-19.4091796875,-4.45556640625,-8.5308837890625,47.021484375,146.304931640625
1758524888.4365864,-0.212890625,-0.0888671875,0.3720703125,63.4765625,-11.23046875,-10.009765625,-7.987060546875,46.8182373046875,146.1895751953125
1758524888.4463685,-0.212890625,-0.0888671875,0.3720703125,63.4765625,-11.23046875,-10.009765625,-7.4652099609375,46.6424560546875,146.0247802734375
1758524888.4566786,-0.228515625,0.0087890625,0.30908203125,46.20361328125,-1.46484375,-15.0146484375,-7.0697021484375,46.51611328125,145.810546875
1758524888.4669654,-0.228515625,0.0087890625,0.30908203125,46.20361328125,-1.46484375,-15.0146484375,-6.78955078125,46.439208984375,145.5523681640625
1758524888.476238,-0.2490234375,-0.1552734375,0.38818359375,43.76220703125,8.48388671875,-19.4091796875,-6.5478515625,46.40625,145.2557373046875
1758524888.4864986,-0.2490234375,-0.1552734375,0.38818359375,43.76220703125,8.48388671875,-19.4091796875,-6.361083984375,46.417236328125,144.9151611328125
1758524888.4967916,-0.5009765625,-0.19384765625,0.47900390625,51.81884765625,14.7705078125,-22.5830078125,-6.15234375,46.461181640625,144.547119140625
1758524888.5066023,-0.5009765625,-0.19384765625,0.47900390625,51.81884765625,14.7705078125,-22.5830078125,-5.9326171875,46.5325927734375,144.151611328125
1758524888.5162501,-1.87158203125,-0.380859375,1.5302734375,57.80029296875,3.5400390625,-23.3154296875,-5.6854248046875,46.56005859375,143.76708984375
1758524888.5266364,-1.87158203125,-0.380859375,1.5302734375,57.80029296875,3.5400390625,-23.3154296875,-5.4107666015625,46.549072265625,143.3990478515625
1758524888.5370839,-1.955078125,-0.34375,1.78564453125,83.740234375,-9.70458984375,-23.92578125,-4.998779296875,46.483154296875,143.0419921875
1758524888.5465372,-1.955078125,-0.34375,1.78564453125,83.740234375,-9.70458984375,-23.92578125,-4.4549560546875,46.351318359375,142.6959228515625
1758524888.5562532,-1.2744140625,0.42333984375,0.08447265625,40.58837890625,-20.751953125,-25.5126953125,-4.1253662109375,46.1810302734375,142.349853515625
1758524888.5667272,-1.2744140625,0.42333984375,0.08447265625,40.58837890625,-20.751953125,-25.5126953125,-3.9990234375,45.977783203125,142.0257568359375
1758524888.5764334,-1.0947265625,-0.25439453125,0.12548828125,17.02880859375,-23.13232421875,-16.17431640625,-3.93310546875,45.780029296875,141.7950439453125
1758524888.5865707,-1.0947265625,-0.25439453125,0.12548828125,17.02880859375,-23.13232421875,-16.17431640625,-3.944091796875,45.5987548828125,141.6412353515625
1758524888.5963743,-0.830078125,-0.15869140625,0.32275390625,26.4892578125,-22.39990234375,-16.66259765625,-3.9276123046875,45.4229736328125,141.4984130859375
1758524888.606862,-0.830078125,-0.15869140625,0.32275390625,26.4892578125,-22.39990234375,-16.66259765625,-3.8671875,45.2581787109375,141.3555908203125
1758524888.616274,-0.830078125,-0.15869140625,0.32275390625,10.31494140625,-11.90185546875,-13.5498046875,-3.878173828125,45.15380859375,141.229248046875
1758524888.626652,-0.56396484375,0.12255859375,0.064453125,10.31494140625,-11.90185546875,-13.5498046875,-3.9495849609375,45.1153564453125,141.1358642578125
1758524888.6367917,-0.4326171875,0.1611328125,0.30859375,-35.5224609375,-4.150390625,-9.82666015625,-4.2352294921875,45.1153564453125,141.075439453125
1758524888.6466556,-0.4326171875,0.1611328125,0.30859375,-35.5224609375,-4.150390625,-9.82666015625,-4.713134765625,45.1593017578125,141.04248046875
1758524888.6563482,-0.45458984375,-0.02587890625,0.3525390625,-60.24169921875,4.82177734375,-9.70458984375,-5.3118896484375,45.24169921875,140.99853515625
1758524888.666743,-0.45458984375,-0.02587890625,0.3525390625,-60.24169921875,4.82177734375,-9.70458984375,-6.031494140625,45.3680419921875,140.95458984375
1758524888.6770358,-0.4580078125,0.01513671875,0.87841796875,-42.78564453125,5.2490234375,-10.80322265625,-6.65771484375,45.4833984375,140.888671875
1758524888.6867032,-0.4580078125,0.01513671875,0.87841796875,-42.78564453125,5.2490234375,-10.80322265625,-7.1905517578125,45.5877685546875,140.7952880859375
1758524888.6980178,-0.55859375,-0.05859375,1.14208984375,-30.8837890625,7.14111328125,-11.23046875,-7.657470703125,45.6756591796875,140.6689453125
1758524888.7073224,-0.55859375,-0.05859375,1.14208984375,-30.8837890625,7.14111328125,-11.23046875,-8.06396484375,45.7470703125,140.5206298828125
1758524888.7168176,-0.599609375,-0.2138671875,1.19970703125,-7.87353515625,0.3662109375,-13.48876953125,-8.3551025390625,45.76904296875,140.33935546875
1758524888.7271984,-0.599609375,-0.2138671875,1.19970703125,-7.87353515625,0.3662109375,-13.48876953125,-8.54736328125,45.736083984375,140.1361083984375
1758524888.7365093,-0.49609375,-0.2607421875,1.04638671875,2.685546875,-1.5869140625,-12.63427734375,-8.6846923828125,45.68115234375,139.9273681640625
1758524888.7476041,-0.49609375,-0.2607421875,1.04638671875,2.685546875,-1.5869140625,-12.63427734375,-8.7725830078125,45.6097412109375,139.713134765625
1758524888.756506,-0.474609375,-0.150390625,0.5693359375,24.4140625,-0.79345703125,-11.5966796875,-8.7506103515625,45.5328369140625,139.50439453125
1758524888.767026,-0.474609375,-0.150390625,0.5693359375,24.4140625,-0.79345703125,-11.5966796875,-8.624267578125,45.46142578125,139.3011474609375
1758524888.7794178,-0.732421875,-0.0634765625,0.3603515625,19.775390625,3.23486328125,-13.0615234375,-8.5308837890625,45.41748046875,139.0869140625
1758524888.7877843,-0.732421875,-0.0634765625,0.3603515625,19.775390625,3.23486328125,-13.0615234375,-8.470458984375,45.4010009765625,138.8671875
1758524888.796555,-0.8876953125,-0.18310546875,0.28955078125,14.6484375,6.04248046875,-14.22119140625,-8.4429931640625,45.4119873046875,138.6419677734375
1758524888.8069139,-0.8876953125,-0.18310546875,0.28955078125,14.6484375,6.04248046875,-14.22119140625,-8.45947265625,45.450439453125,138.427734375
1758524888.8173816,-0.9716796875,-0.1240234375,0.34716796875,5.67626953125,9.033203125,-13.0615234375,-8.5198974609375,45.5218505859375,138.22998046875
1758524888.8278239,-0.9716796875,-0.1240234375,0.34716796875,5.67626953125,9.033203125,-13.0615234375,-8.6297607421875,45.615234375,138.0487060546875
1758524888.8365977,-1.05126953125,-0.1044921875,0.63134765625,-17.27294921875,6.40869140625,-11.474609375,-8.843994140625,45.714111328125,137.8948974609375
1758524888.847158,-1.05126953125,-0.1044921875,0.63134765625,-17.27294921875,6.40869140625,-11.474609375,-9.1571044921875,45.802001953125,137.757568359375
1758524888.8568256,-1.02294921875,-0.14697265625,0.7861328125,-40.22216796875,3.0517578125,-7.62939453125,-9.5635986328125,45.8734130859375,137.6531982421875
1758524888.8680234,-1.02294921875,-0.14697265625,0.7861328125,-40.22216796875,3.0517578125,-7.62939453125,-10.0634765625,45.933837890625,137.5762939453125
1758524888.8770316,-0.99462890625,-0.23779296875,0.51220703125,-29.60205078125,0.48828125,-4.94384765625,-10.4864501953125,45.9832763671875,137.52685546875
1758524888.886764,-0.99462890625,-0.23779296875,0.51220703125,-29.60205078125,0.48828125,-4.94384765625,-10.8544921875,46.0272216796875,137.4993896484375
1758524888.897182,-0.98486328125,-0.09521484375,0.40869140625,-22.39990234375,-0.6103515625,-3.173828125,-11.173095703125,46.0711669921875,137.493896484375
1758524888.9067304,-0.98486328125,-0.09521484375,0.40869140625,-22.39990234375,-0.6103515625,-3.173828125,-11.44775390625,46.12060546875,137.5048828125
1758524888.9166994,-0.9130859375,-0.115234375,0.3916015625,-22.39990234375,-0.6103515625,-2.25830078125,-11.7169189453125,46.175537109375,137.5323486328125
1758524888.9275575,-0.9130859375,-0.115234375,0.3916015625,-22.39990234375,-0.6103515625,-2.25830078125,-11.986083984375,46.23046875,137.57080078125
1758524888.9372432,-0.8095703125,-0.18603515625,0.4736328125,-25.20751953125,0.9765625,0.0,-12.2552490234375,46.3018798828125,137.625732421875
1758524888.9467256,-0.8095703125,-0.18603515625,0.4736328125,-25.20751953125,0.9765625,0.0,-12.535400390625,46.38427734375,137.6971435546875
1758524888.9567168,-0.70654296875,-0.1708984375,0.63134765625,-25.5126953125,2.197265625,1.3427734375,-12.81005859375,46.47216796875,137.7685546875
1758524888.967114,-0.70654296875,-0.1708984375,0.63134765625,-25.5126953125,2.197265625,1.3427734375,-13.07373046875,46.56005859375,137.8399658203125
1758524888.9779189,-0.68603515625,-0.171875,0.74853515625,-26.30615234375,1.89208984375,3.41796875,-13.3319091796875,46.6424560546875,137.9168701171875
1758524888.9867887,-0.68603515625,-0.171875,0.74853515625,-26.30615234375,1.89208984375,3.41796875,-13.5736083984375,46.7138671875,137.999267578125
1758524888.9981,-0.6318359375,-0.216796875,0.7724609375,-22.15576171875,0.91552734375,5.9814453125,-13.7493896484375,46.7742919921875,138.1146240234375
1758524889.0082324,-0.6318359375,-0.216796875,0.7724609375,-22.15576171875,0.91552734375,5.9814453125,-13.9141845703125,46.8292236328125,138.2135009765625
1758524889.0173275,-0.5712890625,-0.22314453125,0.7734375,-14.16015625,0.54931640625,7.87353515625,-13.985595703125,46.8731689453125,138.3343505859375
1758524889.0273957,-0.5712890625,-0.22314453125,0.7734375,-14.16015625,0.54931640625,7.87353515625,-14.051513671875,46.9061279296875,138.4442138671875
1758524889.0369945,-0.5625,-0.23974609375,0.7978515625,-15.13671875,0.732421875,8.60595703125,-14.1229248046875,46.9390869140625,138.5595703125
1758524889.0475082,-0.5625,-0.23974609375,0.7978515625,-15.13671875,0.732421875,8.60595703125,-14.1998291015625,46.9610595703125,138.6639404296875
1758524889.0569148,-0.59033203125,-0.1943359375,0.90234375,-10.55908203125,0.67138671875,8.9111328125,-14.21630859375,46.9775390625,138.7628173828125
1758524889.066891,-0.59033203125,-0.1943359375,0.90234375,-10.55908203125,0.67138671875,8.9111328125,-14.23828125,46.9830322265625,138.856201171875
1758524889.0784702,-0.609375,-0.15380859375,0.8740234375,3.72314453125,-1.03759765625,8.72802734375,-14.1119384765625,46.966552734375,138.9495849609375
1758524889.0870605,-0.609375,-0.15380859375,0.8740234375,3.72314453125,-1.03759765625,8.72802734375,-13.9801025390625,46.9500732421875,139.0374755859375
1758524889.0969496,-0.55078125,-0.080078125,0.97900390625,-2.99072265625,-2.9296875,8.6669921875,-13.9141845703125,46.900634765625,139.1253662109375
1758524889.1069274,-0.55078125,-0.080078125,0.97900390625,-2.99072265625,-2.9296875,8.6669921875,-13.8372802734375,46.8511962890625,139.207763671875
1758524889.1179943,-0.5107421875,-0.0966796875,0.79296875,-18.5546875,-2.0751953125,9.09423828125,-13.9141845703125,46.8017578125,139.295654296875
1758524889.127439,-0.5107421875,-0.0966796875,0.79296875,-18.5546875,-2.0751953125,9.09423828125,-13.985595703125,46.7523193359375,139.37255859375
1758524889.1370857,-0.53759765625,-0.19140625,0.70947265625,-22.0947265625,-0.8544921875,7.568359375,-14.1119384765625,46.7083740234375,139.427490234375
1758524889.147414,-0.53759765625,-0.19140625,0.70947265625,-22.0947265625,-0.8544921875,7.568359375,-14.23828125,46.6644287109375,139.482421875
1758524889.157299,-0.7646484375,-0.251953125,0.88037109375,-10.498046875,-2.50244140625,4.7607421875,-14.2822265625,46.5985107421875,139.50439453125
1758524889.1669698,-0.7646484375,-0.251953125,0.88037109375,-10.498046875,-2.50244140625,4.7607421875,-14.3206787109375,46.5325927734375,139.5318603515625
1758524889.1779296,-1.1083984375,0.07958984375,1.14697265625,-24.23095703125,-7.99560546875,3.96728515625,-14.4854736328125,46.417236328125,139.5703125
1758524889.1877475,-1.1083984375,0.07958984375,1.14697265625,-24.23095703125,-7.99560546875,3.96728515625,-14.6337890625,46.307373046875,139.6142578125
1758524889.197951,-1.12060546875,0.0458984375,0.88427734375,-69.15283203125,-17.2119140625,7.080078125,-15.1611328125,46.131591796875,139.7406005859375
1758524889.2071133,-1.12060546875,0.0458984375,0.88427734375,-69.15283203125,-17.2119140625,7.080078125,-15.6829833984375,45.9613037109375,139.8834228515625
1758524889.219218,-0.7158203125,-0.333984375,0.58349609375,-65.36865234375,-20.81298828125,10.55908203125,-16.1224365234375,45.76904296875,140.086669921875
1758524889.2275953,-0.7158203125,-0.333984375,0.58349609375,-65.36865234375,-20.81298828125,10.55908203125,-16.5673828125,45.5877685546875,140.3009033203125
1758524889.2379622,-0.41259765625,-0.23779296875,0.39013671875,-3.5400390625,-17.27294921875,7.14111328125,-16.446533203125,45.428466796875,140.4547119140625
1758524889.2473834,-0.41259765625,-0.23779296875,0.39013671875,-3.5400390625,-17.27294921875,7.14111328125,-16.336669921875,45.274658203125,140.6085205078125
1758524889.258431,-0.3525390625,-0.10546875,0.3369140625,39.48974609375,-7.14111328125,4.2724609375,-15.8587646484375,45.208740234375,140.679931640625
1758524889.2671049,-0.3525390625,-0.10546875,0.3369140625,39.48974609375,-7.14111328125,4.2724609375,-15.3863525390625,45.1373291015625,140.7568359375
1758524889.2793589,-0.5732421875,-0.23193359375,0.65380859375,65.4296875,-2.62451171875,1.52587890625,-14.69970703125,45.10986328125,140.77880859375
1758524889.2871096,-0.5732421875,-0.23193359375,0.65380859375,65.4296875,-2.62451171875,1.52587890625,-14.0240478515625,45.076904296875,140.7952880859375
1758524889.2979734,-0.62060546875,-0.26806640625,0.927734375,75.1953125,-3.7841796875,-0.732421875,-13.2769775390625,45.02197265625,140.77880859375
1758524889.3071184,-0.62060546875,-0.26806640625,0.927734375,75.1953125,-3.7841796875,-0.732421875,-12.535400390625,44.9560546875,140.7568359375
1758524889.3190196,-0.54150390625,-0.06298828125,0.9140625,30.2734375,-5.79833984375,-0.18310546875,-12.227783203125,44.8736572265625,140.7403564453125
1758524889.3271728,-0.54150390625,-0.06298828125,0.9140625,30.2734375,-5.79833984375,-0.18310546875,-11.920166015625,44.7802734375,140.7183837890625
1758524889.3372076,-0.49560546875,-0.01318359375,0.7353515625,-25.390625,-7.75146484375,-0.732421875,-12.1673583984375,44.6649169921875,140.6964111328125
1758524889.3472207,-0.49560546875,-0.01318359375,0.7353515625,-25.390625,-7.75146484375,-0.732421875,-12.3980712890625,44.549560546875,140.6689453125
1758524889.3580682,-0.57958984375,-0.00390625,0.7041015625,-42.54150390625,-5.615234375,0.18310546875,-12.7935791015625,44.4561767578125,140.6524658203125
1758524889.367264,-0.57958984375,-0.00390625,0.7041015625,-42.54150390625,-5.615234375,0.18310546875,-13.1781005859375,44.36279296875,140.635986328125
1758524889.3772316,-0.7109375,-0.13427734375,0.8623046875,-12.939453125,-6.7138671875,-0.79345703125,-13.2769775390625,44.2584228515625,140.614013671875
1758524889.3877835,-0.7109375,-0.13427734375,0.8623046875,-12.939453125,-6.7138671875,-0.79345703125,-13.370361328125,44.1595458984375,140.592041015625
1758524889.3973224,-0.6708984375,-0.1513671875,0.86376953125,9.09423828125,-7.32421875,-0.6103515625,-13.238525390625,44.0496826171875,140.5755615234375
1758524889.4073439,-0.6708984375,-0.1513671875,0.86376953125,9.09423828125,-7.32421875,-0.6103515625,-13.1121826171875,43.9453125,140.55908203125
1758524889.4172797,-0.6435546875,-0.1513671875,0.52880859375,-11.90185546875,-5.9814453125,1.89208984375,-13.1781005859375,43.857421875,140.5755615234375
1758524889.427601,-0.6435546875,-0.1513671875,0.52880859375,-11.90185546875,-5.9814453125,1.89208984375,-13.2440185546875,43.780517578125,140.60302734375
1758524889.4373682,-0.87255859375,-0.22509765625,0.19287109375,-25.7568359375,-2.01416015625,4.39453125,-13.4417724609375,43.7640380859375,140.6634521484375
1758524889.447341,-0.87255859375,-0.22509765625,0.19287109375,-25.7568359375,-2.01416015625,4.39453125,-13.6505126953125,43.7640380859375,140.7403564453125
1758524889.4585745,-1.3369140625,-0.6533203125,0.58544921875,-2.9296875,-5.06591796875,3.35693359375,-13.6505126953125,43.74755859375,140.833740234375
1758524889.4676116,-1.3369140625,-0.6533203125,0.58544921875,-2.9296875,-5.06591796875,3.35693359375,-13.677978515625,43.7420654296875,140.9326171875
1758524889.4773276,-1.1201171875,-0.35400390625,0.93994140625,34.48486328125,-7.4462890625,0.3662109375,-13.359375,43.70361328125,140.99853515625
1758524889.4874392,-1.1201171875,-0.35400390625,0.93994140625,34.48486328125,-7.4462890625,0.3662109375,-13.040771484375,43.6651611328125,141.064453125
1758524889.4982455,-0.921875,0.16064453125,0.73876953125,16.11328125,-7.14111328125,1.40380859375,-12.886962890625,43.6322021484375,141.1468505859375
1758524889.507536,-0.921875,0.16064453125,0.73876953125,16.11328125,-7.14111328125,1.40380859375,-12.7166748046875,43.6102294921875,141.2347412109375
1758524889.5174427,-0.79638671875,0.04833984375,0.42041015625,-18.798828125,-5.37109375,2.9296875,-12.8759765625,43.604736328125,141.35009765625
1758524889.5274684,-0.79638671875,0.04833984375,0.42041015625,-18.798828125,-5.37109375,2.9296875,-13.02978515625,43.6102294921875,141.470947265625
1758524889.538096,-0.6875,-0.12158203125,0.44140625,-22.76611328125,0.244140625,5.55419921875,-13.2110595703125,43.681640625,141.61376953125
1758524889.5473945,-0.6875,-0.12158203125,0.44140625,-22.76611328125,0.244140625,5.55419921875,-13.392333984375,43.7530517578125,141.756591796875
1758524889.557443,-0.57763671875,-0.12060546875,0.4892578125,-3.662109375,2.99072265625,7.26318359375,-13.370361328125,43.8519287109375,141.9158935546875
1758524889.5675385,-0.57763671875,-0.12060546875,0.4892578125,-3.662109375,2.99072265625,7.26318359375,-13.3538818359375,43.9508056640625,142.0751953125
1758524889.578328,-0.5087890625,-0.05322265625,0.556640625,-11.29150390625,8.544921875,10.009765625,-13.392333984375,44.1046142578125,142.2454833984375
1758524889.5878284,-0.5087890625,-0.05322265625,0.556640625,-11.29150390625,8.544921875,10.009765625,-13.42529296875,44.2529296875,142.415771484375
1758524889.5982182,-0.53662109375,-0.13525390625,0.55908203125,-33.203125,10.8642578125,10.498046875,-13.677978515625,44.417724609375,142.5750732421875
1758524889.608994,-0.53662109375,-0.13525390625,0.55908203125,-33.203125,10.8642578125,10.498046875,-13.9251708984375,44.58251953125,142.723388671875
1758524889.6178393,-0.53662109375,-0.13525390625,0.55908203125,-52.3681640625,12.939453125,10.986328125,-14.3646240234375,44.75830078125,142.8662109375
1758524889.6281302,-0.5654296875,-0.1953125,0.72021484375,-52.3681640625,12.939453125,10.986328125,-14.8040771484375,44.9285888671875,142.998046875
1758524889.6378806,-0.60986328125,-0.3232421875,0.75244140625,-43.3349609375,13.00048828125,10.8642578125,-15.1556396484375,45.087890625,143.118896484375
1758524889.6487806,-0.60986328125,-0.3232421875,0.75244140625,-43.3349609375,13.00048828125,10.8642578125,-15.5181884765625,45.2471923828125,143.228759765625
1758524889.65795,-0.61279296875,-0.234375,0.79150390625,-18.73779296875,13.48876953125,10.68115234375,-15.633544921875,45.4010009765625,143.32763671875
1758524889.6681788,-0.61279296875,-0.234375,0.79150390625,-18.73779296875,13.48876953125,10.68115234375,-15.75439453125,45.54931640625,143.4210205078125
1758524889.6783922,-0.7958984375,-0.33740234375,0.623046875,-10.986328125,13.7939453125,9.70458984375,-15.809326171875,45.6976318359375,143.4979248046875
1758524889.688251,-0.7958984375,-0.33740234375,0.623046875,-10.986328125,13.7939453125,9.70458984375,-15.8697509765625,45.845947265625,143.5748291015625
1758524889.6976738,-0.91796875,-0.294921875,0.5205078125,19.287109375,13.7939453125,9.46044921875,-15.6390380859375,46.0052490234375,143.6572265625
1758524889.708238,-0.91796875,-0.294921875,0.5205078125,19.287109375,13.7939453125,9.46044921875,-15.4193115234375,46.16455078125,143.7451171875
1758524889.7183325,-0.99169921875,-0.1181640625,0.5869140625,5.31005859375,10.498046875,8.60595703125,-15.3314208984375,46.3018798828125,143.8385009765625
1758524889.7294695,-0.99169921875,-0.1181640625,0.5869140625,5.31005859375,10.498046875,8.60595703125,-15.238037109375,46.4447021484375,143.9483642578125
1758524889.738013,-1.1787109375,-0.24072265625,0.5166015625,-23.62060546875,9.09423828125,9.3994140625,-15.4248046875,46.58203125,144.0802001953125
1758524889.747703,-1.1787109375,-0.24072265625,0.5166015625,-23.62060546875,9.09423828125,9.3994140625,-15.6170654296875,46.7303466796875,144.217529296875
1758524889.7582808,-1.3681640625,-0.22412109375,0.2529296875,-46.69189453125,6.89697265625,11.41357421875,-16.01806640625,46.878662109375,144.4097900390625
1758524889.7677667,-1.3681640625,-0.22412109375,0.2529296875,-46.69189453125,6.89697265625,11.41357421875,-16.4300537109375,47.0379638671875,144.6185302734375
1758524889.7779827,-1.21923828125,-0.2275390625,0.306640625,-46.20361328125,4.0283203125,12.5732421875,-16.820068359375,47.186279296875,144.8602294921875
1758524889.7885315,-1.21923828125,-0.2275390625,0.306640625,-46.20361328125,4.0283203125,12.5732421875,-17.2100830078125,47.340087890625,145.1129150390625
1758524889.7983603,-0.8974609375,-0.15234375,0.009765625,-31.18896484375,8.4228515625,12.20703125,-17.4847412109375,47.5433349609375,145.3436279296875
1758524889.8078713,-0.8974609375,-0.15234375,0.009765625,-31.18896484375,8.4228515625,12.20703125,-17.764892578125,47.757568359375,145.5853271484375
1758524889.8181703,-0.7216796875,-0.22216796875,0.07958984375,4.08935546875,13.73291015625,10.498046875,-17.7374267578125,48.0157470703125,145.777587890625
1758524889.8280842,-0.7216796875,-0.22216796875,0.07958984375,4.08935546875,13.73291015625,10.498046875,-17.7154541015625,48.2794189453125,145.9698486328125
1758524889.838189,-0.697265625,-0.18896484375,0.42431640625,31.1279296875,19.1650390625,10.009765625,-17.4517822265625,48.5870361328125,146.1236572265625
1758524889.8478024,-0.697265625,-0.18896484375,0.42431640625,31.1279296875,19.1650390625,10.009765625,-17.1771240234375,48.8946533203125,146.27197265625
1758524889.858178,-0.6669921875,-0.22216796875,0.6904296875,23.92578125,19.71435546875,10.8642578125,-16.9573974609375,49.19677734375,146.42578125
1758524889.8683844,-0.6669921875,-0.22216796875,0.6904296875,23.92578125,19.71435546875,10.8642578125,-16.7266845703125,49.482421875,146.568603515625
1758524889.8780942,-0.69384765625,-0.25927734375,0.95068359375,5.4931640625,16.11328125,11.23046875,-16.6497802734375,49.7186279296875,146.722412109375
1758524889.8878963,-0.69384765625,-0.25927734375,0.95068359375,5.4931640625,16.11328125,11.23046875,-16.5618896484375,49.94384765625,146.854248046875
1758524889.8984315,-0.7177734375,-0.1494140625,1.05029296875,-0.244140625,13.48876953125,9.82666015625,-16.5234375,50.11962890625,146.964111328125
1758524889.9088547,-0.7177734375,-0.1494140625,1.05029296875,-0.244140625,13.48876953125,9.82666015625,-16.4739990234375,50.284423828125,147.06298828125
1758524889.9182634,-0.78466796875,-0.02783203125,0.88818359375,-2.685546875,11.5966796875,5.18798828125,-16.4794921875,50.4107666015625,147.095947265625
1758524889.9279678,-0.78466796875,-0.02783203125,0.88818359375,-2.685546875,11.5966796875,5.18798828125,-16.4794921875,50.5316162109375,147.1234130859375
1758524889.9385374,-0.78955078125,-0.138671875,0.63623046875,2.9296875,7.87353515625,0.732421875,-16.4520263671875,50.5975341796875,147.1014404296875
1758524889.9479418,-0.78955078125,-0.138671875,0.63623046875,2.9296875,7.87353515625,0.732421875,-16.4300537109375,50.6689453125,147.0794677734375
1758524889.9582717,-0.755859375,-0.20458984375,0.54052734375,19.4091796875,5.0048828125,-2.01416015625,-16.2652587890625,50.701904296875,147.030029296875
1758524889.9683638,-0.755859375,-0.20458984375,0.54052734375,19.4091796875,5.0048828125,-2.01416015625,-16.10595703125,50.7403564453125,146.9805908203125
1758524889.9785233,-0.73681640625,-0.21337890625,0.568359375,29.9072265625,2.74658203125,-2.685546875,-15.84228515625,50.7568359375,146.9256591796875
1758524889.9880142,-0.73779296875,-0.18798828125,0.59423828125,30.45654296875,-0.91552734375,-3.7841796875,-15.5841064453125,50.7513427734375,146.8707275390625
1758524889.9985178,-0.73779296875,-0.18798828125,0.59423828125,30.45654296875,-0.91552734375,-3.7841796875,-15.325927734375,50.7293701171875,146.8157958984375
1758524890.0086045,-0.7685546875,-0.13427734375,0.673828125,31.31103515625,-1.8310546875,-6.28662109375,-15.0787353515625,50.6964111328125,146.7388916015625
1758524890.0185544,-0.7685546875,-0.13427734375,0.673828125,31.31103515625,-1.8310546875,-6.28662109375,-14.8370361328125,50.657958984375,146.6455078125
1758524890.0281072,-0.78759765625,-0.14208984375,0.70263671875,44.73876953125,-2.3193359375,-8.9111328125,-14.5404052734375,50.614013671875,146.53564453125
1758524890.0393245,-0.78759765625,-0.14208984375,0.70263671875,44.73876953125,-2.3193359375,-8.9111328125,-14.1943359375,50.55908203125,146.3983154296875
1758524890.0480802,-0.71630859375,-0.154296875,0.7109375,53.22265625,-4.69970703125,-10.8642578125,-13.8153076171875,50.4931640625,146.25
1758524890.0587394,-0.71630859375,-0.154296875,0.7109375,53.22265625,-4.69970703125,-10.8642578125,-13.4033203125,50.416259765625,146.0906982421875
1758524890.0687573,-0.65771484375,-0.1103515625,0.822265625,54.19921875,-7.26318359375,-12.451171875,-12.9913330078125,50.3173828125,145.92041015625
1758524890.0788667,-0.65771484375,-0.1103515625,0.822265625,54.19921875,-7.26318359375,-12.451171875,-12.579345703125,50.2020263671875,145.733642578125
1758524890.0882814,-0.65869140625,-0.0361328125,0.86376953125,35.0341796875,-9.21630859375,-14.46533203125,-12.271728515625,50.064697265625,145.5303955078125
1758524890.0989964,-0.65869140625,-0.0361328125,0.86376953125,35.0341796875,-9.21630859375,-14.46533203125,-12.06298828125,49.921875,145.3106689453125
1758524890.1090355,-0.6455078125,-0.12548828125,0.80712890625,25.57373046875,-11.77978515625,-15.80810546875,-11.898193359375,49.7515869140625,145.08544921875
1758524890.1186926,-0.6455078125,-0.12548828125,0.80712890625,25.57373046875,-11.77978515625,-15.80810546875,-11.788330078125,49.5703125,144.8492431640625
1758524890.1282256,-0.591796875,-0.17919921875,0.67919921875,37.90283203125,-11.5966796875,-17.7001953125,-11.6290283203125,49.3890380859375,144.5965576171875
1758524890.1402695,-0.591796875,-0.17919921875,0.67919921875,37.90283203125,-11.5966796875,-17.7001953125,-11.42578125,49.2022705078125,144.3218994140625
1758524890.1486988,-0.55810546875,-0.07373046875,0.72021484375,62.56103515625,-11.962890625,-19.22607421875,-11.1016845703125,49.0155029296875,144.041748046875
1758524890.159063,-0.55810546875,-0.07373046875,0.72021484375,62.56103515625,-11.962890625,-19.22607421875,-10.667724609375,48.8232421875,143.7451171875
1758524890.1682937,-0.52783203125,0.00830078125,0.84716796875,44.37255859375,-12.5732421875,-21.05712890625,-10.3326416015625,48.62548828125,143.4375
1758524890.178683,-0.52783203125,0.00830078125,0.84716796875,44.37255859375,-12.5732421875,-21.05712890625,-10.096435546875,48.416748046875,143.10791015625
1758524890.188768,-0.68798828125,-0.193359375,1.06982421875,36.0107421875,-17.333984375,-17.76123046875,-9.8712158203125,48.18603515625,142.811279296875
1758524890.1985757,-0.68798828125,-0.193359375,1.06982421875,36.0107421875,-17.333984375,-17.76123046875,-9.66796875,47.933349609375,142.53662109375
1758524890.2088606,-0.56591796875,-0.12548828125,1.16796875,32.71484375,-20.44677734375,-15.80810546875,-9.47021484375,47.65869140625,142.2784423828125
1758524890.2186825,-0.56591796875,-0.12548828125,1.16796875,32.71484375,-20.44677734375,-15.80810546875,-9.2779541015625,47.3675537109375,142.03125
1758524890.2282982,-0.40234375,-0.142578125,1.00390625,24.10888671875,-22.15576171875,-15.07568359375,-9.1241455078125,47.0599365234375,141.7840576171875
1758524890.2393882,-0.40234375,-0.142578125,1.00390625,24.10888671875,-22.15576171875,-15.07568359375,-9.0087890625,46.7413330078125,141.5423583984375
1758524890.2483869,-0.40771484375,-0.44091796875,0.6650390625,28.4423828125,-19.1650390625,-18.61572265625,-8.89892578125,46.42822265625,141.2677001953125
1758524890.2587194,-0.40771484375,-0.44091796875,0.6650390625,28.4423828125,-19.1650390625,-18.61572265625,-8.7945556640625,46.131591796875,140.965576171875
1758524890.2690532,-0.43896484375,-0.3134765625,0.57666015625,43.39599609375,-13.671875,-22.3388671875,-8.6572265625,45.8624267578125,140.625
1758524890.2786114,-0.43896484375,-0.3134765625,0.57666015625,43.39599609375,-13.671875,-22.3388671875,-8.4759521484375,45.615234375,140.262451171875
1758524890.288739,-0.6552734375,-0.0576171875,0.75390625,45.5322265625,-10.92529296875,-22.3388671875,-8.28369140625,45.3900146484375,139.8944091796875
1758524890.299384,-0.6552734375,-0.0576171875,0.75390625,45.5322265625,-10.92529296875,-22.3388671875,-8.0804443359375,45.186767578125,139.5318603515625
1758524890.3086717,-0.89111328125,0.08984375,1.02001953125,28.1982421875,-13.00048828125,-19.34814453125,-7.9376220703125,44.97802734375,139.19677734375
1758524890.3188093,-0.89111328125,0.08984375,1.02001953125,28.1982421875,-13.00048828125,-19.34814453125,-7.8497314453125,44.769287109375,138.8946533203125
1758524890.328518,-0.75927734375,0.0068359375,0.96044921875,13.18359375,-15.380859375,-15.13671875,-7.80029296875,44.5550537109375,138.6309814453125
1758524890.3395786,-0.75927734375,0.0068359375,0.96044921875,13.18359375,-15.380859375,-15.13671875,-7.80029296875,44.3353271484375,138.4002685546875
1758524890.3484848,-0.50830078125,0.01806640625,0.7568359375,0.54931640625,-14.83154296875,-14.58740234375,-7.855224609375,44.12109375,138.175048828125
1758524890.3588061,-0.50830078125,0.01806640625,0.7568359375,0.54931640625,-14.83154296875,-14.58740234375,-7.9595947265625,43.9068603515625,137.9498291015625
1758524890.3689368,-0.4521484375,-0.01708984375,0.59912109375,-16.90673828125,-8.72802734375,-14.83154296875,-8.15185546875,43.7255859375,137.724609375
1758524890.378917,-0.4521484375,-0.01708984375,0.59912109375,-16.90673828125,-8.72802734375,-14.83154296875,-8.4320068359375,43.57177734375,137.493896484375
1758524890.3889334,-0.6435546875,-0.03271484375,0.55908203125,-21.91162109375,-6.28662109375,-13.24462890625,-8.7286376953125,43.4344482421875,137.274169921875
1758524890.3988752,-0.6435546875,-0.03271484375,0.55908203125,-21.91162109375,-6.28662109375,-13.24462890625,-9.041748046875,43.319091796875,137.0654296875
1758524890.4094985,-0.65966796875,-0.16650390625,0.52734375,-18.798828125,-4.82177734375,-11.3525390625,-9.327392578125,43.2147216796875,136.878662109375
1758524890.4189818,-0.65966796875,-0.16650390625,0.52734375,-18.798828125,-4.82177734375,-11.3525390625,-9.591064453125,43.1268310546875,136.7083740234375
1758524890.428893,-0.6005859375,-0.04833984375,0.701171875,-31.67724609375,-3.0517578125,-8.97216796875,-9.90966796875,43.055419921875,136.5545654296875
1758524890.4391708,-0.6005859375,-0.04833984375,0.701171875,-31.67724609375,-3.0517578125,-8.97216796875,-10.283203125,42.9949951171875,136.417236328125
1758524890.4501042,-0.57861328125,-0.015625,0.59423828125,-46.5087890625,-0.8544921875,-7.38525390625,-10.7171630859375,42.945556640625,136.2908935546875
1758524890.4589682,-0.57861328125,-0.015625,0.59423828125,-46.5087890625,-0.8544921875,-7.38525390625,-11.2115478515625,42.9071044921875,136.1700439453125
1758524890.469158,-0.58447265625,-0.09375,0.54296875,-39.61181640625,1.8310546875,-7.32421875,-11.678466796875,42.890625,136.0491943359375
1758524890.4794726,-0.58447265625,-0.09375,0.54296875,-39.61181640625,1.8310546875,-7.32421875,-12.10693359375,42.8851318359375,135.9283447265625
1758524890.490253,-0.65185546875,-0.04345703125,0.63427734375,-27.9541015625,3.11279296875,-6.9580078125,-12.4749755859375,42.8851318359375,135.81298828125
1758524890.499135,-0.65185546875,-0.04345703125,0.63427734375,-27.9541015625,3.11279296875,-6.9580078125,-12.7825927734375,42.901611328125,135.6976318359375
1758524890.510383,-0.69189453125,-0.080078125,0.55615234375,-24.96337890625,5.2490234375,-6.16455078125,-13.0682373046875,42.923583984375,135.5877685546875
1758524890.5193408,-0.69189453125,-0.080078125,0.55615234375,-24.96337890625,5.2490234375,-6.16455078125,-13.3428955078125,42.967529296875,135.4833984375
1758524890.5292525,-0.82275390625,-0.1533203125,0.5771484375,-6.53076171875,4.82177734375,-6.2255859375,-13.524169921875,43.011474609375,135.384521484375
1758524890.5393095,-0.82275390625,-0.1533203125,0.5771484375,-6.53076171875,4.82177734375,-6.2255859375,-13.6175537109375,43.0609130859375,135.28564453125
1758524890.5499575,-1.048828125,0.02783203125,0.67578125,-6.77490234375,6.16455078125,-8.7890625,-13.7274169921875,43.1158447265625,135.1812744140625
1758524890.5587852,-1.048828125,0.02783203125,0.67578125,-6.77490234375,6.16455078125,-8.7890625,-13.8482666015625,43.187255859375,135.0604248046875
1758524890.5693262,-1.31689453125,-0.44677734375,1.26806640625,-20.93505859375,-4.0283203125,-11.29150390625,-14.04052734375,43.2037353515625,134.945068359375
1758524890.5787468,-1.31689453125,-0.44677734375,1.26806640625,-20.93505859375,-4.0283203125,-11.29150390625,-14.3096923828125,43.1707763671875,134.8297119140625
1758524890.5910974,-1.04931640625,-0.75,1.08251953125,-33.26416015625,-12.0849609375,-4.39453125,-14.6173095703125,43.099365234375,134.769287109375
1758524890.5989912,-1.04931640625,-0.75,1.08251953125,-33.26416015625,-12.0849609375,-4.39453125,-14.9578857421875,42.9949951171875,134.7637939453125
1758524890.6088004,-0.81494140625,-0.48095703125,0.45947265625,22.705078125,-14.5263671875,-6.103515625,-15.040283203125,42.86865234375,134.7528076171875
1758524890.6190333,-0.81494140625,-0.48095703125,0.45947265625,22.705078125,-14.5263671875,-6.103515625,-14.864501953125,42.73681640625,134.736328125
1758524890.6303442,-0.75244140625,0.029296875,0.29541015625,51.57470703125,-11.77978515625,-11.474609375,-14.578857421875,42.615966796875,134.681396484375
1758524890.6394227,-0.75244140625,0.029296875,0.29541015625,51.57470703125,-11.77978515625,-11.474609375,-14.17236328125,42.5115966796875,134.5989990234375
1758524890.6489363,-0.626953125,-0.0234375,0.3330078125,31.31103515625,-7.568359375,-12.20703125,-13.875732421875,42.440185546875,134.5166015625
1758524890.6593869,-0.626953125,-0.0234375,0.3330078125,31.31103515625,-7.568359375,-12.20703125,-13.6834716796875,42.38525390625,134.4287109375
1758524890.6689517,-0.56103515625,-0.17724609375,0.4228515625,17.7001953125,-3.23486328125,-11.04736328125,-13.55712890625,42.36328125,134.3408203125
1758524890.678918,-0.56103515625,-0.17724609375,0.4228515625,17.7001953125,-3.23486328125,-11.04736328125,-13.502197265625,42.3577880859375,134.2584228515625
1758524890.690375,-0.615234375,-0.2978515625,0.55810546875,25.7568359375,-0.1220703125,-12.5732421875,-13.42529296875,42.3687744140625,134.154052734375
1758524890.6989918,-0.615234375,-0.2978515625,0.55810546875,25.7568359375,-0.1220703125,-12.5732421875,-13.3154296875,42.3907470703125,134.033203125
1758524890.7089527,-0.60986328125,-0.21240234375,0.7626953125,21.97265625,1.220703125,-13.00048828125,-13.2330322265625,42.4127197265625,133.9013671875
1758524890.7190483,-0.60986328125,-0.21240234375,0.7626953125,21.97265625,1.220703125,-13.00048828125,-13.172607421875,42.42919921875,133.7530517578125
1758524890.7295523,-0.6298828125,-0.267578125,0.64453125,0.8544921875,2.8076171875,-10.92529296875,-13.20556640625,42.4566650390625,133.6102294921875
1758524890.739403,-0.6298828125,-0.267578125,0.64453125,0.8544921875,2.8076171875,-10.92529296875,-13.33740234375,42.484130859375,133.4783935546875
1758524890.7489989,-0.65380859375,-0.1943359375,0.75,-0.30517578125,2.01416015625,-11.41357421875,-13.4747314453125,42.506103515625,133.3355712890625
1758524890.7593737,-0.65380859375,-0.1943359375,0.75,-0.30517578125,2.01416015625,-11.41357421875,-13.6175537109375,42.5225830078125,133.1927490234375
1758524890.7700634,-0.7421875,-0.27392578125,0.7197265625,-7.38525390625,2.74658203125,-10.986328125,-13.7933349609375,42.5335693359375,133.04443359375
1758524890.7789814,-0.7421875,-0.27392578125,0.7197265625,-7.38525390625,2.74658203125,-10.986328125,-14.0020751953125,42.5555419921875,132.8961181640625
1758524890.7890844,-0.75634765625,-0.47265625,0.76611328125,19.53125,0.732421875,-11.04736328125,-14.073486328125,42.56103515625,132.747802734375
1758524890.8003702,-0.75634765625,-0.47265625,0.76611328125,19.53125,0.732421875,-11.04736328125,-14.0185546875,42.550048828125,132.5994873046875
1758524890.8093348,-0.82666015625,-0.28271484375,0.6318359375,31.55517578125,2.0751953125,-9.70458984375,-13.90869140625,42.550048828125,132.4566650390625
1758524890.819143,-0.82666015625,-0.28271484375,0.6318359375,31.55517578125,2.0751953125,-9.70458984375,-13.73291015625,42.5665283203125,132.3248291015625
1758524890.8297122,-0.89501953125,-0.03173828125,0.634765625,23.62060546875,-1.15966796875,-6.9580078125,-13.5791015625,42.5665283203125,132.2149658203125
1758524890.8392744,-0.89501953125,-0.03173828125,0.634765625,23.62060546875,-1.15966796875,-6.9580078125,-13.447265625,42.5665283203125,132.1380615234375
1758524890.8490958,-0.8740234375,-0.00439453125,0.93359375,10.31494140625,-3.23486328125,-3.72314453125,-13.348388671875,42.56103515625,132.088623046875
1758524890.859253,-0.8740234375,-0.00439453125,0.93359375,10.31494140625,-3.23486328125,-3.72314453125,-13.2879638671875,42.5445556640625,132.0611572265625
1758524890.8697226,-0.748046875,-0.12841796875,0.76806640625,-9.765625,-4.2724609375,-1.3427734375,-13.3099365234375,42.528076171875,132.044677734375
1758524890.8795702,-0.748046875,-0.12841796875,0.76806640625,-9.765625,-4.2724609375,-1.3427734375,-13.414306640625,42.506103515625,132.044677734375
1758524890.8892717,-0.58544921875,-0.1474609375,0.74462890625,-22.03369140625,-4.33349609375,-0.30517578125,-13.5736083984375,42.484130859375,132.0556640625
1758524890.9002159,-0.58544921875,-0.1474609375,0.74462890625,-22.03369140625,-4.33349609375,-0.30517578125,-13.787841796875,42.462158203125,132.0611572265625
1758524890.9092348,-0.541015625,-0.12255859375,0.5771484375,-20.5078125,-1.3427734375,0.1220703125,-13.9910888671875,42.4456787109375,132.066650390625
1758524890.9197333,-0.541015625,-0.12255859375,0.5771484375,-20.5078125,-1.3427734375,0.1220703125,-14.183349609375,42.4456787109375,132.066650390625
1758524890.9294972,-0.50439453125,-0.17919921875,0.5478515625,-2.13623046875,2.44140625,-0.18310546875,-14.293212890625,42.462158203125,132.0556640625
1758524890.9412718,-0.50439453125,-0.17919921875,0.5478515625,-2.13623046875,2.44140625,-0.18310546875,-14.315185546875,42.4951171875,132.0391845703125
1758524890.9492605,-0.51513671875,-0.150390625,0.736328125,2.62451171875,4.82177734375,-0.1220703125,-14.3206787109375,42.5390625,132.01171875
1758524890.9598777,-0.51513671875,-0.150390625,0.736328125,2.62451171875,4.82177734375,-0.1220703125,-14.2987060546875,42.5885009765625,131.978759765625
1758524890.9697583,-0.583984375,-0.16943359375,0.9609375,-2.13623046875,4.150390625,-0.3662109375,-14.30419921875,42.626953125,131.9403076171875
1758524890.9805233,-0.583984375,-0.16943359375,0.9609375,-2.13623046875,4.150390625,-0.3662109375,-14.3316650390625,42.6544189453125,131.890869140625
1758524890.9893534,-0.54833984375,-0.16015625,1.0830078125,-7.14111328125,0.91552734375,-1.03759765625,-14.403076171875,42.637939453125,131.8359375
1758524891.0006454,-0.54833984375,-0.16015625,1.0830078125,-7.14111328125,0.91552734375,-1.03759765625,-14.468994140625,42.615966796875,131.7755126953125
1758524891.009646,-0.5068359375,-0.125,0.99365234375,-10.7421875,-1.28173828125,-0.48828125,-14.5623779296875,42.56103515625,131.72607421875
1758524891.0199013,-0.5068359375,-0.125,0.99365234375,-10.7421875,-1.28173828125,-0.48828125,-14.6502685546875,42.506103515625,131.6656494140625
1758524891.0293927,-0.55615234375,-0.068359375,0.8828125,-5.4931640625,-3.173828125,-0.8544921875,-14.6832275390625,42.42919921875,131.6107177734375
1758524891.0405712,-0.55615234375,-0.068359375,0.8828125,-5.4931640625,-3.173828125,-0.8544921875,-14.710693359375,42.3468017578125,131.55029296875
1758524891.0493944,-0.52978515625,-0.07080078125,0.912109375,-3.41796875,-4.08935546875,0.06103515625,-14.7052001953125,42.2589111328125,131.5008544921875
1758524891.0593705,-0.52978515625,-0.07080078125,0.912109375,-3.41796875,-4.08935546875,0.06103515625,-14.69970703125,42.16552734375,131.4569091796875
1758524891.069411,-0.54150390625,-0.2978515625,0.69921875,10.009765625,-2.5634765625,-0.9765625,-14.5733642578125,42.088623046875,131.3909912109375
1758524891.080021,-0.54150390625,-0.2978515625,0.69921875,10.009765625,-2.5634765625,-0.9765625,-14.4580078125,42.01171875,131.3250732421875
1758524891.0894868,-0.59521484375,-0.31787109375,0.7333984375,31.55517578125,-0.244140625,-4.94384765625,-14.17236328125,41.9512939453125,131.2042236328125
1758524891.0994847,-0.59521484375,-0.31787109375,0.7333984375,31.55517578125,-0.244140625,-4.94384765625,-13.897705078125,41.8963623046875,131.0888671875
1758524891.110458,-0.6279296875,-0.15380859375,0.73876953125,18.12744140625,3.2958984375,-6.591796875,-13.77685546875,41.868896484375,130.9405517578125
1758524891.119447,-0.6279296875,-0.15380859375,0.73876953125,18.12744140625,3.2958984375,-6.591796875,-13.6614990234375,41.846923828125,130.7977294921875
1758524891.1296322,-0.71826171875,0.064453125,0.65283203125,-2.50244140625,4.08935546875,-5.37109375,-13.73291015625,41.8414306640625,130.6658935546875
1758524891.139593,-0.71826171875,0.064453125,0.65283203125,-2.50244140625,4.08935546875,-5.37109375,-13.7933349609375,41.846923828125,130.5450439453125
1758524891.1503527,-0.75341796875,-0.16552734375,0.455078125,8.48388671875,6.4697265625,-4.21142578125,-13.7384033203125,41.8798828125,130.4351806640625
1758524891.159605,-0.75341796875,-0.16552734375,0.455078125,8.48388671875,6.4697265625,-4.21142578125,-13.68896484375,41.9293212890625,130.330810546875
1758524891.1696427,-0.74951171875,-0.19189453125,0.5205078125,39.61181640625,9.27734375,-4.57763671875,-13.3428955078125,42.0062255859375,130.2264404296875
1758524891.180307,-0.74951171875,-0.19189453125,0.5205078125,39.61181640625,9.27734375,-4.57763671875,-13.0023193359375,42.0941162109375,130.1275634765625
1758524891.1896665,-0.7724609375,-0.08349609375,0.53662109375,29.47998046875,12.87841796875,-3.41796875,-12.7606201171875,42.2259521484375,130.0396728515625
1758524891.199567,-0.7724609375,-0.08349609375,0.53662109375,29.47998046875,12.87841796875,-3.41796875,-12.5189208984375,42.36328125,129.957275390625
1758524891.2096324,-0.83056640625,-0.126953125,0.5791015625,13.48876953125,12.26806640625,-1.03759765625,-12.41455078125,42.506103515625,129.9078369140625
1758524891.2196298,-0.83056640625,-0.126953125,0.5791015625,13.48876953125,12.26806640625,-1.03759765625,-12.315673828125,42.64892578125,129.869384765625
1758524891.229629,-0.80810546875,-0.2724609375,0.5556640625,-12.26806640625,11.71875,0.6103515625,-12.45849609375,42.7972412109375,129.8583984375
1758524891.2395995,-0.80810546875,-0.2724609375,0.5556640625,-12.26806640625,11.71875,0.6103515625,-12.6123046875,42.945556640625,129.8419189453125
1758524891.250332,-0.8154296875,-0.45556640625,0.60693359375,-3.47900390625,11.77978515625,0.8544921875,-12.6837158203125,43.0938720703125,129.83642578125
1758524891.2602212,-0.8154296875,-0.45556640625,0.60693359375,-3.47900390625,11.77978515625,0.8544921875,-12.7716064453125,43.2421875,129.8309326171875
1758524891.2696853,-0.86669921875,-0.30419921875,0.7373046875,15.44189453125,10.07080078125,0.9765625,-12.667236328125,43.3740234375,129.825439453125
1758524891.2796128,-0.86669921875,-0.30419921875,0.7373046875,15.44189453125,10.07080078125,0.9765625,-12.568359375,43.5003662109375,129.8199462890625
1758524891.2904124,-0.9130859375,-0.25341796875,0.59033203125,13.12255859375,9.1552734375,1.3427734375,-12.491455078125,43.626708984375,129.825439453125
1758524891.299915,-0.9130859375,-0.25341796875,0.59033203125,13.12255859375,9.1552734375,1.3427734375,-12.4090576171875,43.7530517578125,129.83642578125
1758524891.3096669,-0.89013671875,-0.2509765625,0.40185546875,5.9814453125,8.11767578125,0.0,-12.4200439453125,43.868408203125,129.8309326171875
1758524891.3199155,-0.89013671875,-0.2509765625,0.40185546875,5.9814453125,8.11767578125,0.0,-12.4310302734375,43.9947509765625,129.83642578125
1758524891.330941,-0.8828125,-0.265625,0.556640625,-1.0986328125,7.75146484375,-0.732421875,-12.5244140625,44.1156005859375,129.83642578125
1758524891.3397272,-0.8828125,-0.265625,0.556640625,-1.0986328125,7.75146484375,-0.732421875,-12.6177978515625,44.2364501953125,129.8309326171875
1758524891.3503163,-0.8603515625,-0.3037109375,0.509765625,6.591796875,7.50732421875,-1.40380859375,-12.6397705078125,44.3572998046875,129.8199462890625
1758524891.3604467,-0.8603515625,-0.3037109375,0.509765625,6.591796875,7.50732421875,-1.40380859375,-12.667236328125,44.47265625,129.8089599609375
1758524891.3704224,-0.79248046875,-0.21337890625,0.671875,19.8974609375,5.31005859375,-2.38037109375,-12.568359375,44.571533203125,129.7869873046875
1758524891.3797553,-0.79248046875,-0.21337890625,0.671875,19.8974609375,5.31005859375,-2.38037109375,-12.4639892578125,44.659423828125,129.7650146484375
1758524891.3907084,-0.7626953125,-0.1005859375,0.72900390625,12.63427734375,4.69970703125,-1.46484375,-12.41455078125,44.747314453125,129.7540283203125
1758524891.4012423,-0.7626953125,-0.1005859375,0.72900390625,12.63427734375,4.69970703125,-1.46484375,-12.359619140625,44.82421875,129.737548828125
1758524891.41046,-0.74365234375,-0.11083984375,0.6689453125,2.38037109375,2.99072265625,-0.732421875,-12.3870849609375,44.89013671875,129.7320556640625
1758524891.4198544,-0.74365234375,-0.11083984375,0.6689453125,2.38037109375,2.99072265625,-0.732421875,-12.4090576171875,44.9505615234375,129.7265625
1758524891.4312625,-0.716796875,-0.12255859375,0.63623046875,-6.40869140625,2.86865234375,-0.3662109375,-12.5079345703125,45.010986328125,129.7265625
1758524891.4401143,-0.716796875,-0.12255859375,0.63623046875,-6.40869140625,2.86865234375,-0.3662109375,-12.6068115234375,45.0714111328125,129.715576171875
1758524891.4506536,-0.69580078125,-0.15576171875,0.60498046875,-4.39453125,2.99072265625,-1.28173828125,-12.689208984375,45.1263427734375,129.693603515625
1758524891.4604435,-0.69580078125,-0.15576171875,0.60498046875,-4.39453125,2.99072265625,-1.28173828125,-12.777099609375,45.1812744140625,129.671630859375
1758524891.4707615,-0.6865234375,-0.15234375,0.70849609375,1.8310546875,4.08935546875,-2.50244140625,-12.81005859375,45.24169921875,129.6221923828125
1758524891.479857,-0.6865234375,-0.15234375,0.70849609375,1.8310546875,4.08935546875,-2.50244140625,-12.8375244140625,45.296630859375,129.57275390625
1758524891.4914055,-0.671875,-0.095703125,0.73779296875,5.859375,4.2724609375,-3.41796875,-12.83203125,45.3460693359375,129.5013427734375
1758524891.5003881,-0.671875,-0.095703125,0.73779296875,5.859375,4.2724609375,-3.41796875,-12.821044921875,45.3955078125,129.429931640625
1758524891.510284,-0.64306640625,-0.07568359375,0.7880859375,-0.48828125,4.21142578125,-3.90625,-12.8759765625,45.4339599609375,129.3475341796875
1758524891.5200088,-0.64306640625,-0.07568359375,0.7880859375,-0.48828125,4.21142578125,-3.90625,-12.9254150390625,45.472412109375,129.254150390625
1758524891.5306292,-0.63427734375,-0.11083984375,0.7578125,-6.591796875,4.69970703125,-4.33349609375,-13.0352783203125,45.5108642578125,129.1552734375
1758524891.5399678,-0.63427734375,-0.11083984375,0.7578125,-6.591796875,4.69970703125,-4.33349609375,-13.1451416015625,45.538330078125,129.056396484375
1758524891.55028,-0.62841796875,-0.10888671875,0.7431640625,-2.44140625,5.18798828125,-5.06591796875,-13.2220458984375,45.5712890625,128.935546875
1758524891.5600107,-0.62841796875,-0.10888671875,0.7431640625,-2.44140625,5.18798828125,-5.06591796875,-13.29345703125,45.5987548828125,128.8201904296875
1758524891.5705774,-0.64013671875,-0.08447265625,0.66015625,2.8076171875,7.4462890625,-5.43212890625,-13.3209228515625,45.648193359375,128.682861328125
1758524891.5800273,-0.64013671875,-0.08447265625,0.66015625,2.8076171875,7.4462890625,-5.43212890625,-13.3428955078125,45.6976318359375,128.551025390625
1758524891.5903585,-0.6904296875,-0.12548828125,0.6318359375,7.080078125,8.85009765625,-6.28662109375,-13.33740234375,45.758056640625,128.4027099609375
1758524891.6013663,-0.6904296875,-0.12548828125,0.6318359375,7.080078125,8.85009765625,-6.28662109375,-13.3319091796875,45.823974609375,128.2489013671875
1758524891.6103928,-0.77685546875,-0.2431640625,0.60693359375,9.033203125,9.70458984375,-7.568359375,-13.326416015625,45.8953857421875,128.0841064453125
1758524891.6201394,-0.77685546875,-0.2431640625,0.60693359375,9.033203125,9.70458984375,-7.568359375,-13.3319091796875,45.966796875,127.9193115234375
1758524891.6304276,-0.84423828125,-0.25146484375,0.71435546875,18.49365234375,8.4228515625,-9.21630859375,-13.2550048828125,46.0272216796875,127.7325439453125
1758524891.6407745,-0.84423828125,-0.25146484375,0.71435546875,18.49365234375,8.4228515625,-9.21630859375,-13.18359375,46.087646484375,127.55126953125
1758524891.6505055,-0.84423828125,-0.25146484375,0.71435546875,21.97265625,7.080078125,-9.70458984375,-13.084716796875,46.1370849609375,127.3699951171875
1758524891.660216,-0.87744140625,-0.24462890625,0.72412109375,21.97265625,7.080078125,-9.70458984375,-12.9913330078125,46.1865234375,127.188720703125
1758524891.6711206,-0.85791015625,-0.13330078125,0.71484375,21.3623046875,4.33349609375,-9.94873046875,-12.89794921875,46.2139892578125,127.012939453125
1758524891.6803784,-0.85791015625,-0.13330078125,0.71484375,21.3623046875,4.33349609375,-9.94873046875,-12.8045654296875,46.2359619140625,126.837158203125
1758524891.6904411,-0.83203125,-0.11767578125,0.67724609375,15.07568359375,2.197265625,-10.31494140625,-12.76611328125,46.2469482421875,126.6668701171875
1758524891.7017813,-0.83203125,-0.11767578125,0.67724609375,15.07568359375,2.197265625,-10.31494140625,-12.7276611328125,46.25244140625,126.49658203125
1758524891.7106094,-0.7197265625,-0.146484375,0.61083984375,13.61083984375,0.91552734375,-10.92529296875,-12.711181640625,46.2469482421875,126.32080078125
1758524891.7207434,-0.7197265625,-0.146484375,0.61083984375,13.61083984375,0.91552734375,-10.92529296875,-12.689208984375,46.2469482421875,126.14501953125
1758524891.7305584,-0.62841796875,-0.140625,0.556640625,14.404296875,1.40380859375,-11.71875,-12.6727294921875,46.2469482421875,125.958251953125
1758524891.7411432,-0.62841796875,-0.140625,0.556640625,14.404296875,1.40380859375,-11.71875,-12.65625,46.241455078125,125.771484375
1758524891.7512755,-0.607421875,-0.177734375,0.67041015625,13.916015625,1.3427734375,-12.6953125,-12.6507568359375,46.2359619140625,125.5682373046875
1758524891.760743,-0.607421875,-0.177734375,0.67041015625,13.916015625,1.3427734375,-12.6953125,-12.6507568359375,46.2249755859375,125.364990234375
1758524891.7706032,-0.62109375,-0.20458984375,0.73974609375,16.6015625,-1.708984375,-13.5498046875,-12.623291015625,46.1810302734375,125.1507568359375
1758524891.7816124,-0.62109375,-0.20458984375,0.73974609375,16.6015625,-1.708984375,-13.5498046875,-12.601318359375,46.131591796875,124.9365234375
1758524891.790559,-0.6171875,-0.18212890625,0.74658203125,20.32470703125,-5.7373046875,-13.671875,-12.535400390625,46.0382080078125,124.7332763671875
1758524891.801093,-0.6171875,-0.18212890625,0.74658203125,20.32470703125,-5.7373046875,-13.671875,-12.4639892578125,45.94482421875,124.5245361328125
1758524891.8108768,-0.59765625,-0.17431640625,0.8154296875,19.4091796875,-8.48388671875,-14.0380859375,-12.403564453125,45.8184814453125,124.3157958984375
1758524891.820898,-0.59765625,-0.17431640625,0.8154296875,19.4091796875,-8.48388671875,-14.0380859375,-12.3431396484375,45.6866455078125,124.1015625
1758524891.8306522,-0.5966796875,-0.12841796875,0.841796875,20.01953125,-11.04736328125,-14.7705078125,-12.271728515625,45.52734375,123.8873291015625
1758524891.8416626,-0.5966796875,-0.12841796875,0.841796875,20.01953125,-11.04736328125,-14.7705078125,-12.2003173828125,45.362548828125,123.6676025390625
1758524891.8510883,-0.64111328125,-0.044921875,0.78125,15.13671875,-9.27734375,-15.31982421875,-12.1783447265625,45.2142333984375,123.431396484375
1758524891.8603868,-0.64111328125,-0.044921875,0.78125,15.13671875,-9.27734375,-15.31982421875,-12.1563720703125,45.06591796875,123.20068359375
1758524891.8708441,-0.70361328125,-0.05322265625,0.642578125,15.0146484375,-4.2724609375,-16.6015625,-12.15087890625,44.967041015625,122.93701171875
1758524891.8804996,-0.70361328125,-0.05322265625,0.642578125,15.0146484375,-4.2724609375,-16.6015625,-12.139892578125,44.8681640625,122.67333984375
1758524891.8907056,-0.70947265625,-0.00048828125,0.59814453125,22.39990234375,1.15966796875,-17.822265625,-12.073974609375,44.8297119140625,122.3822021484375
1758524891.9009686,-0.70947265625,-0.00048828125,0.59814453125,22.39990234375,1.15966796875,-17.822265625,-12.0025634765625,44.791259765625,122.091064453125
1758524891.9108953,-0.66259765625,-0.068359375,0.58837890625,27.34375,5.9814453125,-18.12744140625,-11.898193359375,44.8077392578125,121.783447265625
1758524891.9204307,-0.66259765625,-0.068359375,0.58837890625,27.34375,5.9814453125,-18.12744140625,-11.788330078125,44.82421875,121.475830078125
1758524891.9308023,-0.6953125,-0.1943359375,0.72021484375,28.01513671875,8.7890625,-17.63916015625,-11.6839599609375,44.8681640625,121.168212890625
1758524891.9405715,-0.6953125,-0.1943359375,0.72021484375,28.01513671875,8.7890625,-17.63916015625,-11.57958984375,44.912109375,120.860595703125
1758524891.951647,-0.83740234375,-0.33154296875,0.87109375,23.92578125,10.19287109375,-17.76123046875,-11.524658203125,44.9725341796875,120.5474853515625
1758524891.9604805,-0.83740234375,-0.33154296875,0.87109375,23.92578125,10.19287109375,-17.76123046875,-11.4862060546875,45.0274658203125,120.2398681640625
1758524891.9708555,-0.8681640625,-0.29296875,0.84619140625,25.0244140625,10.43701171875,-19.1650390625,-11.44775390625,45.087890625,119.90478515625
1758524891.980846,-0.73095703125,-0.14990234375,0.759765625,22.76611328125,12.51220703125,-19.71435546875,-11.436767578125,45.15380859375,119.5697021484375
1758524891.9908566,-0.73095703125,-0.14990234375,0.759765625,22.76611328125,12.51220703125,-19.71435546875,-11.436767578125,45.2252197265625,119.2181396484375
1758524892.0005133,-0.6005859375,-0.09130859375,0.53759765625,30.6396484375,13.36669921875,-19.8974609375,-11.40380859375,45.3076171875,118.8720703125
1758524892.0108674,-0.6005859375,-0.09130859375,0.53759765625,30.6396484375,13.36669921875,-19.8974609375,-11.326904296875,45.3900146484375,118.5150146484375
1758524892.0206273,-0.54931640625,-0.12109375,0.48681640625,38.63525390625,14.58740234375,-17.822265625,-11.2060546875,45.4833984375,118.1744384765625
1758524892.0305686,-0.54931640625,-0.12109375,0.48681640625,38.63525390625,14.58740234375,-17.822265625,-11.0357666015625,45.5877685546875,117.850341796875
1758524892.0406237,-0.603515625,-0.17822265625,0.60546875,21.78955078125,14.5263671875,-13.73291015625,-10.931396484375,45.6976318359375,117.5482177734375
1758524892.052147,-0.603515625,-0.17822265625,0.60546875,21.78955078125,14.5263671875,-13.73291015625,-10.8929443359375,45.8074951171875,117.279052734375
1758524892.0608604,-0.71630859375,-0.20703125,0.79833984375,-20.08056640625,11.65771484375,-9.09423828125,-11.041259765625,45.9063720703125,117.0428466796875
1758524892.0709424,-0.71630859375,-0.20703125,0.79833984375,-20.08056640625,11.65771484375,-9.09423828125,-11.370849609375,45.98876953125,116.839599609375
1758524892.080768,-0.8193359375,-0.12109375,0.75732421875,-53.16162109375,7.99560546875,-6.04248046875,-11.8487548828125,46.0601806640625,116.6583251953125
1758524892.0916295,-0.8193359375,-0.12109375,0.75732421875,-53.16162109375,7.99560546875,-6.04248046875,-12.4639892578125,46.1151123046875,116.5045166015625
1758524892.1006277,-0.8408203125,-0.12890625,0.681640625,-48.2177734375,4.150390625,-5.9814453125,-13.040771484375,46.153564453125,116.356201171875
1758524892.1110134,-0.8408203125,-0.12890625,0.681640625,-48.2177734375,4.150390625,-5.9814453125,-13.590087890625,46.1700439453125,116.21337890625
1758524892.1209626,-0.8369140625,-0.22412109375,0.6005859375,-7.8125,2.86865234375,-6.77490234375,-13.9361572265625,46.1865234375,116.070556640625
1758524892.1312368,-0.8369140625,-0.22412109375,0.6005859375,-7.8125,2.86865234375,-6.77490234375,-14.08447265625,46.2030029296875,115.9222412109375
1758524892.1407678,-0.8369140625,-0.22412109375,0.6005859375,30.45654296875,2.25830078125,-7.75146484375,-14.051513671875,46.2139892578125,115.77392578125
1758524892.1518545,-0.84765625,-0.25341796875,0.48779296875,30.45654296875,2.25830078125,-7.75146484375,-13.8372802734375,46.23046875,115.6201171875
1758524892.1607578,-0.9091796875,-0.123046875,0.57373046875,31.43310546875,0.1220703125,-7.38525390625,-13.6175537109375,46.241455078125,115.477294921875
1758524892.1712198,-0.9091796875,-0.123046875,0.57373046875,31.43310546875,0.1220703125,-7.38525390625,-13.3868408203125,46.25244140625,115.345458984375
1758524892.1807892,-0.8935546875,-0.17236328125,0.59765625,9.3994140625,-3.173828125,-5.615234375,-13.2550048828125,46.2469482421875,115.2301025390625
1758524892.1920702,-0.8935546875,-0.17236328125,0.59765625,9.3994140625,-3.173828125,-5.615234375,-13.2220458984375,46.2359619140625,115.13671875
1758524892.2007823,-0.85400390625,-0.21826171875,0.580078125,0.18310546875,-6.9580078125,-3.90625,-13.216552734375,46.20849609375,115.059814453125
1758524892.2113526,-0.85400390625,-0.21826171875,0.580078125,0.18310546875,-6.9580078125,-3.90625,-13.2550048828125,46.16455078125,115.0048828125
1758524892.2212985,-0.79541015625,-0.19091796875,0.53564453125,2.99072265625,-8.85009765625,-2.8076171875,-13.271484375,46.1151123046875,114.9609375
1758524892.231422,-0.79541015625,-0.19091796875,0.53564453125,2.99072265625,-8.85009765625,-2.8076171875,-13.2659912109375,46.0601806640625,114.927978515625
1758524892.2408404,-0.73974609375,-0.1630859375,0.52978515625,10.68115234375,-10.986328125,-2.8076171875,-13.216552734375,45.9942626953125,114.9005126953125
1758524892.251818,-0.73974609375,-0.1630859375,0.52978515625,10.68115234375,-10.986328125,-2.8076171875,-13.1341552734375,45.9228515625,114.8785400390625
1758524892.2617774,-0.7041015625,-0.16015625,0.67529296875,15.13671875,-12.20703125,-3.173828125,-13.0242919921875,45.8404541015625,114.8565673828125
1758524892.2717624,-0.7041015625,-0.16015625,0.67529296875,15.13671875,-12.20703125,-3.173828125,-12.89794921875,45.7525634765625,114.8291015625
1758524892.281169,-0.67724609375,-0.12939453125,0.7431640625,13.36669921875,-12.3291015625,-3.90625,-12.777099609375,45.6591796875,114.7906494140625
1758524892.2917821,-0.67724609375,-0.12939453125,0.7431640625,13.36669921875,-12.3291015625,-3.90625,-12.667236328125,45.5548095703125,114.7467041015625
1758524892.3013046,-0.6103515625,-0.1455078125,0.80029296875,11.16943359375,-12.939453125,-5.31005859375,-12.5738525390625,45.4449462890625,114.6917724609375
1758524892.3125422,-0.6103515625,-0.1455078125,0.80029296875,11.16943359375,-12.939453125,-5.31005859375,-12.4969482421875,45.3240966796875,114.620361328125
1758524892.3210766,-0.52783203125,-0.1572265625,0.87353515625,20.5078125,-13.36669921875,-6.77490234375,-12.3760986328125,45.1922607421875,114.5379638671875
1758524892.331206,-0.52783203125,-0.1572265625,0.87353515625,20.5078125,-13.36669921875,-6.77490234375,-12.2113037109375,45.0494384765625,114.4390869140625
1758524892.3409603,-0.453125,-0.10888671875,0.91796875,28.1982421875,-13.24462890625,-7.50732421875,-12.0135498046875,44.8956298828125,114.334716796875
1758524892.3516994,-0.453125,-0.10888671875,0.91796875,28.1982421875,-13.24462890625,-7.50732421875,-11.7828369140625,44.736328125,114.2193603515625
1758524892.360956,-0.43017578125,-0.10986328125,1.021484375,30.09033203125,-13.3056640625,-7.99560546875,-11.5411376953125,44.560546875,114.093017578125
1758524892.371233,-0.43017578125,-0.10986328125,1.021484375,30.09033203125,-13.3056640625,-7.99560546875,-11.2939453125,44.3792724609375,113.961181640625
1758524892.381544,-0.41259765625,-0.125,1.01611328125,29.11376953125,-11.474609375,-7.99560546875,-11.0467529296875,44.197998046875,113.8238525390625
1758524892.3912685,-0.41259765625,-0.125,1.01611328125,29.11376953125,-11.474609375,-7.99560546875,-10.810546875,44.0167236328125,113.675537109375
1758524892.4009874,-0.404296875,-0.0361328125,0.84716796875,18.4326171875,-8.72802734375,-8.1787109375,-10.634765625,43.8409423828125,113.5272216796875
1758524892.411336,-0.404296875,-0.0361328125,0.84716796875,18.4326171875,-8.72802734375,-8.1787109375,-10.5084228515625,43.6761474609375,113.367919921875
1758524892.4216244,-0.4130859375,-0.1240234375,0.775390625,11.04736328125,-5.43212890625,-7.99560546875,-10.4150390625,43.52783203125,113.2086181640625
1758524892.4312425,-0.4130859375,-0.1240234375,0.775390625,11.04736328125,-5.43212890625,-7.99560546875,-10.3656005859375,43.3905029296875,113.04931640625
1758524892.4410665,-0.57958984375,-0.05029296875,0.77294921875,6.2255859375,-0.1220703125,-6.2255859375,-10.338134765625,43.2806396484375,112.8900146484375
1758524892.4514356,-0.57958984375,-0.05029296875,0.77294921875,6.2255859375,-0.1220703125,-6.2255859375,-10.3216552734375,43.2037353515625,112.74169921875
1758524892.4612567,-0.62353515625,-0.02587890625,0.71533203125,-4.150390625,0.42724609375,-4.82177734375,-10.3546142578125,43.13232421875,112.598876953125
1758524892.471213,-0.62353515625,-0.02587890625,0.71533203125,-4.150390625,0.42724609375,-4.82177734375,-10.426025390625,43.0718994140625,112.4725341796875
1758524892.4811733,-0.71484375,-0.009765625,0.73974609375,-26.611328125,2.3193359375,-2.62451171875,-10.5963134765625,43.0224609375,112.357177734375
1758524892.4913857,-0.71484375,-0.009765625,0.73974609375,-26.611328125,2.3193359375,-2.62451171875,-10.865478515625,42.9949951171875,112.2528076171875
1758524892.5011919,-0.92041015625,-0.08349609375,0.88037109375,-52.8564453125,-0.91552734375,-2.13623046875,-11.2554931640625,42.95654296875,112.159423828125
1758524892.511252,-0.92041015625,-0.08349609375,0.88037109375,-52.8564453125,-0.91552734375,-2.13623046875,-11.766357421875,42.91259765625,112.0770263671875
1758524892.5211775,-0.92822265625,-0.232421875,0.99560546875,-81.0546875,-6.591796875,2.74658203125,-12.392578125,42.8466796875,112.0330810546875
1758524892.5317454,-0.92822265625,-0.232421875,0.99560546875,-81.0546875,-6.591796875,2.74658203125,-13.128662109375,42.7642822265625,112.0330810546875
1758524892.5411994,-0.70849609375,-0.5,0.8037109375,-48.2177734375,-13.24462890625,5.67626953125,-13.6834716796875,42.6544189453125,112.0660400390625
1758524892.5512621,-0.70849609375,-0.5,0.8037109375,-48.2177734375,-13.24462890625,5.67626953125,-14.0625,42.5225830078125,112.1319580078125
1758524892.5616298,-0.60205078125,-0.41015625,0.67578125,7.2021484375,-14.58740234375,5.2490234375,-14.183349609375,42.3797607421875,112.1978759765625
1758524892.5712733,-0.60205078125,-0.41015625,0.67578125,7.2021484375,-14.58740234375,5.2490234375,-14.0350341796875,42.2314453125,112.2637939453125
1758524892.5817008,-0.61572265625,-0.14404296875,0.486328125,34.7900390625,-12.87841796875,5.92041015625,-13.7548828125,42.0941162109375,112.335205078125
1758524892.5917976,-0.61572265625,-0.14404296875,0.486328125,34.7900390625,-12.87841796875,5.92041015625,-13.3428955078125,41.9732666015625,112.412109375
1758524892.6034577,-0.62255859375,-0.009765625,0.44580078125,10.1318359375,-9.6435546875,6.16455078125,-13.0572509765625,41.8743896484375,112.4835205078125
1758524892.611265,-0.62255859375,-0.009765625,0.44580078125,10.1318359375,-9.6435546875,6.16455078125,-12.8924560546875,41.7974853515625,112.554931640625
1758524892.6218421,-0.62255859375,-0.009765625,0.44580078125,-24.71923828125,-5.0048828125,8.1787109375,-12.8924560546875,41.748046875,112.6373291015625
1758524892.6318254,-0.578125,-0.01220703125,0.49267578125,-24.71923828125,-5.0048828125,8.1787109375,-13.0572509765625,41.7315673828125,112.7197265625
1758524892.641797,-0.54931640625,-0.150390625,0.54638671875,-40.22216796875,-1.40380859375,9.6435546875,-13.29345703125,41.7315673828125,112.8131103515625
1758524892.6512659,-0.54931640625,-0.150390625,0.54638671875,-40.22216796875,-1.40380859375,9.6435546875,-13.60107421875,41.7535400390625,112.906494140625
