timestamp,acc_x,acc_y,acc_z,gyro_x,gyro_y,gyro_z,angle_x,angle_y,angle_z
1758876190.4725304,-0.767578125,-0.09228515625,0.62939453125,1.89208984375,-0.54931640625,-4.0283203125,-8.5858154296875,49.306640625,-162.31201171875
1758876190.4812624,-0.763671875,-0.10400390625,0.6396484375,1.64794921875,-0.30517578125,-4.150390625,-8.61328125,49.295654296875,-162.366943359375
1758876190.4904547,-0.763671875,-0.10400390625,0.6396484375,1.64794921875,-0.30517578125,-4.150390625,-8.646240234375,49.2901611328125,-162.421875
1758876190.499097,-0.7509765625,-0.10546875,0.65087890625,1.40380859375,-0.06103515625,-4.33349609375,-8.67919921875,49.28466796875,-162.4822998046875
1758876190.510169,-0.7509765625,-0.10546875,0.65087890625,1.40380859375,-0.06103515625,-4.33349609375,-8.712158203125,49.2791748046875,-162.542724609375
1758876190.5265756,-0.73193359375,-0.11279296875,0.662109375,2.8076171875,0.244140625,-4.5166015625,-8.7451171875,49.273681640625,-162.608642578125
1758876190.5375164,-0.73193359375,-0.11279296875,0.662109375,2.8076171875,0.244140625,-4.5166015625,-8.7725830078125,49.2681884765625,-162.674560546875
1758876190.544649,-0.73779296875,-0.1083984375,0.6640625,4.08935546875,0.244140625,-4.8828125,-8.7890625,49.2626953125,-162.740478515625
1758876190.551575,-0.73779296875,-0.1083984375,0.6640625,4.08935546875,0.244140625,-4.8828125,-8.8055419921875,49.251708984375,-162.8173828125
1758876190.5586905,-0.7373046875,-0.10009765625,0.65234375,5.43212890625,0.1220703125,-5.2490234375,-8.822021484375,49.2462158203125,-162.894287109375
1758876190.5680718,-0.7373046875,-0.10009765625,0.65234375,5.43212890625,0.1220703125,-5.2490234375,-8.8275146484375,49.2352294921875,-162.97119140625
1758876190.5780134,-0.7431640625,-0.09814453125,0.63916015625,4.45556640625,0.0,-5.31005859375,-8.8385009765625,49.2242431640625,-163.0535888671875
1758876190.5879009,-0.7431640625,-0.09814453125,0.63916015625,4.45556640625,0.0,-5.31005859375,-8.85498046875,49.2132568359375,-163.1304931640625
1758876190.5980678,-0.73779296875,-0.099609375,0.66259765625,4.21142578125,0.06103515625,-5.2490234375,-8.8714599609375,49.2022705078125,-163.212890625
1758876190.6079555,-0.73779296875,-0.099609375,0.66259765625,4.21142578125,0.06103515625,-5.2490234375,-8.8934326171875,49.1912841796875,-163.289794921875
1758876190.6187253,-0.7333984375,-0.115234375,0.6796875,3.662109375,0.30517578125,-4.7607421875,-8.909912109375,49.1802978515625,-163.36669921875
1758876190.6284382,-0.7333984375,-0.115234375,0.6796875,3.662109375,0.30517578125,-4.7607421875,-8.9263916015625,49.1693115234375,-163.443603515625
1758876190.6390102,-0.7412109375,-0.130859375,0.6865234375,5.92041015625,0.18310546875,-4.5166015625,-8.9373779296875,49.1583251953125,-163.5150146484375
1758876190.648239,-0.7412109375,-0.130859375,0.6865234375,5.92041015625,0.18310546875,-4.5166015625,-8.931884765625,49.1473388671875,-163.5919189453125
1758876190.6582494,-0.75146484375,-0.12548828125,0.6416015625,15.31982421875,-0.244140625,-5.31005859375,-8.8824462890625,49.1363525390625,-163.67431640625
1758876190.667999,-0.75146484375,-0.12548828125,0.6416015625,15.31982421875,-0.244140625,-5.31005859375,-8.7945556640625,49.1143798828125,-163.7567138671875
1758876190.678007,-0.74365234375,-0.1044921875,0.6220703125,21.240234375,-0.79345703125,-6.04248046875,-8.67919921875,49.097900390625,-163.85009765625
1758876190.6880372,-0.74365234375,-0.1044921875,0.6220703125,21.240234375,-0.79345703125,-6.04248046875,-8.5418701171875,49.075927734375,-163.9434814453125
1758876190.6980228,-0.74462890625,-0.09130859375,0.6767578125,19.775390625,-0.9765625,-6.16455078125,-8.4100341796875,49.053955078125,-164.0423583984375
1758876190.7080433,-0.74462890625,-0.09130859375,0.6767578125,19.775390625,-0.9765625,-6.16455078125,-8.2891845703125,49.031982421875,-164.1412353515625
1758876190.7180593,-0.7421875,-0.0849609375,0.68896484375,18.37158203125,-0.79345703125,-5.79833984375,-8.173828125,49.010009765625,-164.234619140625
1758876190.728068,-0.7421875,-0.0849609375,0.68896484375,18.37158203125,-0.79345703125,-5.79833984375,-8.0584716796875,48.988037109375,-164.3280029296875
1758876190.7351718,-0.7421875,-0.0849609375,0.68896484375,18.37158203125,-0.79345703125,-5.79833984375,118.4051513671875,146.3323974609375,57.0245361328125
1758876190.738182,-0.75244140625,-0.11474609375,0.6513671875,17.2119140625,-0.8544921875,-5.0048828125,-7.9486083984375,48.966064453125,-164.410400390625
1758876190.7481544,-0.75244140625,-0.11474609375,0.6513671875,17.2119140625,-0.8544921875,-5.0048828125,-7.8387451171875,48.944091796875,-164.4927978515625
1758876190.7581542,-0.736328125,-0.1171875,0.66064453125,15.0146484375,-0.6103515625,-4.150390625,-7.734375,48.9276123046875,-164.5697021484375
1758876190.7681499,-0.736328125,-0.1171875,0.66064453125,15.0146484375,-0.6103515625,-4.150390625,-7.6409912109375,48.9111328125,-164.64111328125
1758876190.7781503,-0.736328125,-0.1171875,0.66064453125,19.1650390625,0.3662109375,-3.7841796875,-7.525634765625,48.900146484375,-164.7125244140625
1758876190.7881653,-0.72119140625,-0.10986328125,0.66357421875,19.1650390625,0.3662109375,-3.7841796875,-7.3883056640625,48.88916015625,-164.7784423828125
1758876190.7981527,-0.72412109375,-0.1123046875,0.70751953125,20.6298828125,0.54931640625,-3.47900390625,-7.2454833984375,48.8836669921875,-164.849853515625
1758876190.8081741,-0.72412109375,-0.1123046875,0.70751953125,20.6298828125,0.54931640625,-3.47900390625,-7.0916748046875,48.878173828125,-164.9212646484375
1758876190.8181622,-0.69970703125,-0.08544921875,0.73388671875,25.69580078125,0.54931640625,-3.41796875,-6.910400390625,48.8671875,-164.99267578125
1758876190.828187,-0.69970703125,-0.08544921875,0.73388671875,25.69580078125,0.54931640625,-3.41796875,-6.7071533203125,48.8616943359375,-165.0640869140625
1758876190.8381982,-0.67919921875,-0.1044921875,0.72021484375,34.24072265625,0.18310546875,-2.99072265625,-6.4599609375,48.84521484375,-165.135498046875
1758876190.8482127,-0.67919921875,-0.1044921875,0.72021484375,34.24072265625,0.18310546875,-2.99072265625,-6.1688232421875,48.8287353515625,-165.21240234375
1758876190.8582873,-0.595703125,-0.12890625,0.69140625,38.14697265625,-1.3427734375,-1.8310546875,-5.82275390625,48.7957763671875,-165.2728271484375
1758876190.8682256,-0.595703125,-0.12890625,0.69140625,38.14697265625,-1.3427734375,-1.8310546875,-5.482177734375,48.7628173828125,-165.3387451171875
1758876190.878253,-0.64501953125,-0.0830078125,0.7353515625,32.77587890625,-1.3427734375,-0.54931640625,-5.185546875,48.724365234375,-165.38818359375
1758876190.888264,-0.64501953125,-0.0830078125,0.7353515625,32.77587890625,-1.3427734375,-0.54931640625,-4.888916015625,48.6859130859375,-165.443115234375
1758876190.898228,-0.6513671875,-0.0400390625,0.75537109375,29.296875,-1.46484375,0.0,-4.6197509765625,48.6419677734375,-165.487060546875
1758876190.9082625,-0.6513671875,-0.0400390625,0.75537109375,29.296875,-1.46484375,0.0,-4.3450927734375,48.603515625,-165.5419921875
1758876190.9182906,-0.677734375,-0.02587890625,0.69921875,28.9306640625,-0.48828125,0.42724609375,-4.0704345703125,48.570556640625,-165.5859375
1758876190.9283073,-0.677734375,-0.02587890625,0.69921875,28.9306640625,-0.48828125,0.42724609375,-3.80126953125,48.53759765625,-165.6243896484375
1758876190.9383404,-0.66015625,-0.06640625,0.68896484375,39.36767578125,-0.6103515625,-0.1220703125,-3.427734375,48.504638671875,-165.6793212890625
1758876190.9483356,-0.66015625,-0.06640625,0.68896484375,39.36767578125,-0.6103515625,-0.1220703125,-3.0596923828125,48.4716796875,-165.7342529296875
1758876190.9584112,-0.6767578125,-0.06982421875,0.80419921875,33.99658203125,-0.79345703125,0.3662109375,-2.735595703125,48.4332275390625,-165.78369140625
1758876190.968544,-0.6767578125,-0.06982421875,0.80419921875,33.99658203125,-0.79345703125,0.3662109375,-2.4169921875,48.394775390625,-165.838623046875
1758876190.9783607,-0.6796875,0.03466796875,0.75634765625,15.93017578125,-0.9765625,1.03759765625,-2.2686767578125,48.3563232421875,-165.8770751953125
1758876190.98843,-0.6796875,0.03466796875,0.75634765625,15.93017578125,-0.9765625,1.03759765625,-2.120361328125,48.3123779296875,-165.9210205078125
1758876190.9984024,-0.63818359375,0.03759765625,0.76904296875,-3.90625,-1.77001953125,1.52587890625,-2.1533203125,48.262939453125,-165.948486328125
1758876191.0084636,-0.63818359375,0.03759765625,0.76904296875,-3.90625,-1.77001953125,1.52587890625,-2.186279296875,48.2080078125,-165.9814453125
1758876191.0184693,-0.6298828125,0.005859375,0.65087890625,-11.71875,-0.91552734375,1.77001953125,-2.2906494140625,48.1695556640625,-166.0089111328125
1758876191.0284643,-0.6298828125,0.005859375,0.65087890625,-11.71875,-0.91552734375,1.77001953125,-2.3895263671875,48.1256103515625,-166.0308837890625
1758876191.0385125,-0.6298828125,0.005859375,0.65087890625,10.25390625,-0.18310546875,0.67138671875,-2.28515625,48.0926513671875,-166.0748291015625
1758876191.0484936,-0.64013671875,-0.08154296875,0.66552734375,10.25390625,-0.18310546875,0.67138671875,-2.186279296875,48.0596923828125,-166.1187744140625
1758876191.0585713,-0.70361328125,-0.10888671875,0.783203125,24.169921875,0.0,-0.06103515625,-1.95556640625,48.0267333984375,-166.1737060546875
1758876191.0685642,-0.70361328125,-0.10888671875,0.783203125,24.169921875,0.0,-0.06103515625,-1.73583984375,47.9937744140625,-166.2396240234375
1758876191.0785403,-0.7890625,-0.08544921875,0.8388671875,40.34423828125,-1.28173828125,-1.64794921875,-1.373291015625,47.9498291015625,-166.3275146484375
1758876191.0885587,-0.7890625,-0.08544921875,0.8388671875,40.34423828125,-1.28173828125,-1.64794921875,-1.0107421875,47.911376953125,-166.4154052734375
1758876191.0985792,-0.67919921875,-0.02392578125,0.70458984375,42.3583984375,-2.13623046875,-1.3427734375,-0.626220703125,47.8564453125,-166.5032958984375
1758876191.108528,-0.67919921875,-0.02392578125,0.70458984375,42.3583984375,-2.13623046875,-1.3427734375,-0.2471923828125,47.8070068359375,-166.585693359375
1758876191.1189945,-0.73681640625,-0.05126953125,0.7548828125,51.69677734375,-3.23486328125,-2.38037109375,0.208740234375,47.7520751953125,-166.6900634765625
1758876191.1286309,-0.73681640625,-0.05126953125,0.7548828125,51.69677734375,-3.23486328125,-2.38037109375,0.6646728515625,47.691650390625,-166.7889404296875
1758876191.1386318,-0.724609375,-0.05322265625,0.73779296875,68.05419921875,-3.662109375,-4.2724609375,1.263427734375,47.6312255859375,-166.9207763671875
1758876191.1486373,-0.724609375,-0.05322265625,0.73779296875,68.05419921875,-3.662109375,-4.2724609375,1.856689453125,47.5762939453125,-167.05810546875
1758876191.159036,-0.75,0.08056640625,0.71630859375,39.48974609375,-5.615234375,-4.0283203125,2.1697998046875,47.4993896484375,-167.1844482421875
1758876191.168642,-0.75,0.08056640625,0.71630859375,39.48974609375,-5.615234375,-4.0283203125,2.4884033203125,47.4224853515625,-167.3052978515625
1758876191.1786861,-0.76318359375,0.2060546875,0.6064453125,3.84521484375,-6.34765625,-2.8076171875,2.471923828125,47.3455810546875,-167.4041748046875
1758876191.188661,-0.76318359375,0.2060546875,0.6064453125,3.84521484375,-6.34765625,-2.8076171875,2.4664306640625,47.274169921875,-167.486572265625
1758876191.1989489,-0.8525390625,0.24658203125,0.71728515625,-42.66357421875,-8.30078125,-0.30517578125,2.032470703125,47.1807861328125,-167.51953125
1758876191.2088826,-0.8525390625,0.24658203125,0.71728515625,-42.66357421875,-8.30078125,-0.30517578125,1.614990234375,47.0928955078125,-167.5360107421875
1758876191.2187018,-0.6689453125,0.10107421875,0.53076171875,-84.5947265625,-7.75146484375,1.3427734375,0.8074951171875,47.010498046875,-167.51953125
1758876191.2288678,-0.6689453125,0.10107421875,0.53076171875,-84.5947265625,-7.75146484375,1.3427734375,0.0054931640625,46.93359375,-167.49755859375
1758876191.239057,-0.5634765625,-0.01611328125,0.326171875,-80.01708984375,-5.126953125,3.35693359375,-0.7196044921875,46.8841552734375,-167.431640625
1758876191.2487726,-0.5634765625,-0.01611328125,0.326171875,-80.01708984375,-5.126953125,3.35693359375,-1.4447021484375,46.845703125,-167.3602294921875
1758876191.25889,-0.84619140625,-0.22265625,0.7021484375,3.7841796875,-4.57763671875,0.8544921875,-1.373291015625,46.812744140625,-167.332763671875
1758876191.2692034,-0.84619140625,-0.22265625,0.7021484375,3.7841796875,-4.57763671875,0.8544921875,-1.3128662109375,46.77978515625,-167.3162841796875
1758876191.278825,-0.8154296875,-0.375,0.80712890625,109.19189453125,-4.638671875,-1.28173828125,-0.2471923828125,46.746826171875,-167.34375
1758876191.288786,-0.8154296875,-0.375,0.80712890625,109.19189453125,-4.638671875,-1.28173828125,0.791015625,46.7083740234375,-167.398681640625
1758876191.2988627,-0.6240234375,-0.2626953125,0.55224609375,150.93994140625,-1.64794921875,-5.67626953125,2.1917724609375,46.702880859375,-167.5250244140625
1758876191.3092136,-0.6240234375,-0.2626953125,0.55224609375,150.93994140625,-1.64794921875,-5.67626953125,3.5650634765625,46.702880859375,-167.662353515625
1758876191.3188422,-0.619140625,-0.013671875,0.6416015625,106.62841796875,0.48828125,-8.48388671875,4.4659423828125,46.724853515625,-167.84912109375
1758876191.3288085,-0.619140625,-0.013671875,0.6416015625,106.62841796875,0.48828125,-8.48388671875,5.3668212890625,46.746826171875,-168.0303955078125
1758876191.3388755,-0.7216796875,0.33154296875,0.7509765625,50.29296875,0.30517578125,-8.72802734375,5.712890625,46.7633056640625,-168.2061767578125
1758876191.3490937,-0.7216796875,0.33154296875,0.7509765625,50.29296875,0.30517578125,-8.72802734375,6.0809326171875,46.77978515625,-168.37646484375
1758876191.3590147,-0.86279296875,0.4931640625,0.74609375,-15.9912109375,-1.3427734375,-3.60107421875,5.855712890625,46.768798828125,-168.453369140625
1758876191.3689456,-0.86279296875,0.4931640625,0.74609375,-15.9912109375,-1.3427734375,-3.60107421875,5.6634521484375,46.7633056640625,-168.50830078125
1758876191.379077,-0.83056640625,0.27294921875,0.6728515625,-85.0830078125,-3.84521484375,3.11279296875,4.85595703125,46.724853515625,-168.4588623046875
1758876191.3890104,-0.83056640625,0.27294921875,0.6728515625,-85.0830078125,-3.84521484375,3.11279296875,4.0704345703125,46.69189453125,-168.3984375
1758876191.398959,-0.7626953125,0.01708984375,0.697265625,-80.01708984375,-4.45556640625,6.77490234375,3.372802734375,46.64794921875,-168.277587890625
1758876191.4089308,-0.7626953125,0.01708984375,0.697265625,-80.01708984375,-4.45556640625,6.77490234375,2.6751708984375,46.60400390625,-168.1622314453125
1758876191.4190292,-0.75634765625,-0.2255859375,0.60693359375,-7.99560546875,-2.62451171875,5.43212890625,2.669677734375,46.5875244140625,-168.0743408203125
1758876191.429314,-0.75634765625,-0.2255859375,0.60693359375,-7.99560546875,-2.62451171875,5.43212890625,2.6531982421875,46.5655517578125,-167.991943359375
1758876191.4390764,-0.76513671875,-0.203125,0.587890625,20.751953125,-1.3427734375,3.47900390625,2.889404296875,46.5655517578125,-167.9425048828125
1758876191.448971,-0.76513671875,-0.203125,0.587890625,20.751953125,-1.3427734375,3.47900390625,3.1201171875,46.5655517578125,-167.904052734375
1758876191.4593356,-0.72607421875,0.0625,0.55126953125,12.51220703125,1.46484375,3.35693359375,3.2574462890625,46.5985107421875,-167.860107421875
1758876191.4693966,-0.72607421875,0.0625,0.55126953125,12.51220703125,1.46484375,3.35693359375,3.40576171875,46.6314697265625,-167.8106689453125
1758876191.479077,-0.90234375,0.21533203125,0.74462890625,-17.7001953125,0.244140625,5.43212890625,3.2794189453125,46.64794921875,-167.7227783203125
1758876191.4890637,-0.90234375,0.21533203125,0.74462890625,-17.7001953125,0.244140625,5.43212890625,3.1585693359375,46.6644287109375,-167.6239013671875
1758876191.4990828,-1.02978515625,0.26416015625,0.7578125,-34.1796875,-0.244140625,8.7890625,2.92236328125,46.680908203125,-167.464599609375
1758876191.5097027,-1.02978515625,0.26416015625,0.7578125,-34.1796875,-0.244140625,8.7890625,2.6971435546875,46.6973876953125,-167.2998046875
1758876191.5191288,-0.8603515625,-0.02001953125,0.5576171875,-27.16064453125,-0.79345703125,10.009765625,2.548828125,46.7138671875,-167.1075439453125
1758876191.5291038,-0.8603515625,-0.02001953125,0.5576171875,-27.16064453125,-0.79345703125,10.009765625,2.4005126953125,46.7303466796875,-166.9207763671875
1758876191.5391355,-0.71826171875,-0.0556640625,0.451171875,-31.1279296875,1.3427734375,10.25390625,2.2137451171875,46.7742919921875,-166.7230224609375
1758876191.5493455,-0.71826171875,-0.0556640625,0.451171875,-31.1279296875,1.3427734375,10.25390625,2.021484375,46.8182373046875,-166.53076171875
1758876191.559161,-0.70849609375,-0.0107421875,0.55859375,-0.8544921875,1.89208984375,9.33837890625,2.120361328125,46.86767578125,-166.35498046875
1758876191.5691626,-0.70849609375,-0.0107421875,0.55859375,-0.8544921875,1.89208984375,9.33837890625,2.2137451171875,46.9171142578125,-166.17919921875
1758876191.5792062,-0.6376953125,0.01708984375,0.7265625,3.173828125,0.9765625,9.27734375,2.3455810546875,46.95556640625,-166.0089111328125
1758876191.5892286,-0.6376953125,0.01708984375,0.7265625,3.173828125,0.9765625,9.27734375,2.4774169921875,46.9830322265625,-165.849609375
1758876191.5992174,-0.52978515625,0.0703125,0.88134765625,-22.5830078125,0.42724609375,11.23046875,2.3785400390625,46.9940185546875,-165.6683349609375
1758876191.6092057,-0.52978515625,0.0703125,0.88134765625,-22.5830078125,0.42724609375,11.23046875,2.2796630859375,46.99951171875,-165.4925537109375
1758876191.6192238,-0.48291015625,0.08251953125,0.73486328125,-18.9208984375,-0.244140625,11.71875,2.21923828125,46.9830322265625,-165.322265625
1758876191.629334,-0.48291015625,0.08251953125,0.73486328125,-18.9208984375,-0.244140625,11.71875,2.164306640625,46.966552734375,-165.157470703125
1758876191.6393595,-0.48095703125,0.0556640625,0.5869140625,-14.5263671875,0.18310546875,10.6201171875,2.1478271484375,46.944580078125,-165.0146484375
1758876191.6492224,-0.48095703125,0.0556640625,0.5869140625,-14.5263671875,0.18310546875,10.6201171875,2.1258544921875,46.922607421875,-164.871826171875
1758876191.6592524,-0.67724609375,0.125,0.78466796875,-12.26806640625,0.18310546875,9.27734375,2.1148681640625,46.900634765625,-164.7454833984375
1758876191.669577,-0.67724609375,0.125,0.78466796875,-12.26806640625,0.18310546875,9.27734375,2.109375,46.878662109375,-164.6136474609375
1758876191.6793737,-0.92724609375,0.19580078125,1.07666015625,-42.17529296875,-2.86865234375,9.09423828125,1.8072509765625,46.82373046875,-164.4873046875
1758876191.689347,-0.92724609375,0.19580078125,1.07666015625,-42.17529296875,-2.86865234375,9.09423828125,1.51611328125,46.7633056640625,-164.35546875
1758876191.69948,-0.75439453125,0.01611328125,0.794921875,-70.9228515625,-2.74658203125,11.8408203125,0.9613037109375,46.7083740234375,-164.1796875
1758876191.7094126,-0.75439453125,0.01611328125,0.794921875,-70.9228515625,-2.74658203125,11.8408203125,0.406494140625,46.6534423828125,-164.00390625
1758876191.7193446,-0.71630859375,-0.0439453125,0.4541015625,-60.4248046875,-1.46484375,12.939453125,-0.02197265625,46.6204833984375,-163.80615234375
1758876191.729395,-0.71630859375,-0.0439453125,0.4541015625,-60.4248046875,-1.46484375,12.939453125,-0.46142578125,46.5985107421875,-163.597412109375
1758876191.7394195,-0.82421875,-0.1279296875,0.68310546875,20.01953125,-1.52587890625,9.82666015625,-0.1373291015625,46.5765380859375,-163.4381103515625
1758876191.749362,-0.82421875,-0.1279296875,0.68310546875,20.01953125,-1.52587890625,9.82666015625,0.17578125,46.5545654296875,-163.27880859375
1758876191.759381,-0.79736328125,-0.181640625,0.66748046875,86.12060546875,2.62451171875,7.62939453125,1.1151123046875,46.58203125,-163.1634521484375
1758876191.7697458,-0.79736328125,-0.181640625,0.66748046875,86.12060546875,2.62451171875,7.62939453125,2.0379638671875,46.60400390625,-163.0535888671875
1758876191.7794585,-0.79736328125,-0.181640625,0.66748046875,87.58544921875,4.638671875,3.23486328125,2.92236328125,46.6534423828125,-163.004150390625
1758876191.789403,-0.71484375,-0.09228515625,0.4619140625,87.58544921875,4.638671875,3.23486328125,3.7957763671875,46.7083740234375,-162.960205078125
1758876191.7995682,-0.72021484375,-0.029296875,0.5703125,88.68408203125,7.26318359375,-1.52587890625,4.6307373046875,46.7962646484375,-162.982177734375
1758876191.8097062,-0.72021484375,-0.029296875,0.5703125,88.68408203125,7.26318359375,-1.52587890625,5.460205078125,46.8841552734375,-162.9986572265625
1758876191.819566,-0.7197265625,0.08203125,0.65283203125,77.5146484375,7.87353515625,-2.685546875,6.1688232421875,46.9775390625,-163.037109375
1758876191.8295195,-0.7197265625,0.08203125,0.65283203125,77.5146484375,7.87353515625,-2.685546875,6.87744140625,47.0654296875,-163.070068359375
1758876191.839572,-0.70849609375,0.2548828125,0.75439453125,37.2314453125,6.8359375,-1.77001953125,7.2015380859375,47.142333984375,-163.0865478515625
1758876191.8498688,-0.70849609375,0.2548828125,0.75439453125,37.2314453125,6.8359375,-1.77001953125,7.53662109375,47.21923828125,-163.0975341796875
1758876191.8595312,-0.91748046875,0.56005859375,1.0478515625,-41.6259765625,1.220703125,0.1220703125,7.119140625,47.230224609375,-163.0755615234375
1758876191.8695478,-0.697265625,0.265625,0.4501953125,-109.86328125,1.40380859375,1.708984375,6.3885498046875,47.2357177734375,-163.0316162109375
1758876191.87974,-0.697265625,0.265625,0.4501953125,-109.86328125,1.40380859375,1.708984375,5.3448486328125,47.2467041015625,-162.960205078125
1758876191.8898957,-0.734375,0.0107421875,0.57568359375,-99.06005859375,-1.3427734375,4.638671875,4.3780517578125,47.2467041015625,-162.8558349609375
1758876191.8995938,-0.734375,0.0107421875,0.57568359375,-99.06005859375,-1.3427734375,4.638671875,3.4771728515625,47.2412109375,-162.7349853515625
1758876191.9096508,-0.81884765625,-0.06103515625,0.72412109375,-48.03466796875,-3.11279296875,3.0517578125,2.823486328125,47.2247314453125,-162.630615234375
1758876191.9198086,-0.81884765625,-0.06103515625,0.72412109375,-48.03466796875,-3.11279296875,3.0517578125,2.406005859375,47.2027587890625,-162.5372314453125
1758876191.9296286,-0.77392578125,-0.05517578125,0.67626953125,-13.671875,-4.150390625,1.953125,2.1478271484375,47.17529296875,-162.4603271484375
1758876191.93964,-0.77392578125,-0.05517578125,0.67626953125,-13.671875,-4.150390625,1.953125,2.054443359375,47.142333984375,-162.3944091796875
1758876191.9497116,-0.82177734375,0.04541015625,0.51123046875,-15.13671875,-4.69970703125,1.220703125,1.944580078125,47.1038818359375,-162.3394775390625
1758876191.9598386,-0.82177734375,0.04541015625,0.51123046875,-15.13671875,-4.69970703125,1.220703125,1.8182373046875,47.076416015625,-162.279052734375
1758876191.9696374,-0.94775390625,0.08544921875,0.7294921875,-24.59716796875,-5.37109375,-0.8544921875,1.636962890625,47.04345703125,-162.22412109375
1758876191.9796507,-0.94775390625,0.08544921875,0.7294921875,-24.59716796875,-5.37109375,-0.8544921875,1.4007568359375,47.0159912109375,-162.1856689453125
1758876191.9899552,-0.8662109375,0.00439453125,0.50927734375,-35.7666015625,-5.9814453125,-1.28173828125,1.1041259765625,46.9830322265625,-162.1417236328125
1758876191.9996877,-0.8662109375,0.00439453125,0.50927734375,-35.7666015625,-5.9814453125,-1.28173828125,0.7525634765625,46.95556640625,-162.103271484375
1758876192.0096757,-0.7744140625,0.11669921875,0.56689453125,-25.146484375,-5.126953125,-1.28173828125,0.450439453125,46.93359375,-162.0538330078125
1758876192.0197473,-0.7744140625,0.11669921875,0.56689453125,-25.146484375,-5.126953125,-1.28173828125,0.208740234375,46.9171142578125,-161.9989013671875
1758876192.0301437,-0.71240234375,0.09814453125,0.5234375,-37.9638671875,-3.11279296875,-1.64794921875,-0.087890625,46.91162109375,-161.9439697265625
1758876192.0398116,-0.71240234375,0.09814453125,0.5234375,-37.9638671875,-3.11279296875,-1.64794921875,-0.4559326171875,46.9171142578125,-161.883544921875
1758876192.049906,-0.70263671875,-0.0087890625,0.5458984375,-53.1005859375,-2.01416015625,-1.89208984375,-0.8953857421875,46.9281005859375,-161.817626953125
1758876192.059895,-0.70263671875,-0.0087890625,0.5458984375,-53.1005859375,-2.01416015625,-1.89208984375,-1.4117431640625,46.9500732421875,-161.7626953125
1758876192.0697875,-0.77197265625,-0.0478515625,0.6259765625,-57.31201171875,-1.220703125,-1.3427734375,-1.9500732421875,46.966552734375,-161.7022705078125
1758876192.0797877,-0.77197265625,-0.0478515625,0.6259765625,-57.31201171875,-1.220703125,-1.3427734375,-2.5048828125,46.988525390625,-161.641845703125
1758876192.0899665,-0.78369140625,-0.09130859375,0.7509765625,-38.6962890625,-2.50244140625,-0.06103515625,-2.9608154296875,47.0050048828125,-161.5704345703125
1758876192.0998065,-0.78369140625,-0.09130859375,0.7509765625,-38.6962890625,-2.50244140625,-0.06103515625,-3.3233642578125,47.010498046875,-161.5045166015625
1758876192.1099598,-0.71337890625,-0.1279296875,0.81298828125,-24.71923828125,-2.197265625,0.0,-3.6199951171875,47.010498046875,-161.4385986328125
1758876192.1198094,-0.71337890625,-0.1279296875,0.81298828125,-24.71923828125,-2.197265625,0.0,-3.84521484375,47.0050048828125,-161.38916015625
1758876192.1299663,-0.6123046875,-0.07177734375,0.7626953125,-25.5126953125,-2.62451171875,1.8310546875,-4.0704345703125,46.9940185546875,-161.3287353515625
1758876192.139903,-0.6123046875,-0.07177734375,0.7626953125,-25.5126953125,-2.62451171875,1.8310546875,-4.2901611328125,46.9775390625,-161.2628173828125
1758876192.1499403,-0.5810546875,-0.06884765625,0.7001953125,-13.0615234375,-1.77001953125,1.3427734375,-4.449462890625,46.95556640625,-161.2078857421875
1758876192.1599026,-0.5810546875,-0.06884765625,0.7001953125,-13.0615234375,-1.77001953125,1.3427734375,-4.5538330078125,46.9390869140625,-161.158447265625
1758876192.170358,-0.6171875,-0.0791015625,0.826171875,-2.50244140625,-1.953125,1.64794921875,-4.603271484375,46.9171142578125,-161.1090087890625
1758876192.1799188,-0.6171875,-0.0791015625,0.826171875,-2.50244140625,-1.953125,1.64794921875,-4.5977783203125,46.8841552734375,-161.070556640625
1758876192.18995,-0.66357421875,-0.0654296875,0.83984375,2.197265625,-0.54931640625,1.40380859375,-4.5758056640625,46.856689453125,-161.03759765625
1758876192.2000027,-0.66357421875,-0.0654296875,0.83984375,2.197265625,-0.54931640625,1.40380859375,-4.5318603515625,46.8292236328125,-161.0101318359375
1758876192.2102087,-0.724609375,0.04931640625,0.8310546875,-14.5263671875,-2.0751953125,3.173828125,-4.559326171875,46.7962646484375,-160.9716796875
1758876192.219998,-0.724609375,0.04931640625,0.8310546875,-14.5263671875,-2.0751953125,3.173828125,-4.658203125,46.7523193359375,-160.9112548828125
1758876192.2300706,-0.81201171875,-0.24169921875,0.765625,-28.6865234375,-3.23486328125,0.1220703125,-4.8394775390625,46.702880859375,-160.872802734375
1758876192.2400544,-0.81201171875,-0.24169921875,0.765625,-28.6865234375,-3.23486328125,0.1220703125,-5.1141357421875,46.6534423828125,-160.86181640625
1758876192.2503538,-0.56982421875,-0.23046875,0.5322265625,-44.43359375,-0.91552734375,3.2958984375,-5.460205078125,46.614990234375,-160.8343505859375
1758876192.260067,-0.56982421875,-0.23046875,0.5322265625,-44.43359375,-0.91552734375,3.2958984375,-5.877685546875,46.5875244140625,-160.7904052734375
1758876192.2700753,-0.564453125,0.10693359375,0.6162109375,-44.5556640625,-0.54931640625,4.39453125,-6.2896728515625,46.571044921875,-160.740966796875
1758876192.2803025,-0.564453125,0.10693359375,0.6162109375,-44.5556640625,-0.54931640625,4.39453125,-6.6796875,46.549072265625,-160.675048828125
1758876192.2904246,-0.6435546875,0.21142578125,0.654296875,-19.287109375,3.11279296875,3.72314453125,-6.943359375,46.549072265625,-160.59814453125
1758876192.300127,-0.6435546875,0.21142578125,0.654296875,-19.287109375,3.11279296875,3.72314453125,-7.0697021484375,46.571044921875,-160.521240234375
1758876192.310192,-0.57080078125,0.01806640625,0.82861328125,-44.37255859375,3.0517578125,5.859375,-7.3004150390625,46.593017578125,-160.411376953125
1758876192.3206701,-0.57080078125,0.01806640625,0.82861328125,-44.37255859375,3.0517578125,5.859375,-7.6409912109375,46.6094970703125,-160.29052734375
1758876192.3302705,-0.443359375,0.1005859375,0.5205078125,-78.67431640625,6.65283203125,10.6201171875,-8.1298828125,46.6424560546875,-160.13671875
1758876192.3402312,-0.443359375,0.1005859375,0.5205078125,-78.67431640625,6.65283203125,10.6201171875,-8.7506103515625,46.6973876953125,-159.949951171875
1758876192.3502405,-0.673828125,-0.22216796875,0.7333984375,-56.45751953125,3.35693359375,9.27734375,-9.2669677734375,46.73583984375,-159.76318359375
1758876192.3605793,-0.673828125,-0.22216796875,0.7333984375,-56.45751953125,3.35693359375,9.27734375,-9.6844482421875,46.7578125,-159.5928955078125
1758876192.3704016,-0.7822265625,-0.404296875,1.2431640625,34.60693359375,4.5166015625,3.96728515625,-9.68994140625,46.77978515625,-159.4775390625
1758876192.380209,-0.7822265625,-0.404296875,1.2431640625,34.60693359375,4.5166015625,3.96728515625,-9.283447265625,46.790771484375,-159.43359375
1758876192.390229,-0.88818359375,0.01416015625,0.84130859375,-31.92138671875,-1.15966796875,5.06591796875,-9.2120361328125,46.768798828125,-159.3841552734375
1758876192.4003065,-0.88818359375,0.01416015625,0.84130859375,-31.92138671875,-1.15966796875,5.06591796875,-9.4537353515625,46.724853515625,-159.3072509765625
1758876192.4109683,-0.6650390625,-0.056640625,0.236328125,-80.078125,1.77001953125,13.48876953125,-9.8931884765625,46.7138671875,-159.1644287109375
1758876192.4202712,-0.6650390625,-0.056640625,0.236328125,-80.078125,1.77001953125,13.48876953125,-10.52490234375,46.7303466796875,-158.9501953125
1758876192.4303312,-0.953125,-0.52783203125,0.50927734375,64.0869140625,-4.5166015625,3.90625,-10.491943359375,46.724853515625,-158.7908935546875
1758876192.4403245,-0.953125,-0.52783203125,0.50927734375,64.0869140625,-4.5166015625,3.90625,-9.8052978515625,46.6864013671875,-158.70849609375
1758876192.4507234,-0.79443359375,-0.39990234375,0.9755859375,133.544921875,-1.64794921875,-0.18310546875,-8.822021484375,46.658935546875,-158.6810302734375
1758876192.4604182,-0.79443359375,-0.39990234375,0.9755859375,133.544921875,-1.64794921875,-0.18310546875,-7.525634765625,46.636962890625,-158.697509765625
1758876192.4704578,-0.5302734375,0.02685546875,0.56201171875,83.251953125,-1.46484375,-3.11279296875,-6.514892578125,46.614990234375,-158.7469482421875
1758876192.4804168,-0.5302734375,0.02685546875,0.56201171875,83.251953125,-1.46484375,-3.11279296875,-5.7623291015625,46.5875244140625,-158.818359375
1758876192.4904478,-0.484375,0.23583984375,0.3095703125,-3.41796875,4.82177734375,-1.40380859375,-5.4327392578125,46.593017578125,-158.8677978515625
1758876192.5004783,-0.484375,0.23583984375,0.3095703125,-3.41796875,4.82177734375,-1.40380859375,-5.5096435546875,46.636962890625,-158.895263671875
1758876192.5104644,-1.02783203125,0.1328125,0.912109375,-38.818359375,-2.5634765625,-6.65283203125,-5.7733154296875,46.64794921875,-158.9337158203125
1758876192.5208,-1.02783203125,0.1328125,0.912109375,-38.818359375,-2.5634765625,-6.65283203125,-6.2237548828125,46.6204833984375,-158.994140625
1758876192.5304332,-0.9541015625,0.10888671875,1.111328125,-64.208984375,-1.8310546875,2.44140625,-6.74560546875,46.5985107421875,-158.97216796875
1758876192.5404682,-0.9541015625,0.10888671875,1.111328125,-64.208984375,-1.8310546875,2.44140625,-7.327880859375,46.58203125,-158.8787841796875
1758876192.5506394,-0.79931640625,-0.15185546875,0.48388671875,21.78955078125,-7.26318359375,4.150390625,-7.459716796875,46.5380859375,-158.7689208984375
1758876192.5605474,-0.79931640625,-0.15185546875,0.48388671875,21.78955078125,-7.26318359375,4.150390625,-7.1630859375,46.4776611328125,-158.6480712890625
1758876192.5704784,-0.5146484375,-0.19140625,0.220703125,64.5751953125,-0.244140625,-0.3662109375,-6.690673828125,46.4556884765625,-158.565673828125
1758876192.5804672,-0.5146484375,-0.19140625,0.220703125,64.5751953125,-0.244140625,-0.3662109375,-6.04248046875,46.4666748046875,-158.53271484375
1758876192.590618,-0.75634765625,-0.22119140625,0.37548828125,56.82373046875,-1.77001953125,-6.4697265625,-5.482177734375,46.47216796875,-158.543701171875
1758876192.600496,-0.75634765625,-0.22119140625,0.37548828125,56.82373046875,-1.77001953125,-6.4697265625,-4.998779296875,46.4776611328125,-158.609619140625
1758876192.6105144,-0.830078125,-0.12548828125,1.01513671875,-44.921875,2.13623046875,0.42724609375,-4.998779296875,46.505126953125,-158.6260986328125
1758876192.620567,-0.830078125,-0.12548828125,1.01513671875,-44.921875,2.13623046875,0.42724609375,-5.47119140625,46.5435791015625,-158.6041259765625
1758876192.6307805,-0.98046875,-0.02783203125,0.79052734375,-55.35888671875,-0.8544921875,2.74658203125,-5.9765625,46.5655517578125,-158.5711669921875
1758876192.640582,-0.98046875,-0.02783203125,0.79052734375,-55.35888671875,-0.8544921875,2.74658203125,-6.5093994140625,46.5765380859375,-158.5052490234375
1758876192.6506557,-0.82958984375,-0.26513671875,0.49365234375,29.6630859375,-0.54931640625,3.23486328125,-6.61376953125,46.5875244140625,-158.4393310546875
1758876192.660696,-0.82958984375,-0.26513671875,0.49365234375,29.6630859375,-0.54931640625,3.23486328125,-6.3006591796875,46.6094970703125,-158.3734130859375
1758876192.670676,-1.0673828125,-0.35546875,0.67578125,61.279296875,-2.62451171875,-2.99072265625,-5.8721923828125,46.6204833984375,-158.35693359375
1758876192.6806152,-1.0673828125,-0.35546875,0.67578125,61.279296875,-2.62451171875,-2.99072265625,-5.3338623046875,46.6204833984375,-158.389892578125
1758876192.6906698,-0.9931640625,-0.0234375,0.796875,32.958984375,-7.080078125,-0.8544921875,-4.9273681640625,46.5985107421875,-158.411865234375
1758876192.7011113,-0.9931640625,-0.0234375,0.796875,32.958984375,-7.080078125,-0.8544921875,-4.647216796875,46.56005859375,-158.411865234375
1758876192.7106726,-0.666015625,0.1025390625,0.4521484375,-30.94482421875,-5.43212890625,2.9296875,-4.658203125,46.527099609375,-158.37890625
1758876192.720704,-0.666015625,0.1025390625,0.4521484375,-30.94482421875,-5.43212890625,2.9296875,-4.9603271484375,46.5106201171875,-158.3074951171875
1758876192.730866,-0.73681640625,0.056640625,0.3173828125,-48.76708984375,-6.9580078125,3.90625,-5.3338623046875,46.4886474609375,-158.214111328125
1758876192.7409005,-0.73681640625,0.056640625,0.3173828125,-48.76708984375,-6.9580078125,3.90625,-5.789794921875,46.4666748046875,-158.104248046875
1758876192.750768,-0.76904296875,-0.13330078125,0.529296875,-17.02880859375,-6.8359375,1.89208984375,-6.0919189453125,46.4501953125,-157.9998779296875
1758876192.7608178,-0.76904296875,-0.13330078125,0.529296875,-17.02880859375,-6.8359375,1.89208984375,-6.2457275390625,46.4337158203125,-157.91748046875
1758876192.7708273,-0.74609375,-0.3037109375,0.7607421875,3.7841796875,-6.28662109375,0.0,-6.30615234375,46.417236328125,-157.8515625
1758876192.7807417,-0.74609375,-0.3037109375,0.7607421875,3.7841796875,-6.28662109375,0.0,-6.2896728515625,46.395263671875,-157.818603515625
1758876192.7908025,-0.5341796875,-0.25634765625,0.61376953125,3.72314453125,-3.90625,0.06103515625,-6.273193359375,46.3787841796875,-157.796630859375
1758876192.8007674,-0.5341796875,-0.25634765625,0.61376953125,3.72314453125,-3.90625,0.06103515625,-6.2677001953125,46.3677978515625,-157.78564453125
1758876192.8109477,-0.5625,-0.11328125,0.951171875,26.42822265625,-5.4931640625,-4.39453125,-6.17431640625,46.34033203125,-157.8131103515625
1758876192.820856,-0.5625,-0.11328125,0.951171875,26.42822265625,-5.4931640625,-4.39453125,-5.987548828125,46.2908935546875,-157.884521484375
1758876192.8308957,-0.47998046875,-0.05419921875,0.95166015625,53.64990234375,-6.8359375,-4.150390625,-5.6634521484375,46.219482421875,-157.9559326171875
1758876192.8412664,-0.47998046875,-0.05419921875,0.95166015625,53.64990234375,-6.8359375,-4.150390625,-5.1910400390625,46.1370849609375,-158.02734375
1758876192.850919,-0.30908203125,0.041015625,0.71435546875,29.84619140625,-4.08935546875,-5.126953125,-4.9713134765625,46.065673828125,-158.126220703125
1758876192.8609102,-0.30908203125,0.041015625,0.71435546875,29.84619140625,-4.08935546875,-5.126953125,-4.74609375,45.9942626953125,-158.22509765625
1758876192.871061,-0.40625,0.205078125,0.705078125,-15.869140625,-3.0517578125,-4.82177734375,-4.9603271484375,45.9228515625,-158.3184814453125
1758876192.8809645,-0.40625,0.205078125,0.705078125,-15.869140625,-3.0517578125,-4.82177734375,-5.1580810546875,45.845947265625,-158.40087890625
1758876192.890916,-0.58544921875,0.2236328125,0.85107421875,-69.15283203125,-2.44140625,-5.615234375,-5.877685546875,45.7745361328125,-158.4832763671875
1758876192.9009106,-0.58544921875,0.2236328125,0.85107421875,-69.15283203125,-2.44140625,-5.615234375,-6.580810546875,45.6976318359375,-158.5546875
1758876192.911386,-0.8115234375,0.142578125,0.9462890625,-104.55322265625,-3.60107421875,-0.79345703125,-7.5750732421875,45.615234375,-158.5382080078125
1758876192.9209616,-0.8115234375,0.142578125,0.9462890625,-104.55322265625,-3.60107421875,-0.79345703125,-8.5528564453125,45.538330078125,-158.5107421875
1758876192.9309876,-0.58447265625,-0.2060546875,0.9091796875,-61.03515625,-3.5400390625,6.7138671875,-9.0252685546875,45.472412109375,-158.389892578125
1758876192.9410205,-0.58447265625,-0.2060546875,0.9091796875,-61.03515625,-3.5400390625,6.7138671875,-9.503173828125,45.4010009765625,-158.2745361328125
1758876192.9511557,-0.57763671875,-0.46484375,0.50439453125,43.51806640625,-0.42724609375,1.0986328125,-9.019775390625,45.3570556640625,-158.258056640625
1758876192.9610572,-0.57763671875,-0.46484375,0.50439453125,43.51806640625,-0.42724609375,1.0986328125,-8.558349609375,45.3131103515625,-158.2635498046875
1758876192.9710689,-0.75390625,-0.33544921875,0.95703125,121.88720703125,-5.43212890625,-2.62451171875,-7.3663330078125,45.2197265625,-158.3184814453125
1758876192.9810488,-0.75390625,-0.33544921875,0.95703125,121.88720703125,-5.43212890625,-2.62451171875,-6.1907958984375,45.120849609375,-158.3953857421875
1758876192.9912817,-0.5458984375,-0.06494140625,0.625,94.17724609375,2.38037109375,0.244140625,-5.2789306640625,45.10986328125,-158.4393310546875
1758876193.0010667,-0.5458984375,-0.06494140625,0.625,94.17724609375,2.38037109375,0.244140625,-4.37255859375,45.098876953125,-158.4832763671875
1758876193.0111747,-0.92333984375,0.03076171875,0.9599609375,22.52197265625,-5.67626953125,-1.708984375,-4.1912841796875,45.0054931640625,-158.543701171875
1758876193.0211208,-0.92333984375,0.03076171875,0.9599609375,22.52197265625,-5.67626953125,-1.708984375,-3.9990234375,44.9176025390625,-158.587646484375
1758876193.0313077,-0.78662109375,0.06494140625,0.89013671875,-69.7021484375,-5.0048828125,4.0283203125,-4.6636962890625,44.84619140625,-158.5491943359375
1758876193.0412567,-0.78662109375,0.06494140625,0.89013671875,-69.7021484375,-5.0048828125,4.0283203125,-5.3173828125,44.7747802734375,-158.499755859375
1758876193.0511217,-0.806640625,0.14306640625,0.5869140625,-33.14208984375,-7.87353515625,8.7890625,-5.5426025390625,44.681396484375,-158.3624267578125
1758876193.061182,-0.806640625,0.14306640625,0.5869140625,-33.14208984375,-7.87353515625,8.7890625,-5.7568359375,44.6044921875,-158.2086181640625
1758876193.071184,-1.08544921875,-0.220703125,1.04736328125,-37.841796875,-12.0849609375,7.26318359375,-6.0369873046875,44.483642578125,-158.0712890625
1758876193.0811377,-1.08544921875,-0.220703125,1.04736328125,-37.841796875,-12.0849609375,7.26318359375,-6.317138671875,44.36279296875,-157.9339599609375
1758876193.0911798,-0.58203125,-0.13037109375,0.44482421875,-5.67626953125,-8.60595703125,10.55908203125,-6.2567138671875,44.2913818359375,-157.7581787109375
1758876193.1014946,-0.58203125,-0.13037109375,0.44482421875,-5.67626953125,-8.60595703125,10.55908203125,-6.1962890625,44.2144775390625,-157.587890625
1758876193.111226,-0.40234375,-0.07763671875,0.09326171875,32.77587890625,-5.126953125,10.19287109375,-5.767822265625,44.18701171875,-157.423095703125
1758876193.1212049,-0.40234375,-0.07763671875,0.09326171875,32.77587890625,-5.126953125,10.19287109375,-5.3448486328125,44.1595458984375,-157.25830078125
1758876193.1312895,-0.5009765625,-0.021484375,0.34375,7.8125,0.54931640625,8.056640625,-5.196533203125,44.1925048828125,-157.12646484375
1758876193.1413074,-0.5009765625,-0.021484375,0.34375,7.8125,0.54931640625,8.056640625,-5.0537109375,44.2254638671875,-156.9891357421875
1758876193.1513247,-1.158203125,0.0234375,1.0615234375,-13.3056640625,-3.11279296875,13.12255859375,-5.0592041015625,44.23095703125,-156.77490234375
1758876193.1613088,-1.158203125,0.0234375,1.0615234375,-13.3056640625,-3.11279296875,13.12255859375,-5.0592041015625,44.2364501953125,-156.55517578125
1758876193.1716821,-1.44384765625,-0.15234375,1.47607421875,42.1142578125,-12.0849609375,12.3291015625,-4.5098876953125,44.1485595703125,-156.3409423828125
1758876193.1815963,-1.44384765625,-0.15234375,1.47607421875,42.1142578125,-12.0849609375,12.3291015625,-3.966064453125,44.0496826171875,-156.1322021484375
1758876193.191326,-0.74267578125,-0.18896484375,0.48974609375,-11.53564453125,-8.544921875,12.451171875,-3.966064453125,43.9947509765625,-155.928955078125
1758876193.2013466,-0.74267578125,-0.18896484375,0.48974609375,-11.53564453125,-8.544921875,12.451171875,-3.9715576171875,43.9398193359375,-155.731201171875
1758876193.2114756,-0.61669921875,-0.0302734375,0.37548828125,-17.39501953125,-11.8408203125,8.7890625,-4.0704345703125,43.857421875,-155.577392578125
1758876193.2215846,-0.61669921875,-0.0302734375,0.37548828125,-17.39501953125,-11.8408203125,8.7890625,-4.1693115234375,43.780517578125,-155.4180908203125
1758876193.2313979,-0.5986328125,0.01611328125,0.35595703125,69.76318359375,-4.82177734375,7.14111328125,-3.416748046875,43.7750244140625,-155.291748046875
1758876193.2414196,-0.5986328125,0.01611328125,0.35595703125,69.76318359375,-4.82177734375,7.14111328125,-2.669677734375,43.76953125,-155.1544189453125
1758876193.2516172,-0.38720703125,-0.22265625,0.3955078125,102.11181640625,0.8544921875,5.31005859375,-1.6259765625,43.8189697265625,-155.06103515625
1758876193.2615829,-0.38720703125,-0.22265625,0.3955078125,102.11181640625,0.8544921875,5.31005859375,-0.5987548828125,43.8629150390625,-154.9786376953125
1758876193.2715137,-0.3701171875,0.19189453125,0.3955078125,78.79638671875,5.9814453125,4.08935546875,0.1812744140625,43.956298828125,-154.9127197265625
1758876193.2816243,-0.3701171875,0.19189453125,0.3955078125,78.79638671875,5.9814453125,4.08935546875,0.977783203125,44.0496826171875,-154.84130859375
1758876193.2917721,-0.830078125,-0.1552734375,1.38818359375,43.9453125,1.3427734375,8.48388671875,1.4666748046875,44.0771484375,-154.720458984375
1758876193.3015966,-0.830078125,-0.1552734375,1.38818359375,43.9453125,1.3427734375,8.48388671875,1.944580078125,44.088134765625,-154.6160888671875
1758876193.311748,-0.826171875,-0.38427734375,1.21923828125,12.75634765625,1.28173828125,-3.41796875,1.988525390625,44.0936279296875,-154.7039794921875
1758876193.3218029,-0.826171875,-0.38427734375,1.21923828125,12.75634765625,1.28173828125,-3.41796875,2.021484375,44.0936279296875,-154.808349609375
1758876193.3323267,-0.57373046875,-0.38330078125,0.5595703125,-33.87451171875,-0.54931640625,-2.86865234375,1.5765380859375,44.0771484375,-154.918212890625
1758876193.341613,-0.57373046875,-0.38330078125,0.5595703125,-33.87451171875,-0.54931640625,-2.86865234375,1.1260986328125,44.0606689453125,-155.0335693359375
1758876193.3516147,-0.37744140625,-0.07421875,0.2958984375,21.97265625,5.615234375,-12.5732421875,1.1370849609375,44.110107421875,-155.2862548828125
1758876193.3616405,-0.37744140625,-0.07421875,0.2958984375,21.97265625,5.615234375,-12.5732421875,1.153564453125,44.1650390625,-155.5389404296875
1758876193.372132,-0.40380859375,0.31103515625,0.34326171875,104.98046875,3.90625,-7.568359375,2.054443359375,44.2034912109375,-155.7037353515625
1758876193.3816135,-0.40380859375,0.31103515625,0.34326171875,104.98046875,3.90625,-7.568359375,2.9718017578125,44.241943359375,-155.85205078125
1758876193.3916337,-0.27880859375,0.3466796875,0.4228515625,120.66650390625,15.31982421875,-9.82666015625,4.0484619140625,44.395751953125,-156.005859375
1758876193.4016283,-0.27880859375,0.3466796875,0.4228515625,120.66650390625,15.31982421875,-9.82666015625,5.1416015625,44.5440673828125,-156.1431884765625
1758876193.412133,-0.62744140625,0.234375,0.61083984375,63.3544921875,13.916015625,-4.33349609375,5.7293701171875,44.6759033203125,-156.192626953125
1758876193.4217267,-0.62744140625,0.234375,0.61083984375,63.3544921875,13.916015625,-4.33349609375,6.3226318359375,44.8077392578125,-156.2310791015625
1758876193.4318092,-2.33740234375,-0.1962890625,1.72216796875,80.50537109375,-1.64794921875,-7.14111328125,7.03125,44.80224609375,-156.33544921875
1758876193.44201,-2.33740234375,-0.1962890625,1.72216796875,80.50537109375,-1.64794921875,-7.14111328125,7.7288818359375,44.813232421875,-156.4398193359375
1758876193.4519434,-1.83740234375,0.2412109375,0.34521484375,119.140625,-0.54931640625,-1.89208984375,8.8604736328125,44.84619140625,-156.456298828125
1758876193.4617653,-1.83740234375,0.2412109375,0.34521484375,119.140625,-0.54931640625,-1.89208984375,9.9920654296875,44.9066162109375,-156.4453125
1758876193.4717705,-1.16552734375,0.2060546875,-0.79931640625,-44.98291015625,0.42724609375,3.662109375,9.547119140625,44.9945068359375,-156.33544921875
1758876193.4819915,-1.16552734375,0.2060546875,-0.79931640625,-44.98291015625,0.42724609375,3.662109375,9.107666015625,45.120849609375,-156.1981201171875
1758876193.4921196,-0.833984375,0.02978515625,-0.189453125,-71.8994140625,0.67138671875,7.32421875,8.4375,45.2581787109375,-156.005859375
1758876193.501778,-0.833984375,0.02978515625,-0.189453125,-71.8994140625,0.67138671875,7.32421875,7.767333984375,45.4119873046875,-155.80810546875
1758876193.5118377,-0.671875,-0.00390625,0.61083984375,-38.6962890625,0.67138671875,10.1318359375,7.459716796875,45.560302734375,-155.577392578125
1758876193.5221062,-0.671875,-0.00390625,0.61083984375,-38.6962890625,0.67138671875,10.1318359375,7.152099609375,45.692138671875,-155.357666015625
1758876193.5323315,-0.76220703125,0.16748046875,0.97216796875,-48.583984375,-2.0751953125,12.939453125,6.778564453125,45.780029296875,-155.10498046875
1758876193.541915,-0.76220703125,0.16748046875,0.97216796875,-48.583984375,-2.0751953125,12.939453125,6.416015625,45.845947265625,-154.852294921875
1758876193.5518787,-0.6083984375,0.1376953125,1.05224609375,-82.82470703125,-2.86865234375,14.22119140625,5.73486328125,45.8843994140625,-154.5941162109375
1758876193.5622342,-0.6083984375,0.1376953125,1.05224609375,-82.82470703125,-2.86865234375,14.22119140625,5.0592041015625,45.9063720703125,-154.3359375
1758876193.5719006,-0.53662109375,-0.02490234375,1.01416015625,-46.0205078125,-5.92041015625,11.8408203125,4.72412109375,45.8843994140625,-154.1326904296875
1758876193.5819046,-0.53662109375,-0.02490234375,1.01416015625,-46.0205078125,-5.92041015625,11.8408203125,4.3890380859375,45.845947265625,-153.9459228515625
1758876193.5919123,-0.5703125,0.05615234375,0.92333984375,-15.07568359375,-2.3193359375,9.033203125,4.3341064453125,45.8349609375,-153.8031005859375
1758876193.6023557,-0.5703125,0.05615234375,0.92333984375,-15.07568359375,-2.3193359375,9.033203125,4.2791748046875,45.81298828125,-153.6712646484375
1758876193.6119995,-0.71923828125,0.14306640625,0.755859375,-28.38134765625,0.54931640625,6.89697265625,4.075927734375,45.8184814453125,-153.5614013671875
1758876193.622028,-0.71923828125,0.14306640625,0.755859375,-28.38134765625,0.54931640625,6.89697265625,3.878173828125,45.823974609375,-153.4515380859375
1758876193.6320567,-0.76708984375,0.03466796875,0.54833984375,-25.7568359375,2.44140625,4.94384765625,3.6859130859375,45.845947265625,-153.3636474609375
1758876193.6423163,-0.76708984375,0.03466796875,0.54833984375,-25.7568359375,2.44140625,4.94384765625,3.49365234375,45.87890625,-153.270263671875
1758876193.6520383,-0.7431640625,0.072265625,0.5732421875,-9.70458984375,3.2958984375,3.0517578125,3.4442138671875,45.9228515625,-153.1988525390625
1758876193.6620646,-0.7431640625,0.072265625,0.5732421875,-9.70458984375,3.2958984375,3.0517578125,3.394775390625,45.966796875,-153.1219482421875
1758876193.672558,-0.72412109375,0.119140625,0.79345703125,-6.9580078125,3.84521484375,0.79345703125,3.3563232421875,46.0162353515625,-153.08349609375
1758876193.6821628,-0.72412109375,0.119140625,0.79345703125,-6.9580078125,3.84521484375,0.79345703125,3.3123779296875,46.0601806640625,-153.03955078125
1758876193.6920383,-0.70751953125,0.0556640625,0.7646484375,-5.2490234375,3.47900390625,-0.67138671875,3.27392578125,46.0986328125,-153.017578125
1758876193.7021494,-0.70751953125,0.0556640625,0.7646484375,-5.2490234375,3.47900390625,-0.67138671875,3.2354736328125,46.1370849609375,-153.006591796875
1758876193.7125962,-0.72314453125,0.04833984375,0.6181640625,-5.126953125,0.8544921875,-2.44140625,3.175048828125,46.1480712890625,-153.017578125
1758876193.7221525,-0.72314453125,0.04833984375,0.6181640625,-5.126953125,0.8544921875,-2.44140625,3.1146240234375,46.16455078125,-153.028564453125
1758876193.732167,-0.70947265625,0.1103515625,0.6103515625,-5.67626953125,-2.13623046875,-4.5166015625,3.0322265625,46.1480712890625,-153.0670166015625
1758876193.742591,-0.70947265625,0.1103515625,0.6103515625,-5.67626953125,-2.13623046875,-4.5166015625,2.9443359375,46.1370849609375,-153.10546875
1758876193.7521582,-0.71044921875,0.06298828125,0.7412109375,-10.25390625,-3.60107421875,-5.06591796875,2.8125,46.109619140625,-153.1494140625
1758876193.762231,-0.71044921875,0.06298828125,0.7412109375,-10.25390625,-3.60107421875,-5.06591796875,2.6751708984375,46.0821533203125,-153.1988525390625
1758876193.7722106,-0.69677734375,-0.00634765625,0.72705078125,-9.82666015625,-4.82177734375,-4.8828125,2.5433349609375,46.0382080078125,-153.2427978515625
1758876193.7822008,-0.69677734375,-0.00634765625,0.72705078125,-9.82666015625,-4.82177734375,-4.8828125,2.406005859375,45.98876953125,-153.2977294921875
1758876193.792227,-0.70947265625,0.0341796875,0.6533203125,-8.1787109375,-5.615234375,-4.57763671875,2.2906494140625,45.9393310546875,-153.34716796875
1758876193.8023221,-0.70947265625,0.0341796875,0.6533203125,-8.1787109375,-5.615234375,-4.57763671875,2.17529296875,45.8843994140625,-153.3966064453125
1758876193.8122861,-0.7265625,0.06494140625,0.705078125,-8.056640625,-5.2490234375,-5.0048828125,2.054443359375,45.8404541015625,-153.4515380859375
1758876193.8222752,-0.7265625,0.06494140625,0.705078125,-8.056640625,-5.2490234375,-5.0048828125,1.9390869140625,45.791015625,-153.5009765625
1758876193.832278,-0.68994140625,0.0244140625,0.77734375,-8.9111328125,-3.84521484375,-4.8828125,1.812744140625,45.7525634765625,-153.5504150390625
1758876193.8426611,-0.68896484375,0.0048828125,0.74755859375,-11.5966796875,-3.23486328125,-3.90625,1.680908203125,45.7196044921875,-153.599853515625
1758876193.8522894,-0.68896484375,0.0048828125,0.74755859375,-11.5966796875,-3.23486328125,-3.90625,1.5325927734375,45.68115234375,-153.6383056640625
1758876193.8623588,-0.685546875,0.00927734375,0.6591796875,-2.74658203125,-2.38037109375,-3.11279296875,1.439208984375,45.6536865234375,-153.6767578125
1758876193.872753,-0.685546875,0.00927734375,0.6591796875,-2.74658203125,-2.38037109375,-3.11279296875,1.3897705078125,45.626220703125,-153.7042236328125
1758876193.882327,-0.63671875,0.00341796875,0.6962890625,18.73779296875,0.18310546875,-1.0986328125,1.4556884765625,45.615234375,-153.7261962890625
1758876193.8925896,-0.63671875,0.00341796875,0.6962890625,18.73779296875,0.18310546875,-1.0986328125,1.6424560546875,45.6097412109375,-153.7261962890625
1758876193.9024796,-0.73291015625,-0.01806640625,0.8349609375,16.17431640625,-0.244140625,1.64794921875,1.82373046875,45.604248046875,-153.720703125
1758876193.9125376,-0.73291015625,-0.01806640625,0.8349609375,16.17431640625,-0.244140625,1.64794921875,1.99951171875,45.59326171875,-153.6932373046875
1758876193.9224138,-0.74658203125,0.0751953125,0.61181640625,9.1552734375,-2.01416015625,3.47900390625,2.1533203125,45.5712890625,-153.6602783203125
1758876193.9326868,-0.74658203125,0.0751953125,0.61181640625,9.1552734375,-2.01416015625,3.47900390625,2.2796630859375,45.54931640625,-153.6053466796875
1758876193.9427488,-0.73193359375,0.017578125,0.568359375,-5.126953125,-2.86865234375,5.0048828125,2.340087890625,45.5218505859375,-153.5394287109375
1758876193.952439,-0.73193359375,0.017578125,0.568359375,-5.126953125,-2.86865234375,5.0048828125,2.340087890625,45.494384765625,-153.45703125
1758876193.9624965,-0.697265625,-0.00634765625,0.7216796875,-7.75146484375,-3.47900390625,6.40869140625,2.3345947265625,45.46142578125,-153.3636474609375
1758876193.9726732,-0.697265625,-0.00634765625,0.7216796875,-7.75146484375,-3.47900390625,6.40869140625,2.318115234375,45.428466796875,-153.2647705078125
1758876193.9824908,-0.6875,0.0439453125,0.83251953125,-9.8876953125,-3.0517578125,7.38525390625,2.296142578125,45.3955078125,-153.1658935546875
1758876193.9924498,-0.6875,0.0439453125,0.83251953125,-9.8876953125,-3.0517578125,7.38525390625,2.2686767578125,45.362548828125,-153.0560302734375
1758876194.0025148,-0.70654296875,0.0458984375,0.7060546875,-4.94384765625,-3.7841796875,7.38525390625,2.2686767578125,45.318603515625,-152.95166015625
1758876194.0127473,-0.70654296875,0.0458984375,0.7060546875,-4.94384765625,-3.7841796875,7.38525390625,2.2906494140625,45.274658203125,-152.8472900390625
1758876194.0225418,-0.72119140625,0.0234375,0.625,-9.27734375,-4.69970703125,7.50732421875,2.296142578125,45.230712890625,-152.7374267578125
1758876194.032648,-0.72119140625,0.0234375,0.625,-9.27734375,-4.69970703125,7.50732421875,2.274169921875,45.1812744140625,-152.6275634765625
1758876194.0427132,-0.70458984375,0.06982421875,0.7216796875,-2.685546875,-5.18798828125,6.2255859375,2.28515625,45.1263427734375,-152.523193359375
1758876194.0526607,-0.70458984375,0.06982421875,0.7216796875,-2.685546875,-5.18798828125,6.2255859375,2.318115234375,45.076904296875,-152.42431640625
1758876194.0626874,-0.6884765625,0.0517578125,0.77880859375,-11.1083984375,-4.5166015625,5.79833984375,2.3126220703125,45.0274658203125,-152.3309326171875
1758876194.0726426,-0.6884765625,0.0517578125,0.77880859375,-11.1083984375,-4.5166015625,5.79833984375,2.26318359375,44.97802734375,-152.2430419921875
1758876194.0828729,-0.6650390625,0.0478515625,0.765625,-9.765625,-3.72314453125,4.45556640625,2.2137451171875,44.9285888671875,-152.16064453125
1758876194.0926468,-0.6650390625,0.0478515625,0.765625,-9.765625,-3.72314453125,4.45556640625,2.164306640625,44.8846435546875,-152.0947265625
1758876194.1026833,-0.6611328125,0.03515625,0.75048828125,-4.69970703125,-3.7841796875,2.62451171875,2.1368408203125,44.8406982421875,-152.039794921875
1758876194.1126554,-0.6611328125,0.03515625,0.75048828125,-4.69970703125,-3.7841796875,2.62451171875,2.120361328125,44.7967529296875,-151.995849609375
1758876194.122955,-0.6767578125,0.05908203125,0.70751953125,4.150390625,-4.5166015625,0.42724609375,2.1368408203125,44.747314453125,-151.973876953125
1758876194.1327183,-0.6767578125,0.05908203125,0.70751953125,4.150390625,-4.5166015625,0.42724609375,2.186279296875,44.6923828125,-151.962890625
1758876194.142717,-0.705078125,0.068359375,0.7109375,-2.0751953125,-5.18798828125,-0.8544921875,2.2027587890625,44.637451171875,-151.962890625
1758876194.1530902,-0.705078125,0.068359375,0.7109375,-2.0751953125,-5.18798828125,-0.8544921875,2.1807861328125,44.5770263671875,-151.962890625
1758876194.1627192,-0.7265625,0.06884765625,0.7255859375,-19.04296875,-6.591796875,-1.0986328125,2.0709228515625,44.5166015625,-151.9683837890625
1758876194.1726754,-0.7265625,0.06884765625,0.7255859375,-19.04296875,-6.591796875,-1.0986328125,1.878662109375,44.4451904296875,-151.9683837890625
1758876194.18273,-0.68359375,0.03466796875,0.7607421875,-43.5791015625,-8.11767578125,-0.1220703125,1.5765380859375,44.3682861328125,-151.962890625
1758876194.1931074,-0.68359375,0.03466796875,0.7607421875,-43.5791015625,-8.11767578125,-0.1220703125,1.153564453125,44.285888671875,-151.9464111328125
1758876194.2028205,-0.66259765625,0.0126953125,0.75341796875,-51.69677734375,-8.6669921875,0.6103515625,0.692138671875,44.197998046875,-151.9244384765625
1758876194.21286,-0.66259765625,0.0126953125,0.75341796875,-51.69677734375,-8.6669921875,0.6103515625,0.2032470703125,44.1046142578125,-151.89697265625
1758876194.2230077,-0.66943359375,-0.02734375,0.74609375,-49.25537109375,-8.48388671875,2.62451171875,-0.263671875,44.0167236328125,-151.8585205078125
1758876194.233016,-0.66943359375,-0.02734375,0.74609375,-49.25537109375,-8.48388671875,2.62451171875,-0.7086181640625,43.92333984375,-151.798095703125
1758876194.242894,-0.65771484375,-0.056640625,0.64501953125,-45.166015625,-9.58251953125,4.94384765625,-1.1260986328125,43.8299560546875,-151.7266845703125
1758876194.2528417,-0.65771484375,-0.056640625,0.64501953125,-45.166015625,-9.58251953125,4.94384765625,-1.5106201171875,43.7310791015625,-151.6387939453125
1758876194.2632713,-0.60302734375,-0.12744140625,0.5537109375,-24.90234375,-7.99560546875,6.591796875,-1.7852783203125,43.6431884765625,-151.534423828125
1758876194.2728477,-0.60302734375,-0.12744140625,0.5537109375,-24.90234375,-7.99560546875,6.591796875,-1.9610595703125,43.57177734375,-151.424560546875
1758876194.282881,-0.744140625,-0.0400390625,0.83984375,-20.56884765625,-4.82177734375,7.75146484375,-2.109375,43.5113525390625,-151.3092041015625
1758876194.292971,-0.744140625,-0.0400390625,0.83984375,-20.56884765625,-4.82177734375,7.75146484375,-2.2357177734375,43.4674072265625,-151.1883544921875
1758876194.302912,-0.72314453125,0.03369140625,0.86279296875,-40.0390625,-4.08935546875,9.46044921875,-2.449951171875,43.4234619140625,-151.0565185546875
1758876194.3129437,-0.72314453125,0.03369140625,0.86279296875,-40.0390625,-4.08935546875,9.46044921875,-2.74658203125,43.385009765625,-150.908203125
1758876194.3232732,-0.630859375,-0.01953125,0.73681640625,-65.0634765625,-6.4697265625,10.1318359375,-3.1640625,43.3355712890625,-150.7489013671875
1758876194.3329413,-0.630859375,-0.01953125,0.73681640625,-65.0634765625,-6.4697265625,10.1318359375,-3.6968994140625,43.275146484375,-150.589599609375
1758876194.34302,-0.630859375,-0.08447265625,0.67626953125,-32.8369140625,-5.79833984375,9.21630859375,-4.075927734375,43.2147216796875,-150.4302978515625
1758876194.3531852,-0.630859375,-0.08447265625,0.67626953125,-32.8369140625,-5.79833984375,9.21630859375,-4.295654296875,43.1597900390625,-150.281982421875
1758876194.363006,-0.66943359375,-0.08154296875,0.7236328125,-22.8271484375,-6.16455078125,9.46044921875,-4.4659423828125,43.1048583984375,-150.128173828125
1758876194.3729875,-0.66943359375,-0.08154296875,0.7236328125,-22.8271484375,-6.16455078125,9.46044921875,-4.59228515625,43.04443359375,-149.974365234375
1758876194.3833532,-0.67578125,-0.02587890625,0.78271484375,-45.83740234375,-7.38525390625,9.033203125,-4.8284912109375,42.9840087890625,-149.8260498046875
1758876194.3933434,-0.67578125,-0.02587890625,0.78271484375,-45.83740234375,-7.38525390625,9.033203125,-5.185546875,42.91259765625,-149.6722412109375
1758876194.4031289,-0.66357421875,-0.04931640625,0.8310546875,-48.52294921875,-7.62939453125,7.75146484375,-5.5535888671875,42.8411865234375,-149.5294189453125
1758876194.413106,-0.66357421875,-0.04931640625,0.8310546875,-48.52294921875,-7.62939453125,7.75146484375,-5.943603515625,42.769775390625,-149.39208984375
1758876194.4234207,-0.669921875,-0.05224609375,0.787109375,-49.13330078125,-6.8359375,5.92041015625,-6.339111328125,42.6983642578125,-149.271240234375
1758876194.4330916,-0.669921875,-0.05224609375,0.787109375,-49.13330078125,-6.8359375,5.92041015625,-6.74560546875,42.626953125,-149.1558837890625
1758876194.4431355,-0.6455078125,-0.01318359375,0.71044921875,-39.85595703125,-6.28662109375,4.7607421875,-7.108154296875,42.56103515625,-149.0460205078125
1758876194.453145,-0.6455078125,-0.01318359375,0.71044921875,-39.85595703125,-6.28662109375,4.7607421875,-7.4267578125,42.5006103515625,-148.9361572265625
1758876194.4631488,-0.64404296875,-0.13330078125,0.7958984375,-38.9404296875,-6.04248046875,4.7607421875,-7.7398681640625,42.440185546875,-148.831787109375
1758876194.4731417,-0.64404296875,-0.13330078125,0.7958984375,-38.9404296875,-6.04248046875,4.7607421875,-8.052978515625,42.3797607421875,-148.721923828125
1758876194.4832675,-0.65673828125,-0.17236328125,0.73583984375,-29.6630859375,-4.7607421875,3.96728515625,-8.3221435546875,42.3248291015625,-148.623046875
1758876194.493209,-0.65673828125,-0.17236328125,0.73583984375,-29.6630859375,-4.7607421875,3.96728515625,-8.558349609375,42.275390625,-148.5406494140625
1758876194.5032153,-0.70947265625,-0.08349609375,0.64599609375,-20.3857421875,-4.08935546875,2.99072265625,-8.7506103515625,42.2314453125,-148.458251953125
1758876194.5132403,-0.70947265625,-0.08349609375,0.64599609375,-20.3857421875,-4.08935546875,2.99072265625,-8.9044189453125,42.1929931640625,-148.38134765625
1758876194.5235755,-0.658203125,-0.10888671875,0.71533203125,-23.49853515625,-5.92041015625,3.5400390625,-9.0692138671875,42.1490478515625,-148.29345703125
1758876194.5332463,-0.658203125,-0.10888671875,0.71533203125,-23.49853515625,-5.92041015625,3.5400390625,-9.2449951171875,42.099609375,-148.20556640625
1758876194.543283,-0.634765625,-0.1630859375,0.80322265625,-19.6533203125,-5.37109375,3.662109375,-9.404296875,42.0501708984375,-148.1121826171875
1758876194.553578,-0.634765625,-0.1630859375,0.80322265625,-19.6533203125,-5.37109375,3.662109375,-9.547119140625,42.000732421875,-148.0242919921875
1758876194.5632672,-0.65625,-0.12744140625,0.75439453125,-20.263671875,-5.43212890625,2.8076171875,-9.6954345703125,41.94580078125,-147.94189453125
1758876194.5733237,-0.65625,-0.12744140625,0.75439453125,-20.263671875,-5.43212890625,2.8076171875,-9.8492431640625,41.8963623046875,-147.8704833984375
1758876194.583367,-0.68994140625,-0.09619140625,0.77685546875,-29.052734375,-5.43212890625,2.3193359375,-10.052490234375,41.8414306640625,-147.799072265625
1758876194.5937045,-0.68994140625,-0.09619140625,0.77685546875,-29.052734375,-5.43212890625,2.3193359375,-10.2996826171875,41.7919921875,-147.72216796875
1758876194.6033664,-0.6240234375,-0.14208984375,0.78955078125,-47.7294921875,-7.99560546875,3.35693359375,-10.6292724609375,41.72607421875,-147.6397705078125
1758876194.6133997,-0.6240234375,-0.14208984375,0.78955078125,-47.7294921875,-7.99560546875,3.35693359375,-11.0467529296875,41.649169921875,-147.54638671875
1758876194.6234245,-0.60546875,-0.181640625,0.841796875,-58.10546875,-8.544921875,3.0517578125,-11.513671875,41.572265625,-147.4530029296875
1758876194.6338296,-0.60546875,-0.181640625,0.841796875,-58.10546875,-8.544921875,3.0517578125,-12.0355224609375,41.484375,-147.3651123046875
1758876194.643406,-0.615234375,-0.18994140625,0.6435546875,-44.86083984375,-7.50732421875,3.60107421875,-12.4859619140625,41.4019775390625,-147.2772216796875
1758876194.653422,-0.615234375,-0.18994140625,0.6435546875,-44.86083984375,-7.50732421875,3.60107421875,-12.8704833984375,41.33056640625,-147.183837890625
1758876194.6637554,-0.716796875,-0.22607421875,0.56494140625,-18.73779296875,-7.4462890625,1.953125,-13.1341552734375,41.2591552734375,-147.095947265625
1758876194.6734266,-0.716796875,-0.22607421875,0.56494140625,-18.73779296875,-7.4462890625,1.953125,-13.2769775390625,41.187744140625,-147.0245361328125
1758876194.683488,-0.65283203125,-0.25146484375,0.6142578125,-12.51220703125,-7.9345703125,1.3427734375,-13.3978271484375,41.121826171875,-146.953125
1758876194.69356,-0.65283203125,-0.25146484375,0.6142578125,-12.51220703125,-7.9345703125,1.3427734375,-13.4967041015625,41.055908203125,-146.8927001953125
1758876194.7038236,-0.65673828125,-0.1435546875,0.78515625,-4.2724609375,-7.14111328125,1.52587890625,-13.5516357421875,40.9954833984375,-146.8267822265625
1758876194.7135613,-0.65673828125,-0.1435546875,0.78515625,-4.2724609375,-7.14111328125,1.52587890625,-13.568115234375,40.93505859375,-146.7608642578125
1758876194.7238607,-0.654296875,-0.123046875,0.7822265625,3.11279296875,-6.77490234375,1.15966796875,-13.5406494140625,40.8746337890625,-146.700439453125
1758876194.7336059,-0.654296875,-0.123046875,0.7822265625,3.11279296875,-6.77490234375,1.15966796875,-13.480224609375,40.8197021484375,-146.634521484375
1758876194.7435398,-0.6357421875,-0.2421875,0.71142578125,24.4140625,-7.32421875,-0.54931640625,-13.3209228515625,40.7537841796875,-146.57958984375
1758876194.7539861,-0.6357421875,-0.2421875,0.71142578125,24.4140625,-7.32421875,-0.54931640625,-13.0682373046875,40.682373046875,-146.5411376953125
1758876194.7635782,-0.63818359375,-0.1181640625,0.79638671875,34.1796875,-7.75146484375,-2.25830078125,-12.777099609375,40.6109619140625,-146.5191650390625
1758876194.7736366,-0.63818359375,-0.1181640625,0.79638671875,34.1796875,-7.75146484375,-2.25830078125,-12.4420166015625,40.5340576171875,-146.502685546875
1758876194.7840579,-0.63818359375,-0.1181640625,0.79638671875,35.58349609375,-6.9580078125,-3.7841796875,-12.1014404296875,40.4571533203125,-146.4971923828125
1758876194.7936742,-0.6279296875,-0.10009765625,0.8427734375,35.58349609375,-6.9580078125,-3.7841796875,-11.766357421875,40.374755859375,-146.502685546875
1758876194.8036585,-0.6279296875,-0.10009765625,0.8427734375,25.390625,-7.4462890625,-1.708984375,-11.5191650390625,40.2978515625,-146.4862060546875
1758876194.8139124,-0.60791015625,-0.24951171875,0.75732421875,25.390625,-7.4462890625,-1.708984375,-11.27197265625,40.220947265625,-146.4752197265625
1758876194.8239825,-0.63818359375,-0.1611328125,0.875,44.49462890625,-8.11767578125,-2.8076171875,-10.8489990234375,40.1275634765625,-146.480712890625
1758876194.833653,-0.63818359375,-0.1611328125,0.875,44.49462890625,-8.11767578125,-2.8076171875,-10.426025390625,40.0341796875,-146.49169921875
1758876194.8438063,-0.560546875,-0.11328125,0.908203125,84.8388671875,-9.33837890625,-5.9814453125,-9.6240234375,39.92431640625,-146.5411376953125
1758876194.8541534,-0.560546875,-0.11328125,0.908203125,84.8388671875,-9.33837890625,-5.9814453125,-8.8275146484375,39.8089599609375,-146.5960693359375
1758876194.863766,-0.6396484375,-0.05029296875,1.0771484375,124.57275390625,-8.85009765625,-7.50732421875,-7.646484375,39.693603515625,-146.678466796875
1758876194.8737698,-0.6396484375,-0.05029296875,1.0771484375,124.57275390625,-8.85009765625,-7.50732421875,-6.470947265625,39.57275390625,-146.7608642578125
1758876194.8841913,-0.47998046875,-0.1533203125,0.81689453125,88.31787109375,-8.11767578125,-0.06103515625,-5.60302734375,39.4683837890625,-146.7608642578125
1758876194.8937566,-0.47998046875,-0.1533203125,0.81689453125,88.31787109375,-8.11767578125,-0.06103515625,-4.74609375,39.364013671875,-146.7718505859375
1758876194.9038122,-0.53271484375,-0.1572265625,0.796875,33.50830078125,-13.48876953125,-4.21142578125,-4.4659423828125,39.19921875,-146.832275390625
1758876194.913846,-0.53271484375,-0.1572265625,0.796875,33.50830078125,-13.48876953125,-4.21142578125,-4.19677734375,39.0399169921875,-146.9036865234375
1758876194.9238129,-0.4775390625,-0.1923828125,0.978515625,40.6494140625,-11.5966796875,-8.4228515625,-3.88916015625,38.8861083984375,-147.0355224609375
1758876194.9338176,-0.4775390625,-0.1923828125,0.978515625,40.6494140625,-11.5966796875,-8.4228515625,-3.5870361328125,38.73779296875,-147.1783447265625
1758876194.9442198,-0.2529296875,-0.287109375,0.8486328125,124.3896484375,-10.43701171875,-5.79833984375,-2.43896484375,38.5894775390625,-147.3046875
1758876194.9538562,-0.2529296875,-0.287109375,0.8486328125,124.3896484375,-10.43701171875,-5.79833984375,-1.307373046875,38.441162109375,-147.4530029296875
1758876194.9638414,-0.42578125,-0.22607421875,1.01171875,81.6650390625,-13.5498046875,-5.9814453125,-0.6097412109375,38.2598876953125,-147.6177978515625
1758876194.973923,-0.42578125,-0.22607421875,1.01171875,81.6650390625,-13.5498046875,-5.9814453125,0.0714111328125,38.0731201171875,-147.7880859375
1758876194.9843872,-0.82470703125,0.396484375,1.15283203125,-26.79443359375,-17.27294921875,-3.5400390625,-0.2801513671875,37.8533935546875,-147.9034423828125
1758876194.9939191,-0.82470703125,0.396484375,1.15283203125,-26.79443359375,-17.27294921875,-3.5400390625,-0.615234375,37.63916015625,-147.996826171875
1758876195.0039926,-0.45703125,0.3203125,0.955078125,-77.94189453125,-17.51708984375,-3.35693359375,-1.42822265625,37.41943359375,-148.0682373046875
1758876195.0139515,-0.45703125,0.3203125,0.955078125,-77.94189453125,-17.51708984375,-3.35693359375,-2.2247314453125,37.19970703125,-148.1231689453125
1758876195.0243654,-0.1240234375,0.0478515625,0.48095703125,-63.232421875,-14.34326171875,-0.30517578125,-2.8399658203125,37.0074462890625,-148.128662109375
1758876195.0339327,-0.1240234375,0.0478515625,0.48095703125,-63.232421875,-14.34326171875,-0.30517578125,-3.4442138671875,36.815185546875,-148.1396484375
1758876195.0439885,-0.1875,-0.009765625,0.787109375,-59.02099609375,-8.9111328125,-2.0751953125,-4.02099609375,36.6668701171875,-148.1781005859375
1758876195.0540466,-0.1875,-0.009765625,0.787109375,-59.02099609375,-8.9111328125,-2.0751953125,-4.5977783203125,36.5130615234375,-148.216552734375
1758876195.0641441,-0.26025390625,-0.2216796875,0.74755859375,2.74658203125,-4.7607421875,-1.708984375,-4.559326171875,36.397705078125,-148.2659912109375
1758876195.0740368,-0.26025390625,-0.2216796875,0.74755859375,2.74658203125,-4.7607421875,-1.708984375,-4.5318603515625,36.2823486328125,-148.326416015625
1758876195.084049,-0.4052734375,-0.0205078125,0.7255859375,39.9169921875,-3.47900390625,-2.9296875,-4.1473388671875,36.177978515625,-148.4088134765625
1758876195.0941684,-0.4052734375,-0.0205078125,0.7255859375,39.9169921875,-3.47900390625,-2.9296875,-3.768310546875,36.0736083984375,-148.480224609375
1758876195.1040988,-0.6025390625,-0.17724609375,1.361328125,28.3203125,-6.65283203125,-5.79833984375,-3.5211181640625,35.9417724609375,-148.590087890625
1758876195.114143,-0.6025390625,-0.17724609375,1.361328125,28.3203125,-6.65283203125,-5.79833984375,-3.284912109375,35.8099365234375,-148.7054443359375
1758876195.124501,-0.375,-0.109375,0.31591796875,28.6865234375,0.79345703125,-2.50244140625,-3.0322265625,35.7550048828125,-148.787841796875
1758876195.134092,-0.375,-0.109375,0.31591796875,28.6865234375,0.79345703125,-2.50244140625,-2.779541015625,35.7110595703125,-148.8592529296875
1758876195.1440835,-0.3349609375,-0.09326171875,0.00537109375,47.05810546875,5.55419921875,-4.57763671875,-2.3675537109375,35.7275390625,-148.9581298828125
1758876195.1541107,-0.3349609375,-0.09326171875,0.00537109375,47.05810546875,5.55419921875,-4.57763671875,-1.95556640625,35.74951171875,-149.0460205078125
1758876195.16463,-0.73291015625,0.16064453125,0.962890625,-29.11376953125,8.48388671875,-4.57763671875,-2.3016357421875,35.8099365234375,-149.1229248046875
1758876195.174121,-0.73291015625,0.16064453125,0.962890625,-29.11376953125,8.48388671875,-4.57763671875,-2.6312255859375,35.8758544921875,-149.183349609375
1758876195.1841838,-0.84130859375,0.29052734375,1.140625,-107.5439453125,11.962890625,-2.5634765625,-3.71337890625,35.980224609375,-149.1998291015625
1758876195.1941936,-0.84130859375,0.29052734375,1.140625,-107.5439453125,11.962890625,-2.5634765625,-4.7735595703125,36.090087890625,-149.1998291015625
1758876195.204592,-0.58642578125,0.162109375,0.75244140625,-69.03076171875,9.58251953125,4.0283203125,-5.3887939453125,36.177978515625,-149.1064453125
1758876195.2142322,-0.58642578125,0.162109375,0.75244140625,-69.03076171875,9.58251953125,4.0283203125,-5.99853515625,36.2713623046875,-149.0020751953125
1758876195.224219,-1.70751953125,-0.2587890625,1.30859375,40.8935546875,-5.2490234375,-1.5869140625,-5.5535888671875,36.2274169921875,-148.9471435546875
1758876195.234507,-1.70751953125,-0.2587890625,1.30859375,40.8935546875,-5.2490234375,-1.5869140625,-5.1251220703125,36.199951171875,-148.897705078125
1758876195.2443497,-1.3115234375,-0.60107421875,1.1943359375,96.19140625,-2.62451171875,-1.52587890625,-4.1693115234375,36.2054443359375,-148.86474609375
1758876195.2542233,-1.3115234375,-0.60107421875,1.1943359375,96.19140625,-2.62451171875,-1.52587890625,-3.2354736328125,36.2164306640625,-148.853759765625
1758876195.2642355,-0.5703125,-0.25634765625,0.03759765625,101.62353515625,-7.2021484375,0.54931640625,-2.2467041015625,36.18896484375,-148.82080078125
1758876195.274706,-0.5703125,-0.25634765625,0.03759765625,101.62353515625,-7.2021484375,0.54931640625,-1.2744140625,36.1669921875,-148.7933349609375
1758876195.2842906,-0.62060546875,-0.1259765625,0.26123046875,83.3740234375,1.28173828125,-1.3427734375,-0.50537109375,36.243896484375,-148.7933349609375
1758876195.2943177,-0.62060546875,-0.1259765625,0.26123046875,83.3740234375,1.28173828125,-1.3427734375,0.2471923828125,36.3262939453125,-148.798828125
1758876195.3043237,-0.74365234375,0.07958984375,0.60498046875,70.9228515625,2.50244140625,-7.26318359375,0.8404541015625,36.4251708984375,-148.8702392578125
1758876195.314676,-0.74365234375,0.07958984375,0.60498046875,70.9228515625,2.50244140625,-7.26318359375,1.439208984375,36.5240478515625,-148.941650390625
1758876195.3243694,-0.70654296875,0.185546875,0.76123046875,51.1474609375,3.84521484375,-4.2724609375,1.8731689453125,36.6339111328125,-148.963623046875
1758876195.334393,-0.70654296875,0.185546875,0.76123046875,51.1474609375,3.84521484375,-4.2724609375,2.3126220703125,36.73828125,-148.9801025390625
1758876195.344758,-0.62353515625,0.1796875,0.7265625,31.25,4.8828125,-3.84521484375,2.5653076171875,36.8536376953125,-148.985595703125
1758876195.3544185,-0.62353515625,0.1796875,0.7265625,31.25,4.8828125,-3.84521484375,2.8289794921875,36.9580078125,-148.9910888671875
1758876195.3643484,-0.5625,0.1259765625,0.80908203125,23.92578125,4.5166015625,-3.47900390625,3.0267333984375,37.056884765625,-148.9910888671875
1758876195.374399,-0.5625,0.1259765625,0.80908203125,23.92578125,4.5166015625,-3.47900390625,3.2244873046875,37.1502685546875,-148.9910888671875
1758876195.3846328,-0.53466796875,0.06982421875,0.8388671875,30.76171875,5.7373046875,-3.90625,3.49365234375,37.2491455078125,-148.99658203125
1758876195.394502,-0.53466796875,0.06982421875,0.8388671875,30.76171875,5.7373046875,-3.90625,3.768310546875,37.3370361328125,-149.0130615234375
1758876195.4044805,-0.49462890625,0.0205078125,0.83544921875,32.958984375,5.7373046875,-4.94384765625,4.0484619140625,37.4249267578125,-149.0460205078125
1758876195.4144814,-0.49462890625,0.0205078125,0.83544921875,32.958984375,5.7373046875,-4.94384765625,4.3341064453125,37.5018310546875,-149.08447265625
1758876195.424843,-0.45068359375,0.01318359375,0.81591796875,46.69189453125,5.615234375,-5.92041015625,4.7406005859375,37.5732421875,-149.1448974609375
1758876195.4345732,-0.45068359375,0.01318359375,0.81591796875,46.69189453125,5.615234375,-5.92041015625,5.1470947265625,37.63916015625,-149.2108154296875
1758876195.4444745,-0.38427734375,0.04150390625,0.89404296875,47.607421875,6.89697265625,-6.28662109375,5.55908203125,37.7105712890625,-149.293212890625
1758876195.4545147,-0.38427734375,0.04150390625,0.89404296875,47.607421875,6.89697265625,-6.28662109375,5.965576171875,37.7764892578125,-149.381103515625
1758876195.4646385,-0.2392578125,0.0205078125,0.91650390625,54.3212890625,7.99560546875,-8.7890625,6.4215087890625,37.8424072265625,-149.512939453125
1758876195.4746575,-0.2392578125,0.0205078125,0.91650390625,54.3212890625,7.99560546875,-8.7890625,6.8719482421875,37.8973388671875,-149.65576171875
1758876195.4845054,-0.2431640625,0.0419921875,0.828125,65.0634765625,9.1552734375,-9.33837890625,7.4212646484375,37.957763671875,-149.8150634765625
1758876195.4946272,-0.2431640625,0.0419921875,0.828125,65.0634765625,9.1552734375,-9.33837890625,7.965087890625,38.0126953125,-149.9853515625
1758876195.5048716,-0.19482421875,-0.0478515625,0.81103515625,81.1767578125,11.77978515625,-15.56396484375,8.6187744140625,38.0950927734375,-150.2435302734375
1758876195.5145953,-0.19482421875,-0.0478515625,0.81103515625,81.1767578125,11.77978515625,-15.56396484375,9.261474609375,38.1719970703125,-150.5126953125
1758876195.5245907,-0.345703125,-0.0078125,0.6474609375,130.43212890625,14.34326171875,-16.78466796875,10.3875732421875,38.2818603515625,-150.79833984375
1758876195.534655,-0.345703125,-0.0078125,0.6474609375,130.43212890625,14.34326171875,-16.78466796875,11.502685546875,38.3917236328125,-151.083984375
1758876195.5446963,-1.6005859375,0.52880859375,1.66357421875,82.8857421875,0.30517578125,-22.0947265625,12.1014404296875,38.3917236328125,-151.4410400390625
1758876195.5546834,-1.6005859375,0.52880859375,1.66357421875,82.8857421875,0.30517578125,-22.0947265625,12.711181640625,38.408203125,-151.7706298828125
1758876195.564679,-1.2197265625,0.7197265625,0.98583984375,-95.88623046875,1.15966796875,-11.3525390625,11.6510009765625,38.419189453125,-151.929931640625
1758876195.5746813,-1.2197265625,0.7197265625,0.98583984375,-95.88623046875,1.15966796875,-11.3525390625,10.61279296875,38.441162109375,-152.061767578125
1758876195.5850537,-0.52392578125,-0.02099609375,-0.083984375,-178.89404296875,1.15966796875,-5.7373046875,8.800048828125,38.463134765625,-152.105712890625
1758876195.5947587,-0.52392578125,-0.02099609375,-0.083984375,-178.89404296875,1.15966796875,-5.7373046875,7.0037841796875,38.5015869140625,-152.138671875
1758876195.6046991,-0.6025390625,-0.19921875,0.03271484375,-96.13037109375,4.5166015625,-6.2255859375,6.0260009765625,38.583984375,-152.16064453125
1758876195.6150038,-0.6025390625,-0.19921875,0.03271484375,-96.13037109375,4.5166015625,-6.2255859375,5.0372314453125,38.6773681640625,-152.1881103515625
1758876195.6250992,-0.80615234375,-0.1494140625,0.802734375,-54.8095703125,5.7373046875,-10.3759765625,4.427490234375,38.792724609375,-152.2705078125
1758876195.6347892,-0.80615234375,-0.1494140625,0.802734375,-54.8095703125,5.7373046875,-10.3759765625,3.80126953125,38.902587890625,-152.3638916015625
1758876195.6447496,-0.7490234375,0.06005859375,0.97998046875,-49.6826171875,7.9345703125,-3.96728515625,3.284912109375,39.0289306640625,-152.3748779296875
1758876195.6552317,-0.7490234375,0.06005859375,0.97998046875,-49.6826171875,7.9345703125,-3.96728515625,2.7685546875,39.144287109375,-152.391357421875
1758876195.6647813,-0.59375,-0.01220703125,0.6884765625,-31.1279296875,7.99560546875,-1.28173828125,2.4554443359375,39.254150390625,-152.3748779296875
1758876195.6749122,-0.59375,-0.01220703125,0.6884765625,-31.1279296875,7.99560546875,-1.28173828125,2.1478271484375,39.364013671875,-152.3583984375
1758876195.6848614,-0.54736328125,0.03173828125,0.71337890625,-30.70068359375,10.1318359375,-3.35693359375,1.82373046875,39.4903564453125,-152.3748779296875
1758876195.6953917,-0.54736328125,0.03173828125,0.71337890625,-30.70068359375,10.1318359375,-3.35693359375,1.4996337890625,39.6112060546875,-152.391357421875
1758876195.704999,-0.71337890625,0.17919921875,0.78271484375,-19.287109375,10.92529296875,-3.173828125,1.3018798828125,39.7430419921875,-152.40234375
1758876195.7149196,-0.71337890625,0.17919921875,0.78271484375,-19.287109375,10.92529296875,-3.173828125,1.1041259765625,39.869384765625,-152.40234375
1758876195.724853,-0.90185546875,0.17822265625,0.8447265625,-44.98291015625,8.7890625,0.48828125,0.6866455078125,39.9737548828125,-152.347412109375
1758876195.7348661,-0.90185546875,0.17822265625,0.8447265625,-44.98291015625,8.7890625,0.48828125,0.2801513671875,40.0836181640625,-152.2869873046875
1758876195.7454917,-0.8046875,0.1904296875,0.65185546875,-56.396484375,9.21630859375,1.0986328125,-0.230712890625,40.2044677734375,-152.2100830078125
1758876195.7549322,-0.8046875,0.1904296875,0.65185546875,-56.396484375,9.21630859375,1.0986328125,-0.736083984375,40.3253173828125,-152.127685546875
1758876195.7649293,-0.62060546875,-0.10400390625,0.513671875,-56.09130859375,9.70458984375,3.5400390625,-1.2249755859375,40.4571533203125,-152.0068359375
1758876195.7752168,-0.62060546875,-0.10400390625,0.513671875,-56.09130859375,9.70458984375,3.5400390625,-1.7193603515625,40.5889892578125,-151.89697265625
1758876195.7855673,-0.62060546875,-0.10400390625,0.513671875,-33.99658203125,10.80322265625,1.64794921875,-2.0159912109375,40.7318115234375,-151.820068359375
1758876195.7949493,-0.6240234375,-0.04736328125,0.74560546875,-7.4462890625,12.8173828125,2.50244140625,-2.17529296875,40.880126953125,-151.7376708984375
1758876195.8050404,-0.6240234375,-0.04736328125,0.74560546875,-7.4462890625,12.8173828125,2.50244140625,-2.2027587890625,41.0394287109375,-151.6607666015625
1758876195.8154306,-0.6298828125,0.06982421875,0.82666015625,-14.22119140625,13.916015625,-0.30517578125,-2.2796630859375,41.1932373046875,-151.600341796875
1758876195.825004,-0.6298828125,0.06982421875,0.82666015625,-14.22119140625,13.916015625,-0.30517578125,-2.4005126953125,41.3525390625,-151.5673828125
1758876195.835104,-0.587890625,-0.03466796875,0.76318359375,-24.59716796875,14.0380859375,-0.1220703125,-2.57080078125,41.50634765625,-151.5289306640625
1758876195.845261,-0.587890625,-0.03466796875,0.76318359375,-24.59716796875,14.0380859375,-0.1220703125,-2.7960205078125,41.6546630859375,-151.50146484375
1758876195.8550677,-0.62353515625,-0.05224609375,0.8603515625,-15.625,12.5732421875,-2.3193359375,-2.9827880859375,41.7919921875,-151.490478515625
1758876195.8650613,-0.62353515625,-0.05224609375,0.8603515625,-15.625,12.5732421875,-2.3193359375,-3.14208984375,41.912841796875,-151.50146484375
1758876195.8750768,-0.6259765625,-0.0859375,0.7685546875,3.35693359375,12.87841796875,-4.7607421875,-3.218994140625,42.03369140625,-151.534423828125
1758876195.8854833,-0.6259765625,-0.0859375,0.7685546875,3.35693359375,12.87841796875,-4.7607421875,-3.2135009765625,42.154541015625,-151.58935546875
1758876195.8950825,-0.53173828125,-0.078125,0.88134765625,9.33837890625,10.92529296875,-6.9580078125,-3.197021484375,42.2589111328125,-151.6607666015625
1758876195.9050775,-0.53173828125,-0.078125,0.88134765625,9.33837890625,10.92529296875,-6.9580078125,-3.1585693359375,42.352294921875,-151.7596435546875
1758876195.9153125,-0.669921875,0.02294921875,0.87158203125,11.8408203125,10.7421875,-9.09423828125,-3.1201171875,42.4346923828125,-151.875
1758876195.9253883,-0.669921875,0.02294921875,0.87158203125,11.8408203125,10.7421875,-9.09423828125,-3.076171875,42.5115966796875,-152.0068359375
1758876195.9351583,-0.677734375,-0.07421875,0.85791015625,57.373046875,9.33837890625,-13.48876953125,-2.8289794921875,42.5830078125,-152.171630859375
1758876195.945187,-0.677734375,-0.07421875,0.85791015625,57.373046875,9.33837890625,-13.48876953125,-2.373046875,42.64892578125,-152.3638916015625
1758876195.9555762,-0.73486328125,-0.14794921875,0.69775390625,101.9287109375,9.033203125,-19.53125,-1.73583984375,42.7093505859375,-152.6055908203125
1758876195.9654112,-0.73486328125,-0.14794921875,0.69775390625,101.9287109375,9.033203125,-19.53125,-0.9063720703125,42.7752685546875,-152.8912353515625
1758876195.975174,-0.74365234375,-0.1328125,0.67724609375,130.18798828125,3.11279296875,-22.27783203125,0.032958984375,42.8192138671875,-153.193359375
1758876195.9852135,-0.74365234375,-0.1328125,0.67724609375,130.18798828125,3.11279296875,-22.27783203125,1.0986328125,42.8411865234375,-153.52294921875
1758876195.995308,-0.7099609375,0.10205078125,0.86181640625,133.48388671875,5.67626953125,-23.193359375,2.164306640625,42.8851318359375,-153.8580322265625
1758876196.0052602,-0.7099609375,0.10205078125,0.86181640625,133.48388671875,5.67626953125,-23.193359375,3.251953125,42.9400634765625,-154.1986083984375
1758876196.0152678,-0.61865234375,-0.02197265625,0.7666015625,150.7568359375,-0.06103515625,-24.2919921875,4.4110107421875,42.9730224609375,-154.544677734375
1758876196.0252912,-0.61865234375,-0.02197265625,0.7666015625,150.7568359375,-0.06103515625,-24.2919921875,5.64697265625,42.9840087890625,-154.9127197265625
1758876196.0358264,-0.56591796875,-0.08447265625,0.9853515625,183.10546875,-3.35693359375,-27.9541015625,7.0147705078125,42.9840087890625,-155.313720703125
1758876196.0453053,-0.56591796875,-0.08447265625,0.9853515625,183.10546875,-3.35693359375,-27.9541015625,8.514404296875,42.967529296875,-155.7586669921875
1758876196.055298,-0.41650390625,-0.162109375,1.01416015625,180.11474609375,-5.7373046875,-27.03857421875,9.9920654296875,42.945556640625,-156.2200927734375
1758876196.06532,-0.41650390625,-0.162109375,1.01416015625,180.11474609375,-5.7373046875,-27.03857421875,11.436767578125,42.91259765625,-156.6925048828125
1758876196.0755837,-0.4072265625,0.2314453125,1.07421875,96.37451171875,-10.498046875,-24.35302734375,12.45849609375,42.8466796875,-157.17041015625
1758876196.0853276,-0.4072265625,0.2314453125,1.07421875,96.37451171875,-10.498046875,-24.35302734375,13.07373046875,42.7587890625,-157.6483154296875
1758876196.0953681,0.21728515625,0.09130859375,0.68310546875,64.8193359375,-7.26318359375,-26.30615234375,13.5296630859375,42.6763916015625,-158.13720703125
1758876196.105814,0.21728515625,0.09130859375,0.68310546875,64.8193359375,-7.26318359375,-26.30615234375,13.82080078125,42.593994140625,-158.653564453125
1758876196.1156392,-0.2021484375,0.28955078125,0.87451171875,102.72216796875,-11.71875,-27.16064453125,14.2877197265625,42.484130859375,-159.202880859375
1758876196.1253648,-0.2021484375,0.28955078125,0.87451171875,102.72216796875,-11.71875,-27.16064453125,14.94140625,42.352294921875,-159.7686767578125
1758876196.1354778,-0.63037109375,1.18896484375,1.4013671875,3.11279296875,-13.36669921875,-21.91162109375,15.1336669921875,42.1929931640625,-160.2960205078125
1758876196.1456583,-0.63037109375,1.18896484375,1.4013671875,3.11279296875,-13.36669921875,-21.91162109375,14.8919677734375,42.0172119140625,-160.7684326171875
1758876196.1555085,0.0302734375,-0.16552734375,0.1943359375,-68.603515625,-11.77978515625,-10.19287109375,14.381103515625,41.824951171875,-161.1529541015625
1758876196.1654298,0.0302734375,-0.16552734375,0.1943359375,-68.603515625,-11.77978515625,-10.19287109375,13.5516357421875,41.6217041015625,-161.466064453125
1758876196.1756496,-0.12060546875,-0.3427734375,0.25927734375,62.92724609375,-4.33349609375,-15.869140625,13.3648681640625,41.46240234375,-161.806640625
1758876196.1854868,-0.12060546875,-0.3427734375,0.25927734375,62.92724609375,-4.33349609375,-15.869140625,13.787841796875,41.3525390625,-162.18017578125
1758876196.1954937,-0.1455078125,-0.2099609375,-0.01171875,82.8857421875,7.568359375,-20.44677734375,14.2877197265625,41.3140869140625,-162.5701904296875
1758876196.2058237,-0.1455078125,-0.2099609375,-0.01171875,82.8857421875,7.568359375,-20.44677734375,14.8699951171875,41.3470458984375,-162.97119140625
1758876196.2155626,-0.96923828125,-0.23486328125,1.27392578125,134.33837890625,-1.77001953125,-24.35302734375,15.66650390625,41.3580322265625,-163.4051513671875
1758876196.225482,-0.96923828125,-0.23486328125,1.27392578125,134.33837890625,-1.77001953125,-24.35302734375,16.67724609375,41.3470458984375,-163.8775634765625
1758876196.2355504,-1.3857421875,1.28857421875,2.23095703125,-0.244140625,-1.220703125,-3.23486328125,17.1112060546875,41.3140869140625,-164.1961669921875
1758876196.2458706,-1.3857421875,1.28857421875,2.23095703125,-0.244140625,-1.220703125,-3.23486328125,17.0123291015625,41.253662109375,-164.35546875
1758876196.2555876,-0.7978515625,0.35595703125,0.05712890625,-143.37158203125,-14.58740234375,-12.939453125,16.1773681640625,41.1383056640625,-164.5806884765625
1758876196.2655916,-0.7978515625,0.35595703125,0.05712890625,-143.37158203125,-14.58740234375,-12.939453125,14.5953369140625,40.989990234375,-164.8553466796875
1758876196.2756362,-0.55322265625,-0.0908203125,0.08251953125,-288.57421875,-7.32421875,-3.173828125,12.37060546875,40.880126953125,-165.0201416015625
1758876196.2859375,-0.55322265625,-0.0908203125,0.08251953125,-288.57421875,-7.32421875,-3.173828125,9.481201171875,40.80322265625,-165.091552734375
1758876196.2956364,-0.55322265625,-0.0908203125,0.08251953125,-278.4423828125,-13.97705078125,-7.26318359375,6.6357421875,40.7098388671875,-165.157470703125
1758876196.3056357,-1.72998046875,0.42724609375,0.66162109375,-278.4423828125,-13.97705078125,-7.26318359375,3.8507080078125,40.616455078125,-165.21240234375
1758876196.3158188,-0.98681640625,0.3525390625,0.8408203125,-236.26708984375,-10.68115234375,14.6484375,1.3897705078125,40.5560302734375,-165.08056640625
1758876196.325657,-0.98681640625,0.3525390625,0.8408203125,-236.26708984375,-10.68115234375,14.6484375,-0.7470703125,40.506591796875,-164.783935546875
1758876196.3357332,-0.494140625,-0.2109375,-0.07373046875,-137.451171875,-7.75146484375,15.0146484375,-2.3785400390625,40.4901123046875,-164.4708251953125
1758876196.3457158,-0.494140625,-0.2109375,-0.07373046875,-137.451171875,-7.75146484375,15.0146484375,-3.5321044921875,40.5010986328125,-164.146728515625
1758876196.355961,-0.6103515625,-0.12939453125,-0.07177734375,-42.96875,2.99072265625,12.3291015625,-4.2352294921875,40.58349609375,-163.839111328125
1758876196.3656857,-0.6103515625,-0.12939453125,-0.07177734375,-42.96875,2.99072265625,12.3291015625,-4.493408203125,40.7318115234375,-163.5479736328125
1758876196.3758101,-0.74169921875,-0.1806640625,0.45947265625,-60.97412109375,3.60107421875,7.50732421875,-4.8779296875,40.8966064453125,-163.289794921875
1758876196.3858666,-0.74169921875,-0.1806640625,0.45947265625,-60.97412109375,3.60107421875,7.50732421875,-5.38330078125,41.055908203125,-163.070068359375
1758876196.3957708,-0.96826171875,0.04296875,1.23779296875,-114.74609375,3.173828125,12.8173828125,-6.141357421875,41.2042236328125,-162.828369140625
1758876196.4057357,-0.96826171875,0.04296875,1.23779296875,-114.74609375,3.173828125,12.8173828125,-7.130126953125,41.341552734375,-162.5592041015625
1758876196.4157689,-0.90283203125,-0.26806640625,1.1240234375,-25.93994140625,0.42724609375,9.1552734375,-7.6904296875,41.4459228515625,-162.3175048828125
1758876196.426166,-0.90283203125,-0.26806640625,1.1240234375,-25.93994140625,0.42724609375,9.1552734375,-7.8277587890625,41.5228271484375,-162.1197509765625
1758876196.4357874,-0.591796875,-0.3330078125,0.52734375,-4.45556640625,-0.67138671875,9.09423828125,-7.8717041015625,41.5887451171875,-161.9329833984375
1758876196.445778,-0.591796875,-0.3330078125,0.52734375,-4.45556640625,-0.67138671875,9.09423828125,-7.8167724609375,41.63818359375,-161.7626953125
1758876196.4559762,-0.5908203125,-0.04833984375,0.52294921875,6.04248046875,0.6103515625,3.47900390625,-7.745361328125,41.693115234375,-161.6363525390625
1758876196.4658813,-0.5908203125,-0.04833984375,0.52294921875,6.04248046875,0.6103515625,3.47900390625,-7.646484375,41.748046875,-161.54296875
1758876196.4758582,-0.64892578125,0.0302734375,0.8544921875,7.8125,0.79345703125,1.0986328125,-7.547607421875,41.802978515625,-161.4715576171875
1758876196.4858613,-0.64892578125,0.0302734375,0.8544921875,7.8125,0.79345703125,1.0986328125,-7.44873046875,41.846923828125,-161.4111328125
1758876196.4960752,-0.68798828125,0.02783203125,0.8359375,-19.95849609375,-0.42724609375,3.41796875,-7.470703125,41.8798828125,-161.334228515625
1758876196.5060375,-0.68798828125,0.02783203125,0.8359375,-19.95849609375,-0.42724609375,3.41796875,-7.613525390625,41.9073486328125,-161.2353515625
1758876196.5159914,-0.7509765625,-0.0859375,0.89794921875,-32.3486328125,-5.126953125,2.86865234375,-7.8167724609375,41.90185546875,-161.1419677734375
1758876196.5259783,-0.7509765625,-0.0859375,0.89794921875,-32.3486328125,-5.126953125,2.86865234375,-8.0804443359375,41.8743896484375,-161.048583984375
1758876196.5359259,-0.6005859375,-0.0732421875,0.791015625,-37.59765625,-3.90625,3.60107421875,-8.3660888671875,41.846923828125,-160.960693359375
1758876196.546348,-0.6005859375,-0.0732421875,0.791015625,-37.59765625,-3.90625,3.60107421875,-8.67919921875,41.824951171875,-160.8673095703125
1758876196.5560215,-0.52587890625,-0.12548828125,0.501953125,-0.732421875,-1.8310546875,1.0986328125,-8.8165283203125,41.8084716796875,-160.7958984375
1758876196.5660064,-0.52587890625,-0.12548828125,0.501953125,-0.732421875,-1.8310546875,1.0986328125,-8.7835693359375,41.802978515625,-160.7464599609375
1758876196.5761797,-0.64208984375,-0.24755859375,0.7138671875,22.76611328125,-0.6103515625,-2.0751953125,-8.6572265625,41.7974853515625,-160.718994140625
1758876196.58606,-0.64208984375,-0.24755859375,0.7138671875,22.76611328125,-0.6103515625,-2.0751953125,-8.4375,41.7974853515625,-160.72998046875
1758876196.596004,-0.70068359375,-0.21826171875,0.96484375,39.306640625,-0.06103515625,-3.90625,-8.15185546875,41.7919921875,-160.7574462890625
1758876196.6060672,-0.70068359375,-0.21826171875,0.96484375,39.306640625,-0.06103515625,-3.90625,-7.7947998046875,41.7864990234375,-160.806884765625
1758876196.6163344,-0.6015625,-0.07177734375,0.697265625,34.423828125,2.3193359375,-3.662109375,-7.470703125,41.7919921875,-160.8673095703125
1758876196.6261404,-0.6015625,-0.07177734375,0.697265625,34.423828125,2.3193359375,-3.662109375,-7.1685791015625,41.802978515625,-160.9222412109375
1758876196.6360729,-0.82861328125,0.0029296875,0.81787109375,27.099609375,-1.52587890625,-1.708984375,-6.8939208984375,41.802978515625,-160.960693359375
1758876196.6460931,-0.82861328125,0.0029296875,0.81787109375,27.099609375,-1.52587890625,-1.708984375,-6.6412353515625,41.7864990234375,-160.9771728515625
1758876196.6562808,-0.8388671875,0.09033203125,0.78955078125,62.8662109375,-0.54931640625,-0.8544921875,-6.2017822265625,41.7755126953125,-160.982666015625
1758876196.6660511,-0.8388671875,0.09033203125,0.78955078125,62.8662109375,-0.54931640625,-0.8544921875,-5.5755615234375,41.7755126953125,-160.9771728515625
1758876196.6760736,-0.6552734375,-0.03564453125,0.79296875,45.166015625,-3.72314453125,-1.5869140625,-5.0372314453125,41.759033203125,-160.9661865234375
1758876196.6861722,-0.6552734375,-0.03564453125,0.79296875,45.166015625,-3.72314453125,-1.5869140625,-4.5977783203125,41.72607421875,-160.960693359375
1758876196.696623,-0.55712890625,-0.068359375,0.67919921875,-21.05712890625,-2.50244140625,-0.18310546875,-4.4769287109375,41.6986083984375,-160.9552001953125
1758876196.7061434,-0.55712890625,-0.068359375,0.67919921875,-21.05712890625,-2.50244140625,-0.18310546875,-4.6856689453125,41.6766357421875,-160.938720703125
1758876196.7162223,-0.49267578125,-0.02978515625,0.57421875,-24.96337890625,-1.15966796875,-0.42724609375,-4.910888671875,41.66015625,-160.9332275390625
1758876196.7261631,-0.49267578125,-0.02978515625,0.57421875,-24.96337890625,-1.15966796875,-0.42724609375,-5.1580810546875,41.649169921875,-160.927734375
1758876196.7362704,-0.4921875,-0.041015625,0.65869140625,-19.775390625,1.40380859375,0.48828125,-5.372314453125,41.649169921875,-160.916748046875
1758876196.746162,-0.4921875,-0.041015625,0.65869140625,-19.775390625,1.40380859375,0.48828125,-5.55908203125,41.6656494140625,-160.9002685546875
1758876196.7562048,-0.578125,-0.0126953125,0.79443359375,-55.60302734375,2.3193359375,2.38037109375,-5.9161376953125,41.6766357421875,-160.8782958984375
1758876196.7661986,-0.578125,-0.0126953125,0.79443359375,-55.60302734375,2.3193359375,2.38037109375,-6.4324951171875,41.693115234375,-160.8453369140625
1758876196.7764173,-0.82763671875,-0.04931640625,1.27099609375,-62.68310546875,-3.173828125,3.23486328125,-6.976318359375,41.68212890625,-160.7958984375
1758876196.7862217,-0.82763671875,-0.04931640625,1.27099609375,-62.68310546875,-3.173828125,3.23486328125,-7.547607421875,41.63818359375,-160.7464599609375
1758876196.7962713,-0.5771484375,-0.2490234375,0.857421875,-4.7607421875,1.0986328125,6.53076171875,-7.5146484375,41.63818359375,-160.6640625
1758876196.8064737,-0.5771484375,-0.2490234375,0.857421875,-4.7607421875,1.0986328125,6.53076171875,-7.4981689453125,41.6326904296875,-160.5926513671875
1758876196.8162766,-0.4208984375,-0.36865234375,0.3310546875,47.66845703125,2.13623046875,2.74658203125,-6.998291015625,41.6326904296875,-160.587158203125
1758876196.8262882,-0.4208984375,-0.36865234375,0.3310546875,47.66845703125,2.13623046875,2.74658203125,-6.52587890625,41.6436767578125,-160.587158203125
1758876196.83663,-0.61474609375,-0.24951171875,0.65625,77.63671875,3.23486328125,-0.3662109375,-5.7843017578125,41.66015625,-160.6365966796875
1758876196.8463943,-0.61474609375,-0.24951171875,0.65625,77.63671875,3.23486328125,-0.3662109375,-5.0592041015625,41.6766357421875,-160.68603515625
1758876196.856325,-0.62109375,-0.115234375,0.9052734375,106.87255859375,5.7373046875,-2.25830078125,-4.06494140625,41.7205810546875,-160.7684326171875
1758876196.866342,-0.62109375,-0.115234375,0.9052734375,106.87255859375,5.7373046875,-2.25830078125,-3.0706787109375,41.7535400390625,-160.8563232421875
1758876196.8764966,-0.45361328125,0.00537109375,0.54443359375,65.12451171875,9.09423828125,-1.0986328125,-2.48291015625,41.8304443359375,-160.927734375
1758876196.8863478,-0.45361328125,0.00537109375,0.54443359375,65.12451171875,9.09423828125,-1.0986328125,-1.8951416015625,41.90185546875,-160.99365234375
1758876196.89632,-0.50732421875,0.21630859375,0.44873046875,6.77490234375,11.65771484375,-0.54931640625,-1.8731689453125,42.000732421875,-161.0430908203125
1758876196.9064364,-0.50732421875,0.21630859375,0.44873046875,6.77490234375,11.65771484375,-0.54931640625,-1.834716796875,42.1051025390625,-161.08154296875
1758876196.9165587,-0.9111328125,0.32080078125,1.11669921875,-8.48388671875,6.103515625,0.67138671875,-1.922607421875,42.154541015625,-161.08154296875
1758876196.9264386,-0.9111328125,0.32080078125,1.11669921875,-8.48388671875,6.103515625,0.67138671875,-1.988525390625,42.2039794921875,-161.0650634765625
1758876196.9364486,-0.90478515625,0.06396484375,1.5107421875,-52.30712890625,-0.30517578125,3.84521484375,-2.4554443359375,42.1820068359375,-161.0101318359375
1758876196.9464486,-0.90478515625,0.06396484375,1.5107421875,-52.30712890625,-0.30517578125,3.84521484375,-2.9168701171875,42.154541015625,-160.960693359375
1758876196.956608,-0.802734375,-0.11181640625,0.76025390625,-60.72998046875,-2.8076171875,4.45556640625,-3.4552001953125,42.099609375,-160.90576171875
1758876196.9664874,-0.802734375,-0.11181640625,0.76025390625,-60.72998046875,-2.8076171875,4.45556640625,-3.9990234375,42.0556640625,-160.83984375
1758876196.9764302,-0.66015625,-0.041015625,0.38134765625,-28.74755859375,-5.43212890625,5.43212890625,-4.207763671875,41.9952392578125,-160.7574462890625
1758876196.9866128,-0.66015625,-0.041015625,0.38134765625,-28.74755859375,-5.43212890625,5.43212890625,-4.4219970703125,41.94580078125,-160.6640625
1758876196.996691,-0.78759765625,-0.1025390625,0.47265625,39.6728515625,-5.126953125,3.2958984375,-3.97705078125,41.90185546875,-160.59814453125
1758876197.0064979,-0.78759765625,-0.1025390625,0.47265625,39.6728515625,-5.126953125,3.2958984375,-3.53759765625,41.868896484375,-160.5267333984375
1758876197.016542,-0.87646484375,-0.05322265625,0.8994140625,35.21728515625,-5.9814453125,4.5166015625,-3.1365966796875,41.824951171875,-160.4388427734375
1758876197.026683,-0.87646484375,-0.05322265625,0.8994140625,35.21728515625,-5.9814453125,4.5166015625,-2.7410888671875,41.7864990234375,-160.3509521484375
1758876197.0367281,-0.7626953125,0.06884765625,0.71337890625,-21.3623046875,-5.126953125,7.01904296875,-2.8839111328125,41.759033203125,-160.2301025390625
1758876197.0466404,-0.7626953125,0.06884765625,0.71337890625,-21.3623046875,-5.126953125,7.01904296875,-3.021240234375,41.7315673828125,-160.103759765625
1758876197.0566034,-0.51220703125,0.12939453125,0.36328125,-22.4609375,-1.28173828125,7.8125,-3.1640625,41.7425537109375,-159.9609375
1758876197.066863,-0.51220703125,0.12939453125,0.36328125,-22.4609375,-1.28173828125,7.8125,-3.2958984375,41.759033203125,-159.8126220703125
1758876197.0768678,-0.4462890625,0.03466796875,0.302734375,-7.080078125,2.86865234375,8.6669921875,-3.2684326171875,41.824951171875,-159.6478271484375
1758876197.08664,-0.4462890625,0.03466796875,0.302734375,-7.080078125,2.86865234375,8.6669921875,-3.2354736328125,41.890869140625,-159.4775390625
1758876197.0965803,-0.4501953125,0.0166015625,0.58642578125,-2.50244140625,7.568359375,9.6435546875,-3.153076171875,42.000732421875,-159.3017578125
1758876197.1067278,-0.4501953125,0.0166015625,0.58642578125,-2.50244140625,7.568359375,9.6435546875,-3.0706787109375,42.1051025390625,-159.1314697265625
1758876197.116658,-0.44873046875,0.04931640625,0.693359375,-11.41357421875,12.8173828125,10.92529296875,-3.065185546875,42.2589111328125,-158.9501953125
1758876197.126678,-0.44873046875,0.04931640625,0.693359375,-11.41357421875,12.8173828125,10.92529296875,-3.05419921875,42.4017333984375,-158.7744140625
1758876197.136693,-1.00439453125,-0.046875,1.228515625,-128.47900390625,5.79833984375,8.4228515625,-4.2352294921875,42.4676513671875,-158.631591796875
1758876197.1468298,-1.00439453125,-0.046875,1.228515625,-128.47900390625,5.79833984375,8.4228515625,-5.4107666015625,42.5335693359375,-158.4942626953125
1758876197.1567986,-0.9453125,-0.0771484375,1.455078125,-111.81640625,-2.197265625,17.578125,-6.328125,42.5225830078125,-158.236083984375
1758876197.1667416,-0.9453125,-0.0771484375,1.455078125,-111.81640625,-2.197265625,17.578125,-7.239990234375,42.506103515625,-157.9833984375
1758876197.1767666,-0.64013671875,-0.5458984375,0.68408203125,38.2080078125,2.3193359375,14.404296875,-6.7071533203125,42.528076171875,-157.796630859375
1758876197.1867502,-0.64013671875,-0.5458984375,0.68408203125,38.2080078125,2.3193359375,14.404296875,-6.1962890625,42.550048828125,-157.6318359375
1758876197.196724,-0.638671875,-0.48046875,0.373046875,62.5,-1.5869140625,7.75146484375,-5.526123046875,42.5335693359375,-157.5604248046875
1758876197.206732,-0.638671875,-0.48046875,0.373046875,62.5,-1.5869140625,7.75146484375,-4.8724365234375,42.5225830078125,-157.5054931640625
1758876197.2167504,-0.6171875,0.02294921875,0.72265625,68.78662109375,1.5869140625,5.0048828125,-4.185791015625,42.5390625,-157.4835205078125
1758876197.2267537,-0.6171875,0.02294921875,0.72265625,68.78662109375,1.5869140625,5.0048828125,-3.4991455078125,42.5555419921875,-157.4560546875
1758876197.2367475,-0.5009765625,0.14990234375,0.61328125,26.55029296875,4.82177734375,9.521484375,-3.18603515625,42.60498046875,-157.3681640625
1758876197.2468262,-0.5009765625,0.14990234375,0.61328125,26.55029296875,4.82177734375,9.521484375,-2.8619384765625,42.6544189453125,-157.269287109375
1758876197.2568603,-0.79443359375,0.22216796875,0.82763671875,-44.00634765625,2.25830078125,10.80322265625,-3.2135009765625,42.681884765625,-157.137451171875
1758876197.2668276,-0.79443359375,0.22216796875,0.82763671875,-44.00634765625,2.25830078125,10.80322265625,-3.548583984375,42.703857421875,-156.99462890625
1758876197.2768142,-0.8154296875,0.107421875,1.09765625,-94.23828125,-2.99072265625,13.427734375,-4.3505859375,42.681884765625,-156.8023681640625
1758876197.2868667,-0.8154296875,0.107421875,1.09765625,-94.23828125,-2.99072265625,13.427734375,-5.1416015625,42.64892578125,-156.6046142578125
1758876197.2971516,-0.49951171875,0.00830078125,0.5087890625,-68.05419921875,1.03759765625,17.63916015625,-5.625,42.6708984375,-156.3519287109375
1758876197.3068862,-0.49951171875,0.00830078125,0.5087890625,-68.05419921875,1.03759765625,17.63916015625,-6.1083984375,42.69287109375,-156.0992431640625
1758876197.316863,-0.58154296875,-0.29345703125,0.48779296875,15.31982421875,0.0,13.73291015625,-5.8062744140625,42.6983642578125,-155.9014892578125
1758876197.3268933,-0.58154296875,-0.29345703125,0.48779296875,15.31982421875,0.0,13.73291015625,-5.51513671875,42.71484375,-155.7147216796875
1758876197.3371775,-0.56201171875,-0.30908203125,0.67041015625,41.748046875,2.13623046875,10.986328125,-5.0042724609375,42.7423095703125,-155.577392578125
1758876197.3469172,-0.56201171875,-0.30908203125,0.67041015625,41.748046875,2.13623046875,10.986328125,-4.5098876953125,42.769775390625,-155.45654296875
1758876197.3568988,-0.6640625,-0.0576171875,0.84619140625,36.19384765625,3.11279296875,13.0615234375,-4.0484619140625,42.802734375,-155.3082275390625
1758876197.3669508,-0.6640625,-0.0576171875,0.84619140625,36.19384765625,3.11279296875,13.0615234375,-3.592529296875,42.8302001953125,-155.1654052734375
1758876197.3771386,-0.7255859375,0.07421875,1.06787109375,37.41455078125,-0.48828125,12.14599609375,-3.1256103515625,42.8192138671875,-155.028076171875
1758876197.3871052,-0.7255859375,0.07421875,1.06787109375,37.41455078125,-0.48828125,12.14599609375,-2.6531982421875,42.802734375,-154.8907470703125
1758876197.3970027,-0.42041015625,0.078125,0.53369140625,-9.1552734375,3.96728515625,13.0615234375,-2.63671875,42.8302001953125,-154.7369384765625
1758876197.4069736,-0.42041015625,0.078125,0.53369140625,-9.1552734375,3.96728515625,13.0615234375,-2.6092529296875,42.857666015625,-154.5831298828125
1758876197.4175673,-0.5986328125,0.09765625,0.54296875,-23.4375,1.46484375,13.12255859375,-2.7191162109375,42.857666015625,-154.4183349609375
1758876197.4271033,-0.5986328125,0.09765625,0.54296875,-23.4375,1.46484375,13.12255859375,-2.823486328125,42.86865234375,-154.2425537109375
1758876197.437126,-0.60791015625,-0.01904296875,0.93017578125,-28.4423828125,2.5634765625,15.0146484375,-2.9608154296875,42.8851318359375,-154.0447998046875
1758876197.447346,-0.60791015625,-0.01904296875,0.93017578125,-28.4423828125,2.5634765625,15.0146484375,-3.0926513671875,42.8961181640625,-153.8525390625
1758876197.4571269,-1.10498046875,-0.03466796875,1.06298828125,-32.16552734375,-3.2958984375,16.41845703125,-3.2464599609375,42.8521728515625,-153.6383056640625
1758876197.4671254,-1.10498046875,-0.03466796875,1.06298828125,-32.16552734375,-3.2958984375,16.41845703125,-3.4002685546875,42.8192138671875,-153.4130859375
1758876197.4771125,-0.8349609375,-0.0693359375,1.09716796875,-42.17529296875,-4.45556640625,18.798828125,-3.636474609375,42.7752685546875,-153.160400390625
1758876197.487438,-0.8349609375,-0.0693359375,1.09716796875,-42.17529296875,-4.45556640625,18.798828125,-3.8671875,42.725830078125,-152.90771484375
1758876197.4971285,-0.56494140625,-0.10107421875,0.28759765625,-3.96728515625,-4.21142578125,18.5546875,-3.724365234375,42.6873779296875,-152.6605224609375
1758876197.5075269,-0.56494140625,-0.10107421875,0.28759765625,-3.96728515625,-4.21142578125,18.5546875,-3.5870361328125,42.6544189453125,-152.4078369140625
1758876197.5176172,-0.61328125,-0.0205078125,0.4736328125,-14.404296875,-2.99072265625,15.380859375,-3.5870361328125,42.637939453125,-152.1990966796875
1758876197.5274892,-0.61328125,-0.0205078125,0.4736328125,-14.404296875,-2.99072265625,15.380859375,-3.58154296875,42.626953125,-151.9793701171875
1758876197.5371954,-0.56298828125,0.10107421875,0.609375,-25.146484375,1.8310546875,16.17431640625,-3.680419921875,42.6654052734375,-151.754150390625
1758876197.5471823,-0.56298828125,0.10107421875,0.609375,-25.146484375,1.8310546875,16.17431640625,-3.768310546875,42.6983642578125,-151.5179443359375
1758876197.5571644,-0.60595703125,0.0732421875,0.57421875,-42.3583984375,6.04248046875,18.73779296875,-3.9990234375,42.78076171875,-151.2432861328125
1758876197.5677848,-0.60595703125,0.0732421875,0.57421875,-42.3583984375,6.04248046875,18.73779296875,-4.229736328125,42.8631591796875,-150.963134765625
1758876197.5772383,-1.248046875,0.05029296875,1.12939453125,-71.6552734375,-0.3662109375,15.19775390625,-4.7735595703125,42.8851318359375,-150.721435546875
1758876197.5872848,-1.248046875,0.05029296875,1.12939453125,-71.6552734375,-0.3662109375,15.19775390625,-5.3173828125,42.91259765625,-150.4742431640625
1758876197.5972674,-0.947265625,-0.00341796875,1.1435546875,-121.4599609375,-4.45556640625,20.01953125,-6.3006591796875,42.901611328125,-150.150146484375
1758876197.6075523,-0.947265625,-0.00341796875,1.1435546875,-121.4599609375,-4.45556640625,20.01953125,-7.2784423828125,42.890625,-149.8260498046875
1758876197.6173031,-0.42822265625,-0.056640625,0.2890625,-104.43115234375,0.9765625,24.23095703125,-8.052978515625,42.9400634765625,-149.4525146484375
1758876197.6275363,-0.42822265625,-0.056640625,0.2890625,-104.43115234375,0.9765625,24.23095703125,-8.8275146484375,43.00048828125,-149.0789794921875
1758876197.6375296,-0.47412109375,-0.09814453125,0.19921875,-23.86474609375,3.0517578125,18.1884765625,-8.8604736328125,43.0828857421875,-148.787841796875
1758876197.647327,-0.47412109375,-0.09814453125,0.19921875,-23.86474609375,3.0517578125,18.1884765625,-8.8934326171875,43.165283203125,-148.4967041015625
1758876197.6572878,-0.60302734375,-0.15283203125,0.62451171875,6.34765625,5.4931640625,15.9912109375,-8.6572265625,43.2696533203125,-148.24951171875
1758876197.6673465,-0.60302734375,-0.15283203125,0.62451171875,6.34765625,5.4931640625,15.9912109375,-8.426513671875,43.3685302734375,-148.0023193359375
1758876197.6778266,-0.60791015625,-0.20458984375,0.921875,3.7841796875,8.7890625,19.34814453125,-8.2012939453125,43.494873046875,-147.733154296875
1758876197.6874108,-0.60791015625,-0.20458984375,0.921875,3.7841796875,8.7890625,19.34814453125,-7.9815673828125,43.6102294921875,-147.4749755859375
1758876197.6973853,-0.80908203125,-0.24462890625,1.09765625,-7.87353515625,5.67626953125,17.822265625,-7.8936767578125,43.6871337890625,-147.23876953125
1758876197.7073917,-0.80908203125,-0.24462890625,1.09765625,-7.87353515625,5.67626953125,17.822265625,-7.811279296875,43.758544921875,-147.01904296875
1758876197.7177203,-0.85009765625,0.10791015625,0.85205078125,-34.48486328125,3.72314453125,21.3623046875,-7.9486083984375,43.8134765625,-146.7333984375
1758876197.7274873,-0.85009765625,0.10791015625,0.85205078125,-34.48486328125,3.72314453125,21.3623046875,-8.0804443359375,43.8739013671875,-146.436767578125
1758876197.7374587,-0.79296875,-0.07568359375,0.7822265625,29.78515625,-0.06103515625,18.49365234375,-7.5860595703125,43.890380859375,-146.173095703125
1758876197.7477882,-0.79296875,-0.07568359375,0.7822265625,29.78515625,-0.06103515625,18.49365234375,-7.09716796875,43.9068603515625,-145.909423828125
1758876197.7575557,-0.59130859375,-0.19384765625,0.44775390625,11.90185546875,3.60107421875,16.845703125,-6.8170166015625,43.9617919921875,-145.6787109375
1758876197.7674575,-0.59130859375,-0.19384765625,0.44775390625,11.90185546875,3.60107421875,16.845703125,-6.5423583984375,44.0167236328125,-145.4534912109375
1758876197.7774317,-0.57666015625,0.00244140625,0.54248046875,-36.80419921875,3.23486328125,17.15087890625,-6.7510986328125,44.0716552734375,-145.2227783203125
1758876197.7877908,-0.57666015625,0.00244140625,0.54248046875,-36.80419921875,3.23486328125,17.15087890625,-6.954345703125,44.1265869140625,-144.986572265625
1758876197.797654,-0.6826171875,0.1083984375,0.74853515625,-59.38720703125,4.69970703125,19.6533203125,-7.349853515625,44.2034912109375,-144.7119140625
1758876197.8079915,-0.59423828125,0.01611328125,0.552734375,-69.4580078125,5.55419921875,23.4375,-7.7728271484375,44.2803955078125,-144.404296875
1758876197.8178082,-0.59423828125,0.01611328125,0.552734375,-69.4580078125,5.55419921875,23.4375,-8.2177734375,44.373779296875,-144.063720703125
1758876197.8276772,-1.06494140625,-0.17578125,0.8388671875,-25.20751953125,1.46484375,24.5361328125,-8.4320068359375,44.4451904296875,-143.7066650390625
1758876197.837895,-1.06494140625,-0.17578125,0.8388671875,-25.20751953125,1.46484375,24.5361328125,-8.426513671875,44.505615234375,-143.3441162109375
1758876197.8475652,-1.01904296875,-0.2783203125,0.97119140625,10.1318359375,0.48828125,19.287109375,-8.272705078125,44.560546875,-143.0255126953125
1758876197.8575737,-1.01904296875,-0.2783203125,0.97119140625,10.1318359375,0.48828125,19.287109375,-7.97607421875,44.6044921875,-142.7508544921875
1758876197.867638,-0.640625,-0.10986328125,0.59619140625,-44.677734375,-3.662109375,19.22607421875,-7.9595947265625,44.62646484375,-142.4761962890625
1758876197.8778691,-0.640625,-0.10986328125,0.59619140625,-44.677734375,-3.662109375,19.22607421875,-8.2122802734375,44.62646484375,-142.2015380859375
1758876197.8876278,-0.60693359375,0.16064453125,0.5439453125,-79.7119140625,-2.5634765625,20.56884765625,-8.6297607421875,44.6319580078125,-141.910400390625
1758876197.8976781,-0.60693359375,0.16064453125,0.5439453125,-79.7119140625,-2.5634765625,20.56884765625,-9.20654296875,44.6539306640625,-141.602783203125
1758876197.9076934,-0.615234375,0.06787109375,0.4296875,-50.10986328125,-2.99072265625,21.728515625,-9.613037109375,44.6759033203125,-141.2677001953125
1758876197.9179647,-0.615234375,0.06787109375,0.4296875,-50.10986328125,-2.99072265625,21.728515625,-9.8602294921875,44.6978759765625,-140.9161376953125
1758876197.9277368,-0.58984375,-0.189453125,0.46044921875,-11.962890625,0.8544921875,22.0947265625,-9.920654296875,44.747314453125,-140.5645751953125
1758876197.937693,-0.58984375,-0.189453125,0.46044921875,-11.962890625,0.8544921875,22.0947265625,-9.7998046875,44.8187255859375,-140.2239990234375
1758876197.9477713,-0.61083984375,-0.3876953125,0.69580078125,-9.8876953125,2.74658203125,18.61572265625,-9.68994140625,44.89013671875,-139.9163818359375
1758876197.9580655,-0.61083984375,-0.3876953125,0.69580078125,-9.8876953125,2.74658203125,18.61572265625,-9.613037109375,44.967041015625,-139.658203125
1758876197.9677446,-0.7255859375,-0.29541015625,0.94140625,2.01416015625,1.220703125,17.578125,-9.4866943359375,45.02197265625,-139.4219970703125
1758876197.9777358,-0.7255859375,-0.29541015625,0.94140625,2.01416015625,1.220703125,17.578125,-9.3109130859375,45.06591796875,-139.207763671875
1758876197.98816,-0.93701171875,-0.1015625,0.99072265625,59.5703125,-2.685546875,16.78466796875,-8.8494873046875,45.0823974609375,-138.9935302734375
1758876197.9978316,-0.93701171875,-0.1015625,0.99072265625,59.5703125,-2.685546875,16.78466796875,-8.10791015625,45.076904296875,-138.7847900390625
1758876198.0077977,-0.8359375,-0.0439453125,1.01953125,45.34912109375,-9.1552734375,14.09912109375,-7.437744140625,45.032958984375,-138.58154296875
1758876198.0178497,-0.8359375,-0.0439453125,1.01953125,45.34912109375,-9.1552734375,14.09912109375,-6.8499755859375,44.9505615234375,-138.394775390625
1758876198.0282416,-0.56689453125,0.1669921875,0.61474609375,-62.6220703125,-9.033203125,19.95849609375,-6.7730712890625,44.8681640625,-138.1585693359375
1758876198.0378606,-0.56689453125,0.1669921875,0.61474609375,-62.6220703125,-9.033203125,19.95849609375,-7.18505859375,44.791259765625,-137.8729248046875
1758876198.0478997,-0.55126953125,0.1201171875,0.2724609375,-73.18115234375,-7.99560546875,22.5830078125,-7.6300048828125,44.7308349609375,-137.5543212890625
1758876198.0578578,-0.55126953125,0.1201171875,0.2724609375,-73.18115234375,-7.99560546875,22.5830078125,-8.10791015625,44.681396484375,-137.2027587890625
1758876198.0682657,-0.5126953125,-0.08056640625,0.3076171875,-34.5458984375,-4.45556640625,23.3154296875,-8.382568359375,44.659423828125,-136.8402099609375
1758876198.0778663,-0.5126953125,-0.08056640625,0.3076171875,-34.5458984375,-4.45556640625,23.3154296875,-8.4649658203125,44.6649169921875,-136.4776611328125
1758876198.0879793,-0.43310546875,-0.22607421875,0.5849609375,-20.69091796875,0.18310546875,23.25439453125,-8.4869384765625,44.6923828125,-136.1260986328125
1758876198.098485,-0.43310546875,-0.22607421875,0.5849609375,-20.69091796875,0.18310546875,23.25439453125,-8.4539794921875,44.736328125,-135.791015625
1758876198.1079972,-0.43017578125,-0.24755859375,0.70654296875,-13.671875,4.2724609375,23.62060546875,-8.3990478515625,44.7967529296875,-135.472412109375
1758876198.1180012,-0.43017578125,-0.24755859375,0.70654296875,-13.671875,4.2724609375,23.62060546875,-8.3111572265625,44.8626708984375,-135.17578125
1758876198.1280098,-0.65380859375,-0.173828125,0.80322265625,28.99169921875,4.638671875,23.98681640625,-8.02001953125,44.9285888671875,-134.8846435546875
1758876198.138145,-0.65380859375,-0.173828125,0.80322265625,28.99169921875,4.638671875,23.98681640625,-7.5201416015625,44.989013671875,-134.5989990234375
1758876198.1479824,-2.1279296875,-0.763671875,1.3330078125,63.8427734375,-4.82177734375,34.3017578125,-6.7950439453125,45.0164794921875,-134.2364501953125
1758876198.1580358,-2.1279296875,-0.763671875,1.3330078125,63.8427734375,-4.82177734375,34.3017578125,-5.8612060546875,45.010986328125,-133.8079833984375
1758876198.1680593,-1.18212890625,0.08447265625,-0.0654296875,28.38134765625,-5.31005859375,26.30615234375,-5.1580810546875,45.010986328125,-133.43994140625
1758876198.1783066,-1.18212890625,0.08447265625,-0.0654296875,28.38134765625,-5.31005859375,26.30615234375,-4.669189453125,45.0274658203125,-133.1048583984375
1758876198.188075,-0.47998046875,-0.0390625,0.2099609375,-80.56640625,0.6103515625,15.2587890625,-4.779052734375,45.087890625,-132.8411865234375
1758876198.1982417,-0.47998046875,-0.0390625,0.2099609375,-80.56640625,0.6103515625,15.2587890625,-5.482177734375,45.1702880859375,-132.6544189453125
1758876198.2085617,-0.861328125,0.36083984375,0.40185546875,-64.27001953125,2.38037109375,30.45654296875,-6.0205078125,45.2801513671875,-132.3577880859375
1758876198.21825,-0.861328125,0.36083984375,0.40185546875,-64.27001953125,2.38037109375,30.45654296875,-6.383056640625,45.4119873046875,-131.923828125
1758876198.2282317,-1.056640625,0.13720703125,0.759765625,49.25537109375,7.75146484375,25.93994140625,-6.1798095703125,45.5712890625,-131.5118408203125
1758876198.2382443,-1.056640625,0.13720703125,0.759765625,49.25537109375,7.75146484375,25.93994140625,-5.42724609375,45.7470703125,-131.121826171875
1758876198.2481759,-0.74951171875,-0.0888671875,0.60595703125,-21.66748046875,7.26318359375,34.0576171875,-4.976806640625,45.9173583984375,-130.6658935546875
1758876198.2582278,-0.74951171875,-0.0888671875,0.60595703125,-21.66748046875,7.26318359375,34.0576171875,-4.844970703125,46.087646484375,-130.155029296875
1758876198.2682216,-0.68408203125,0.08349609375,0.78955078125,-46.875,7.01904296875,32.89794921875,-4.8394775390625,46.2469482421875,-129.66064453125
1758876198.2782393,-0.68408203125,0.08349609375,0.78955078125,-46.875,7.01904296875,32.89794921875,-4.9603271484375,46.395263671875,-129.166259765625
1758876198.28838,-0.66259765625,-0.1826171875,0.77978515625,-24.2919921875,7.8125,31.25,-4.9713134765625,46.5380859375,-128.682861328125
1758876198.2982175,-0.66259765625,-0.1826171875,0.77978515625,-24.2919921875,7.8125,31.25,-4.8834228515625,46.6754150390625,-128.2269287109375
1758876198.3082504,-0.6748046875,-0.16015625,0.72021484375,-25.20751953125,7.2021484375,32.53173828125,-4.7955322265625,46.8017578125,-127.77099609375
1758876198.3185096,-0.6748046875,-0.16015625,0.72021484375,-25.20751953125,7.2021484375,32.53173828125,-4.7076416015625,46.9171142578125,-127.3150634765625
1758876198.3282828,-0.66064453125,-0.0185546875,0.7587890625,-15.380859375,8.1787109375,30.029296875,-4.5867919921875,47.032470703125,-126.8865966796875
1758876198.3382857,-0.66064453125,-0.0185546875,0.7587890625,-15.380859375,8.1787109375,30.029296875,-4.4329833984375,47.1478271484375,-126.4691162109375
