timestamp,acc_x,acc_y,acc_z,gyro_x,gyro_y,gyro_z,angle_x,angle_y,angle_z
1758527144.9353225,0.7783203125,0.06005859375,0.6357421875,-4.0283203125,-4.33349609375,2.197265625,4.7735595703125,-50.6854248046875,-36.617431640625
1758527144.9454691,0.77587890625,0.04736328125,0.6376953125,-2.99072265625,-3.96728515625,1.5869140625,4.7296142578125,-50.723876953125,-36.6119384765625
1758527144.955315,0.77587890625,0.04736328125,0.6376953125,-2.99072265625,-3.96728515625,1.5869140625,4.691162109375,-50.7623291015625,-36.6009521484375
1758527144.9647737,0.77099609375,0.04052734375,0.623046875,-0.3662109375,-3.60107421875,0.67138671875,4.6856689453125,-50.7952880859375,-36.6064453125
1758527144.9747505,0.77099609375,0.04052734375,0.623046875,-0.3662109375,-3.60107421875,0.67138671875,4.68017578125,-50.8282470703125,-36.6119384765625
1758527144.9849396,0.771484375,0.05712890625,0.61767578125,0.18310546875,-3.173828125,-0.06103515625,4.6856689453125,-50.8612060546875,-36.62841796875
1758527144.9953492,0.771484375,0.05712890625,0.61767578125,0.18310546875,-3.173828125,-0.06103515625,4.691162109375,-50.888671875,-36.6448974609375
1758527145.0091915,0.77880859375,0.06494140625,0.6259765625,-0.9765625,-2.86865234375,-0.8544921875,4.6966552734375,-50.9161376953125,-36.67236328125
1758527145.0156283,0.77880859375,0.06494140625,0.6259765625,-0.9765625,-2.86865234375,-0.8544921875,4.7021484375,-50.9381103515625,-36.6998291015625
1758527145.0236077,0.7802734375,0.0556640625,0.62548828125,-1.28173828125,-3.11279296875,-1.708984375,4.7186279296875,-50.965576171875,-36.73828125
1758527145.0336444,0.7802734375,0.0556640625,0.62548828125,-1.28173828125,-3.11279296875,-1.708984375,4.7296142578125,-50.99853515625,-36.7822265625
1758527145.0436862,0.78857421875,0.04931640625,0.626953125,-1.28173828125,-3.72314453125,-2.38037109375,4.757080078125,-51.031494140625,-36.8316650390625
1758527145.0536213,0.78857421875,0.04931640625,0.626953125,-1.28173828125,-3.72314453125,-2.38037109375,4.779052734375,-51.064453125,-36.881103515625
1758527145.063621,0.78271484375,0.04541015625,0.623046875,-0.244140625,-4.2724609375,-2.86865234375,4.8175048828125,-51.1029052734375,-36.9415283203125
1758527145.0736463,0.78271484375,0.04541015625,0.623046875,-0.244140625,-4.2724609375,-2.86865234375,4.8504638671875,-51.141357421875,-36.9964599609375
1758527145.0836334,0.7724609375,0.05078125,0.61376953125,0.54931640625,-4.45556640625,-3.173828125,4.89990234375,-51.185302734375,-37.0623779296875
1758527145.0941727,0.7724609375,0.05078125,0.61376953125,0.54931640625,-4.45556640625,-3.173828125,4.9493408203125,-51.2237548828125,-37.122802734375
1758527145.1037655,0.765625,0.05078125,0.60302734375,0.3662109375,-4.45556640625,-3.47900390625,5.0042724609375,-51.26220703125,-37.188720703125
1758527145.114197,0.765625,0.05078125,0.60302734375,0.3662109375,-4.45556640625,-3.47900390625,5.0537109375,-51.30615234375,-37.2601318359375
1758527145.1245234,0.7841796875,0.0517578125,0.61474609375,0.1220703125,-4.69970703125,-3.60107421875,5.1031494140625,-51.3446044921875,-37.3260498046875
1758527145.1337934,0.7841796875,0.0517578125,0.61474609375,0.1220703125,-4.69970703125,-3.60107421875,5.152587890625,-51.3885498046875,-37.3919677734375
1758527145.1437092,0.794921875,0.03857421875,0.62744140625,2.25830078125,-4.94384765625,-3.662109375,5.2239990234375,-51.43798828125,-37.46337890625
1758527145.1537123,0.794921875,0.03857421875,0.62744140625,2.25830078125,-4.94384765625,-3.662109375,5.2899169921875,-51.48193359375,-37.5347900390625
1758527145.163779,0.77880859375,0.04150390625,0.6103515625,3.662109375,-5.2490234375,-3.60107421875,5.3778076171875,-51.5313720703125,-37.606201171875
1758527145.1737535,0.77880859375,0.04150390625,0.6103515625,3.662109375,-5.2490234375,-3.60107421875,5.460205078125,-51.5753173828125,-37.672119140625
1758527145.1837578,0.775390625,0.05517578125,0.59716796875,3.23486328125,-5.55419921875,-3.2958984375,5.5316162109375,-51.6302490234375,-37.738037109375
1758527145.1937947,0.775390625,0.05517578125,0.59716796875,3.23486328125,-5.55419921875,-3.2958984375,5.6085205078125,-51.6796875,-37.803955078125
1758527145.2037895,0.7841796875,0.05859375,0.60546875,1.708984375,-6.16455078125,-2.685546875,5.657958984375,-51.7401123046875,-37.8643798828125
1758527145.2138073,0.7841796875,0.05859375,0.60546875,1.708984375,-6.16455078125,-2.685546875,5.712890625,-51.7950439453125,-37.9193115234375
1758527145.223838,0.79345703125,0.0595703125,0.60888671875,0.48828125,-7.080078125,-2.0751953125,5.745849609375,-51.866455078125,-37.96875
1758527145.2338238,0.79345703125,0.0595703125,0.60888671875,0.48828125,-7.080078125,-2.0751953125,5.7843017578125,-51.932373046875,-38.0181884765625
1758527145.2438502,0.7861328125,0.037109375,0.59814453125,1.0986328125,-8.4228515625,-1.708984375,5.8172607421875,-52.0147705078125,-38.0621337890625
1758527145.253856,0.7861328125,0.037109375,0.59814453125,1.0986328125,-8.4228515625,-1.708984375,5.855712890625,-52.09716796875,-38.1060791015625
1758527145.2639058,0.7822265625,0.04443359375,0.58740234375,2.685546875,-10.009765625,-0.9765625,5.899658203125,-52.1905517578125,-38.1390380859375
1758527145.2738771,0.7822265625,0.04443359375,0.58740234375,2.685546875,-10.009765625,-0.9765625,5.9490966796875,-52.2894287109375,-38.177490234375
1758527145.283921,0.79736328125,0.05615234375,0.5849609375,1.89208984375,-11.29150390625,-0.1220703125,5.9765625,-52.40478515625,-38.199462890625
1758527145.2939265,0.79736328125,0.05615234375,0.5849609375,1.89208984375,-11.29150390625,-0.1220703125,6.0040283203125,-52.5146484375,-38.221435546875
1758527145.3039377,0.81103515625,0.06884765625,0.6181640625,0.0,-12.0849609375,0.6103515625,6.0040283203125,-52.635498046875,-38.232421875
1758527145.3139372,0.81103515625,0.06884765625,0.6181640625,0.0,-12.0849609375,0.6103515625,6.009521484375,-52.7508544921875,-38.2489013671875
1758527145.3240614,0.841796875,0.044921875,0.61474609375,0.0,-12.3291015625,0.9765625,6.0040283203125,-52.877197265625,-38.25439453125
1758527145.3339443,0.841796875,0.044921875,0.61474609375,0.0,-12.3291015625,0.9765625,6.0040283203125,-52.998046875,-38.2598876953125
1758527145.3440194,0.8603515625,0.037109375,0.638671875,4.0283203125,-12.20703125,0.732421875,6.04248046875,-53.118896484375,-38.2708740234375
1758527145.3539898,0.8603515625,0.037109375,0.638671875,4.0283203125,-12.20703125,0.732421875,6.0809326171875,-53.2342529296875,-38.2818603515625
1758527145.3640087,0.8134765625,0.03857421875,0.6162109375,7.32421875,-12.51220703125,0.54931640625,6.1578369140625,-53.360595703125,-38.29833984375
1758527145.3740313,0.8134765625,0.03857421875,0.6162109375,7.32421875,-12.51220703125,0.54931640625,6.229248046875,-53.4814453125,-38.3148193359375
1758527145.3840938,0.79443359375,0.072265625,0.580078125,7.87353515625,-12.451171875,0.8544921875,6.30615234375,-53.602294921875,-38.3258056640625
1758527145.3940446,0.79443359375,0.072265625,0.580078125,7.87353515625,-12.451171875,0.8544921875,6.383056640625,-53.72314453125,-38.34228515625
1758527145.4040897,0.80712890625,0.07861328125,0.59423828125,5.615234375,-10.498046875,1.0986328125,6.4324951171875,-53.822021484375,-38.34228515625
1758527145.414072,0.80712890625,0.07861328125,0.59423828125,5.615234375,-10.498046875,1.0986328125,6.48193359375,-53.9208984375,-38.353271484375
1758527145.4245293,0.79150390625,0.0703125,0.58056640625,1.220703125,-7.50732421875,1.03759765625,6.4874267578125,-53.9923095703125,-38.353271484375
1758527145.434131,0.79150390625,0.0703125,0.58056640625,1.220703125,-7.50732421875,1.03759765625,6.4874267578125,-54.063720703125,-38.353271484375
1758527145.4442723,0.7939453125,0.07421875,0.56787109375,-1.77001953125,-5.126953125,1.220703125,6.4599609375,-54.107666015625,-38.3477783203125
1758527145.4541488,0.7939453125,0.07421875,0.56787109375,-1.77001953125,-5.126953125,1.220703125,6.427001953125,-54.1571044921875,-38.34228515625
1758527145.4642353,0.81298828125,0.06982421875,0.60107421875,-3.11279296875,-3.5400390625,1.3427734375,6.383056640625,-54.1900634765625,-38.331298828125
1758527145.474178,0.81298828125,0.06982421875,0.60107421875,-3.11279296875,-3.5400390625,1.3427734375,6.339111328125,-54.2230224609375,-38.3203125
1758527145.4844346,0.8369140625,0.06787109375,0.59521484375,-3.7841796875,-2.197265625,0.79345703125,6.2896728515625,-54.239501953125,-38.3203125
1758527145.4942045,0.8369140625,0.06787109375,0.59521484375,-3.7841796875,-2.197265625,0.79345703125,6.2457275390625,-54.2559814453125,-38.3148193359375
1758527145.5046031,0.8193359375,0.06396484375,0.6142578125,-2.99072265625,-0.67138671875,-0.18310546875,6.21826171875,-54.261474609375,-38.3258056640625
1758527145.514416,0.8193359375,0.06396484375,0.6142578125,-2.99072265625,-0.67138671875,-0.18310546875,6.1907958984375,-54.261474609375,-38.3367919921875
1758527145.5245345,0.81103515625,0.0625,0.57421875,-1.46484375,1.40380859375,-1.3427734375,6.1907958984375,-54.239501953125,-38.3642578125
1758527145.5346704,0.8076171875,0.0458984375,0.56640625,0.79345703125,3.11279296875,-1.953125,6.207275390625,-54.2120361328125,-38.3917236328125
1758527145.5447695,0.8076171875,0.0458984375,0.56640625,0.79345703125,3.11279296875,-1.953125,6.2347412109375,-54.1790771484375,-38.4246826171875
1758527145.554508,0.7919921875,0.07666015625,0.572265625,-1.15966796875,2.86865234375,-1.8310546875,6.2567138671875,-54.140625,-38.4521484375
1758527145.5647228,0.7919921875,0.07666015625,0.572265625,-1.15966796875,2.86865234375,-1.8310546875,6.26220703125,-54.1131591796875,-38.4796142578125
1758527145.5744324,0.822265625,0.05859375,0.5947265625,-1.89208984375,2.38037109375,-1.03759765625,6.26220703125,-54.0802001953125,-38.5015869140625
1758527145.5851374,0.822265625,0.05859375,0.5947265625,-1.89208984375,2.38037109375,-1.03759765625,6.251220703125,-54.0582275390625,-38.51806640625
1758527145.5945377,0.8291015625,0.04296875,0.55615234375,-2.5634765625,2.38037109375,-0.3662109375,6.2347412109375,-54.03076171875,-38.529052734375
1758527145.6046233,0.8291015625,0.04296875,0.55615234375,-2.5634765625,2.38037109375,-0.3662109375,6.207275390625,-54.0087890625,-38.5345458984375
1758527145.6158116,0.78759765625,0.064453125,0.58154296875,1.220703125,0.79345703125,-0.67138671875,6.207275390625,-53.9923095703125,-38.5400390625
1758527145.6247864,0.78759765625,0.064453125,0.58154296875,1.220703125,0.79345703125,-0.67138671875,6.2237548828125,-53.98681640625,-38.5455322265625
1758527145.6345847,0.802734375,0.052734375,0.5361328125,3.662109375,-0.8544921875,-2.44140625,6.2677001953125,-53.98681640625,-38.572998046875
1758527145.645466,0.802734375,0.052734375,0.5361328125,3.662109375,-0.8544921875,-2.44140625,6.3336181640625,-53.9923095703125,-38.616943359375
1758527145.6548207,0.80126953125,0.08349609375,0.53466796875,7.9345703125,-2.0751953125,-5.2490234375,6.4434814453125,-54.0087890625,-38.682861328125
1758527145.66481,0.80126953125,0.08349609375,0.53466796875,7.9345703125,-2.0751953125,-5.2490234375,6.5972900390625,-54.0252685546875,-38.770751953125
1758527145.6762295,0.81982421875,0.08984375,0.580078125,8.056640625,-2.74658203125,-8.1787109375,6.7730712890625,-54.0472412109375,-38.8861083984375
1758527145.6852639,0.81982421875,0.08984375,0.580078125,8.056640625,-2.74658203125,-8.1787109375,6.96533203125,-54.0692138671875,-39.0234375
1758527145.694721,0.857421875,0.109375,0.603515625,8.48388671875,-1.953125,-10.1318359375,7.1795654296875,-54.0802001953125,-39.1827392578125
1758527145.7053027,0.857421875,0.109375,0.603515625,8.48388671875,-1.953125,-10.1318359375,7.40478515625,-54.0911865234375,-39.35302734375
1758527145.7160969,0.85791015625,0.06494140625,0.6171875,8.30078125,0.48828125,-10.25390625,7.6300048828125,-54.0911865234375,-39.5233154296875
1758527145.7254083,0.85791015625,0.06494140625,0.6171875,8.30078125,0.48828125,-10.25390625,7.8497314453125,-54.07470703125,-39.6881103515625
1758527145.736553,0.81494140625,0.037109375,0.58544921875,9.765625,1.3427734375,-8.48388671875,8.0584716796875,-54.052734375,-39.83642578125
1758527145.74581,0.81494140625,0.037109375,0.58544921875,9.765625,1.3427734375,-8.48388671875,8.26171875,-54.03076171875,-39.9737548828125
1758527145.7557514,0.8154296875,0.0712890625,0.57763671875,7.6904296875,1.52587890625,-5.7373046875,8.4320068359375,-54.0087890625,-40.0836181640625
1758527145.765913,0.8154296875,0.0712890625,0.57763671875,7.6904296875,1.52587890625,-5.7373046875,8.5748291015625,-53.9923095703125,-40.1715087890625
1758527145.7767203,0.828125,0.1171875,0.58935546875,-0.6103515625,2.62451171875,-3.5400390625,8.6572265625,-53.96484375,-40.2374267578125
1758527145.78538,0.828125,0.1171875,0.58935546875,-0.6103515625,2.62451171875,-3.5400390625,8.6846923828125,-53.9373779296875,-40.286865234375
1758527145.7961323,0.828125,0.1171875,0.58935546875,-7.14111328125,3.47900390625,-2.8076171875,8.6737060546875,-53.9044189453125,-40.3253173828125
1758527145.8059535,0.78955078125,0.1142578125,0.62060546875,-7.14111328125,3.47900390625,-2.8076171875,8.6297607421875,-53.865966796875,-40.36376953125
1758527145.8150742,0.796875,0.0751953125,0.5126953125,-8.60595703125,3.7841796875,-3.2958984375,8.580322265625,-53.8275146484375,-40.4022216796875
1758527145.8253407,0.796875,0.0751953125,0.5126953125,-8.60595703125,3.7841796875,-3.2958984375,8.5308837890625,-53.7890625,-40.4461669921875
1758527145.8360536,0.83203125,0.0732421875,0.6015625,-5.2490234375,4.69970703125,-4.2724609375,8.50341796875,-53.7451171875,-40.49560546875
1758527145.8448985,0.83203125,0.0732421875,0.6015625,-5.2490234375,4.69970703125,-4.2724609375,8.492431640625,-53.6956787109375,-40.550537109375
1758527145.8549516,0.8310546875,0.08642578125,0.64599609375,-3.90625,5.18798828125,-4.5166015625,8.492431640625,-53.646240234375,-40.60546875
1758527145.86515,0.8310546875,0.08642578125,0.64599609375,-3.90625,5.18798828125,-4.5166015625,8.50341796875,-53.5858154296875,-40.660400390625
1758527145.875581,0.857421875,0.10888671875,0.60205078125,-5.67626953125,5.615234375,-4.33349609375,8.4979248046875,-53.5308837890625,-40.7208251953125
1758527145.8852487,0.857421875,0.10888671875,0.60205078125,-5.67626953125,5.615234375,-4.33349609375,8.4869384765625,-53.470458984375,-40.7757568359375
1758527145.894958,0.86669921875,0.0546875,0.6376953125,-2.197265625,6.2255859375,-4.57763671875,8.492431640625,-53.4100341796875,-40.8306884765625
1758527145.9056017,0.86669921875,0.0546875,0.6376953125,-2.197265625,6.2255859375,-4.57763671875,8.514404296875,-53.3441162109375,-40.8856201171875
1758527145.915026,0.86962890625,0.04736328125,0.64453125,6.2255859375,6.40869140625,-5.37109375,8.580322265625,-53.2781982421875,-40.946044921875
1758527145.9252882,0.86962890625,0.04736328125,0.64453125,6.2255859375,6.40869140625,-5.37109375,8.6956787109375,-53.2122802734375,-41.011962890625
1758527145.9361937,0.83447265625,0.095703125,0.62646484375,9.21630859375,6.16455078125,-5.2490234375,8.8165283203125,-53.1463623046875,-41.077880859375
1758527145.944989,0.83447265625,0.095703125,0.62646484375,9.21630859375,6.16455078125,-5.2490234375,8.9593505859375,-53.0804443359375,-41.143798828125
1758527145.9549618,0.84814453125,0.09521484375,0.60400390625,3.60107421875,5.92041015625,-3.90625,9.0582275390625,-53.0145263671875,-41.19873046875
1758527145.969508,0.84814453125,0.09521484375,0.60400390625,3.60107421875,5.92041015625,-3.90625,9.1241455078125,-52.9541015625,-41.24267578125
1758527145.9784894,0.86572265625,0.07763671875,0.65478515625,1.0986328125,5.2490234375,-2.01416015625,9.16259765625,-52.899169921875,-41.2701416015625
1758527145.985538,0.86572265625,0.07763671875,0.65478515625,1.0986328125,5.2490234375,-2.01416015625,9.1790771484375,-52.8497314453125,-41.2811279296875
1758527145.995834,0.849609375,0.08154296875,0.62890625,-1.28173828125,3.5400390625,-0.1220703125,9.173583984375,-52.811279296875,-41.2811279296875
1758527146.0058358,0.849609375,0.08154296875,0.62890625,-1.28173828125,3.5400390625,-0.1220703125,9.1461181640625,-52.7783203125,-41.2701416015625
1758527146.0150838,0.86962890625,0.05908203125,0.60888671875,3.7841796875,1.64794921875,1.03759765625,9.1351318359375,-52.75634765625,-41.2481689453125
1758527146.0254436,0.86962890625,0.05908203125,0.60888671875,3.7841796875,1.64794921875,1.03759765625,9.1461181640625,-52.7508544921875,-41.220703125
1758527146.0386584,0.85595703125,0.03369140625,0.63916015625,9.033203125,0.1220703125,1.5869140625,9.1790771484375,-52.745361328125,-41.1932373046875
1758527146.044973,0.85595703125,0.03369140625,0.63916015625,9.033203125,0.1220703125,1.5869140625,9.2340087890625,-52.75634765625,-41.1602783203125
1758527146.0550468,0.8251953125,0.14404296875,0.6318359375,1.28173828125,-1.5869140625,3.0517578125,9.239501953125,-52.7728271484375,-41.1163330078125
1758527146.0710256,0.8251953125,0.14404296875,0.6318359375,1.28173828125,-1.5869140625,3.0517578125,9.2010498046875,-52.7947998046875,-41.06689453125
1758527146.0785325,0.8408203125,0.1708984375,0.5908203125,-11.65771484375,-2.50244140625,5.31005859375,9.0911865234375,-52.8277587890625,-41.0009765625
1758527146.0852647,0.8408203125,0.1708984375,0.5908203125,-11.65771484375,-2.50244140625,5.31005859375,8.909912109375,-52.8607177734375,-40.9185791015625
1758527146.1019943,0.84814453125,0.01513671875,0.6376953125,-4.08935546875,-3.35693359375,5.92041015625,8.7615966796875,-52.9046630859375,-40.8306884765625
1758527146.1084237,0.84814453125,0.01513671875,0.6376953125,-4.08935546875,-3.35693359375,5.92041015625,8.646240234375,-52.9486083984375,-40.7373046875
1758527146.11554,0.83740234375,0.009765625,0.5966796875,6.8359375,-4.82177734375,5.615234375,8.59130859375,-53.0035400390625,-40.6494140625
1758527146.1250997,0.83740234375,0.009765625,0.5966796875,6.8359375,-4.82177734375,5.615234375,8.580322265625,-53.0584716796875,-40.5670166015625
1758527146.1410666,0.84423828125,0.1611328125,0.59375,-3.2958984375,-5.4931640625,6.591796875,8.5198974609375,-53.1243896484375,-40.4791259765625
1758527146.1471088,0.84423828125,0.1611328125,0.59375,-3.2958984375,-5.4931640625,6.591796875,8.404541015625,-53.1903076171875,-40.3802490234375
1758527146.1551726,0.83740234375,0.14599609375,0.626953125,-15.93017578125,-5.92041015625,8.9111328125,8.2177734375,-53.26171875,-40.2593994140625
1758527146.165654,0.83740234375,0.14599609375,0.626953125,-15.93017578125,-5.92041015625,8.9111328125,7.9541015625,-53.3331298828125,-40.1275634765625
1758527146.1753156,0.79931640625,0.0322265625,0.5732421875,-10.55908203125,-6.34765625,9.58251953125,7.7178955078125,-53.4100341796875,-39.990234375
1758527146.185219,0.79931640625,0.0322265625,0.5732421875,-10.55908203125,-6.34765625,9.58251953125,7.4981689453125,-53.4869384765625,-39.847412109375
1758527146.1951945,0.7734375,-0.01171875,0.55224609375,3.5400390625,-6.591796875,8.1787109375,7.36083984375,-53.5638427734375,-39.715576171875
1758527146.205455,0.7734375,-0.01171875,0.55224609375,3.5400390625,-6.591796875,8.1787109375,7.294921875,-53.6407470703125,-39.5892333984375
1758527146.215273,0.81787109375,0.1279296875,0.560546875,0.0,-6.34765625,7.38525390625,7.2125244140625,-53.712158203125,-39.473876953125
1758527146.2252326,0.81787109375,0.1279296875,0.560546875,0.0,-6.34765625,7.38525390625,7.1246337890625,-53.7890625,-39.364013671875
1758527146.2354705,0.8095703125,0.18017578125,0.64306640625,-14.95361328125,-5.4931640625,8.85009765625,6.954345703125,-53.8604736328125,-39.2376708984375
1758527146.2452836,0.8095703125,0.18017578125,0.64306640625,-14.95361328125,-5.4931640625,8.85009765625,6.7071533203125,-53.9208984375,-39.1058349609375
1758527146.2552896,0.7802734375,0.03173828125,0.56103515625,-16.2353515625,-5.0048828125,9.1552734375,6.448974609375,-53.9813232421875,-38.9739990234375
1758527146.2657988,0.7802734375,0.03173828125,0.56103515625,-16.2353515625,-5.0048828125,9.1552734375,6.185302734375,-54.0362548828125,-38.836669921875
1758527146.2753904,0.7314453125,-0.017578125,0.55615234375,2.685546875,-4.5166015625,7.01904296875,6.0260009765625,-54.0911865234375,-38.7158203125
1758527146.2853632,0.7314453125,-0.017578125,0.55615234375,2.685546875,-4.5166015625,7.01904296875,5.965576171875,-54.140625,-38.6114501953125
1758527146.2953522,0.6767578125,0.07373046875,0.4599609375,6.53076171875,-3.173828125,5.79833984375,5.9326171875,-54.1790771484375,-38.51806640625
1758527146.3054888,0.6767578125,0.07373046875,0.4599609375,6.53076171875,-3.173828125,5.79833984375,5.9271240234375,-54.217529296875,-38.43017578125
1758527146.3155465,0.65185546875,0.16552734375,0.4794921875,-9.09423828125,0.244140625,6.53076171875,5.8392333984375,-54.2340087890625,-38.3367919921875
1758527146.3253787,0.65185546875,0.16552734375,0.4794921875,-9.09423828125,0.244140625,6.53076171875,5.6744384765625,-54.2340087890625,-38.232421875
1758527146.3356104,0.6767578125,0.06640625,0.5361328125,-22.0947265625,3.662109375,7.62939453125,5.438232421875,-54.217529296875,-38.12255859375
1758527146.3454947,0.6767578125,0.06640625,0.5361328125,-22.0947265625,3.662109375,7.62939453125,5.130615234375,-54.1845703125,-37.9962158203125
1758527146.355544,0.70703125,-0.01171875,0.49609375,-12.02392578125,5.92041015625,6.591796875,4.8724365234375,-54.140625,-37.8863525390625
1758527146.365932,0.70703125,-0.01171875,0.49609375,-12.02392578125,5.92041015625,6.591796875,4.6746826171875,-54.0802001953125,-37.7764892578125
1758527146.3755128,0.708984375,-0.02294921875,0.54345703125,7.6904296875,6.9580078125,4.39453125,4.581298828125,-54.019775390625,-37.68310546875
1758527146.3855104,0.708984375,-0.02294921875,0.54345703125,7.6904296875,6.9580078125,4.39453125,4.5977783203125,-53.9483642578125,-37.606201171875
1758527146.395948,0.83203125,0.09326171875,0.5302734375,4.5166015625,6.89697265625,3.23486328125,4.603271484375,-53.8824462890625,-37.540283203125
1758527146.4057026,0.83203125,0.09326171875,0.5302734375,4.5166015625,6.89697265625,3.23486328125,4.603271484375,-53.8165283203125,-37.4798583984375
1758527146.4155772,0.8701171875,0.10009765625,0.689453125,-4.69970703125,7.01904296875,3.60107421875,4.559326171875,-53.7506103515625,-37.41943359375
1758527146.4255745,0.8701171875,0.10009765625,0.689453125,-4.69970703125,7.01904296875,3.60107421875,4.4659423828125,-53.6846923828125,-37.353515625
1758527146.4358451,0.84521484375,0.02783203125,0.60791015625,-9.09423828125,7.14111328125,4.08935546875,4.3505859375,-53.6187744140625,-37.28759765625
1758527146.4455955,0.84521484375,0.02783203125,0.60791015625,-9.09423828125,7.14111328125,4.08935546875,4.207763671875,-53.5528564453125,-37.2161865234375
1758527146.4557498,0.79248046875,0.02294921875,0.599609375,-0.8544921875,7.8125,2.86865234375,4.1143798828125,-53.4814453125,-37.15576171875
1758527146.465976,0.79248046875,0.02294921875,0.599609375,-0.8544921875,7.8125,2.86865234375,4.06494140625,-53.404541015625,-37.100830078125
1758527146.4756582,0.79638671875,0.01318359375,0.5693359375,7.99560546875,7.50732421875,1.46484375,4.0704345703125,-53.3331298828125,-37.0623779296875
1758527146.4856753,0.79638671875,0.01318359375,0.5693359375,7.99560546875,7.50732421875,1.46484375,4.1253662109375,-53.26171875,-37.0294189453125
1758527146.4956236,0.8291015625,0.103515625,0.59619140625,2.8076171875,7.32421875,0.3662109375,4.163818359375,-53.1903076171875,-37.0074462890625
1758527146.5057569,0.8291015625,0.103515625,0.59619140625,2.8076171875,7.32421875,0.3662109375,4.185791015625,-53.118896484375,-36.990966796875
1758527146.5157545,0.84912109375,0.068359375,0.6396484375,-6.65283203125,7.38525390625,0.54931640625,4.10888671875,-53.052978515625,-36.9744873046875
1758527146.5256782,0.84912109375,0.068359375,0.6396484375,-6.65283203125,7.38525390625,0.54931640625,4.0374755859375,-52.9815673828125,-36.9635009765625
1758527146.5359461,0.82763671875,0.013671875,0.6259765625,-5.67626953125,6.591796875,0.54931640625,3.97705078125,-52.921142578125,-36.947021484375
1758527146.5457492,0.82763671875,0.013671875,0.6259765625,-5.67626953125,6.591796875,0.54931640625,3.9111328125,-52.8607177734375,-36.9305419921875
1758527146.5557861,0.8466796875,0.0283203125,0.611328125,3.2958984375,4.57763671875,-0.6103515625,3.9495849609375,-52.8167724609375,-36.93603515625
1758527146.5687923,0.8466796875,0.0283203125,0.611328125,3.2958984375,4.57763671875,-0.6103515625,3.988037109375,-52.7728271484375,-36.9415283203125
1758527146.5791981,0.8505859375,0.03857421875,0.6123046875,6.89697265625,1.89208984375,-2.01416015625,4.0814208984375,-52.7618408203125,-36.968994140625
1758527146.5857959,0.8505859375,0.03857421875,0.6123046875,6.89697265625,1.89208984375,-2.01416015625,4.1748046875,-52.745361328125,-37.001953125
1758527146.6009314,0.8701171875,0.07373046875,0.625,0.0,-0.3662109375,-1.8310546875,4.2022705078125,-52.75634765625,-37.0294189453125
1758527146.607475,0.8701171875,0.07373046875,0.625,0.0,-0.3662109375,-1.8310546875,4.2242431640625,-52.7618408203125,-37.056884765625
1758527146.6158874,0.86767578125,0.0556640625,0.64990234375,-7.38525390625,-2.44140625,-0.67138671875,4.163818359375,-52.789306640625,-37.0623779296875
1758527146.6260314,0.86767578125,0.0556640625,0.64990234375,-7.38525390625,-2.44140625,-0.67138671875,4.10888671875,-52.822265625,-37.0733642578125
1758527146.6359448,0.86279296875,0.0009765625,0.62939453125,-2.86865234375,-4.45556640625,-0.30517578125,4.0869140625,-52.8717041015625,-37.0843505859375
1758527146.6458313,0.86279296875,0.0009765625,0.62939453125,-2.86865234375,-4.45556640625,-0.30517578125,4.06494140625,-52.921142578125,-37.08984375
1758527146.655885,0.85302734375,0.0224609375,0.63427734375,1.64794921875,-6.34765625,-0.732421875,4.097900390625,-52.987060546875,-37.100830078125
1758527146.6660426,0.85302734375,0.0224609375,0.63427734375,1.64794921875,-6.34765625,-0.732421875,4.1253662109375,-53.052978515625,-37.1173095703125
1758527146.6759543,0.859375,0.07861328125,0.60546875,-2.44140625,-8.23974609375,-0.732421875,4.1143798828125,-53.1353759765625,-37.1337890625
1758527146.6859396,0.859375,0.07861328125,0.60546875,-2.44140625,-8.23974609375,-0.732421875,4.10888671875,-53.2232666015625,-37.15576171875
1758527146.695937,0.87060546875,0.0302734375,0.61865234375,-4.08935546875,-9.6435546875,-0.67138671875,4.0869140625,-53.3221435546875,-37.1722412109375
1758527146.70611,0.87060546875,0.0302734375,0.61865234375,-4.08935546875,-9.6435546875,-0.67138671875,4.06494140625,-53.4210205078125,-37.1942138671875
1758527146.715958,0.86376953125,0.0234375,0.6298828125,-0.18310546875,-10.8642578125,-0.91552734375,4.0814208984375,-53.5308837890625,-37.2161865234375
1758527146.7259507,0.86376953125,0.0234375,0.6298828125,-0.18310546875,-10.8642578125,-0.91552734375,4.097900390625,-53.6407470703125,-37.24365234375
1758527146.7362018,0.8330078125,0.01416015625,0.59326171875,2.86865234375,-11.3525390625,-1.46484375,4.1583251953125,-53.756103515625,-37.276611328125
1758527146.7459676,0.8330078125,0.01416015625,0.59326171875,2.86865234375,-11.3525390625,-1.46484375,4.207763671875,-53.8714599609375,-37.3095703125
1758527146.7561836,0.8564453125,0.07470703125,0.62158203125,0.67138671875,-11.71875,-1.28173828125,4.24072265625,-53.98681640625,-37.342529296875
1758527146.7661605,0.8564453125,0.07470703125,0.62158203125,0.67138671875,-11.71875,-1.28173828125,4.273681640625,-54.1021728515625,-37.37548828125
1758527146.7760792,0.84521484375,0.04443359375,0.60302734375,1.5869140625,-12.8173828125,-0.8544921875,4.3121337890625,-54.228515625,-37.4029541015625
1758527146.786061,0.84521484375,0.04443359375,0.60302734375,1.5869140625,-12.8173828125,-0.8544921875,4.3505859375,-54.3548583984375,-37.430419921875
1758527146.7961264,0.84521484375,0.04443359375,0.60302734375,6.591796875,-13.671875,-1.3427734375,4.449462890625,-54.4866943359375,-37.4688720703125
1758527146.806184,0.8447265625,0.00048828125,0.58203125,6.591796875,-13.671875,-1.3427734375,4.537353515625,-54.6185302734375,-37.50732421875
1758527146.8160913,0.8017578125,0.02099609375,0.59130859375,11.65771484375,-14.09912109375,-1.77001953125,4.6856689453125,-54.755859375,-37.5567626953125
1758527146.8261497,0.8017578125,0.02099609375,0.59130859375,11.65771484375,-14.09912109375,-1.77001953125,4.833984375,-54.8931884765625,-37.606201171875
1758527146.836283,0.736328125,0.06689453125,0.52197265625,9.8876953125,-13.7939453125,-1.28173828125,4.9603271484375,-55.0250244140625,-37.6446533203125
1758527146.846108,0.736328125,0.06689453125,0.52197265625,9.8876953125,-13.7939453125,-1.28173828125,5.086669921875,-55.1568603515625,-37.6885986328125
1758527146.8561552,0.75244140625,0.05859375,0.5068359375,4.08935546875,-11.90185546875,-0.6103515625,5.1416015625,-55.2667236328125,-37.7215576171875
1758527146.868062,0.75244140625,0.05859375,0.5068359375,4.08935546875,-11.90185546875,-0.6103515625,5.2020263671875,-55.382080078125,-37.7490234375
1758527146.8765998,0.77880859375,0.05908203125,0.58935546875,2.3193359375,-10.43701171875,0.244140625,5.2294921875,-55.48095703125,-37.7655029296875
1758527146.8861728,0.77880859375,0.05908203125,0.58935546875,2.3193359375,-10.43701171875,0.244140625,5.2569580078125,-55.5743408203125,-37.7874755859375
1758527146.8962305,0.7939453125,0.05615234375,0.51513671875,-0.18310546875,-9.21630859375,0.732421875,5.2569580078125,-55.6622314453125,-37.79296875
1758527146.9066746,0.7939453125,0.05615234375,0.51513671875,-0.18310546875,-9.21630859375,0.732421875,5.25146484375,-55.74462890625,-37.7984619140625
1758527146.9162889,0.78662109375,0.02734375,0.57373046875,5.18798828125,-7.99560546875,0.67138671875,5.3009033203125,-55.821533203125,-37.803955078125
1758527146.9262521,0.78662109375,0.02734375,0.57373046875,5.18798828125,-7.99560546875,0.67138671875,5.350341796875,-55.8929443359375,-37.8094482421875
1758527146.9365306,0.810546875,0.064453125,0.5068359375,3.662109375,-7.32421875,0.3662109375,5.38330078125,-55.9588623046875,-37.8204345703125
1758527146.9462492,0.810546875,0.064453125,0.5068359375,3.662109375,-7.32421875,0.3662109375,5.4217529296875,-56.0247802734375,-37.8314208984375
1758527146.9563391,0.84423828125,0.0732421875,0.572265625,-0.48828125,-5.9814453125,0.732421875,5.416259765625,-56.0797119140625,-37.8314208984375
1758527146.9663277,0.84423828125,0.0732421875,0.572265625,-0.48828125,-5.9814453125,0.732421875,5.4052734375,-56.1346435546875,-37.8314208984375
1758527146.9764407,0.86181640625,0.02685546875,0.58544921875,-2.62451171875,-5.18798828125,1.40380859375,5.3668212890625,-56.18408203125,-37.81494140625
1758527146.9863508,0.86181640625,0.02685546875,0.58544921875,-2.62451171875,-5.18798828125,1.40380859375,5.3228759765625,-56.22802734375,-37.7984619140625
1758527146.9964166,0.84521484375,0.02392578125,0.55419921875,5.18798828125,-5.31005859375,1.40380859375,5.3558349609375,-56.2774658203125,-37.7874755859375
1758527147.0066977,0.84521484375,0.02392578125,0.55419921875,5.18798828125,-5.31005859375,1.40380859375,5.3887939453125,-56.326904296875,-37.77099609375
1758527147.016422,0.87255859375,0.05859375,0.53369140625,2.0751953125,-5.67626953125,1.46484375,5.3887939453125,-56.3818359375,-37.7545166015625
1758527147.0267267,0.87255859375,0.05859375,0.53369140625,2.0751953125,-5.67626953125,1.46484375,5.394287109375,-56.4422607421875,-37.7325439453125
1758527147.036479,0.8984375,0.08447265625,0.607421875,-4.5166015625,-5.9814453125,2.38037109375,5.3173828125,-56.4971923828125,-37.6995849609375
1758527147.0464034,0.8984375,0.08447265625,0.607421875,-4.5166015625,-5.9814453125,2.38037109375,5.2459716796875,-56.5576171875,-37.672119140625
1758527147.0564747,0.9033203125,0.0234375,0.5849609375,-5.2490234375,-6.65283203125,3.0517578125,5.1580810546875,-56.62353515625,-37.628173828125
1758527147.066523,0.9033203125,0.0234375,0.5849609375,-5.2490234375,-6.65283203125,3.0517578125,5.064697265625,-56.689453125,-37.5787353515625
1758527147.0764606,0.8974609375,0.03466796875,0.57763671875,-1.15966796875,-7.4462890625,3.0517578125,5.0152587890625,-56.766357421875,-37.5347900390625
1758527147.086497,0.8974609375,0.03466796875,0.57763671875,-1.15966796875,-7.4462890625,3.0517578125,4.9658203125,-56.8377685546875,-37.4908447265625
1758527147.096509,0.8828125,0.04638671875,0.56298828125,0.67138671875,-8.1787109375,3.173828125,4.932861328125,-56.920166015625,-37.44140625
1758527147.1066535,0.8828125,0.04638671875,0.56298828125,0.67138671875,-8.1787109375,3.173828125,4.89990234375,-57.0025634765625,-37.3974609375
1758527147.1165948,0.8701171875,0.0546875,0.55322265625,-3.96728515625,-8.6669921875,3.5400390625,4.81201171875,-57.0904541015625,-37.342529296875
1758527147.1265812,0.8701171875,0.0546875,0.55322265625,-3.96728515625,-8.6669921875,3.5400390625,4.7296142578125,-57.1783447265625,-37.2930908203125
1758527147.136607,0.86962890625,0.05810546875,0.54541015625,-7.99560546875,-8.9111328125,3.84521484375,4.603271484375,-57.2662353515625,-37.232666015625
1758527147.1465154,0.86962890625,0.05810546875,0.54541015625,-7.99560546875,-8.9111328125,3.84521484375,4.4769287109375,-57.3541259765625,-37.177734375
1758527147.1565797,0.85498046875,0.0234375,0.5390625,-4.5166015625,-9.46044921875,4.0283203125,4.383544921875,-57.4530029296875,-37.1173095703125
1758527147.166664,0.85498046875,0.0234375,0.5390625,-4.5166015625,-9.46044921875,4.0283203125,4.2901611328125,-57.54638671875,-37.056884765625
1758527147.1766057,0.84716796875,-0.00634765625,0.5185546875,7.14111328125,-9.94873046875,3.47900390625,4.317626953125,-57.645263671875,-37.001953125
1758527147.1866512,0.84716796875,-0.00634765625,0.5185546875,7.14111328125,-9.94873046875,3.47900390625,4.339599609375,-57.744140625,-36.9525146484375
1758527147.1966653,0.8466796875,0.0205078125,0.50732421875,5.126953125,-9.8876953125,2.9296875,4.3505859375,-57.843017578125,-36.9085693359375
1758527147.206658,0.8466796875,0.0205078125,0.50732421875,5.126953125,-9.8876953125,2.9296875,4.361572265625,-57.94189453125,-36.8646240234375
1758527147.2165995,0.8447265625,0.09716796875,0.52490234375,-3.0517578125,-9.46044921875,3.84521484375,4.2791748046875,-58.0352783203125,-36.80419921875
1758527147.226629,0.8447265625,0.09716796875,0.52490234375,-3.0517578125,-9.46044921875,3.84521484375,4.2022705078125,-58.1341552734375,-36.7437744140625
1758527147.236668,0.83544921875,0.04443359375,0.513671875,-5.37109375,-9.21630859375,4.94384765625,4.0814208984375,-58.2220458984375,-36.6668701171875
1758527147.2466817,0.83544921875,0.04443359375,0.513671875,-5.37109375,-9.21630859375,4.94384765625,3.966064453125,-58.3154296875,-36.58447265625
1758527147.2566564,0.82421875,-0.02392578125,0.50927734375,4.45556640625,-9.033203125,4.5166015625,3.9495849609375,-58.4088134765625,-36.5130615234375
1758527147.26681,0.82421875,-0.02392578125,0.50927734375,4.45556640625,-9.033203125,4.5166015625,3.9276123046875,-58.4967041015625,-36.4361572265625
1758527147.276736,0.826171875,0.01416015625,0.50830078125,7.568359375,-8.7890625,3.7841796875,3.944091796875,-58.5845947265625,-36.375732421875
1758527147.286773,0.826171875,0.01416015625,0.50830078125,7.568359375,-8.7890625,3.7841796875,3.966064453125,-58.6724853515625,-36.3153076171875
1758527147.2968302,0.826171875,0.01416015625,0.50830078125,2.38037109375,-8.4228515625,3.90625,3.93310546875,-58.7548828125,-36.2493896484375
1758527147.3068457,0.85888671875,0.08056640625,0.494140625,2.38037109375,-8.4228515625,3.90625,3.900146484375,-58.8372802734375,-36.1834716796875
1758527147.3168137,0.85009765625,0.05419921875,0.52734375,-0.1220703125,-7.8125,4.45556640625,3.8397216796875,-58.9141845703125,-36.1065673828125
1758527147.3268032,0.85009765625,0.05419921875,0.52734375,-0.1220703125,-7.8125,4.45556640625,3.7738037109375,-58.9910888671875,-36.03515625
1758527147.3368022,0.84423828125,0.00927734375,0.5146484375,2.13623046875,-7.14111328125,4.2724609375,3.7353515625,-59.0625,-35.958251953125
1758527147.3468077,0.84423828125,0.00927734375,0.5146484375,2.13623046875,-7.14111328125,4.2724609375,3.6968994140625,-59.12841796875,-35.8868408203125
1758527147.3570518,0.82666015625,-0.00537109375,0.482421875,10.7421875,-6.591796875,3.173828125,3.75732421875,-59.1943359375,-35.83740234375
1758527147.366889,0.82666015625,-0.00537109375,0.482421875,10.7421875,-6.591796875,3.173828125,3.8177490234375,-59.26025390625,-35.782470703125
1758527147.3768864,0.82470703125,0.0625,0.484375,7.2021484375,-5.67626953125,2.685546875,3.84521484375,-59.315185546875,-35.7330322265625
1758527147.3869228,0.82470703125,0.0625,0.484375,7.2021484375,-5.67626953125,2.685546875,3.878173828125,-59.3701171875,-35.6890869140625
1758527147.3970134,0.82958984375,0.08642578125,0.50439453125,-1.40380859375,-4.638671875,3.5400390625,3.812255859375,-59.4140625,-35.628662109375
1758527147.4069877,0.82958984375,0.08642578125,0.50439453125,-1.40380859375,-4.638671875,3.5400390625,3.7518310546875,-59.4580078125,-35.5682373046875
1758527147.416921,0.8349609375,0.04443359375,0.47021484375,-6.7138671875,-3.662109375,4.21142578125,3.62548828125,-59.490966796875,-35.4913330078125
1758527147.426957,0.8349609375,0.04443359375,0.47021484375,-6.7138671875,-3.662109375,4.21142578125,3.4991455078125,-59.5294189453125,-35.419921875
1758527147.437001,0.8369140625,-0.02978515625,0.513671875,3.173828125,-3.11279296875,4.08935546875,3.4716796875,-59.556884765625,-35.343017578125
1758527147.4469795,0.8369140625,-0.02978515625,0.513671875,3.173828125,-3.11279296875,4.08935546875,3.4332275390625,-59.58984375,-35.26611328125
1758527147.4569485,0.845703125,0.0185546875,0.46630859375,5.2490234375,-2.9296875,3.662109375,3.427734375,-59.6173095703125,-35.2001953125
1758527147.4670563,0.845703125,0.0185546875,0.46630859375,5.2490234375,-2.9296875,3.662109375,3.4222412109375,-59.644775390625,-35.1287841796875
1758527147.477179,0.84765625,0.08447265625,0.48974609375,-1.77001953125,-2.5634765625,4.45556640625,3.3343505859375,-59.6722412109375,-35.0408935546875
1758527147.4870157,0.84765625,0.08447265625,0.48974609375,-1.77001953125,-2.5634765625,4.45556640625,3.2464599609375,-59.69970703125,-34.95849609375
1758527147.496984,0.87255859375,0.0400390625,0.4794921875,-5.126953125,-2.13623046875,5.18798828125,3.1146240234375,-59.7216796875,-34.859619140625
1758527147.5074496,0.873046875,-0.01123046875,0.52734375,-4.08935546875,-1.8310546875,5.126953125,2.9937744140625,-59.74365234375,-34.7607421875
1758527147.5170622,0.873046875,-0.01123046875,0.52734375,-4.08935546875,-1.8310546875,5.126953125,2.8729248046875,-59.765625,-34.6563720703125
1758527147.52709,0.86376953125,0.0166015625,0.47900390625,-2.01416015625,-1.77001953125,4.94384765625,2.757568359375,-59.7821044921875,-34.5574951171875
1758527147.5371296,0.86376953125,0.0166015625,0.47900390625,-2.01416015625,-1.77001953125,4.94384765625,2.65869140625,-59.8040771484375,-34.464111328125
1758527147.5470948,0.87646484375,0.02587890625,0.49169921875,-1.77001953125,-1.40380859375,4.94384765625,2.559814453125,-59.820556640625,-34.365234375
1758527147.5570545,0.87646484375,0.02587890625,0.49169921875,-1.77001953125,-1.40380859375,4.94384765625,2.4609375,-59.8370361328125,-34.2608642578125
1758527147.5671291,0.89208984375,0.01953125,0.50146484375,-2.01416015625,-1.28173828125,5.06591796875,2.362060546875,-59.853515625,-34.1619873046875
1758527147.5770848,0.89208984375,0.01953125,0.50146484375,-2.01416015625,-1.28173828125,5.06591796875,2.2576904296875,-59.8699951171875,-34.0576171875
1758527147.5871751,0.8984375,0.0107421875,0.52197265625,-2.38037109375,-1.15966796875,4.7607421875,2.1588134765625,-59.886474609375,-33.958740234375
1758527147.597373,0.8984375,0.0107421875,0.52197265625,-2.38037109375,-1.15966796875,4.7607421875,2.054443359375,-59.9029541015625,-33.8653564453125
1758527147.607541,0.89111328125,0.0078125,0.50537109375,-2.86865234375,-1.46484375,4.8828125,1.9500732421875,-59.9139404296875,-33.7664794921875
1758527147.617208,0.89111328125,0.0078125,0.50537109375,-2.86865234375,-1.46484375,4.8828125,1.8402099609375,-59.9359130859375,-33.6676025390625
1758527147.6272275,0.87890625,0.02880859375,0.490234375,-3.2958984375,-1.5869140625,4.8828125,1.7303466796875,-59.952392578125,-33.5687255859375
1758527147.6372032,0.87890625,0.02880859375,0.490234375,-3.2958984375,-1.5869140625,4.8828125,1.6204833984375,-59.9688720703125,-33.4698486328125
1758527147.647205,0.8544921875,-0.00732421875,0.490234375,0.0,-1.3427734375,4.7607421875,1.527099609375,-59.9853515625,-33.3709716796875
1758527147.6572318,0.8544921875,-0.00732421875,0.490234375,0.0,-1.3427734375,4.7607421875,1.4447021484375,-60.0018310546875,-33.2720947265625
1758527147.667522,0.84814453125,0.00048828125,0.48046875,-2.197265625,-1.0986328125,4.57763671875,1.3568115234375,-60.018310546875,-33.1787109375
1758527147.6772232,0.84814453125,0.00048828125,0.48046875,-2.197265625,-1.0986328125,4.57763671875,1.2579345703125,-60.029296875,-33.079833984375
1758527147.687254,0.8388671875,0.03271484375,0.486328125,-5.0048828125,-0.732421875,4.638671875,1.1480712890625,-60.0457763671875,-32.9864501953125
1758527147.6976671,0.8388671875,0.03271484375,0.486328125,-5.0048828125,-0.732421875,4.638671875,1.021728515625,-60.05126953125,-32.8875732421875
1758527147.7073784,0.83056640625,0.02197265625,0.46630859375,-5.37109375,-0.3662109375,4.7607421875,0.8953857421875,-60.062255859375,-32.794189453125
1758527147.717303,0.83056640625,0.02197265625,0.46630859375,-5.37109375,-0.3662109375,4.7607421875,0.7635498046875,-60.0677490234375,-32.6953125
1758527147.727622,0.85107421875,-0.0341796875,0.48974609375,-0.1220703125,-0.3662109375,4.39453125,0.6646728515625,-60.0732421875,-32.6019287109375
1758527147.7373528,0.85107421875,-0.0341796875,0.48974609375,-0.1220703125,-0.3662109375,4.39453125,0.59326171875,-60.0787353515625,-32.5140380859375
1758527147.7473378,0.8720703125,0.0048828125,0.4921875,-2.13623046875,-0.3662109375,3.47900390625,0.516357421875,-60.0787353515625,-32.431640625
1758527147.7573538,0.8720703125,0.0048828125,0.4921875,-2.13623046875,-0.3662109375,3.47900390625,0.4339599609375,-60.084228515625,-32.3602294921875
1758527147.7675722,0.85888671875,0.0458984375,0.50244140625,-6.9580078125,-0.42724609375,3.72314453125,0.3350830078125,-60.0897216796875,-32.2833251953125
1758527147.7775755,0.85888671875,0.0458984375,0.50244140625,-6.9580078125,-0.42724609375,3.72314453125,0.2032470703125,-60.09521484375,-32.2064208984375
1758527147.7873685,0.8349609375,-0.0087890625,0.447265625,-6.16455078125,0.0,3.84521484375,0.0823974609375,-60.1007080078125,-32.1295166015625
1758527147.797397,0.8349609375,-0.0087890625,0.447265625,-6.16455078125,0.0,3.84521484375,-0.032958984375,-60.1007080078125,-32.0526123046875
1758527147.8075607,0.8349609375,-0.0087890625,0.447265625,1.708984375,0.0,2.86865234375,-0.1043701171875,-60.106201171875,-31.981201171875
1758527147.8174434,0.85498046875,-0.0654296875,0.50244140625,1.708984375,0.0,2.86865234375,-0.1373291015625,-60.106201171875,-31.9207763671875
1758527147.8275156,0.8662109375,-0.00341796875,0.4833984375,3.60107421875,-0.1220703125,2.13623046875,-0.15380859375,-60.106201171875,-31.8658447265625
1758527147.8374956,0.8662109375,-0.00341796875,0.4833984375,3.60107421875,-0.1220703125,2.13623046875,-0.1593017578125,-60.1116943359375,-31.81640625
1758527147.8474982,0.89453125,0.0634765625,0.49609375,-4.21142578125,0.1220703125,2.38037109375,-0.2032470703125,-60.1116943359375,-31.7669677734375
1758527147.857516,0.89453125,0.0634765625,0.49609375,-4.21142578125,0.1220703125,2.38037109375,-0.2801513671875,-60.1116943359375,-31.717529296875
1758527147.867702,0.8818359375,0.017578125,0.51220703125,-9.46044921875,0.30517578125,3.23486328125,-0.3900146484375,-60.1116943359375,-31.6571044921875
1758527147.8774974,0.8818359375,0.017578125,0.51220703125,-9.46044921875,0.30517578125,3.23486328125,-0.52734375,-60.1116943359375,-31.5911865234375
1758527147.8875144,0.8779296875,-0.06298828125,0.48046875,-1.64794921875,0.3662109375,2.44140625,-0.626220703125,-60.1116943359375,-31.5362548828125
1758527147.897689,0.8779296875,-0.06298828125,0.48046875,-1.64794921875,0.3662109375,2.44140625,-0.68115234375,-60.106201171875,-31.4813232421875
1758527147.90778,0.8779296875,-0.056640625,0.5166015625,5.79833984375,0.54931640625,0.79345703125,-0.6866455078125,-60.106201171875,-31.44287109375
1758527147.917607,0.8779296875,-0.056640625,0.5166015625,5.79833984375,0.54931640625,0.79345703125,-0.6427001953125,-60.1007080078125,-31.4208984375
1758527147.927882,0.888671875,0.064453125,0.48681640625,-1.220703125,1.0986328125,0.48828125,-0.63720703125,-60.09521484375,-31.4044189453125
1758527147.9377596,0.888671875,0.064453125,0.48681640625,-1.220703125,1.0986328125,0.48828125,-0.6536865234375,-60.084228515625,-31.387939453125
1758527147.9477062,0.89599609375,0.0302734375,0.5087890625,-8.23974609375,1.89208984375,1.03759765625,-0.7086181640625,-60.0732421875,-31.365966796875
1758527147.957619,0.89599609375,0.0302734375,0.5087890625,-8.23974609375,1.89208984375,1.03759765625,-0.802001953125,-60.0567626953125,-31.343994140625
1758527147.967677,0.890625,-0.0625,0.5380859375,-4.7607421875,2.197265625,0.42724609375,-0.867919921875,-60.040283203125,-31.3275146484375
1758527147.9777355,0.890625,-0.0625,0.5380859375,-4.7607421875,2.197265625,0.42724609375,-0.9173583984375,-60.018310546875,-31.322021484375
1758527147.9877021,0.873046875,-0.04150390625,0.5224609375,4.82177734375,1.8310546875,-1.15966796875,-0.911865234375,-60.0018310546875,-31.322021484375
1758527147.9979253,0.873046875,-0.04150390625,0.5224609375,4.82177734375,1.8310546875,-1.15966796875,-0.845947265625,-59.9853515625,-31.343994140625
1758527148.007841,0.8681640625,0.01611328125,0.44482421875,1.708984375,1.64794921875,-2.13623046875,-0.7855224609375,-59.9688720703125,-31.376953125
1758527148.0177016,0.8681640625,0.01611328125,0.44482421875,1.708984375,1.64794921875,-2.13623046875,-0.736083984375,-59.952392578125,-31.409912109375
1758527148.0277658,0.8681640625,0.03759765625,0.51513671875,-2.13623046875,1.77001953125,-1.89208984375,-0.703125,-59.94140625,-31.4483642578125
1758527148.0377953,0.8681640625,0.03759765625,0.51513671875,-2.13623046875,1.77001953125,-1.89208984375,-0.6866455078125,-59.9249267578125,-31.4813232421875
1758527148.0477574,0.873046875,-0.0361328125,0.47998046875,-1.28173828125,1.52587890625,-1.77001953125,-0.670166015625,-59.908447265625,-31.5142822265625
1758527148.0577636,0.873046875,-0.0361328125,0.47998046875,-1.28173828125,1.52587890625,-1.77001953125,-0.648193359375,-59.8974609375,-31.541748046875
1758527148.0680156,0.87158203125,-0.0361328125,0.49365234375,4.39453125,1.3427734375,-2.50244140625,-0.5987548828125,-59.886474609375,-31.5802001953125
1758527148.077865,0.87158203125,-0.0361328125,0.49365234375,4.39453125,1.3427734375,-2.50244140625,-0.5108642578125,-59.87548828125,-31.61865234375
1758527148.0878146,0.861328125,0.0234375,0.509765625,1.28173828125,0.732421875,-2.62451171875,-0.4449462890625,-59.8699951171875,-31.66259765625
1758527148.0981157,0.861328125,0.0234375,0.509765625,1.28173828125,0.732421875,-2.62451171875,-0.3900146484375,-59.864501953125,-31.7120361328125
1758527148.10805,0.85791015625,0.02392578125,0.453125,-3.11279296875,0.0,-2.13623046875,-0.3570556640625,-59.864501953125,-31.75048828125
1758527148.1178577,0.85791015625,0.02392578125,0.453125,-3.11279296875,0.0,-2.13623046875,-0.3515625,-59.8699951171875,-31.7889404296875
1758527148.1279807,0.865234375,-0.0322265625,0.494140625,-2.44140625,-0.42724609375,-2.01416015625,-0.340576171875,-59.87548828125,-31.8218994140625
1758527148.1379294,0.865234375,-0.0322265625,0.494140625,-2.44140625,-0.42724609375,-2.01416015625,-0.32958984375,-59.886474609375,-31.849365234375
1758527148.1478944,0.87353515625,-0.0341796875,0.51708984375,0.8544921875,-1.28173828125,-1.8310546875,-0.3076171875,-59.8974609375,-31.88232421875
1758527148.1579127,0.87353515625,-0.0341796875,0.51708984375,0.8544921875,-1.28173828125,-1.8310546875,-0.274658203125,-59.9139404296875,-31.904296875
1758527148.167942,0.88232421875,0.00732421875,0.46142578125,-1.64794921875,-1.64794921875,-1.15966796875,-0.2581787109375,-59.930419921875,-31.92626953125
1758527148.17791,0.88232421875,0.00732421875,0.46142578125,-1.64794921875,-1.64794921875,-1.15966796875,-0.2581787109375,-59.952392578125,-31.937255859375
1758527148.1879363,0.8837890625,0.0185546875,0.50634765625,-7.9345703125,-2.0751953125,-0.42724609375,-0.296630859375,-59.974365234375,-31.9427490234375
1758527148.1979318,0.8837890625,0.0185546875,0.50634765625,-7.9345703125,-2.0751953125,-0.42724609375,-0.3680419921875,-59.996337890625,-31.9427490234375
1758527148.20811,0.88330078125,-0.0458984375,0.4873046875,-0.79345703125,-2.86865234375,-0.06103515625,-0.406494140625,-60.0238037109375,-31.9427490234375
1758527148.218004,0.88330078125,-0.0458984375,0.4873046875,-0.79345703125,-2.86865234375,-0.06103515625,-0.41748046875,-60.0567626953125,-31.9317626953125
1758527148.2280593,0.8828125,-0.06689453125,0.51806640625,4.638671875,-3.60107421875,-0.3662109375,-0.4010009765625,-60.09521484375,-31.92626953125
1758527148.2380548,0.8828125,-0.06689453125,0.51806640625,4.638671875,-3.60107421875,-0.3662109375,-0.3570556640625,-60.1336669921875,-31.9207763671875
1758527148.2480307,0.87255859375,0.03857421875,0.466796875,-0.3662109375,-3.96728515625,0.18310546875,-0.3460693359375,-60.172119140625,-31.9097900390625
1758527148.2580726,0.87255859375,0.03857421875,0.466796875,-0.3662109375,-3.96728515625,0.18310546875,-0.362548828125,-60.216064453125,-31.8988037109375
1758527148.268064,0.87158203125,0.0498046875,0.47900390625,-9.46044921875,-4.150390625,1.77001953125,-0.4339599609375,-60.260009765625,-31.8658447265625
1758527148.2780526,0.87158203125,0.0498046875,0.47900390625,-9.46044921875,-4.150390625,1.77001953125,-0.560302734375,-60.303955078125,-31.8218994140625
1758527148.288092,0.8662109375,-0.06005859375,0.5048828125,-7.2021484375,-4.7607421875,2.38037109375,-0.6756591796875,-60.3533935546875,-31.7724609375
1758527148.298042,0.8662109375,-0.06005859375,0.5048828125,-7.2021484375,-4.7607421875,2.38037109375,-0.791015625,-60.3973388671875,-31.717529296875
1758527148.3082545,0.86962890625,-0.05810546875,0.47314453125,1.89208984375,-5.37109375,1.52587890625,-0.85693359375,-60.4522705078125,-31.6680908203125
1758527148.318154,0.86962890625,-0.05810546875,0.47314453125,1.89208984375,-5.37109375,1.52587890625,-0.867919921875,-60.5072021484375,-31.629638671875
1758527148.3288934,0.8818359375,0.00537109375,0.48193359375,2.8076171875,-5.31005859375,1.40380859375,-0.87890625,-60.5621337890625,-31.5911865234375
1758527148.3382058,0.8818359375,0.00537109375,0.48193359375,2.8076171875,-5.31005859375,1.40380859375,-0.8843994140625,-60.6170654296875,-31.552734375
1758527148.3482113,0.87255859375,0.03466796875,0.48974609375,-3.47900390625,-5.31005859375,1.953125,-0.9228515625,-60.6719970703125,-31.5087890625
1758527148.3581622,0.87255859375,0.03466796875,0.48974609375,-3.47900390625,-5.31005859375,1.953125,-0.9942626953125,-60.721435546875,-31.4593505859375
1758527148.3683476,0.845703125,0.01611328125,0.4833984375,-6.2255859375,-5.7373046875,2.62451171875,-1.0821533203125,-60.7763671875,-31.409912109375
1758527148.3782067,0.845703125,0.01611328125,0.4833984375,-6.2255859375,-5.7373046875,2.62451171875,-1.1920166015625,-60.8367919921875,-31.3494873046875
1758527148.388225,0.79638671875,-0.0546875,0.41943359375,1.52587890625,-5.4931640625,2.44140625,-1.2579345703125,-60.8917236328125,-31.2945556640625
1758527148.3983982,0.79638671875,-0.0546875,0.41943359375,1.52587890625,-5.4931640625,2.44140625,-1.285400390625,-60.9466552734375,-31.2396240234375
1758527148.408357,0.833984375,-0.0419921875,0.47314453125,-1.46484375,-4.57763671875,1.52587890625,-1.3238525390625,-60.99609375,-31.190185546875
1758527148.4181986,0.833984375,-0.0419921875,0.47314453125,-1.46484375,-4.57763671875,1.52587890625,-1.3677978515625,-61.0400390625,-31.1517333984375
1758527148.4283247,0.865234375,0.0380859375,0.48388671875,-7.01904296875,-4.0283203125,2.01416015625,-1.4501953125,-61.0784912109375,-31.11328125
1758527148.4383032,0.865234375,0.0380859375,0.48388671875,-7.01904296875,-4.0283203125,2.01416015625,-1.5545654296875,-61.116943359375,-31.0638427734375
1758527148.4483068,0.8916015625,-0.001953125,0.4482421875,-9.58251953125,-3.60107421875,2.38037109375,-1.6754150390625,-61.1553955078125,-31.014404296875
1758527148.4583502,0.8916015625,-0.001953125,0.4482421875,-9.58251953125,-3.60107421875,2.38037109375,-1.812744140625,-61.1883544921875,-30.9649658203125
1758527148.4686854,0.8974609375,-0.07568359375,0.52490234375,-2.38037109375,-3.60107421875,1.52587890625,-1.900634765625,-61.226806640625,-30.91552734375
1758527148.4783573,0.8974609375,-0.07568359375,0.52490234375,-2.38037109375,-3.60107421875,1.52587890625,-1.95556640625,-61.259765625,-30.8770751953125
1758527148.488326,0.90185546875,-0.02978515625,0.47412109375,-0.06103515625,-3.7841796875,0.9765625,-1.9940185546875,-61.292724609375,-30.8441162109375
1758527148.4982939,0.90185546875,-0.02978515625,0.47412109375,-0.06103515625,-3.7841796875,0.9765625,-2.0159912109375,-61.3311767578125,-30.816650390625
1758527148.5085285,0.8974609375,0.04150390625,0.48583984375,-6.89697265625,-3.662109375,1.220703125,-2.109375,-61.3641357421875,-30.7891845703125
1758527148.5183349,0.8974609375,0.04150390625,0.48583984375,-6.89697265625,-3.662109375,1.220703125,-2.197265625,-61.402587890625,-30.7562255859375
1758527148.5283902,0.91650390625,-0.0126953125,0.47607421875,-10.986328125,-3.662109375,1.5869140625,-2.3345947265625,-61.435546875,-30.7177734375
1758527148.5387995,0.91650390625,-0.0126953125,0.47607421875,-10.986328125,-3.662109375,1.5869140625,-2.4664306640625,-61.4739990234375,-30.6793212890625
1758527148.5484214,0.93798828125,-0.06787109375,0.5029296875,-5.18798828125,-3.7841796875,0.91552734375,-2.5323486328125,-61.512451171875,-30.65185546875
1758527148.5584953,0.93798828125,-0.06787109375,0.5029296875,-5.18798828125,-3.7841796875,0.91552734375,-2.603759765625,-61.5509033203125,-30.6243896484375
1758527148.5686622,0.9453125,-0.05712890625,0.5302734375,3.23486328125,-4.2724609375,0.06103515625,-2.5762939453125,-61.58935546875,-30.6134033203125
1758527148.5784607,0.9453125,-0.05712890625,0.5302734375,3.23486328125,-4.2724609375,0.06103515625,-2.548828125,-61.63330078125,-30.6024169921875
1758527148.5885012,0.91650390625,-0.021484375,0.44189453125,3.662109375,-4.8828125,-0.48828125,-2.515869140625,-61.67724609375,-30.6024169921875
1758527148.5984247,0.91650390625,-0.021484375,0.44189453125,3.662109375,-4.8828125,-0.48828125,-2.4774169921875,-61.732177734375,-30.596923828125
1758527148.6092165,0.9130859375,0.03515625,0.462890625,-5.2490234375,-5.31005859375,0.0,-2.5323486328125,-61.7816162109375,-30.5859375
1758527148.6184738,0.9130859375,0.03515625,0.462890625,-5.2490234375,-5.31005859375,0.0,-2.5872802734375,-61.8365478515625,-30.574951171875
1758527148.628515,0.9296875,-0.02587890625,0.48583984375,-3.0517578125,-6.04248046875,0.42724609375,-2.625732421875,-61.9024658203125,-30.552978515625
1758527148.6386023,0.9296875,-0.02587890625,0.48583984375,-3.0517578125,-6.04248046875,0.42724609375,-2.6641845703125,-61.962890625,-30.531005859375
1758527148.648615,0.93408203125,-0.08984375,0.4912109375,5.67626953125,-6.7138671875,0.3662109375,-2.6202392578125,-62.02880859375,-30.509033203125
1758527148.6585798,0.93408203125,-0.08984375,0.4912109375,5.67626953125,-6.7138671875,0.3662109375,-2.581787109375,-62.0947265625,-30.487060546875
1758527148.6690285,0.90869140625,-0.0537109375,0.46728515625,8.544921875,-7.62939453125,0.0,-2.5103759765625,-62.171630859375,-30.465087890625
1758527148.678663,0.90869140625,-0.0537109375,0.46728515625,8.544921875,-7.62939453125,0.0,-2.43896484375,-62.24853515625,-30.4486083984375
1758527148.6888983,0.892578125,0.02392578125,0.4453125,2.3193359375,-8.30078125,0.48828125,-2.43896484375,-62.3309326171875,-30.421142578125
1758527148.6987991,0.892578125,0.02392578125,0.4453125,2.3193359375,-8.30078125,0.48828125,-2.43896484375,-62.4188232421875,-30.3936767578125
1758527148.7089584,0.85400390625,0.0361328125,0.435546875,-2.62451171875,-8.72802734375,1.89208984375,-2.5048828125,-62.501220703125,-30.3387451171875
1758527148.7186184,0.85400390625,0.0361328125,0.435546875,-2.62451171875,-8.72802734375,1.89208984375,-2.57080078125,-62.589111328125,-30.2838134765625
1758527148.7289329,0.87841796875,-0.10888671875,0.44482421875,3.35693359375,-8.72802734375,1.77001953125,-2.5762939453125,-62.677001953125,-30.2288818359375
1758527148.7387474,0.87841796875,-0.10888671875,0.44482421875,3.35693359375,-8.72802734375,1.77001953125,-2.5927734375,-62.7593994140625,-30.1739501953125
1758527148.7486744,0.890625,-0.05810546875,0.4814453125,8.1787109375,-8.72802734375,1.15966796875,-2.548828125,-62.8472900390625,-30.1300048828125
1758527148.758722,0.890625,-0.05810546875,0.4814453125,8.1787109375,-8.72802734375,1.15966796875,-2.5103759765625,-62.9296875,-30.0860595703125
1758527148.7688591,0.87158203125,0.02099609375,0.427734375,7.2021484375,-8.6669921875,0.9765625,-2.471923828125,-63.0120849609375,-30.047607421875
1758527148.778791,0.87158203125,0.02099609375,0.427734375,7.2021484375,-8.6669921875,0.9765625,-2.4334716796875,-63.0999755859375,-30.0091552734375
1758527148.7887976,0.857421875,0.0390625,0.4296875,-3.7841796875,-8.4228515625,1.46484375,-2.5048828125,-63.1768798828125,-29.9652099609375
1758527148.7988265,0.857421875,0.0390625,0.4296875,-3.7841796875,-8.4228515625,1.46484375,-2.5762939453125,-63.25927734375,-29.9212646484375
1758527148.8088887,0.857421875,0.0390625,0.4296875,1.77001953125,-8.1787109375,1.28173828125,-2.5872802734375,-63.336181640625,-29.8828125
1758527148.8188531,0.873046875,-0.05224609375,0.43359375,1.77001953125,-8.1787109375,1.28173828125,-2.603759765625,-63.4185791015625,-29.8443603515625
1758527148.8288398,0.890625,-0.0556640625,0.45166015625,2.38037109375,-7.568359375,0.54931640625,-2.5982666015625,-63.489990234375,-29.81689453125
1758527148.8392515,0.890625,-0.0556640625,0.45166015625,2.38037109375,-7.568359375,0.54931640625,-2.5982666015625,-63.5614013671875,-29.794921875
1758527148.8488226,0.88134765625,-0.00537109375,0.42138671875,2.25830078125,-6.8359375,0.54931640625,-2.5982666015625,-63.6273193359375,-29.7674560546875
1758527148.8588943,0.88134765625,-0.00537109375,0.42138671875,2.25830078125,-6.8359375,0.54931640625,-2.5927734375,-63.6932373046875,-29.7454833984375
1758527148.8689718,0.89697265625,-0.01416015625,0.42822265625,0.244140625,-6.28662109375,0.8544921875,-2.61474609375,-63.753662109375,-29.7125244140625
1758527148.8788419,0.89697265625,-0.01416015625,0.42822265625,0.244140625,-6.28662109375,0.8544921875,-2.63671875,-63.8140869140625,-29.6795654296875
1758527148.888844,0.91015625,-0.03662109375,0.43359375,1.40380859375,-5.92041015625,0.79345703125,-2.647705078125,-63.8690185546875,-29.652099609375
1758527148.8988667,0.91015625,-0.03662109375,0.43359375,1.40380859375,-5.92041015625,0.79345703125,-2.65869140625,-63.9239501953125,-29.619140625
1758527148.9090705,0.92138671875,0.0,0.44921875,-0.6103515625,-5.4931640625,1.28173828125,-2.6971435546875,-63.9788818359375,-29.5806884765625
1758527148.9188788,0.92138671875,0.0,0.44921875,-0.6103515625,-5.4931640625,1.28173828125,-2.735595703125,-64.0283203125,-29.5367431640625
1758527148.9288962,0.916015625,-0.0234375,0.443359375,-2.74658203125,-5.06591796875,1.5869140625,-2.7960205078125,-64.0777587890625,-29.4927978515625
1758527148.9392958,0.916015625,-0.0234375,0.443359375,-2.74658203125,-5.06591796875,1.5869140625,-2.8619384765625,-64.127197265625,-29.443359375
1758527148.9489143,0.908203125,-0.02734375,0.42822265625,-6.16455078125,-4.8828125,1.8310546875,-2.96630859375,-64.171142578125,-29.3939208984375
1758527148.9590158,0.908203125,-0.02734375,0.42822265625,-6.16455078125,-4.8828125,1.8310546875,-3.065185546875,-64.2205810546875,-29.3389892578125
1758527148.968962,0.9150390625,-0.04443359375,0.42919921875,-2.50244140625,-4.8828125,1.64794921875,-3.131103515625,-64.2645263671875,-29.28955078125
1758527148.9789886,0.9150390625,-0.04443359375,0.42919921875,-2.50244140625,-4.8828125,1.64794921875,-3.197021484375,-64.31396484375,-29.2401123046875
1758527148.9890578,0.90185546875,-0.03466796875,0.43310546875,-1.708984375,-4.7607421875,1.5869140625,-3.251953125,-64.35791015625,-29.190673828125
1758527148.9989927,0.90185546875,-0.03466796875,0.43310546875,-1.708984375,-4.7607421875,1.5869140625,-3.3123779296875,-64.40185546875,-29.1357421875
1758527149.0092406,0.9033203125,-0.03076171875,0.43115234375,-0.48828125,-4.8828125,1.64794921875,-3.3563232421875,-64.4512939453125,-29.0863037109375
1758527149.0190353,0.9033203125,-0.03076171875,0.43115234375,-0.48828125,-4.8828125,1.64794921875,-3.40576171875,-64.4952392578125,-29.0313720703125
1758527149.029024,0.91552734375,-0.029296875,0.41162109375,0.0,-4.45556640625,1.5869140625,-3.4442138671875,-64.5391845703125,-28.98193359375
1758527149.0394328,0.91552734375,-0.029296875,0.41162109375,0.0,-4.45556640625,1.5869140625,-3.4881591796875,-64.57763671875,-28.9324951171875
1758527149.049098,0.91064453125,-0.033203125,0.43701171875,0.6103515625,-4.2724609375,1.3427734375,-3.515625,-64.62158203125,-28.8885498046875
1758527149.0591109,0.91064453125,-0.033203125,0.43701171875,0.6103515625,-4.2724609375,1.3427734375,-3.548583984375,-64.6600341796875,-28.839111328125
1758527149.0691018,0.9140625,-0.021484375,0.396484375,1.0986328125,-4.2724609375,1.40380859375,-3.570556640625,-64.7039794921875,-28.795166015625
1758527149.0791457,0.9140625,-0.021484375,0.396484375,1.0986328125,-4.2724609375,1.40380859375,-3.5980224609375,-64.742431640625,-28.7457275390625
1758527149.0891666,0.9130859375,-0.02099609375,0.41162109375,-0.42724609375,-4.08935546875,1.40380859375,-3.636474609375,-64.786376953125,-28.6962890625
1758527149.0991132,0.9130859375,-0.02099609375,0.41162109375,-0.42724609375,-4.08935546875,1.40380859375,-3.6749267578125,-64.8248291015625,-28.65234375
1758527149.1093533,0.91162109375,-0.05078125,0.43408203125,0.91552734375,-4.150390625,1.220703125,-3.6968994140625,-64.8687744140625,-28.6083984375
1758527149.1191611,0.91162109375,-0.05078125,0.43408203125,0.91552734375,-4.150390625,1.220703125,-3.724365234375,-64.9072265625,-28.564453125
1758527149.1293616,0.92578125,-0.04736328125,0.43017578125,2.99072265625,-4.08935546875,0.6103515625,-3.7188720703125,-64.951171875,-28.531494140625
1758527149.139532,0.92578125,-0.04736328125,0.43017578125,2.99072265625,-4.08935546875,0.6103515625,-3.71337890625,-64.9896240234375,-28.5040283203125
1758527149.149241,0.9072265625,-0.01220703125,0.41259765625,2.8076171875,-3.90625,0.18310546875,-3.6968994140625,-65.028076171875,-28.487548828125
1758527149.1594665,0.9072265625,-0.01220703125,0.41259765625,2.8076171875,-3.90625,0.18310546875,-3.680419921875,-65.0665283203125,-28.465576171875
1758527149.1692786,0.88623046875,-0.03564453125,0.39111328125,5.55419921875,-4.08935546875,-0.18310546875,-3.6309814453125,-65.10498046875,-28.4600830078125
1758527149.1792722,0.88623046875,-0.03564453125,0.39111328125,5.55419921875,-4.08935546875,-0.18310546875,-3.5760498046875,-65.14892578125,-28.4490966796875
1758527149.189293,0.89599609375,-0.07177734375,0.4208984375,11.29150390625,-4.33349609375,-0.91552734375,-3.460693359375,-65.19287109375,-28.4490966796875
1758527149.1992712,0.89599609375,-0.07177734375,0.4208984375,11.29150390625,-4.33349609375,-0.91552734375,-3.33984375,-65.23681640625,-28.45458984375
1758527149.209508,0.9130859375,-0.01708984375,0.412109375,9.09423828125,-4.45556640625,-1.220703125,-3.240966796875,-65.28076171875,-28.465576171875
1758527149.2192981,0.9130859375,-0.01708984375,0.412109375,9.09423828125,-4.45556640625,-1.220703125,-3.14208984375,-65.32470703125,-28.4765625
1758527149.2294998,0.91259765625,0.03564453125,0.38623046875,1.89208984375,-4.2724609375,-0.3662109375,-3.1256103515625,-65.36865234375,-28.4710693359375
1758527149.2397661,0.91259765625,0.03564453125,0.38623046875,1.89208984375,-4.2724609375,-0.3662109375,-3.1036376953125,-65.41259765625,-28.465576171875
1758527149.249398,0.90234375,-0.0244140625,0.40771484375,1.0986328125,-4.33349609375,0.18310546875,-3.09814453125,-65.45654296875,-28.443603515625
1758527149.2595558,0.90234375,-0.0244140625,0.40771484375,1.0986328125,-4.33349609375,0.18310546875,-3.09814453125,-65.50048828125,-28.4271240234375
1758527149.2697337,0.89794921875,-0.10400390625,0.42431640625,11.53564453125,-4.8828125,-0.244140625,-2.98828125,-65.54443359375,-28.4161376953125
1758527149.27985,0.89794921875,-0.10400390625,0.42431640625,11.53564453125,-4.8828125,-0.244140625,-2.8839111328125,-65.5938720703125,-28.399658203125
1758527149.2894225,0.91357421875,-0.03173828125,0.388671875,10.80322265625,-4.8828125,-1.03759765625,-2.7740478515625,-65.643310546875,-28.4051513671875
1758527149.299722,0.91357421875,-0.03173828125,0.388671875,10.80322265625,-4.8828125,-1.03759765625,-2.6641845703125,-65.6927490234375,-28.41064453125
1758527149.309642,0.9189453125,0.0498046875,0.39892578125,3.662109375,-4.21142578125,-0.54931640625,-2.625732421875,-65.7366943359375,-28.4051513671875
1758527149.3194575,0.9189453125,0.0498046875,0.39892578125,3.662109375,-4.21142578125,-0.54931640625,-2.5872802734375,-65.775146484375,-28.4051513671875
1758527149.3296633,0.90185546875,0.0107421875,0.40673828125,-0.67138671875,-3.90625,0.18310546875,-2.5982666015625,-65.819091796875,-28.3831787109375
1758527149.3398201,0.90185546875,0.0107421875,0.40673828125,-0.67138671875,-3.90625,0.18310546875,-2.6092529296875,-65.8575439453125,-28.3721923828125
1758527149.3494637,0.88525390625,-0.06884765625,0.39892578125,5.615234375,-4.2724609375,-0.06103515625,-2.559814453125,-65.89599609375,-28.3612060546875
1758527149.3595676,0.88525390625,-0.06884765625,0.39892578125,5.615234375,-4.2724609375,-0.06103515625,-2.5103759765625,-65.93994140625,-28.3447265625
1758527149.3695705,0.88818359375,-0.07373046875,0.3798828125,11.77978515625,-4.8828125,-1.220703125,-2.3785400390625,-65.9893798828125,-28.3612060546875
1758527149.3795125,0.88818359375,-0.07373046875,0.3798828125,11.77978515625,-4.8828125,-1.220703125,-2.252197265625,-66.038818359375,-28.3721923828125
1758527149.389586,0.90625,0.0087890625,0.39208984375,10.3759765625,-4.82177734375,-1.28173828125,-2.1368408203125,-66.0882568359375,-28.3831787109375
1758527149.3995395,0.90625,0.0087890625,0.39208984375,10.3759765625,-4.82177734375,-1.28173828125,-2.021484375,-66.1322021484375,-28.399658203125
1758527149.4097247,0.9091796875,0.0400390625,0.39404296875,2.86865234375,-4.2724609375,0.0,-1.99951171875,-66.1761474609375,-28.3831787109375
1758527149.4195924,0.9091796875,0.0400390625,0.39404296875,2.86865234375,-4.2724609375,0.0,-1.9775390625,-66.2200927734375,-28.377685546875
1758527149.4296114,0.9033203125,-0.00048828125,0.38427734375,-0.67138671875,-3.90625,1.03759765625,-2.010498046875,-66.258544921875,-28.3392333984375
1758527149.4398293,0.9033203125,-0.00048828125,0.38427734375,-0.67138671875,-3.90625,1.03759765625,-2.0379638671875,-66.2969970703125,-28.3062744140625
1758527149.4495893,0.8984375,-0.03076171875,0.3818359375,-2.3193359375,-3.662109375,1.28173828125,-2.0928955078125,-66.33544921875,-28.267822265625
1758527149.4597063,0.8984375,-0.03076171875,0.3818359375,-2.3193359375,-3.662109375,1.28173828125,-2.1478271484375,-66.368408203125,-28.223876953125
1758527149.4697232,0.9130859375,-0.0458984375,0.39990234375,3.2958984375,-3.60107421875,1.15966796875,-2.1478271484375,-66.4068603515625,-28.1854248046875
1758527149.479683,0.9130859375,-0.0458984375,0.39990234375,3.2958984375,-3.60107421875,1.15966796875,-2.1478271484375,-66.4398193359375,-28.1414794921875
1758527149.4897304,0.91943359375,-0.05078125,0.40234375,7.01904296875,-3.173828125,0.732421875,-2.1038818359375,-66.4727783203125,-28.1085205078125
1758527149.4997132,0.91845703125,0.00439453125,0.388671875,2.8076171875,-2.50244140625,0.732421875,-2.0819091796875,-66.500244140625,-28.0755615234375
1758527149.5099444,0.91845703125,0.00439453125,0.388671875,2.8076171875,-2.50244140625,0.732421875,-2.0819091796875,-66.522216796875,-28.0426025390625
1758527149.5197206,0.90380859375,0.06396484375,0.3564453125,-7.87353515625,-1.8310546875,2.01416015625,-2.142333984375,-66.544189453125,-27.9986572265625
1758527149.529731,0.90380859375,0.06396484375,0.3564453125,-7.87353515625,-1.8310546875,2.01416015625,-2.26318359375,-66.566162109375,-27.938232421875
1758527149.5405784,0.90576171875,-0.00537109375,0.37451171875,-8.30078125,-1.220703125,3.173828125,-2.39501953125,-66.5826416015625,-27.8668212890625
1758527149.549726,0.90576171875,-0.00537109375,0.37451171875,-8.30078125,-1.220703125,3.173828125,-2.5433349609375,-66.5936279296875,-27.7789306640625
1758527149.5598385,0.9130859375,-0.10791015625,0.412109375,-2.99072265625,-0.91552734375,2.9296875,-2.65869140625,-66.6046142578125,-27.696533203125
1758527149.57114,0.9130859375,-0.10791015625,0.412109375,-2.99072265625,-0.91552734375,2.9296875,-2.757568359375,-66.6156005859375,-27.6141357421875
1758527149.5800714,0.92724609375,-0.080078125,0.39599609375,1.708984375,-0.732421875,2.01416015625,-2.823486328125,-66.62109375,-27.5372314453125
1758527149.58994,0.92724609375,-0.080078125,0.39599609375,1.708984375,-0.732421875,2.01416015625,-2.867431640625,-66.6265869140625,-27.4713134765625
1758527149.600023,0.92919921875,0.02392578125,0.38720703125,-1.708984375,-0.54931640625,1.953125,-2.92236328125,-66.6375732421875,-27.4053955078125
1758527149.6129615,0.92919921875,0.02392578125,0.38720703125,-1.708984375,-0.54931640625,1.953125,-2.9937744140625,-66.64306640625,-27.344970703125
1758527149.6200356,0.90966796875,0.03125,0.37060546875,-4.5166015625,-0.30517578125,2.62451171875,-3.076171875,-66.64306640625,-27.2735595703125
1758527149.6298304,0.90966796875,0.03125,0.37060546875,-4.5166015625,-0.30517578125,2.62451171875,-3.1805419921875,-66.6485595703125,-27.2021484375
1758527149.6401815,0.88330078125,-0.048828125,0.39990234375,-2.01416015625,-0.244140625,2.8076171875,-3.2684326171875,-66.654052734375,-27.125244140625
1758527149.650035,0.88330078125,-0.048828125,0.39990234375,-2.01416015625,-0.244140625,2.8076171875,-3.350830078125,-66.654052734375,-27.04833984375
1758527149.6599815,0.89306640625,-0.080078125,0.357421875,3.173828125,-0.30517578125,2.13623046875,-3.4002685546875,-66.654052734375,-26.982421875
1758527149.6700103,0.89306640625,-0.080078125,0.357421875,3.173828125,-0.30517578125,2.13623046875,-3.4222412109375,-66.6595458984375,-26.91650390625
1758527149.6802669,0.90283203125,-0.0078125,0.39111328125,-0.8544921875,0.1220703125,1.77001953125,-3.460693359375,-66.6595458984375,-26.8560791015625
1758527149.6899588,0.90283203125,-0.0078125,0.39111328125,-0.8544921875,0.1220703125,1.77001953125,-3.515625,-66.6595458984375,-26.8011474609375
1758527149.6999912,0.892578125,0.0146484375,0.3740234375,-2.62451171875,0.3662109375,2.38037109375,-3.58154296875,-66.6595458984375,-26.7352294921875
1758527149.7100835,0.892578125,0.0146484375,0.3740234375,-2.62451171875,0.3662109375,2.38037109375,-3.658447265625,-66.654052734375,-26.6693115234375
1758527149.720059,0.8837890625,-0.0361328125,0.37353515625,-1.220703125,0.244140625,2.44140625,-3.7298583984375,-66.654052734375,-26.6033935546875
1758527149.7300665,0.8837890625,-0.0361328125,0.37353515625,-1.220703125,0.244140625,2.44140625,-3.7957763671875,-66.6485595703125,-26.531982421875
1758527149.7400951,0.89453125,-0.07080078125,0.37744140625,3.23486328125,-0.18310546875,1.52587890625,-3.8287353515625,-66.654052734375,-26.47705078125
1758527149.750038,0.89453125,-0.07080078125,0.37744140625,3.23486328125,-0.18310546875,1.52587890625,-3.834228515625,-66.654052734375,-26.4276123046875
1758527149.7601082,0.91357421875,-0.03173828125,0.3857421875,4.0283203125,-0.48828125,0.9765625,-3.8287353515625,-66.6595458984375,-26.3836669921875
1758527149.7704895,0.91357421875,-0.03173828125,0.3857421875,4.0283203125,-0.48828125,0.9765625,-3.8177490234375,-66.6650390625,-26.34521484375
1758527149.7802024,0.9140625,0.009765625,0.38916015625,0.0,-0.48828125,1.46484375,-3.834228515625,-66.6705322265625,-26.30126953125
1758527149.7901282,0.9140625,0.009765625,0.38916015625,0.0,-0.48828125,1.46484375,-3.8671875,-66.676025390625,-26.25732421875
1758527149.8001664,0.9140625,0.009765625,0.38916015625,-3.35693359375,-0.6103515625,2.13623046875,-3.922119140625,-66.6815185546875,-26.202392578125
1758527149.8103876,0.9140625,0.009765625,0.38916015625,-3.35693359375,-0.6103515625,2.13623046875,-4.0045166015625,-66.6925048828125,-26.1419677734375
1758527149.8202262,0.91650390625,-0.0693359375,0.388671875,1.03759765625,-1.220703125,2.01416015625,-4.0594482421875,-66.7034912109375,-26.08154296875
1758527149.830243,0.91650390625,-0.0693359375,0.388671875,1.03759765625,-1.220703125,2.01416015625,-4.0924072265625,-66.7144775390625,-26.0211181640625
1758527149.8405101,0.92578125,-0.0634765625,0.388671875,0.30517578125,-2.01416015625,1.40380859375,-4.130859375,-66.73095703125,-25.9661865234375
1758527149.8501673,0.92578125,-0.0634765625,0.388671875,0.30517578125,-2.01416015625,1.40380859375,-4.1693115234375,-66.7529296875,-25.9112548828125
1758527149.860285,0.91845703125,0.0087890625,0.359375,-3.96728515625,-2.50244140625,1.40380859375,-4.229736328125,-66.7803955078125,-25.86181640625
1758527149.8706357,0.91845703125,0.0087890625,0.359375,-3.96728515625,-2.50244140625,1.40380859375,-4.306640625,-66.807861328125,-25.8123779296875
1758527149.8802977,0.94482421875,0.00146484375,0.3876953125,-5.7373046875,-3.2958984375,1.708984375,-4.39453125,-66.8353271484375,-25.7574462890625
1758527149.8902524,0.94482421875,0.00146484375,0.3876953125,-5.7373046875,-3.2958984375,1.708984375,-4.4879150390625,-66.873779296875,-25.7025146484375
1758527149.900289,0.96240234375,-0.06201171875,0.404296875,-3.11279296875,-4.57763671875,1.3427734375,-4.5703125,-66.9122314453125,-25.6475830078125
1758527149.9104764,0.96240234375,-0.06201171875,0.404296875,-3.11279296875,-4.57763671875,1.3427734375,-4.63623046875,-66.961669921875,-25.59814453125
1758527149.9203165,0.97265625,-0.04931640625,0.39306640625,-0.1220703125,-5.31005859375,0.48828125,-4.68017578125,-67.0111083984375,-25.55419921875
1758527149.9305334,0.97265625,-0.04931640625,0.39306640625,-0.1220703125,-5.31005859375,0.48828125,-4.7021484375,-67.0660400390625,-25.521240234375
1758527149.9406824,0.97314453125,0.00390625,0.3984375,-4.08935546875,-5.4931640625,-0.06103515625,-4.7406005859375,-67.1209716796875,-25.4937744140625
1758527149.9503007,0.97314453125,0.00390625,0.3984375,-4.08935546875,-5.4931640625,-0.06103515625,-4.7900390625,-67.181396484375,-25.477294921875
1758527149.9605339,0.96337890625,-0.01806640625,0.3837890625,-1.46484375,-6.04248046875,-1.15966796875,-4.8065185546875,-67.2418212890625,-25.4718017578125
1758527149.9705932,0.96337890625,-0.01806640625,0.3837890625,-1.46484375,-6.04248046875,-1.15966796875,-4.801025390625,-67.30224609375,-25.4827880859375
1758527149.9804294,0.9287109375,-0.04345703125,0.39501953125,4.8828125,-6.4697265625,-2.5634765625,-4.74609375,-67.3681640625,-25.5157470703125
1758527149.9903977,0.9287109375,-0.04345703125,0.39501953125,4.8828125,-6.4697265625,-2.5634765625,-4.6417236328125,-67.43408203125,-25.5596923828125
1758527150.0005407,0.95703125,-0.07763671875,0.40283203125,-3.47900390625,-4.7607421875,1.46484375,-4.6307373046875,-67.4945068359375,-25.55419921875
1758527150.0105116,0.95703125,-0.07763671875,0.40283203125,-3.47900390625,-4.7607421875,1.46484375,-4.713134765625,-67.5384521484375,-25.499267578125
1758527150.020449,0.94921875,-0.00390625,0.3603515625,-13.0615234375,-3.5400390625,3.2958984375,-4.8614501953125,-67.576904296875,-25.42236328125
1758527150.030511,0.94921875,-0.00390625,0.3603515625,-13.0615234375,-3.5400390625,3.2958984375,-5.0811767578125,-67.60986328125,-25.3179931640625
1758527150.0406144,0.96240234375,-0.02392578125,0.431640625,-18.24951171875,-1.8310546875,6.8359375,-5.361328125,-67.6318359375,-25.1751708984375
1758527150.0504723,0.96240234375,-0.02392578125,0.431640625,-18.24951171875,-1.8310546875,6.8359375,-5.7073974609375,-67.642822265625,-24.9884033203125
1758527150.0604987,0.986328125,-0.1103515625,0.40380859375,-5.67626953125,-1.15966796875,6.04248046875,-5.9765625,-67.6483154296875,-24.818115234375
1758527150.0706828,0.986328125,-0.1103515625,0.40380859375,-5.67626953125,-1.15966796875,6.04248046875,-6.1798095703125,-67.65380859375,-24.6533203125
1758527150.0805323,0.9697265625,-0.12255859375,0.41748046875,8.4228515625,-0.30517578125,2.01416015625,-6.2677001953125,-67.65380859375,-24.54345703125
1758527150.0905197,0.9697265625,-0.12255859375,0.41748046875,8.4228515625,-0.30517578125,2.01416015625,-6.240234375,-67.65380859375,-24.4775390625
1758527150.1005633,0.9521484375,-0.033203125,0.39453125,14.16015625,0.0,-0.79345703125,-6.1578369140625,-67.6483154296875,-24.45556640625
1758527150.1106184,0.9521484375,-0.033203125,0.39453125,14.16015625,0.0,-0.79345703125,-6.009521484375,-67.6483154296875,-24.466552734375
1758527150.120583,0.9306640625,0.01806640625,0.36572265625,11.29150390625,-0.244140625,-1.8310546875,-5.8612060546875,-67.6483154296875,-24.4940185546875
1758527150.1306193,0.9306640625,0.01806640625,0.36572265625,11.29150390625,-0.244140625,-1.8310546875,-5.7073974609375,-67.65380859375,-24.5379638671875
1758527150.1407418,0.93115234375,-0.0361328125,0.3798828125,17.39501953125,-1.3427734375,-3.47900390625,-5.504150390625,-67.6593017578125,-24.6038818359375
1758527150.1505675,0.93115234375,-0.0361328125,0.3798828125,17.39501953125,-1.3427734375,-3.47900390625,-5.25146484375,-67.67578125,-24.686279296875
1758527150.160638,0.92626953125,-0.06494140625,0.3779296875,23.01025390625,-2.25830078125,-5.126953125,-4.954833984375,-67.69775390625,-24.7906494140625
1758527150.171605,0.92626953125,-0.06494140625,0.3779296875,23.01025390625,-2.25830078125,-5.126953125,-4.6142578125,-67.7252197265625,-24.9114990234375
1758527150.1807902,0.92431640625,-0.0390625,0.3671875,23.98681640625,-2.685546875,-6.4697265625,-4.2572021484375,-67.752685546875,-25.048828125
1758527150.1906965,0.92431640625,-0.0390625,0.3671875,23.98681640625,-2.685546875,-6.4697265625,-3.878173828125,-67.7801513671875,-25.1971435546875
1758527150.2012827,0.91455078125,-0.005859375,0.345703125,21.97265625,-2.685546875,-6.77490234375,-3.5101318359375,-67.8131103515625,-25.3564453125
1758527150.2108202,0.91455078125,-0.005859375,0.345703125,21.97265625,-2.685546875,-6.77490234375,-3.14208984375,-67.840576171875,-25.5157470703125
1758527150.2207315,0.9033203125,0.0302734375,0.34375,17.4560546875,-2.74658203125,-6.04248046875,-2.8070068359375,-67.87353515625,-25.6695556640625
1758527150.2307389,0.9033203125,0.0302734375,0.34375,17.4560546875,-2.74658203125,-6.04248046875,-2.4993896484375,-67.906494140625,-25.8123779296875
1758527150.2410388,0.89404296875,0.02392578125,0.3291015625,6.103515625,-2.86865234375,-3.96728515625,-2.2686767578125,-67.939453125,-25.9332275390625
1758527150.2507436,0.89404296875,0.02392578125,0.3291015625,6.103515625,-2.86865234375,-3.96728515625,-2.1148681640625,-67.972412109375,-26.0211181640625
1758527150.26079,0.875,-0.00537109375,0.32861328125,0.18310546875,-2.685546875,-2.9296875,-1.99951171875,-68.00537109375,-26.103515625
1758527150.2709482,0.875,-0.00537109375,0.32861328125,0.18310546875,-2.685546875,-2.9296875,-1.93359375,-68.0328369140625,-26.1639404296875
1758527150.2809825,0.8837890625,-0.017578125,0.33642578125,-3.47900390625,-2.0751953125,-3.23486328125,-1.8731689453125,-68.0657958984375,-26.2353515625
1758527150.2908664,0.8837890625,-0.017578125,0.33642578125,-3.47900390625,-2.0751953125,-3.23486328125,-1.834716796875,-68.0877685546875,-26.3067626953125
1758527150.3009443,0.8935546875,0.0185546875,0.32861328125,-11.5966796875,-0.6103515625,-2.5634765625,-1.8402099609375,-68.1097412109375,-26.3726806640625
1758527150.3109312,0.8935546875,0.0185546875,0.32861328125,-11.5966796875,-0.6103515625,-2.5634765625,-1.8896484375,-68.1207275390625,-26.4276123046875
1758527150.3209066,0.9111328125,0.03759765625,0.32861328125,-22.0947265625,0.9765625,0.1220703125,-2.021484375,-68.1207275390625,-26.4495849609375
1758527150.3310387,0.9111328125,0.03759765625,0.32861328125,-22.0947265625,0.9765625,0.1220703125,-2.2357177734375,-68.1207275390625,-26.4385986328125
1758527150.3410466,0.8759765625,-0.01513671875,0.3896484375,-27.83203125,2.0751953125,5.0048828125,-2.5323486328125,-68.1097412109375,-26.3671875
1758527150.3508568,0.8759765625,-0.01513671875,0.3896484375,-27.83203125,2.0751953125,5.0048828125,-2.9168701171875,-68.0877685546875,-26.2298583984375
1758527150.3608816,0.89794921875,-0.14013671875,0.3330078125,-20.32470703125,1.3427734375,6.53076171875,-3.284912109375,-68.0712890625,-26.0760498046875
1758527150.3709085,0.89794921875,-0.14013671875,0.3330078125,-20.32470703125,1.3427734375,6.53076171875,-3.6474609375,-68.060302734375,-25.894775390625
1758527150.3809521,0.94482421875,-0.1259765625,0.4111328125,-14.09912109375,1.3427734375,2.38037109375,-3.93310546875,-68.0438232421875,-25.762939453125
1758527150.390954,0.94482421875,-0.1259765625,0.4111328125,-14.09912109375,1.3427734375,2.38037109375,-4.141845703125,-68.0328369140625,-25.6805419921875
1758527150.4010124,0.95556640625,0.052734375,0.3798828125,-12.75634765625,0.91552734375,0.1220703125,-4.3231201171875,-68.0218505859375,-25.6365966796875
1758527150.4110703,0.95556640625,0.052734375,0.3798828125,-12.75634765625,0.91552734375,0.1220703125,-4.46044921875,-68.016357421875,-25.6201171875
1758527150.420972,0.92431640625,0.0390625,0.34912109375,-11.474609375,1.0986328125,-0.42724609375,-4.5703125,-68.00537109375,-25.6201171875
1758527150.4310086,0.92431640625,0.0390625,0.34912109375,-11.474609375,1.0986328125,-0.42724609375,-4.6636962890625,-67.9998779296875,-25.631103515625
1758527150.4412265,0.9306640625,-0.046875,0.35693359375,-15.07568359375,1.89208984375,-0.9765625,-4.7625732421875,-67.9888916015625,-25.653076171875
1758527150.4509876,0.9306640625,-0.046875,0.35693359375,-15.07568359375,1.89208984375,-0.9765625,-4.8724365234375,-67.972412109375,-25.675048828125
1758527150.461053,0.9267578125,-0.03857421875,0.41259765625,-18.37158203125,2.13623046875,-0.244140625,-5.0152587890625,-67.9559326171875,-25.6915283203125
1758527150.4716797,0.9267578125,-0.03857421875,0.41259765625,-18.37158203125,2.13623046875,-0.244140625,-5.1800537109375,-67.939453125,-25.7025146484375
1758527150.4811113,0.90087890625,-0.078125,0.341796875,-13.73291015625,1.5869140625,-0.30517578125,-5.3173828125,-67.91748046875,-25.7080078125
1758527150.4910476,0.90087890625,-0.078125,0.341796875,-13.73291015625,1.5869140625,-0.30517578125,-5.4437255859375,-67.906494140625,-25.7135009765625
1758527150.5053923,0.89453125,-0.03662109375,0.353515625,-6.8359375,1.3427734375,-1.64794921875,-5.4656982421875,-67.8955078125,-25.7574462890625
1758527150.5130749,0.89453125,-0.03662109375,0.353515625,-6.8359375,1.3427734375,-1.64794921875,-5.4876708984375,-67.884521484375,-25.7958984375
1758527150.5211813,0.9111328125,-0.07958984375,0.37548828125,-1.52587890625,1.0986328125,-1.8310546875,-5.4547119140625,-67.8790283203125,-25.83984375
1758527150.5315032,0.9111328125,-0.07958984375,0.37548828125,-1.52587890625,1.0986328125,-1.8310546875,-5.42724609375,-67.8680419921875,-25.8782958984375
1758527150.5416603,0.921875,-0.033203125,0.35400390625,-1.28173828125,0.67138671875,-1.64794921875,-5.4052734375,-67.8680419921875,-25.9112548828125
1758527150.5511503,0.921875,-0.033203125,0.35400390625,-1.28173828125,0.67138671875,-1.64794921875,-5.38330078125,-67.862548828125,-25.9442138671875
1758527150.5616298,0.9208984375,-0.02001953125,0.369140625,-3.90625,0.54931640625,-1.5869140625,-5.38330078125,-67.862548828125,-25.9771728515625
1758527150.5713763,0.9208984375,-0.02001953125,0.369140625,-3.90625,0.54931640625,-1.5869140625,-5.3887939453125,-67.8570556640625,-26.0101318359375
1758527150.5814064,0.93017578125,-0.0517578125,0.37451171875,0.1220703125,0.3662109375,-2.62451171875,-5.3228759765625,-67.862548828125,-26.0650634765625
1758527150.591241,0.93017578125,-0.0517578125,0.37451171875,0.1220703125,0.3662109375,-2.62451171875,-5.262451171875,-67.862548828125,-26.12548828125
1758527150.6013377,0.95458984375,-0.0322265625,0.3681640625,1.03759765625,0.732421875,-3.5400390625,-5.1690673828125,-67.8570556640625,-26.2078857421875
1758527150.6114283,0.95458984375,-0.0322265625,0.3681640625,1.03759765625,0.732421875,-3.5400390625,-5.07568359375,-67.8570556640625,-26.290283203125
1758527150.6212938,0.93701171875,-0.0166015625,0.3974609375,-0.42724609375,1.03759765625,-3.5400390625,-4.9932861328125,-67.8515625,-26.378173828125
1758527150.6315277,0.93701171875,-0.0166015625,0.3974609375,-0.42724609375,1.03759765625,-3.5400390625,-4.910888671875,-67.8460693359375,-26.4605712890625
1758527150.6418004,0.91650390625,-0.08447265625,0.35400390625,5.859375,0.67138671875,-3.23486328125,-4.779052734375,-67.840576171875,-26.5374755859375
1758527150.651257,0.91650390625,-0.08447265625,0.35400390625,5.859375,0.67138671875,-3.23486328125,-4.647216796875,-67.840576171875,-26.6033935546875
1758527150.6617017,0.93212890625,-0.10498046875,0.3701171875,18.06640625,0.1220703125,-3.96728515625,-4.3890380859375,-67.8460693359375,-26.6912841796875
1758527150.671502,0.93212890625,-0.10498046875,0.3701171875,18.06640625,0.1220703125,-3.96728515625,-4.1363525390625,-67.8460693359375,-26.773681640625
1758527150.6814113,0.912109375,-0.02685546875,0.38525390625,19.775390625,0.1220703125,-5.31005859375,-3.8287353515625,-67.8515625,-26.8890380859375
1758527150.6912558,0.912109375,-0.02685546875,0.38525390625,19.775390625,0.1220703125,-5.31005859375,-3.526611328125,-67.8515625,-27.0098876953125
1758527150.701441,0.91015625,0.04248046875,0.3486328125,15.19775390625,0.18310546875,-5.18798828125,-3.2684326171875,-67.8570556640625,-27.125244140625
1758527150.7115345,0.91015625,0.04248046875,0.3486328125,15.19775390625,0.18310546875,-5.18798828125,-2.999267578125,-67.8570556640625,-27.2515869140625
1758527150.7213378,0.92431640625,0.0322265625,0.3544921875,9.27734375,0.06103515625,-5.79833984375,-2.7740478515625,-67.862548828125,-27.388916015625
1758527150.731445,0.92431640625,0.0322265625,0.3544921875,9.27734375,0.06103515625,-5.79833984375,-2.5433349609375,-67.8680419921875,-27.53173828125
1758527150.7419975,0.93505859375,-0.0517578125,0.3935546875,13.73291015625,-0.1220703125,-5.859375,-2.2686767578125,-67.87353515625,-27.6690673828125
1758527150.7513924,0.93505859375,-0.0517578125,0.3935546875,13.73291015625,-0.1220703125,-5.859375,-1.99951171875,-67.8790283203125,-27.8118896484375
1758527150.7614496,0.94384765625,-0.08740234375,0.392578125,21.42333984375,-0.91552734375,-6.34765625,-1.64794921875,-67.8900146484375,-27.960205078125
1758527150.7716837,0.94384765625,-0.08740234375,0.392578125,21.42333984375,-0.91552734375,-6.34765625,-1.3018798828125,-67.9010009765625,-28.1085205078125
1758527150.7816923,0.912109375,-0.0458984375,0.392578125,29.6630859375,-1.77001953125,-6.77490234375,-0.867919921875,-67.9229736328125,-28.2623291015625
1758527150.791391,0.912109375,-0.0458984375,0.392578125,29.6630859375,-1.77001953125,-6.77490234375,-0.439453125,-67.939453125,-28.421630859375
1758527150.8015711,0.912109375,-0.0458984375,0.392578125,33.26416015625,-1.46484375,-6.89697265625,0.0274658203125,-67.950439453125,-28.5809326171875
1758527150.8116255,0.88232421875,0.001953125,0.37353515625,33.26416015625,-1.46484375,-6.89697265625,0.494384765625,-67.9669189453125,-28.7457275390625
1758527150.8214614,0.90869140625,0.0048828125,0.3583984375,37.353515625,-0.30517578125,-6.4697265625,0.999755859375,-67.9669189453125,-28.89404296875
1758527150.831777,0.90869140625,0.0048828125,0.3583984375,37.353515625,-0.30517578125,-6.4697265625,1.4996337890625,-67.9669189453125,-29.0478515625
1758527150.8421469,0.978515625,0.06982421875,0.39501953125,36.56005859375,0.244140625,-6.591796875,1.99951171875,-67.96142578125,-29.2071533203125
1758527150.8515184,0.978515625,0.06982421875,0.39501953125,36.56005859375,0.244140625,-6.591796875,2.5048828125,-67.9559326171875,-29.366455078125
1758527150.8617897,0.92236328125,0.0029296875,0.35107421875,23.86474609375,1.708984375,-5.79833984375,2.8619384765625,-67.9339599609375,-29.498291015625
1758527150.8718038,0.92236328125,0.0029296875,0.35107421875,23.86474609375,1.708984375,-5.79833984375,3.218994140625,-67.91748046875,-29.6356201171875
1758527150.8817973,0.9033203125,0.07177734375,0.33984375,10.80322265625,4.82177734375,-5.615234375,3.438720703125,-67.8680419921875,-29.761962890625
1758527150.8915503,0.9033203125,0.07177734375,0.33984375,10.80322265625,4.82177734375,-5.615234375,3.658447265625,-67.818603515625,-29.8883056640625
1758527150.9018116,0.88623046875,0.09326171875,0.36962890625,5.92041015625,6.4697265625,-3.96728515625,3.7957763671875,-67.752685546875,-29.970703125
1758527150.9117877,0.88623046875,0.09326171875,0.36962890625,5.92041015625,6.4697265625,-3.96728515625,3.9385986328125,-67.686767578125,-30.05859375
1758527150.9216127,0.90478515625,0.11328125,0.25927734375,-10.986328125,6.77490234375,-2.44140625,3.8836669921875,-67.6263427734375,-30.1025390625
1758527150.9316676,0.90478515625,0.11328125,0.25927734375,-10.986328125,6.77490234375,-2.44140625,3.8397216796875,-67.56591796875,-30.1519775390625
1758527150.9421504,0.9228515625,0.09912109375,0.314453125,-33.0810546875,7.8125,-0.91552734375,3.5430908203125,-67.4945068359375,-30.157470703125
1758527150.9516482,0.9228515625,0.09912109375,0.314453125,-33.0810546875,7.8125,-0.91552734375,3.251953125,-67.4285888671875,-30.16845703125
1758527150.9619849,0.912109375,0.0361328125,0.41552734375,-42.54150390625,8.30078125,0.42724609375,2.83447265625,-67.357177734375,-30.146484375
1758527150.9719944,0.912109375,0.0361328125,0.41552734375,-42.54150390625,8.30078125,0.42724609375,2.4224853515625,-67.2802734375,-30.1300048828125
1758527150.982197,0.9169921875,-0.05322265625,0.37939453125,-37.90283203125,7.38525390625,0.9765625,2.0379638671875,-67.21435546875,-30.0970458984375
1758527150.991697,0.9169921875,-0.05322265625,0.37939453125,-37.90283203125,7.38525390625,0.9765625,1.6534423828125,-67.1484375,-30.05859375
1758527151.0019522,0.9375,-0.0595703125,0.390625,-28.38134765625,5.859375,0.6103515625,1.3623046875,-67.0989990234375,-30.0311279296875
1758527151.0121026,0.9375,-0.0595703125,0.390625,-28.38134765625,5.859375,0.6103515625,1.0711669921875,-67.049560546875,-30.003662109375
1758527151.021674,0.94677734375,-0.0556640625,0.462890625,-12.939453125,4.57763671875,0.732421875,0.9228515625,-67.0111083984375,-29.9652099609375
1758527151.032358,0.94677734375,-0.0556640625,0.462890625,-12.939453125,4.57763671875,0.732421875,0.76904296875,-66.9671630859375,-29.9322509765625
1758527151.042056,0.9375,-0.05810546875,0.41064453125,-2.01416015625,3.96728515625,1.28173828125,0.714111328125,-66.9287109375,-29.8883056640625
1758527151.0517752,0.9375,-0.05810546875,0.41064453125,-2.01416015625,3.96728515625,1.28173828125,0.648193359375,-66.895751953125,-29.8388671875
1758527151.0623057,0.95068359375,0.0009765625,0.35888671875,-1.89208984375,3.5400390625,1.8310546875,0.5767822265625,-66.86279296875,-29.7784423828125
1758527151.0724902,0.95068359375,0.0009765625,0.35888671875,-1.89208984375,3.5400390625,1.8310546875,0.4998779296875,-66.829833984375,-29.718017578125
1758527151.082424,0.99365234375,0.07958984375,0.3857421875,-14.70947265625,3.41796875,2.44140625,0.2911376953125,-66.8023681640625,-29.64111328125
1758527151.0917943,0.99365234375,0.07958984375,0.3857421875,-14.70947265625,3.41796875,2.44140625,0.0933837890625,-66.77490234375,-29.5697021484375
1758527151.1022668,0.9951171875,0.078125,0.43359375,-25.87890625,3.60107421875,3.5400390625,-0.230712890625,-66.741943359375,-29.476318359375
1758527151.1122742,0.9951171875,0.078125,0.43359375,-25.87890625,3.60107421875,3.5400390625,-0.54931640625,-66.7144775390625,-29.388427734375
1758527151.121806,0.9716796875,-0.02197265625,0.4228515625,-28.86962890625,3.72314453125,4.638671875,-0.9228515625,-66.6815185546875,-29.2730712890625
1758527151.1319823,0.9716796875,-0.02197265625,0.4228515625,-28.86962890625,3.72314453125,4.638671875,-1.3018798828125,-66.6485595703125,-29.1632080078125
1758527151.141896,0.95849609375,-0.06103515625,0.40869140625,-25.32958984375,3.11279296875,4.33349609375,-1.636962890625,-66.62109375,-29.0533447265625
1758527151.152176,0.95849609375,-0.06103515625,0.40869140625,-25.32958984375,3.11279296875,4.33349609375,-1.9775390625,-66.588134765625,-28.948974609375
1758527151.1620753,0.982421875,-0.05224609375,0.43310546875,-17.02880859375,2.3193359375,3.23486328125,-2.208251953125,-66.5716552734375,-28.8665771484375
1758527151.1730733,0.982421875,-0.05224609375,0.43310546875,-17.02880859375,2.3193359375,3.23486328125,-2.4444580078125,-66.5496826171875,-28.7841796875
1758527151.1819441,0.9912109375,-0.03955078125,0.455078125,-9.765625,1.89208984375,2.5634765625,-2.5927734375,-66.533203125,-28.71826171875
1758527151.1922035,0.9912109375,-0.03955078125,0.455078125,-9.765625,1.89208984375,2.5634765625,-2.74658203125,-66.51123046875,-28.65234375
1758527151.2023335,0.95263671875,-0.0234375,0.39453125,-9.8876953125,1.220703125,2.8076171875,-2.9058837890625,-66.500244140625,-28.5809326171875
1758527151.212688,0.95263671875,-0.0234375,0.39453125,-9.8876953125,1.220703125,2.8076171875,-3.0596923828125,-66.4892578125,-28.509521484375
1758527151.221936,0.91455078125,0.0029296875,0.35693359375,-13.12255859375,0.48828125,3.41796875,-3.262939453125,-66.4837646484375,-28.421630859375
1758527151.232273,0.91455078125,0.0029296875,0.35693359375,-13.12255859375,0.48828125,3.41796875,-3.4661865234375,-66.4837646484375,-28.333740234375
1758527151.2419965,0.908203125,-0.04443359375,0.38623046875,-8.4228515625,-0.1220703125,3.0517578125,-3.614501953125,-66.4837646484375,-28.2513427734375
1758527151.2524333,0.908203125,-0.04443359375,0.38623046875,-8.4228515625,-0.1220703125,3.0517578125,-3.75732421875,-66.4892578125,-28.1689453125
1758527151.2620573,0.91796875,-0.06298828125,0.41748046875,-2.38037109375,-0.244140625,2.44140625,-3.834228515625,-66.4947509765625,-28.10302734375
1758527151.2728121,0.91796875,-0.06298828125,0.41748046875,-2.38037109375,-0.244140625,2.44140625,-3.9166259765625,-66.4947509765625,-28.0316162109375
1758527151.2821524,0.93212890625,-0.03955078125,0.3759765625,0.06103515625,-0.244140625,2.44140625,-3.9715576171875,-66.500244140625,-27.9656982421875
1758527151.2927241,0.93212890625,-0.03955078125,0.3759765625,0.06103515625,-0.244140625,2.44140625,-4.0264892578125,-66.500244140625,-27.894287109375
1758527151.3024738,0.908203125,-0.0078125,0.40869140625,-2.74658203125,-0.1220703125,2.99072265625,-4.1253662109375,-66.5057373046875,-27.8173828125
1758527151.3121154,0.908203125,-0.0078125,0.40869140625,-2.74658203125,-0.1220703125,2.99072265625,-4.21875,-66.5057373046875,-27.7349853515625
1758527151.3221548,0.92626953125,-0.03857421875,0.3740234375,-1.46484375,0.06103515625,2.86865234375,-4.295654296875,-66.5057373046875,-27.6580810546875
1758527151.3321726,0.92626953125,-0.03857421875,0.3740234375,-1.46484375,0.06103515625,2.86865234375,-4.37255859375,-66.5057373046875,-27.5811767578125
1758527151.342203,0.927734375,-0.06689453125,0.439453125,5.67626953125,1.0986328125,1.89208984375,-4.3560791015625,-66.4947509765625,-27.53173828125
1758527151.3521862,0.927734375,-0.06689453125,0.439453125,5.67626953125,1.0986328125,1.89208984375,-4.3450927734375,-66.4837646484375,-27.4822998046875
1758527151.3621752,0.90185546875,-0.03466796875,0.4052734375,6.103515625,2.9296875,1.220703125,-4.3121337890625,-66.4508056640625,-27.454833984375
1758527151.3727045,0.90185546875,-0.03466796875,0.4052734375,6.103515625,2.9296875,1.220703125,-4.2791748046875,-66.42333984375,-27.421875
1758527151.3823464,0.88037109375,0.025390625,0.369140625,-1.953125,4.5166015625,1.28173828125,-4.317626953125,-66.3739013671875,-27.39990234375
1758527151.3921776,0.88037109375,0.025390625,0.369140625,-1.953125,4.5166015625,1.28173828125,-4.3560791015625,-66.3299560546875,-27.3724365234375
1758527151.4023752,0.88671875,-0.00341796875,0.4033203125,-3.72314453125,5.126953125,0.79345703125,-4.39453125,-66.280517578125,-27.366943359375
1758527151.4123268,0.88671875,-0.00341796875,0.4033203125,-3.72314453125,5.126953125,0.79345703125,-4.4329833984375,-66.2310791015625,-27.35595703125
1758527151.4221857,0.85400390625,-0.04150390625,0.40966796875,-2.5634765625,6.53076171875,0.0,-4.4384765625,-66.1651611328125,-27.3724365234375
1758527151.4322252,0.85400390625,-0.04150390625,0.40966796875,-2.5634765625,6.53076171875,0.0,-4.449462890625,-66.0992431640625,-27.388916015625
1758527151.4422622,0.8115234375,-0.060546875,0.37353515625,1.15966796875,7.75146484375,-0.3662109375,-4.4110107421875,-66.0223388671875,-27.4163818359375
1758527151.452239,0.8115234375,-0.060546875,0.37353515625,1.15966796875,7.75146484375,-0.3662109375,-4.3780517578125,-65.9454345703125,-27.4383544921875
1758527151.4623015,0.85791015625,-0.05029296875,0.34765625,5.55419921875,6.8359375,-0.732421875,-4.295654296875,-65.8795166015625,-27.4658203125
1758527151.4723964,0.85791015625,-0.05029296875,0.34765625,5.55419921875,6.8359375,-0.732421875,-4.21875,-65.8135986328125,-27.48779296875
1758527151.4823048,0.96044921875,-0.05517578125,0.3271484375,12.26806640625,2.197265625,-1.3427734375,-4.0704345703125,-65.797119140625,-27.5152587890625
1758527151.4924014,0.94677734375,-0.00390625,0.49462890625,9.33837890625,0.9765625,-2.25830078125,-3.9276123046875,-65.7861328125,-27.5482177734375
1758527151.5026617,0.94677734375,-0.00390625,0.49462890625,9.33837890625,0.9765625,-2.25830078125,-3.7847900390625,-65.7806396484375,-27.5921630859375
1758527151.5123894,0.90234375,0.00341796875,0.416015625,5.7373046875,2.25830078125,-2.25830078125,-3.6639404296875,-65.7696533203125,-27.6416015625
1758527151.5223248,0.90234375,0.00341796875,0.416015625,5.7373046875,2.25830078125,-2.25830078125,-3.5540771484375,-65.7476806640625,-27.696533203125
1758527151.532353,0.908203125,0.052734375,0.41015625,-0.8544921875,3.0517578125,-1.28173828125,-3.4881591796875,-65.7257080078125,-27.740478515625
1758527151.5427978,0.908203125,0.052734375,0.41015625,-0.8544921875,3.0517578125,-1.28173828125,-3.4552001953125,-65.6982421875,-27.7789306640625
1758527151.552383,0.9833984375,-0.09814453125,0.3232421875,-1.28173828125,-1.8310546875,2.9296875,-3.4716796875,-65.6927490234375,-27.762451171875
1758527151.5624704,0.9833984375,-0.09814453125,0.3232421875,-1.28173828125,-1.8310546875,2.9296875,-3.548583984375,-65.7147216796875,-27.6800537109375
1758527151.5725598,0.9912109375,-0.1552734375,0.4560546875,7.568359375,-6.2255859375,1.0986328125,-3.570556640625,-65.7586669921875,-27.6141357421875
1758527151.5825782,0.9912109375,-0.1552734375,0.4560546875,7.568359375,-6.2255859375,1.0986328125,-3.5430908203125,-65.8245849609375,-27.5592041015625
1758527151.5925305,0.93310546875,-0.0576171875,0.43212890625,15.869140625,-6.89697265625,-1.3427734375,-3.4552001953125,-65.89599609375,-27.53173828125
1758527151.603292,0.93310546875,-0.0576171875,0.43212890625,15.869140625,-6.89697265625,-1.3427734375,-3.2958984375,-65.9674072265625,-27.5372314453125
1758527151.6125479,0.8583984375,0.126953125,0.39306640625,7.87353515625,-4.638671875,-1.89208984375,-3.1695556640625,-66.02783203125,-27.5537109375
1758527151.6229131,0.8583984375,0.126953125,0.39306640625,7.87353515625,-4.638671875,-1.89208984375,-3.065185546875,-66.0772705078125,-27.586669921875
1758527151.6325192,0.89453125,0.0556640625,0.37890625,-9.21630859375,-1.220703125,-1.220703125,-3.0322265625,-66.104736328125,-27.6251220703125
1758527151.643612,0.89453125,0.0556640625,0.37890625,-9.21630859375,-1.220703125,-1.220703125,-3.087158203125,-66.1212158203125,-27.652587890625
1758527151.6525025,0.94482421875,-0.0185546875,0.4423828125,-12.14599609375,0.0,-1.220703125,-3.153076171875,-66.126708984375,-27.6910400390625
1758527151.6629586,0.94482421875,-0.0185546875,0.4423828125,-12.14599609375,0.0,-1.220703125,-3.2354736328125,-66.1322021484375,-27.7239990234375
1758527151.6727428,0.93310546875,-0.0859375,0.357421875,-5.67626953125,-0.8544921875,-0.8544921875,-3.2904052734375,-66.1322021484375,-27.7569580078125
1758527151.68298,0.93310546875,-0.0859375,0.357421875,-5.67626953125,-0.8544921875,-0.8544921875,-3.3233642578125,-66.1431884765625,-27.7734375
1758527151.6926484,0.89111328125,-0.05224609375,0.42431640625,-3.5400390625,0.06103515625,-0.54931640625,-3.350830078125,-66.1541748046875,-27.784423828125
1758527151.7035758,0.89111328125,-0.05224609375,0.42431640625,-3.5400390625,0.06103515625,-0.54931640625,-3.3782958984375,-66.1541748046875,-27.79541015625
1758527151.7126882,0.9072265625,-0.0185546875,0.44091796875,0.8544921875,2.685546875,-0.30517578125,-3.3837890625,-66.1376953125,-27.8009033203125
1758527151.7232096,0.9072265625,-0.0185546875,0.44091796875,0.8544921875,2.685546875,-0.30517578125,-3.3673095703125,-66.1102294921875,-27.8118896484375
1758527151.7326272,0.94140625,-0.01611328125,0.42138671875,3.47900390625,3.5400390625,-0.48828125,-3.3343505859375,-66.0772705078125,-27.828369140625
1758527151.7349694,0.94140625,-0.01611328125,0.42138671875,3.47900390625,3.5400390625,-0.48828125,121.4044189453125,-161.3067626953125,0.0054931640625
1758527151.7438285,0.94140625,-0.01611328125,0.42138671875,3.47900390625,3.5400390625,-0.48828125,-3.284912109375,-66.0443115234375,-27.8448486328125
1758527151.7458014,0.94140625,-0.01611328125,0.42138671875,3.47900390625,3.5400390625,-0.48828125,121.4044189453125,-161.3067626953125,0.0054931640625
1758527151.7526348,0.95703125,-0.0244140625,0.314453125,-1.15966796875,0.48828125,0.3662109375,-3.2684326171875,-66.0223388671875,-27.850341796875
1758527151.7627099,0.95703125,-0.0244140625,0.314453125,-1.15966796875,0.48828125,0.3662109375,-3.2904052734375,-66.0223388671875,-27.8338623046875
1758527151.7730088,0.94140625,-0.03125,0.42529296875,-6.40869140625,-1.03759765625,1.28173828125,-3.3453369140625,-66.02783203125,-27.806396484375
1758527151.7826645,0.94140625,-0.03125,0.42529296875,-6.40869140625,-1.03759765625,1.28173828125,-3.438720703125,-66.0443115234375,-27.7679443359375
1758527151.7851655,0.94140625,-0.03125,0.42529296875,-6.40869140625,-1.03759765625,1.28173828125,121.4044189453125,-161.3067626953125,0.0054931640625
1758527151.7927992,0.94677734375,-0.03759765625,0.455078125,-1.8310546875,-1.03759765625,0.8544921875,-3.5101318359375,-66.0552978515625,-27.7294921875
1758527151.8028626,0.94677734375,-0.03759765625,0.455078125,-1.8310546875,-1.03759765625,0.8544921875,-3.548583984375,-66.0662841796875,-27.7020263671875
1758527151.8127887,0.9619140625,-0.02392578125,0.4140625,6.40869140625,-1.28173828125,0.244140625,-3.5430908203125,-66.0772705078125,-27.6800537109375
1758527151.8227406,0.9619140625,-0.02392578125,0.4140625,6.40869140625,-1.28173828125,0.244140625,-3.4881591796875,-66.09375,-27.6690673828125
1758527151.8327682,0.95361328125,0.0,0.4072265625,2.50244140625,-2.13623046875,0.67138671875,-3.4552001953125,-66.1102294921875,-27.652587890625
1758527151.843209,0.95361328125,0.0,0.4072265625,2.50244140625,-2.13623046875,0.67138671875,-3.44970703125,-66.1322021484375,-27.630615234375
1758527151.8527799,0.91796875,-0.01220703125,0.3876953125,-12.75634765625,-3.0517578125,1.953125,-3.5321044921875,-66.15966796875,-27.586669921875
1758527151.862946,0.91796875,-0.01220703125,0.3876953125,-12.75634765625,-3.0517578125,1.953125,-3.702392578125,-66.192626953125,-27.53173828125
1758527151.8731534,0.896484375,-0.0537109375,0.40185546875,-10.43701171875,-3.23486328125,1.89208984375,-3.8616943359375,-66.2200927734375,-27.476806640625
1758527151.882787,0.896484375,-0.0537109375,0.40185546875,-10.43701171875,-3.23486328125,1.89208984375,-4.010009765625,-66.2530517578125,-27.421875
1758527151.8928475,0.92431640625,-0.0673828125,0.40087890625,0.8544921875,-2.9296875,1.77001953125,-4.1033935546875,-66.2860107421875,-27.366943359375
1758527151.9028933,0.92431640625,-0.0673828125,0.40087890625,0.8544921875,-2.9296875,1.77001953125,-4.141845703125,-66.3134765625,-27.3175048828125
1758527151.9129214,0.93896484375,-0.0263671875,0.42919921875,2.01416015625,-2.86865234375,1.953125,-4.1748046875,-66.3409423828125,-27.257080078125
1758527151.9228916,0.93896484375,-0.0263671875,0.42919921875,2.01416015625,-2.86865234375,1.953125,-4.207763671875,-66.368408203125,-27.2021484375
1758527151.932888,0.92333984375,0.0048828125,0.416015625,-5.7373046875,-2.44140625,2.197265625,-4.2791748046875,-66.390380859375,-27.1417236328125
1758527151.9433193,0.92333984375,0.0048828125,0.416015625,-5.7373046875,-2.44140625,2.197265625,-4.3890380859375,-66.412353515625,-27.0867919921875
1758527151.9529278,0.9208984375,-0.0458984375,0.38330078125,-6.103515625,-2.01416015625,2.38037109375,-4.4989013671875,-66.4288330078125,-27.0263671875
1758527151.9635184,0.9208984375,-0.0458984375,0.38330078125,-6.103515625,-2.01416015625,2.38037109375,-4.6142578125,-66.4508056640625,-26.9659423828125
1758527151.9745142,0.93212890625,-0.06982421875,0.39892578125,-0.8544921875,-1.64794921875,2.50244140625,-4.7076416015625,-66.4617919921875,-26.9000244140625
1758527151.9830256,0.93212890625,-0.06982421875,0.39892578125,-0.8544921875,-1.64794921875,2.50244140625,-4.779052734375,-66.478271484375,-26.82861328125
1758527151.9929533,0.9453125,-0.04052734375,0.40771484375,1.15966796875,-1.40380859375,2.5634765625,-4.8394775390625,-66.4892578125,-26.7626953125
1758527152.0032976,0.9453125,-0.04052734375,0.40771484375,1.15966796875,-1.40380859375,2.5634765625,-4.888916015625,-66.500244140625,-26.6912841796875
1758527152.0134008,0.94189453125,-0.00927734375,0.41796875,-2.0751953125,-0.79345703125,2.9296875,-4.9603271484375,-66.51123046875,-26.619873046875
1758527152.0230489,0.94189453125,-0.00927734375,0.41796875,-2.0751953125,-0.79345703125,2.9296875,-5.0482177734375,-66.51123046875,-26.54296875
1758527152.0339332,0.92822265625,-0.046875,0.416015625,-2.9296875,-0.06103515625,3.23486328125,-5.1416015625,-66.5167236328125,-26.466064453125
1758527152.043563,0.92822265625,-0.046875,0.416015625,-2.9296875,-0.06103515625,3.23486328125,-5.2459716796875,-66.51123046875,-26.38916015625
1758527152.0534425,0.9384765625,-0.08154296875,0.37744140625,0.732421875,0.1220703125,3.11279296875,-5.328369140625,-66.5057373046875,-26.312255859375
1758527152.063239,0.9384765625,-0.08154296875,0.37744140625,0.732421875,0.1220703125,3.11279296875,-5.394287109375,-66.500244140625,-26.2353515625
1758527152.0739908,0.93212890625,-0.03662109375,0.4169921875,6.65283203125,0.06103515625,2.62451171875,-5.42724609375,-66.500244140625,-26.158447265625
1758527152.0830579,0.93212890625,-0.03662109375,0.4169921875,6.65283203125,0.06103515625,2.62451171875,-5.4217529296875,-66.4947509765625,-26.092529296875
1758527152.093964,0.9111328125,-0.00927734375,0.3857421875,2.197265625,-0.1220703125,2.44140625,-5.438232421875,-66.4947509765625,-26.026611328125
1758527152.1031356,0.9111328125,-0.00927734375,0.3857421875,2.197265625,-0.1220703125,2.44140625,-5.47119140625,-66.4892578125,-25.9661865234375
1758527152.1137872,0.86962890625,-0.03369140625,0.38427734375,3.35693359375,-0.18310546875,2.0751953125,-5.4931640625,-66.4892578125,-25.9112548828125
1758527152.1245544,0.86962890625,-0.03369140625,0.38427734375,3.35693359375,-0.18310546875,2.0751953125,-5.504150390625,-66.4892578125,-25.86181640625
1758527152.1335065,0.87841796875,-0.0634765625,0.36474609375,6.04248046875,-0.06103515625,2.197265625,-5.5096435546875,-66.4892578125,-25.8123779296875
1758527152.1441624,0.87841796875,-0.0634765625,0.36474609375,6.04248046875,-0.06103515625,2.197265625,-5.4986572265625,-66.4892578125,-25.7574462890625
1758527152.1535892,0.89501953125,-0.0517578125,0.41064453125,8.23974609375,0.42724609375,2.25830078125,-5.482177734375,-66.4837646484375,-25.697021484375
1758527152.16322,0.89501953125,-0.0517578125,0.41064453125,8.23974609375,0.42724609375,2.25830078125,-5.4547119140625,-66.478271484375,-25.64208984375
1758527152.1740766,0.91748046875,-0.03515625,0.3818359375,6.89697265625,0.8544921875,2.13623046875,-5.4327392578125,-66.46728515625,-25.587158203125
1758527152.1832912,0.91748046875,-0.03515625,0.3818359375,6.89697265625,0.8544921875,2.13623046875,-5.4107666015625,-66.456298828125,-25.5322265625
1758527152.1944053,0.90673828125,-0.03515625,0.40576171875,8.23974609375,0.732421875,1.52587890625,-5.3778076171875,-66.4508056640625,-25.48828125
1758527152.2033246,0.90673828125,-0.03515625,0.40576171875,8.23974609375,0.732421875,1.52587890625,-5.3338623046875,-66.4398193359375,-25.4498291015625
1758527152.2132757,0.8984375,-0.04052734375,0.3896484375,8.4228515625,0.79345703125,1.3427734375,-5.284423828125,-66.4288330078125,-25.4168701171875
1758527152.2233455,0.8984375,-0.04052734375,0.3896484375,8.4228515625,0.79345703125,1.3427734375,-5.2349853515625,-66.42333984375,-25.3839111328125
1758527152.2332833,0.90185546875,-0.0068359375,0.39599609375,3.5400390625,1.0986328125,1.8310546875,-5.2130126953125,-66.412353515625,-25.3509521484375
1758527152.2441638,0.90185546875,-0.0068359375,0.39599609375,3.5400390625,1.0986328125,1.8310546875,-5.2130126953125,-66.3958740234375,-25.3070068359375
1758527152.2532828,0.9208984375,-0.0478515625,0.4091796875,5.4931640625,1.64794921875,2.0751953125,-5.20751953125,-66.37939453125,-25.2630615234375
1758527152.263872,0.9208984375,-0.0478515625,0.4091796875,5.4931640625,1.64794921875,2.0751953125,-5.196533203125,-66.3629150390625,-25.2191162109375
1758527152.2743695,0.95068359375,-0.0986328125,0.41015625,8.30078125,2.25830078125,2.86865234375,-5.185546875,-66.3409423828125,-25.1641845703125
1758527152.2833557,0.95068359375,-0.0986328125,0.41015625,8.30078125,2.25830078125,2.86865234375,-5.1690673828125,-66.3134765625,-25.0982666015625
1758527152.2936337,0.962890625,-0.01220703125,0.44384765625,3.5400390625,3.2958984375,3.7841796875,-5.185546875,-66.2860107421875,-25.015869140625
1758527152.3034914,0.962890625,-0.01220703125,0.44384765625,3.5400390625,3.2958984375,3.7841796875,-5.2349853515625,-66.24755859375,-24.9334716796875
1758527152.3133488,0.93310546875,0.06884765625,0.4150390625,-15.31982421875,4.2724609375,5.615234375,-5.394287109375,-66.20361328125,-24.8291015625
1758527152.3233867,0.93310546875,0.06884765625,0.4150390625,-15.31982421875,4.2724609375,5.615234375,-5.657958984375,-66.15966796875,-24.708251953125
1758527152.3333883,0.89990234375,-0.009765625,0.38330078125,-17.51708984375,4.33349609375,5.92041015625,-5.921630859375,-66.1102294921875,-24.5928955078125
1758527152.3443177,0.89990234375,-0.009765625,0.38330078125,-17.51708984375,4.33349609375,5.92041015625,-6.2017822265625,-66.060791015625,-24.4720458984375
1758527152.3534184,0.90185546875,-0.18798828125,0.39306640625,-0.18310546875,3.84521484375,5.7373046875,-6.3885498046875,-66.016845703125,-24.3511962890625
1758527152.3634832,0.90185546875,-0.18798828125,0.39306640625,-0.18310546875,3.84521484375,5.7373046875,-6.50390625,-65.972900390625,-24.2303466796875
1758527152.3734956,0.90869140625,-0.10400390625,0.42041015625,7.2021484375,3.60107421875,4.7607421875,-6.580810546875,-65.928955078125,-24.1094970703125
1758527152.3834703,0.90869140625,-0.10400390625,0.42041015625,7.2021484375,3.60107421875,4.7607421875,-6.61376953125,-65.8905029296875,-23.9996337890625
1758527152.3938117,0.87841796875,0.08154296875,0.3720703125,-7.8125,3.47900390625,5.06591796875,-6.7236328125,-65.8465576171875,-23.8897705078125
1758527152.4037104,0.87841796875,0.08154296875,0.3720703125,-7.8125,3.47900390625,5.06591796875,-6.8994140625,-65.80810546875,-23.7799072265625
1758527152.4134943,0.8642578125,0.025390625,0.35546875,-11.04736328125,2.9296875,5.37109375,-7.086181640625,-65.775146484375,-23.675537109375
1758527152.4235034,0.8642578125,0.025390625,0.35546875,-11.04736328125,2.9296875,5.37109375,-7.2894287109375,-65.7421875,-23.5601806640625
1758527152.4334686,0.90966796875,-0.1572265625,0.3974609375,-2.685546875,2.3193359375,4.8828125,-7.4432373046875,-65.7147216796875,-23.455810546875
1758527152.4442928,0.90966796875,-0.1572265625,0.3974609375,-2.685546875,2.3193359375,4.8828125,-7.55859375,-65.687255859375,-23.345947265625
1758527152.453598,0.90625,-0.0830078125,0.42724609375,-3.173828125,1.89208984375,3.96728515625,-7.6739501953125,-65.665283203125,-23.2470703125
1758527152.4636185,0.90625,-0.0830078125,0.42724609375,-3.173828125,1.89208984375,3.96728515625,-7.7838134765625,-65.643310546875,-23.1591796875
1758527152.4736276,0.88427734375,0.017578125,0.3779296875,-9.58251953125,1.3427734375,3.84521484375,-7.9266357421875,-65.6268310546875,-23.0712890625
1758527152.483606,0.88427734375,0.017578125,0.3779296875,-9.58251953125,1.3427734375,3.84521484375,-8.096923828125,-65.6103515625,-22.9888916015625
1758527152.4941592,0.88427734375,-0.0556640625,0.36083984375,-3.72314453125,0.30517578125,3.2958984375,-8.19580078125,-65.6048583984375,-22.91748046875
1758527152.5045228,0.88427734375,-0.0556640625,0.36083984375,-3.72314453125,0.30517578125,3.2958984375,-8.294677734375,-65.6048583984375,-22.840576171875
1758527152.5138404,0.89306640625,-0.14697265625,0.41845703125,5.4931640625,-0.30517578125,2.5634765625,-8.294677734375,-65.6048583984375,-22.7801513671875
1758527152.5236394,0.89306640625,-0.14697265625,0.41845703125,5.4931640625,-0.30517578125,2.5634765625,-8.3001708984375,-65.6103515625,-22.7142333984375
1758527152.533682,0.9072265625,-0.04638671875,0.40185546875,0.6103515625,-0.732421875,2.13623046875,-8.3441162109375,-65.6158447265625,-22.6593017578125
1758527152.5456963,0.9072265625,-0.04638671875,0.40185546875,0.6103515625,-0.732421875,2.13623046875,-8.3935546875,-65.621337890625,-22.6043701171875
1758527152.5537128,0.8955078125,0.0283203125,0.37890625,-7.32421875,-1.3427734375,1.77001953125,-8.50341796875,-65.63232421875,-22.5604248046875
1758527152.5640366,0.8955078125,0.0283203125,0.37890625,-7.32421875,-1.3427734375,1.77001953125,-8.61328125,-65.6488037109375,-22.5164794921875
1758527152.5740488,0.89453125,-0.09375,0.38525390625,0.244140625,-2.197265625,1.03759765625,-8.6297607421875,-65.6707763671875,-22.489013671875
1758527152.5838318,0.89453125,-0.09375,0.38525390625,0.244140625,-2.197265625,1.03759765625,-8.6517333984375,-65.6927490234375,-22.4560546875
1758527152.593786,0.90673828125,-0.1630859375,0.41357421875,13.0615234375,-2.74658203125,0.06103515625,-8.5308837890625,-65.7257080078125,-22.4395751953125
1758527152.6037514,0.90673828125,-0.1630859375,0.41357421875,13.0615234375,-2.74658203125,0.06103515625,-8.4210205078125,-65.753173828125,-22.423095703125
1758527152.6148667,0.90673828125,-0.1630859375,0.41357421875,9.46044921875,-3.11279296875,-0.42724609375,-8.3441162109375,-65.7861328125,-22.4176025390625
1758527152.6238055,0.923828125,-0.05322265625,0.3994140625,9.46044921875,-3.11279296875,-0.42724609375,-8.2562255859375,-65.819091796875,-22.4066162109375
1758527152.6340513,0.9130859375,0.04541015625,0.419921875,-2.3193359375,-3.2958984375,-0.42724609375,-8.28369140625,-65.85205078125,-22.4066162109375
1758527152.6450102,0.9130859375,0.04541015625,0.419921875,-2.3193359375,-3.2958984375,-0.42724609375,-8.3056640625,-65.885009765625,-22.4066162109375
1758527152.6538417,0.90625,-0.06005859375,0.37158203125,1.220703125,-3.5400390625,-0.67138671875,-8.28369140625,-65.9234619140625,-22.4176025390625
1758527152.6639457,0.90625,-0.06005859375,0.37158203125,1.220703125,-3.5400390625,-0.67138671875,-8.26171875,-65.9619140625,-22.423095703125
1758527152.6740544,0.90966796875,-0.1748046875,0.4033203125,12.87841796875,-4.0283203125,-0.8544921875,-8.1298828125,-66.0003662109375,-22.4285888671875
1758527152.68394,0.90966796875,-0.1748046875,0.4033203125,12.87841796875,-4.0283203125,-0.8544921875,-8.0035400390625,-66.0443115234375,-22.4285888671875
1758527152.6939397,0.9404296875,-0.05517578125,0.4169921875,7.8125,-3.72314453125,-0.91552734375,-7.93212890625,-66.082763671875,-22.43408203125
1758527152.7038734,0.9404296875,-0.05517578125,0.4169921875,7.8125,-3.72314453125,-0.91552734375,-7.8607177734375,-66.1212158203125,-22.4395751953125
1758527152.7150533,0.95751953125,0.02099609375,0.412109375,1.40380859375,-3.35693359375,-0.48828125,-7.8497314453125,-66.1541748046875,-22.43408203125
1758527152.7239206,0.95751953125,0.02099609375,0.412109375,1.40380859375,-3.35693359375,-0.48828125,-7.8387451171875,-66.1871337890625,-22.4395751953125
1758527152.734208,0.97265625,-0.04736328125,0.41845703125,0.0,-3.60107421875,-0.6103515625,-7.833251953125,-66.2200927734375,-22.445068359375
1758527152.7449124,0.97265625,-0.04736328125,0.41845703125,0.0,-3.60107421875,-0.6103515625,-7.8277587890625,-66.258544921875,-22.4505615234375
1758527152.7539725,0.96826171875,-0.09619140625,0.439453125,3.96728515625,-3.7841796875,-0.8544921875,-7.7783203125,-66.2969970703125,-22.467041015625
1758527152.7647047,0.96826171875,-0.09619140625,0.439453125,3.96728515625,-3.7841796875,-0.8544921875,-7.734375,-66.33544921875,-22.47802734375
1758527152.774262,0.94384765625,-0.07861328125,0.41259765625,6.2255859375,-3.7841796875,-0.67138671875,-7.6739501953125,-66.368408203125,-22.4835205078125
1758527152.7853765,0.94384765625,-0.07861328125,0.41259765625,6.2255859375,-3.7841796875,-0.67138671875,-7.613525390625,-66.4068603515625,-22.4835205078125
1758527152.7941406,0.9443359375,-0.00830078125,0.38720703125,-0.42724609375,-3.90625,-0.30517578125,-7.6300048828125,-66.4453125,-22.4835205078125
1758527152.8040144,0.9443359375,-0.00830078125,0.38720703125,-0.42724609375,-3.90625,-0.30517578125,-7.635498046875,-66.4837646484375,-22.47802734375
1758527152.8150043,0.95166015625,-0.02685546875,0.404296875,-2.44140625,-3.72314453125,0.0,-7.66845703125,-66.522216796875,-22.467041015625
1758527152.8240345,0.95166015625,-0.02685546875,0.404296875,-2.44140625,-3.72314453125,0.0,-7.701416015625,-66.55517578125,-22.4615478515625
1758527152.8344743,0.93212890625,-0.095703125,0.4228515625,5.2490234375,-3.90625,-0.3662109375,-7.6519775390625,-66.5936279296875,-22.4615478515625
1758527152.8448892,0.93212890625,-0.095703125,0.4228515625,5.2490234375,-3.90625,-0.3662109375,-7.6025390625,-66.632080078125,-22.4615478515625
1758527152.8541515,0.90625,-0.09033203125,0.39306640625,7.9345703125,-3.662109375,-0.732421875,-7.5201416015625,-66.6650390625,-22.467041015625
1758527152.8645635,0.90625,-0.09033203125,0.39306640625,7.9345703125,-3.662109375,-0.732421875,-7.4432373046875,-66.697998046875,-22.4725341796875
1758527152.8751824,0.92431640625,-0.05712890625,0.359375,8.60595703125,-3.5400390625,-0.6103515625,-7.3663330078125,-66.7364501953125,-22.4725341796875
1758527152.8845572,0.92431640625,-0.05712890625,0.359375,8.60595703125,-3.5400390625,-0.6103515625,-7.283935546875,-66.7694091796875,-22.4725341796875
1758527152.8941517,0.89990234375,-0.02490234375,0.39599609375,6.77490234375,-3.0517578125,-0.30517578125,-7.22900390625,-66.796875,-22.4725341796875
1758527152.9044385,0.89990234375,-0.02490234375,0.39599609375,6.77490234375,-3.0517578125,-0.30517578125,-7.1685791015625,-66.829833984375,-22.467041015625
1758527152.914849,0.89599609375,-0.0439453125,0.3740234375,4.0283203125,-3.11279296875,0.0,-7.14111328125,-66.8572998046875,-22.4615478515625
1758527152.924459,0.89599609375,-0.0439453125,0.3740234375,4.0283203125,-3.11279296875,0.0,-7.1136474609375,-66.884765625,-22.4505615234375
