timestamp,acc_x,acc_y,acc_z,gyro_x,gyro_y,gyro_z,angle_x,angle_y,angle_z
1758181457.0933352,-0.48291015625,-0.01123046875,0.87548828125,-0.48828125,0.1220703125,0.732421875,-0.76904296875,28.7457275390625,-110.7147216796875
1758181457.1041498,-0.48291015625,-0.01123046875,0.87548828125,-0.48828125,0.1220703125,0.732421875,-0.76904296875,28.7457275390625,-110.709228515625
1758181457.120697,-0.4814453125,-0.00927734375,0.87548828125,-0.6103515625,0.1220703125,0.67138671875,-0.76904296875,28.7457275390625,-110.6982421875
1758181457.1377242,-0.4814453125,-0.00927734375,0.87548828125,-0.6103515625,0.1220703125,0.67138671875,-0.76904296875,28.7457275390625,-110.6927490234375
1758181457.1475167,-0.48095703125,-0.00927734375,0.8779296875,-0.9765625,0.1220703125,0.6103515625,-0.780029296875,28.751220703125,-110.6817626953125
1758181457.1579022,-0.48095703125,-0.00927734375,0.8779296875,-0.9765625,0.1220703125,0.6103515625,-0.7855224609375,28.751220703125,-110.67626953125
1758181457.1678872,-0.47900390625,-0.01123046875,0.87548828125,-0.732421875,0.06103515625,0.48828125,-0.7855224609375,28.751220703125,-110.6707763671875
1758181457.177741,-0.47900390625,-0.01123046875,0.87548828125,-0.732421875,0.06103515625,0.48828125,-0.791015625,28.751220703125,-110.665283203125
1758181457.1841288,-0.47900390625,-0.01123046875,0.87890625,-0.30517578125,0.06103515625,0.42724609375,-0.791015625,28.751220703125,-110.6597900390625
1758181457.1903644,-0.47900390625,-0.01123046875,0.87890625,-0.30517578125,0.06103515625,0.42724609375,-0.791015625,28.7567138671875,-110.654296875
1758181457.196704,-0.47900390625,-0.01123046875,0.87890625,-0.91552734375,0.18310546875,0.3662109375,-0.7965087890625,28.7567138671875,-110.6488037109375
1758181457.2029731,-0.478515625,-0.01171875,0.87890625,-0.91552734375,0.18310546875,0.3662109375,-0.8074951171875,28.7567138671875,-110.643310546875
1758181457.2093806,-0.4755859375,-0.01220703125,0.8779296875,-1.0986328125,0.1220703125,0.244140625,-0.81298828125,28.7567138671875,-110.6378173828125
1758181457.2194042,-0.4755859375,-0.01220703125,0.8779296875,-1.0986328125,0.1220703125,0.244140625,-0.823974609375,28.7567138671875,-110.63232421875
1758181457.2294269,-0.4765625,-0.0107421875,0.8818359375,-0.6103515625,0.244140625,0.1220703125,-0.8294677734375,28.76220703125,-110.63232421875
1758181457.2394097,-0.4765625,-0.0107421875,0.8818359375,-0.6103515625,0.244140625,0.1220703125,-0.8349609375,28.76220703125,-110.63232421875
1758181457.2494004,-0.474609375,-0.01171875,0.87841796875,0.0,0.244140625,0.06103515625,-0.8294677734375,28.76220703125,-110.6268310546875
1758181457.2595334,-0.47021484375,-0.01171875,0.87939453125,0.1220703125,0.1220703125,0.0,-0.8294677734375,28.76220703125,-110.6268310546875
1758181457.2694273,-0.47021484375,-0.01171875,0.87939453125,0.1220703125,0.1220703125,0.0,-0.8294677734375,28.76220703125,-110.6268310546875
1758181457.2794266,-0.4697265625,-0.01171875,0.8828125,-0.42724609375,0.0,0.06103515625,-0.8294677734375,28.76220703125,-110.6268310546875
1758181457.2894397,-0.4697265625,-0.01171875,0.8828125,-0.42724609375,0.0,0.06103515625,-0.8349609375,28.76220703125,-110.621337890625
1758181457.299465,-0.47314453125,-0.0185546875,0.8798828125,-0.30517578125,-0.1220703125,0.244140625,-0.8349609375,28.7567138671875,-110.621337890625
1758181457.3094573,-0.47314453125,-0.0185546875,0.8798828125,-0.30517578125,-0.1220703125,0.244140625,-0.8349609375,28.7567138671875,-110.6158447265625
1758181457.3195589,-0.47314453125,-0.01708984375,0.8818359375,-0.244140625,-0.1220703125,0.244140625,-0.8404541015625,28.751220703125,-110.6158447265625
1758181457.3295383,-0.47314453125,-0.01708984375,0.8818359375,-0.244140625,-0.1220703125,0.244140625,-0.8404541015625,28.7457275390625,-110.6103515625
1758181457.3395522,-0.47314453125,-0.01123046875,0.87890625,-0.244140625,-0.18310546875,0.18310546875,-0.8404541015625,28.7457275390625,-110.6103515625
1758181457.3495407,-0.47314453125,-0.01123046875,0.87890625,-0.244140625,-0.18310546875,0.18310546875,-0.8404541015625,28.740234375,-110.6048583984375
1758181457.3595548,-0.47509765625,-0.00927734375,0.88134765625,-0.30517578125,-0.18310546875,0.1220703125,-0.845947265625,28.7347412109375,-110.6048583984375
1758181457.369549,-0.47509765625,-0.00927734375,0.88134765625,-0.30517578125,-0.18310546875,0.1220703125,-0.845947265625,28.729248046875,-110.6048583984375
1758181457.379556,-0.47509765625,-0.0107421875,0.880859375,-0.1220703125,-0.1220703125,0.0,-0.845947265625,28.729248046875,-110.599365234375
1758181457.3895462,-0.47509765625,-0.0107421875,0.880859375,-0.1220703125,-0.1220703125,0.0,-0.845947265625,28.7237548828125,-110.599365234375
1758181457.3995562,-0.47607421875,-0.01171875,0.8779296875,0.0,-0.18310546875,0.0,-0.8514404296875,28.71826171875,-110.599365234375
1758181457.409549,-0.47607421875,-0.01171875,0.8779296875,0.0,-0.18310546875,0.0,-0.845947265625,28.71826171875,-110.599365234375
1758181457.4196124,-0.47607421875,-0.01171875,0.8779296875,-0.3662109375,-0.1220703125,-0.1220703125,-0.8514404296875,28.7127685546875,-110.599365234375
1758181457.429598,-0.4765625,-0.0126953125,0.8798828125,-0.3662109375,-0.1220703125,-0.1220703125,-0.8514404296875,28.707275390625,-110.599365234375
1758181457.439627,-0.4765625,-0.01416015625,0.87744140625,-0.42724609375,-0.1220703125,-0.1220703125,-0.85693359375,28.707275390625,-110.599365234375
1758181457.4496198,-0.4765625,-0.01416015625,0.87744140625,-0.42724609375,-0.1220703125,-0.1220703125,-0.8624267578125,28.7017822265625,-110.599365234375
1758181457.4596605,-0.478515625,-0.01318359375,0.87841796875,0.0,-0.1220703125,-0.18310546875,-0.867919921875,28.7017822265625,-110.6048583984375
1758181457.4696598,-0.478515625,-0.01318359375,0.87841796875,0.0,-0.1220703125,-0.18310546875,-0.867919921875,28.6962890625,-110.6048583984375
1758181457.4796953,-0.48095703125,-0.0087890625,0.8818359375,-0.67138671875,-0.1220703125,-0.244140625,-0.867919921875,28.6962890625,-110.6048583984375
1758181457.4896967,-0.48095703125,-0.0087890625,0.8818359375,-0.67138671875,-0.1220703125,-0.244140625,-0.87890625,28.6907958984375,-110.6103515625
1758181457.4997053,-0.47705078125,-0.0107421875,0.87548828125,-2.01416015625,-0.1220703125,-0.244140625,-0.889892578125,28.6907958984375,-110.6103515625
1758181457.5096917,-0.47705078125,-0.0107421875,0.87548828125,-2.01416015625,-0.1220703125,-0.244140625,-0.911865234375,28.685302734375,-110.6103515625
1758181457.5197868,-0.47900390625,-0.0166015625,0.8759765625,-1.52587890625,-0.18310546875,-0.30517578125,-0.9283447265625,28.685302734375,-110.6158447265625
1758181457.5297217,-0.47900390625,-0.0166015625,0.8759765625,-1.52587890625,-0.18310546875,-0.30517578125,-0.94482421875,28.6798095703125,-110.6158447265625
1758181457.5398617,-0.4775390625,-0.015625,0.87841796875,-0.42724609375,-0.1220703125,-0.3662109375,-0.955810546875,28.6798095703125,-110.621337890625
1758181457.54975,-0.4775390625,-0.015625,0.87841796875,-0.42724609375,-0.1220703125,-0.3662109375,-0.9613037109375,28.67431640625,-110.621337890625
1758181457.5598783,-0.4775390625,-0.01220703125,0.87841796875,-0.1220703125,-0.18310546875,-0.54931640625,-0.966796875,28.67431640625,-110.6268310546875
1758181457.569786,-0.4775390625,-0.01220703125,0.87841796875,-0.1220703125,-0.18310546875,-0.54931640625,-0.9722900390625,28.6688232421875,-110.63232421875
1758181457.5798333,-0.47607421875,-0.01171875,0.88232421875,-1.15966796875,-0.1220703125,-0.6103515625,-0.977783203125,28.6688232421875,-110.6378173828125
1758181457.5898051,-0.47607421875,-0.01171875,0.88232421875,-1.15966796875,-0.1220703125,-0.6103515625,-0.9942626953125,28.663330078125,-110.643310546875
1758181457.5998368,-0.474609375,-0.01708984375,0.87890625,-1.28173828125,-0.1220703125,-0.6103515625,-1.0107421875,28.663330078125,-110.6488037109375
1758181457.6098132,-0.474609375,-0.01708984375,0.87890625,-1.28173828125,-0.1220703125,-0.6103515625,-1.021728515625,28.6578369140625,-110.654296875
1758181457.6199145,-0.474609375,-0.02001953125,0.87890625,-0.42724609375,-0.1220703125,-0.6103515625,-1.03271484375,28.6578369140625,-110.6597900390625
1758181457.6298704,-0.474609375,-0.02001953125,0.87890625,-0.42724609375,-0.1220703125,-0.6103515625,-1.043701171875,28.6578369140625,-110.6707763671875
1758181457.63991,-0.470703125,-0.01904296875,0.88037109375,0.18310546875,-0.06103515625,-0.6103515625,-1.043701171875,28.65234375,-110.67626953125
1758181457.6498725,-0.470703125,-0.01904296875,0.88037109375,0.18310546875,-0.06103515625,-0.6103515625,-1.0491943359375,28.65234375,-110.6817626953125
1758181457.6598985,-0.46728515625,-0.0166015625,0.88134765625,0.48828125,0.0,-0.67138671875,-1.0491943359375,28.6468505859375,-110.687255859375
1758181457.6699154,-0.46728515625,-0.0166015625,0.88134765625,0.48828125,0.0,-0.67138671875,-1.043701171875,28.6468505859375,-110.6982421875
1758181457.679922,-0.45654296875,-0.01953125,0.8896484375,0.30517578125,-0.06103515625,-0.67138671875,-1.043701171875,28.641357421875,-110.7037353515625
1758181457.690204,-0.45654296875,-0.01953125,0.8896484375,0.30517578125,-0.06103515625,-0.67138671875,-1.043701171875,28.641357421875,-110.709228515625
1758181457.7000105,-0.4580078125,-0.01171875,0.88671875,0.3662109375,0.0,-0.54931640625,-1.043701171875,28.6358642578125,-110.72021484375
1758181457.7099826,-0.4580078125,-0.01171875,0.88671875,0.3662109375,0.0,-0.54931640625,-1.043701171875,28.63037109375,-110.7257080078125
1758181457.7200139,-0.46533203125,-0.02685546875,0.88427734375,1.28173828125,0.06103515625,-0.54931640625,-1.0382080078125,28.63037109375,-110.731201171875
1758181457.7304702,-0.46533203125,-0.02685546875,0.88427734375,1.28173828125,0.06103515625,-0.54931640625,-1.03271484375,28.6248779296875,-110.7366943359375
1758181457.7412055,-0.46728515625,-0.0224609375,0.8876953125,2.38037109375,0.18310546875,-0.42724609375,-1.0162353515625,28.619384765625,-110.7476806640625
1758181457.750089,-0.46728515625,-0.0224609375,0.8876953125,2.38037109375,0.18310546875,-0.42724609375,-0.9942626953125,28.619384765625,-110.753173828125
1758181457.7600825,-0.4716796875,-0.02001953125,0.87939453125,2.9296875,0.30517578125,-0.42724609375,-0.9722900390625,28.619384765625,-110.7586669921875
1758181457.7701848,-0.4716796875,-0.02001953125,0.87939453125,2.9296875,0.30517578125,-0.42724609375,-0.94482421875,28.6138916015625,-110.76416015625
1758181457.7807739,-0.4755859375,-0.0146484375,0.88330078125,2.86865234375,0.30517578125,-0.48828125,-0.9228515625,28.6138916015625,-110.7696533203125
1758181457.7901394,-0.4755859375,-0.0146484375,0.88330078125,2.86865234375,0.30517578125,-0.48828125,-0.8953857421875,28.6138916015625,-110.7806396484375
1758181457.8001125,-0.47802734375,-0.005859375,0.8857421875,3.41796875,0.48828125,-0.3662109375,-0.867919921875,28.6138916015625,-110.7861328125
1758181457.8103936,-0.47802734375,-0.005859375,0.8857421875,3.41796875,0.48828125,-0.3662109375,-0.8404541015625,28.6138916015625,-110.7916259765625
1758181457.8201938,-0.47412109375,-0.01318359375,0.8740234375,4.0283203125,0.48828125,-0.244140625,-0.8074951171875,28.619384765625,-110.7916259765625
1758181457.8301504,-0.47412109375,-0.01318359375,0.8740234375,4.0283203125,0.48828125,-0.244140625,-0.76904296875,28.619384765625,-110.797119140625
1758181457.8460836,-0.47802734375,-0.00927734375,0.88134765625,3.72314453125,0.42724609375,-0.244140625,-0.7305908203125,28.619384765625,-110.797119140625
1758181457.852612,-0.47802734375,-0.00927734375,0.88134765625,3.72314453125,0.42724609375,-0.244140625,-0.6976318359375,28.6248779296875,-110.8026123046875
1758181457.8602166,-0.47900390625,-0.01171875,0.8798828125,1.77001953125,0.42724609375,-0.06103515625,-0.670166015625,28.6248779296875,-110.8026123046875
1758181457.870556,-0.47900390625,-0.01171875,0.8798828125,1.77001953125,0.42724609375,-0.06103515625,-0.6536865234375,28.6248779296875,-110.8026123046875
1758181457.880227,-0.48095703125,-0.00537109375,0.876953125,0.0,0.30517578125,0.1220703125,-0.648193359375,28.63037109375,-110.8026123046875
1758181457.890192,-0.48095703125,-0.00537109375,0.876953125,0.0,0.30517578125,0.1220703125,-0.648193359375,28.63037109375,-110.8026123046875
1758181457.9002454,-0.48291015625,-0.01123046875,0.880859375,-0.732421875,0.244140625,0.30517578125,-0.6536865234375,28.63037109375,-110.797119140625
1758181457.910458,-0.48291015625,-0.01123046875,0.880859375,-0.732421875,0.244140625,0.30517578125,-0.6591796875,28.63037109375,-110.7916259765625
1758181457.9203146,-0.48486328125,-0.01904296875,0.87060546875,-1.46484375,0.48828125,0.48828125,-0.670166015625,28.6358642578125,-110.7916259765625
1758181457.930509,-0.48486328125,-0.01904296875,0.87060546875,-1.46484375,0.48828125,0.48828125,-0.68115234375,28.6358642578125,-110.7806396484375
1758181457.940514,-0.48779296875,-0.0126953125,0.87060546875,-0.3662109375,0.42724609375,0.42724609375,-0.6866455078125,28.641357421875,-110.775146484375
1758181457.9505193,-0.48779296875,-0.0126953125,0.87060546875,-0.3662109375,0.42724609375,0.42724609375,-0.692138671875,28.6468505859375,-110.7696533203125
1758181457.9604602,-0.48876953125,0.0009765625,0.880859375,0.48828125,0.48828125,0.6103515625,-0.6866455078125,28.65234375,-110.76416015625
1758181457.9705763,-0.48876953125,0.0009765625,0.880859375,0.48828125,0.48828125,0.6103515625,-0.68115234375,28.6578369140625,-110.753173828125
1758181457.9803362,-0.49560546875,-0.0078125,0.86962890625,-0.6103515625,0.79345703125,0.6103515625,-0.68115234375,28.663330078125,-110.7476806640625
1758181457.9905005,-0.49560546875,-0.0078125,0.86962890625,-0.6103515625,0.79345703125,0.6103515625,-0.68115234375,28.67431640625,-110.7366943359375
1758181458.0005245,-0.48828125,-0.0087890625,0.86767578125,-1.3427734375,0.67138671875,0.6103515625,-0.6866455078125,28.6798095703125,-110.7257080078125
1758181458.0103133,-0.48828125,-0.0087890625,0.86767578125,-1.3427734375,0.67138671875,0.6103515625,-0.6976318359375,28.6907958984375,-110.7147216796875
1758181458.0205855,-0.48974609375,-0.0107421875,0.8740234375,-1.52587890625,0.67138671875,0.732421875,-0.7086181640625,28.7017822265625,-110.7037353515625
1758181458.0305882,-0.48974609375,-0.0107421875,0.8740234375,-1.52587890625,0.67138671875,0.732421875,-0.7196044921875,28.707275390625,-110.6927490234375
1758181458.0408654,-0.49169921875,-0.0146484375,0.87548828125,-1.15966796875,0.8544921875,0.79345703125,-0.72509765625,28.71826171875,-110.6817626953125
1758181458.050649,-0.49169921875,-0.0146484375,0.87548828125,-1.15966796875,0.8544921875,0.79345703125,-0.736083984375,28.729248046875,-110.665283203125
1758181458.0608852,-0.486328125,-0.00732421875,0.87255859375,-0.54931640625,0.91552734375,0.91552734375,-0.736083984375,28.740234375,-110.654296875
1758181458.070438,-0.486328125,-0.00732421875,0.87255859375,-0.54931640625,0.91552734375,0.91552734375,-0.736083984375,28.751220703125,-110.643310546875
1758181458.080492,-0.48486328125,-0.0126953125,0.87451171875,-1.15966796875,0.79345703125,0.91552734375,-0.7415771484375,28.76220703125,-110.6268310546875
1758181458.0905197,-0.48486328125,-0.0126953125,0.87451171875,-1.15966796875,0.79345703125,0.91552734375,-0.7470703125,28.773193359375,-110.6103515625
1758181458.1004767,-0.48486328125,-0.01220703125,0.875,-2.44140625,0.6103515625,0.91552734375,-0.758056640625,28.7786865234375,-110.599365234375
1758181458.110473,-0.48486328125,-0.01220703125,0.875,-2.44140625,0.6103515625,0.91552734375,-0.780029296875,28.7896728515625,-110.5828857421875
1758181458.120473,-0.48779296875,-0.0107421875,0.8740234375,-2.8076171875,0.67138671875,0.9765625,-0.802001953125,28.795166015625,-110.5718994140625
1758181458.130705,-0.48779296875,-0.0107421875,0.8740234375,-2.8076171875,0.67138671875,0.9765625,-0.823974609375,28.80615234375,-110.5609130859375
1758181458.1405773,-0.4892578125,-0.009765625,0.87353515625,-2.3193359375,0.6103515625,0.9765625,-0.8404541015625,28.8116455078125,-110.54443359375
1758181458.1510646,-0.4892578125,-0.009765625,0.87353515625,-2.3193359375,0.6103515625,0.9765625,-0.85693359375,28.8226318359375,-110.5279541015625
1758181458.161474,-0.4912109375,-0.01513671875,0.86962890625,-2.3193359375,0.6103515625,0.91552734375,-0.8734130859375,28.828125,-110.5169677734375
1758181458.1705856,-0.4912109375,-0.01513671875,0.86962890625,-2.3193359375,0.6103515625,0.91552734375,-0.8953857421875,28.839111328125,-110.50048828125
1758181458.1806316,-0.49169921875,-0.0146484375,0.87158203125,-2.44140625,0.6103515625,0.732421875,-0.911865234375,28.8446044921875,-110.489501953125
1758181458.19119,-0.49169921875,-0.0146484375,0.87158203125,-2.44140625,0.6103515625,0.732421875,-0.933837890625,28.8555908203125,-110.4730224609375
1758181458.2006164,-0.4912109375,-0.01220703125,0.87255859375,-1.953125,0.732421875,0.6103515625,-0.9503173828125,28.861083984375,-110.4620361328125
1758181458.2107096,-0.4912109375,-0.01220703125,0.87255859375,-1.953125,0.732421875,0.6103515625,-0.966796875,28.8720703125,-110.4510498046875
1758181458.2206109,-0.4892578125,-0.013671875,0.869140625,-0.9765625,0.54931640625,0.42724609375,-0.9722900390625,28.883056640625,-110.4400634765625
1758181458.231329,-0.4892578125,-0.013671875,0.869140625,-0.9765625,0.54931640625,0.42724609375,-0.9832763671875,28.8885498046875,-110.4290771484375
1758181458.2408829,-0.4912109375,-0.01513671875,0.87060546875,-0.6103515625,0.48828125,0.244140625,-0.98876953125,28.8995361328125,-110.4180908203125
1758181458.2510223,-0.4912109375,-0.01513671875,0.87060546875,-0.6103515625,0.48828125,0.244140625,-0.98876953125,28.905029296875,-110.41259765625
1758181458.2641108,-0.4951171875,-0.01708984375,0.87255859375,-0.30517578125,0.48828125,0.30517578125,-0.9942626953125,28.9105224609375,-110.4071044921875
1758181458.2706983,-0.4951171875,-0.01708984375,0.87255859375,-0.30517578125,0.48828125,0.30517578125,-0.9942626953125,28.9215087890625,-110.3961181640625
1758181458.2811055,-0.49365234375,-0.017578125,0.86669921875,-0.42724609375,0.3662109375,0.18310546875,-0.9942626953125,28.927001953125,-110.390625
1758181458.2912638,-0.49365234375,-0.017578125,0.86669921875,-0.42724609375,0.3662109375,0.18310546875,-0.999755859375,28.9324951171875,-110.3851318359375
1758181458.3008668,-0.49560546875,-0.01318359375,0.869140625,-0.54931640625,0.30517578125,0.1220703125,-1.0052490234375,28.93798828125,-110.379638671875
1758181458.3110292,-0.49560546875,-0.01318359375,0.869140625,-0.54931640625,0.30517578125,0.1220703125,-1.0052490234375,28.9434814453125,-110.36865234375
1758181458.320835,-0.498046875,-0.01513671875,0.87060546875,-0.3662109375,0.3662109375,0.0,-1.0107421875,28.948974609375,-110.36865234375
1758181458.3310406,-0.498046875,-0.01513671875,0.87060546875,-0.3662109375,0.3662109375,0.0,-1.0107421875,28.9599609375,-110.3631591796875
1758181458.3408988,-0.49462890625,-0.01904296875,0.8671875,-0.1220703125,0.48828125,-0.1220703125,-1.0162353515625,28.9654541015625,-110.357666015625
1758181458.3508763,-0.49462890625,-0.01904296875,0.8671875,-0.1220703125,0.48828125,-0.1220703125,-1.0162353515625,28.9764404296875,-110.357666015625
1758181458.3614712,-0.49609375,-0.01171875,0.8701171875,0.1220703125,0.48828125,-0.244140625,-1.0162353515625,28.98193359375,-110.357666015625
1758181458.3708544,-0.49609375,-0.01171875,0.8701171875,0.1220703125,0.48828125,-0.244140625,-1.0162353515625,28.992919921875,-110.3521728515625
1758181458.3810153,-0.49072265625,-0.01611328125,0.8681640625,0.1220703125,0.54931640625,-0.3662109375,-1.0162353515625,28.9984130859375,-110.3521728515625
1758181458.391414,-0.49072265625,-0.01611328125,0.8681640625,0.1220703125,0.54931640625,-0.3662109375,-1.0162353515625,29.0093994140625,-110.3521728515625
1758181458.4010649,-0.490234375,-0.01416015625,0.87109375,0.244140625,0.42724609375,-0.42724609375,-1.0162353515625,29.014892578125,-110.3521728515625
1758181458.4110785,-0.490234375,-0.01416015625,0.87109375,0.244140625,0.42724609375,-0.42724609375,-1.0162353515625,29.02587890625,-110.3521728515625
1758181458.4211633,-0.48681640625,-0.01806640625,0.8720703125,0.18310546875,0.30517578125,-0.42724609375,-1.0162353515625,29.0313720703125,-110.3521728515625
1758181458.4313505,-0.48681640625,-0.01806640625,0.8720703125,0.18310546875,0.30517578125,-0.42724609375,-1.0162353515625,29.036865234375,-110.3521728515625
1758181458.441166,-0.486328125,-0.017578125,0.87451171875,0.244140625,0.30517578125,-0.3662109375,-1.0162353515625,29.0423583984375,-110.357666015625
1758181458.4511309,-0.486328125,-0.017578125,0.87451171875,0.244140625,0.30517578125,-0.3662109375,-1.0162353515625,29.0478515625,-110.357666015625
1758181458.4614902,-0.47705078125,-0.0185546875,0.87646484375,0.3662109375,0.18310546875,-0.30517578125,-1.0162353515625,29.0478515625,-110.357666015625
1758181458.470959,-0.47705078125,-0.0185546875,0.87646484375,0.3662109375,0.18310546875,-0.30517578125,-1.0162353515625,29.0533447265625,-110.357666015625
1758181458.4810512,-0.47412109375,-0.0166015625,0.88037109375,0.244140625,0.06103515625,-0.244140625,-1.0107421875,29.0533447265625,-110.357666015625
1758181458.491495,-0.47412109375,-0.0166015625,0.88037109375,0.244140625,0.06103515625,-0.244140625,-1.0107421875,29.0533447265625,-110.357666015625
1758181458.5011215,-0.484375,-0.0185546875,0.87890625,0.0,0.18310546875,-0.30517578125,-1.0162353515625,29.0533447265625,-110.357666015625
1758181458.5110433,-0.484375,-0.0185546875,0.87890625,0.0,0.18310546875,-0.30517578125,-1.0162353515625,29.058837890625,-110.357666015625
1758181458.521134,-0.486328125,-0.013671875,0.87451171875,0.30517578125,0.244140625,-0.30517578125,-1.0162353515625,29.058837890625,-110.357666015625
1758181458.53146,-0.486328125,-0.013671875,0.87451171875,0.30517578125,0.244140625,-0.30517578125,-1.0162353515625,29.058837890625,-110.3631591796875
1758181458.541154,-0.48486328125,-0.01220703125,0.876953125,0.42724609375,0.3662109375,-0.244140625,-1.0107421875,29.0643310546875,-110.3631591796875
1758181458.5515444,-0.48486328125,-0.01220703125,0.876953125,0.42724609375,0.3662109375,-0.244140625,-1.0107421875,29.06982421875,-110.3631591796875
1758181458.5614886,-0.47021484375,-0.01953125,0.8759765625,0.0,0.42724609375,-0.30517578125,-1.0107421875,29.06982421875,-110.3631591796875
1758181458.5711691,-0.47021484375,-0.01953125,0.8759765625,0.0,0.42724609375,-0.30517578125,-1.0107421875,29.0753173828125,-110.3631591796875
1758181458.5812895,-0.484375,-0.01708984375,0.88037109375,-0.30517578125,0.42724609375,-0.244140625,-1.0162353515625,29.0753173828125,-110.36865234375
1758181458.591657,-0.484375,-0.01708984375,0.88037109375,-0.30517578125,0.42724609375,-0.244140625,-1.021728515625,29.080810546875,-110.36865234375
1758181458.6012866,-0.478515625,-0.015625,0.8779296875,-0.06103515625,0.42724609375,-0.244140625,-1.0272216796875,29.080810546875,-110.36865234375
1758181458.6114612,-0.478515625,-0.015625,0.8779296875,-0.06103515625,0.42724609375,-0.244140625,-1.0272216796875,29.0863037109375,-110.36865234375
1758181458.6212993,-0.48291015625,-0.015625,0.875,0.3662109375,0.42724609375,-0.244140625,-1.0272216796875,29.0863037109375,-110.36865234375
1758181458.6314845,-0.48291015625,-0.015625,0.875,0.3662109375,0.42724609375,-0.244140625,-1.021728515625,29.091796875,-110.36865234375
1758181458.6416235,-0.48193359375,-0.015625,0.875,0.30517578125,0.42724609375,-0.244140625,-1.021728515625,29.091796875,-110.36865234375
1758181458.6513047,-0.48193359375,-0.015625,0.875,0.30517578125,0.42724609375,-0.244140625,-1.021728515625,29.0972900390625,-110.36865234375
1758181458.66433,-0.482421875,-0.0166015625,0.87548828125,0.0,0.42724609375,-0.18310546875,-1.021728515625,29.0972900390625,-110.36865234375
1758181458.6711893,-0.482421875,-0.0166015625,0.87548828125,0.0,0.42724609375,-0.18310546875,-1.021728515625,29.102783203125,-110.36865234375
1758181458.6813676,-0.48388671875,-0.015625,0.87353515625,-0.1220703125,0.42724609375,-0.244140625,-1.0272216796875,29.102783203125,-110.36865234375
1758181458.6917398,-0.48388671875,-0.015625,0.87353515625,-0.1220703125,0.42724609375,-0.244140625,-1.0272216796875,29.1082763671875,-110.3741455078125
1758181458.7014086,-0.4853515625,-0.01611328125,0.87548828125,-0.06103515625,0.42724609375,-0.1220703125,-1.0272216796875,29.1082763671875,-110.3741455078125
1758181458.7115562,-0.4853515625,-0.01611328125,0.87548828125,-0.06103515625,0.42724609375,-0.1220703125,-1.03271484375,29.11376953125,-110.36865234375
1758181458.7214072,-0.48681640625,-0.021484375,0.87939453125,-0.06103515625,0.42724609375,-0.18310546875,-1.03271484375,29.11376953125,-110.3741455078125
1758181458.731568,-0.48681640625,-0.021484375,0.87939453125,-0.06103515625,0.42724609375,-0.18310546875,-1.03271484375,29.1192626953125,-110.3741455078125
1758181458.74145,-0.4873046875,-0.01513671875,0.87109375,-0.3662109375,0.42724609375,-0.1220703125,-1.0382080078125,29.1192626953125,-110.36865234375
1758181458.7514634,-0.4873046875,-0.01513671875,0.87109375,-0.3662109375,0.42724609375,-0.1220703125,-1.043701171875,29.124755859375,-110.36865234375
1758181458.7617946,-0.4873046875,-0.013671875,0.87060546875,-0.42724609375,0.3662109375,-0.06103515625,-1.0491943359375,29.124755859375,-110.36865234375
1758181458.7713602,-0.4873046875,-0.013671875,0.87060546875,-0.42724609375,0.3662109375,-0.06103515625,-1.0546875,29.1302490234375,-110.36865234375
1758181458.7817113,-0.48388671875,-0.009765625,0.873046875,-0.79345703125,0.48828125,0.0,-1.0601806640625,29.1357421875,-110.3631591796875
1758181458.7920566,-0.48388671875,-0.009765625,0.873046875,-0.79345703125,0.48828125,0.0,-1.0711669921875,29.1357421875,-110.3631591796875
1758181458.8014367,-0.49609375,-0.0263671875,0.87109375,-1.77001953125,0.48828125,0.0,-1.087646484375,29.1412353515625,-110.357666015625
1758181458.8117137,-0.49609375,-0.0263671875,0.87109375,-1.77001953125,0.48828125,0.0,-1.1041259765625,29.146728515625,-110.3521728515625
1758181458.8215933,-0.48876953125,-0.025390625,0.87744140625,-1.28173828125,0.54931640625,0.06103515625,-1.1151123046875,29.1522216796875,-110.3521728515625
1758181458.8318381,-0.48876953125,-0.025390625,0.87744140625,-1.28173828125,0.54931640625,0.06103515625,-1.131591796875,29.15771484375,-110.3466796875
1758181458.8415155,-0.49169921875,-0.02587890625,0.8701171875,-0.3662109375,0.6103515625,0.0,-1.131591796875,29.1632080078125,-110.3466796875
1758181458.8516958,-0.49169921875,-0.02587890625,0.8701171875,-0.3662109375,0.6103515625,0.0,-1.1370849609375,29.168701171875,-110.3466796875
1758181458.8618581,-0.494140625,-0.017578125,0.87060546875,0.0,0.6103515625,0.0,-1.142578125,29.1741943359375,-110.3466796875
1758181458.8714464,-0.494140625,-0.017578125,0.87060546875,0.0,0.6103515625,0.0,-1.142578125,29.1851806640625,-110.3466796875
1758181458.881547,-0.494140625,-0.009765625,0.86865234375,-0.54931640625,0.6103515625,0.0,-1.1480712890625,29.190673828125,-110.3411865234375
1758181458.8922782,-0.494140625,-0.009765625,0.86865234375,-0.54931640625,0.6103515625,0.0,-1.153564453125,29.1961669921875,-110.3411865234375
1758181458.9016678,-0.4921875,-0.01416015625,0.86865234375,-1.220703125,0.54931640625,0.1220703125,-1.16455078125,29.20166015625,-110.335693359375
1758181458.9118936,-0.4921875,-0.01416015625,0.86865234375,-1.220703125,0.54931640625,0.1220703125,-1.175537109375,29.2071533203125,-110.3302001953125
1758181458.9216962,-0.494140625,-0.02197265625,0.8720703125,-1.3427734375,0.6103515625,0.18310546875,-1.1865234375,29.2181396484375,-110.32470703125
1758181458.9318073,-0.494140625,-0.02197265625,0.8720703125,-1.3427734375,0.6103515625,0.18310546875,-1.197509765625,29.2236328125,-110.313720703125
1758181458.9418743,-0.49365234375,-0.02587890625,0.86962890625,-0.9765625,0.6103515625,0.18310546875,-1.20849609375,29.2291259765625,-110.3082275390625
1758181458.9524295,-0.49365234375,-0.02587890625,0.86962890625,-0.9765625,0.6103515625,0.18310546875,-1.219482421875,29.2401123046875,-110.302734375
1758181458.9619179,-0.49072265625,-0.01904296875,0.86767578125,-0.54931640625,0.54931640625,0.06103515625,-1.2249755859375,29.24560546875,-110.2972412109375
1758181458.9725373,-0.49072265625,-0.01904296875,0.86767578125,-0.54931640625,0.54931640625,0.06103515625,-1.23046875,29.2510986328125,-110.291748046875
1758181458.9816327,-0.49072265625,-0.01416015625,0.87060546875,-0.42724609375,0.42724609375,0.0,-1.2359619140625,29.256591796875,-110.291748046875
1758181458.9918725,-0.49072265625,-0.01416015625,0.87060546875,-0.42724609375,0.42724609375,0.0,-1.2359619140625,29.2620849609375,-110.2862548828125
1758181459.0042963,-0.4912109375,-0.01513671875,0.87109375,-0.30517578125,0.30517578125,0.0,-1.241455078125,29.267578125,-110.28076171875
1758181459.011684,-0.4912109375,-0.01513671875,0.87109375,-0.30517578125,0.30517578125,0.0,-1.241455078125,29.267578125,-110.2752685546875
1758181459.0217159,-0.4921875,-0.02099609375,0.86767578125,-0.3662109375,0.18310546875,0.0,-1.2469482421875,29.2730712890625,-110.269775390625
1758181459.0317748,-0.4921875,-0.02099609375,0.86767578125,-0.3662109375,0.18310546875,0.0,-1.25244140625,29.2730712890625,-110.269775390625
1758181459.041724,-0.4931640625,-0.02001953125,0.87109375,-0.732421875,0.1220703125,0.0,-1.2579345703125,29.278564453125,-110.2642822265625
1758181459.0516944,-0.4931640625,-0.02001953125,0.87109375,-0.732421875,0.1220703125,0.0,-1.263427734375,29.278564453125,-110.2587890625
1758181459.061963,-0.49072265625,-0.021484375,0.87109375,-0.8544921875,0.1220703125,0.0,-1.2744140625,29.2840576171875,-110.2532958984375
1758181459.0717943,-0.49072265625,-0.021484375,0.87109375,-0.8544921875,0.1220703125,0.0,-1.2799072265625,29.2840576171875,-110.247802734375
1758181459.0819244,-0.49169921875,-0.021484375,0.87109375,-0.244140625,0.1220703125,0.0,-1.285400390625,29.2840576171875,-110.2423095703125
1758181459.0951571,-0.49169921875,-0.021484375,0.87109375,-0.244140625,0.1220703125,0.0,-1.285400390625,29.28955078125,-110.2423095703125
1758181459.1017492,-0.4921875,-0.02099609375,0.869140625,0.244140625,0.1220703125,0.0,-1.285400390625,29.28955078125,-110.23681640625
1758181459.1118424,-0.4921875,-0.02099609375,0.869140625,0.244140625,0.1220703125,0.0,-1.2799072265625,29.2950439453125,-110.2313232421875
1758181459.1243227,-0.49609375,-0.01953125,0.86865234375,0.18310546875,0.18310546875,0.0,-1.2799072265625,29.2950439453125,-110.225830078125
1758181459.132034,-0.49609375,-0.01953125,0.86865234375,0.18310546875,0.18310546875,0.0,-1.2799072265625,29.300537109375,-110.225830078125
1758181459.1419008,-0.498046875,-0.01953125,0.8671875,-0.06103515625,0.30517578125,0.0,-1.2799072265625,29.3060302734375,-110.2203369140625
1758181459.1521723,-0.498046875,-0.01953125,0.8671875,-0.06103515625,0.30517578125,0.0,-1.2799072265625,29.3060302734375,-110.21484375
1758181459.162216,-0.5,-0.0205078125,0.86767578125,-0.1220703125,0.3662109375,0.0,-1.2799072265625,29.3115234375,-110.21484375
1758181459.1718454,-0.5,-0.0205078125,0.86767578125,-0.1220703125,0.3662109375,0.0,-1.2799072265625,29.3170166015625,-110.2093505859375
1758181459.1819477,-0.49658203125,-0.0166015625,0.8671875,0.30517578125,0.42724609375,0.0,-1.2799072265625,29.3280029296875,-110.203857421875
1758181459.1919324,-0.49658203125,-0.0166015625,0.8671875,0.30517578125,0.42724609375,0.0,-1.2744140625,29.33349609375,-110.1983642578125
1758181459.202205,-0.4951171875,-0.01708984375,0.8671875,0.79345703125,0.48828125,0.0,-1.2689208984375,29.3389892578125,-110.19287109375
1758181459.2118924,-0.4951171875,-0.01708984375,0.8671875,0.79345703125,0.48828125,0.0,-1.2579345703125,29.344482421875,-110.1873779296875
1758181459.2220168,-0.4931640625,-0.02099609375,0.87109375,0.6103515625,0.42724609375,0.0,-1.25244140625,29.3499755859375,-110.181884765625
1758181459.2320657,-0.4931640625,-0.02099609375,0.87109375,0.6103515625,0.42724609375,0.0,-1.2469482421875,29.35546875,-110.1763916015625
1758181459.241968,-0.4931640625,-0.0234375,0.869140625,0.06103515625,0.3662109375,0.0,-1.2469482421875,29.3609619140625,-110.1708984375
1758181459.2523677,-0.4931640625,-0.0234375,0.869140625,0.06103515625,0.3662109375,0.0,-1.2469482421875,29.366455078125,-110.1708984375
1758181459.262871,-0.4951171875,-0.02001953125,0.8681640625,-0.1220703125,0.244140625,0.0,-1.25244140625,29.3719482421875,-110.1654052734375
1758181459.272001,-0.4951171875,-0.02001953125,0.8681640625,-0.1220703125,0.244140625,0.0,-1.25244140625,29.37744140625,-110.159912109375
1758181459.2825243,-0.49658203125,-0.01806640625,0.86865234375,0.0,0.30517578125,0.0,-1.25244140625,29.3829345703125,-110.1544189453125
1758181459.292062,-0.49658203125,-0.01806640625,0.86865234375,0.0,0.30517578125,0.0,-1.25244140625,29.388427734375,-110.14892578125
1758181459.3028345,-0.49462890625,-0.017578125,0.8681640625,-0.06103515625,0.244140625,0.0,-1.25244140625,29.388427734375,-110.1434326171875
1758181459.3120136,-0.49365234375,-0.02099609375,0.86865234375,-0.3662109375,0.244140625,0.0,-1.2579345703125,29.3939208984375,-110.137939453125
1758181459.3223548,-0.49365234375,-0.02099609375,0.86865234375,-0.3662109375,0.244140625,0.0,-1.2579345703125,29.3994140625,-110.1324462890625
1758181459.332168,-0.49365234375,-0.0205078125,0.87109375,-0.54931640625,0.18310546875,0.0,-1.263427734375,29.3994140625,-110.126953125
1758181459.342275,-0.49365234375,-0.0205078125,0.87109375,-0.54931640625,0.18310546875,0.0,-1.2689208984375,29.4049072265625,-110.126953125
1758181459.3524864,-0.49267578125,-0.01904296875,0.8720703125,-0.48828125,0.244140625,0.0,-1.2744140625,29.410400390625,-110.1214599609375
1758181459.362967,-0.49267578125,-0.01904296875,0.8720703125,-0.48828125,0.244140625,0.0,-1.2799072265625,29.410400390625,-110.115966796875
1758181459.3721597,-0.4921875,-0.01953125,0.8701171875,-0.18310546875,0.244140625,0.0,-1.285400390625,29.4158935546875,-110.115966796875
1758181459.382634,-0.4921875,-0.01953125,0.8701171875,-0.18310546875,0.244140625,0.0,-1.285400390625,29.42138671875,-110.1104736328125
1758181459.3922038,-0.4951171875,-0.01904296875,0.8701171875,0.0,0.3662109375,-0.30517578125,-1.285400390625,29.42138671875,-110.10498046875
1758181459.4029622,-0.4951171875,-0.01904296875,0.8701171875,0.0,0.3662109375,-0.30517578125,-1.2908935546875,29.4268798828125,-110.10498046875
1758181459.4121876,-0.494140625,-0.01953125,0.86865234375,0.48828125,0.30517578125,-0.42724609375,-1.2908935546875,29.432373046875,-110.10498046875
1758181459.4234025,-0.494140625,-0.01953125,0.86865234375,0.48828125,0.30517578125,-0.42724609375,-1.285400390625,29.4378662109375,-110.10498046875
1758181459.4323454,-0.4921875,-0.0185546875,0.8671875,0.732421875,0.244140625,-0.54931640625,-1.285400390625,29.4378662109375,-110.10498046875
1758181459.4421859,-0.4921875,-0.0185546875,0.8671875,0.732421875,0.244140625,-0.54931640625,-1.2799072265625,29.443359375,-110.1104736328125
1758181459.4524279,-0.49072265625,-0.01806640625,0.87158203125,0.18310546875,0.18310546875,-0.6103515625,-1.2799072265625,29.443359375,-110.1104736328125
1758181459.4624488,-0.49072265625,-0.01806640625,0.87158203125,0.18310546875,0.18310546875,-0.6103515625,-1.2799072265625,29.4488525390625,-110.1104736328125
1758181459.4722514,-0.48876953125,-0.02197265625,0.87353515625,0.0,0.18310546875,-0.6103515625,-1.2799072265625,29.4488525390625,-110.115966796875
1758181459.4822416,-0.48876953125,-0.02197265625,0.87353515625,0.0,0.18310546875,-0.6103515625,-1.285400390625,29.454345703125,-110.115966796875
1758181459.4923081,-0.49609375,-0.02392578125,0.869140625,0.732421875,0.30517578125,-0.67138671875,-1.285400390625,29.454345703125,-110.1214599609375
1758181459.5026305,-0.49609375,-0.02392578125,0.869140625,0.732421875,0.30517578125,-0.67138671875,-1.2799072265625,29.4598388671875,-110.1214599609375
1758181459.5123053,-0.49658203125,-0.0185546875,0.86865234375,1.0986328125,0.3662109375,-0.67138671875,-1.2744140625,29.4598388671875,-110.126953125
1758181459.522419,-0.49658203125,-0.0185546875,0.86865234375,1.0986328125,0.3662109375,-0.67138671875,-1.2689208984375,29.46533203125,-110.126953125
1758181459.532377,-0.4990234375,-0.017578125,0.8681640625,0.18310546875,0.42724609375,-0.67138671875,-1.2689208984375,29.4708251953125,-110.1324462890625
1758181459.5423372,-0.4990234375,-0.017578125,0.8681640625,0.18310546875,0.42724609375,-0.67138671875,-1.2689208984375,29.476318359375,-110.1324462890625
1758181459.5528133,-0.4990234375,-0.01708984375,0.86767578125,-0.30517578125,0.3662109375,-0.67138671875,-1.2744140625,29.4818115234375,-110.137939453125
1758181459.562622,-0.4990234375,-0.01708984375,0.86767578125,-0.30517578125,0.3662109375,-0.67138671875,-1.2799072265625,29.4818115234375,-110.137939453125
1758181459.572322,-0.4951171875,-0.01708984375,0.869140625,-0.54931640625,0.3662109375,-0.67138671875,-1.2908935546875,29.4873046875,-110.1434326171875
1758181459.582591,-0.4951171875,-0.01708984375,0.869140625,-0.54931640625,0.3662109375,-0.67138671875,-1.29638671875,29.4927978515625,-110.1434326171875
1758181459.5924459,-0.4912109375,-0.01806640625,0.87060546875,-0.6103515625,0.3662109375,-0.732421875,-1.307373046875,29.498291015625,-110.1434326171875
1758181459.6028595,-0.4912109375,-0.01806640625,0.87060546875,-0.6103515625,0.3662109375,-0.732421875,-1.318359375,29.5037841796875,-110.14892578125
1758181459.6124134,-0.48779296875,-0.02197265625,0.8720703125,-0.3662109375,0.244140625,-0.67138671875,-1.3238525390625,29.5037841796875,-110.1544189453125
1758181459.6226556,-0.48779296875,-0.02197265625,0.8720703125,-0.3662109375,0.244140625,-0.67138671875,-1.3348388671875,29.50927734375,-110.1544189453125
1758181459.6325073,-0.48828125,-0.0234375,0.87109375,-0.42724609375,0.1220703125,-0.67138671875,-1.34033203125,29.50927734375,-110.159912109375
1758181459.6426675,-0.48828125,-0.0234375,0.87109375,-0.42724609375,0.1220703125,-0.67138671875,-1.3458251953125,29.50927734375,-110.159912109375
1758181459.6529777,-0.48583984375,-0.02294921875,0.873046875,-0.54931640625,0.06103515625,-0.6103515625,-1.3568115234375,29.50927734375,-110.1654052734375
1758181459.6627862,-0.48583984375,-0.02294921875,0.873046875,-0.54931640625,0.06103515625,-0.6103515625,-1.3677978515625,29.5147705078125,-110.1654052734375
1758181459.6724308,-0.498046875,-0.02001953125,0.87109375,-1.0986328125,0.1220703125,-0.54931640625,-1.3787841796875,29.5147705078125,-110.1708984375
1758181459.6826468,-0.498046875,-0.02001953125,0.87109375,-1.0986328125,0.1220703125,-0.54931640625,-1.3897705078125,29.5147705078125,-110.1708984375
1758181459.6925786,-0.49169921875,-0.0205078125,0.86865234375,-1.52587890625,0.18310546875,-0.48828125,-1.40625,29.5147705078125,-110.1708984375
1758181459.7029912,-0.49169921875,-0.0205078125,0.86865234375,-1.52587890625,0.18310546875,-0.48828125,-1.4227294921875,29.5147705078125,-110.1708984375
1758181459.712527,-0.4951171875,-0.02197265625,0.8701171875,-1.40380859375,0.30517578125,-0.54931640625,-1.439208984375,29.520263671875,-110.1708984375
1758181459.7229273,-0.4951171875,-0.02197265625,0.8701171875,-1.40380859375,0.30517578125,-0.54931640625,-1.4556884765625,29.520263671875,-110.1763916015625
1758181459.7333868,-0.49462890625,-0.01611328125,0.8740234375,-2.3193359375,0.3662109375,-0.54931640625,-1.4776611328125,29.5257568359375,-110.1763916015625
1758181459.7425554,-0.49462890625,-0.01611328125,0.8740234375,-2.3193359375,0.3662109375,-0.54931640625,-1.505126953125,29.5257568359375,-110.1763916015625
1758181459.7552984,-0.48974609375,-0.0234375,0.86669921875,-3.662109375,0.54931640625,-0.42724609375,-1.5325927734375,29.53125,-110.1763916015625
1758181459.7628198,-0.48974609375,-0.0234375,0.86669921875,-3.662109375,0.54931640625,-0.42724609375,-1.571044921875,29.5367431640625,-110.1763916015625
1758181459.7730906,-0.48974609375,-0.03515625,0.8701171875,-2.50244140625,0.48828125,-0.42724609375,-1.60400390625,29.542236328125,-110.1763916015625
1758181459.7827544,-0.48974609375,-0.03515625,0.8701171875,-2.50244140625,0.48828125,-0.42724609375,-1.6314697265625,29.5477294921875,-110.1763916015625
1758181459.7934163,-0.4921875,-0.03271484375,0.87353515625,-0.91552734375,0.6103515625,-0.42724609375,-1.64794921875,29.55322265625,-110.1763916015625
1758181459.80266,-0.4921875,-0.03271484375,0.87353515625,-0.91552734375,0.6103515625,-0.42724609375,-1.6644287109375,29.5587158203125,-110.181884765625
1758181459.8129983,-0.486328125,-0.02392578125,0.8720703125,-0.8544921875,0.67138671875,-0.3662109375,-1.6754150390625,29.564208984375,-110.181884765625
1758181459.8230922,-0.486328125,-0.02392578125,0.8720703125,-0.8544921875,0.67138671875,-0.3662109375,-1.680908203125,29.5697021484375,-110.181884765625
1758181459.8332644,-0.49267578125,-0.0263671875,0.869140625,-1.3427734375,0.67138671875,-0.244140625,-1.6973876953125,29.5751953125,-110.1763916015625
1758181459.842761,-0.49267578125,-0.0263671875,0.869140625,-1.3427734375,0.67138671875,-0.244140625,-1.7083740234375,29.5806884765625,-110.1763916015625
1758181459.8539786,-0.490234375,-0.02978515625,0.873046875,-1.3427734375,0.67138671875,-0.1220703125,-1.724853515625,29.586181640625,-110.1763916015625
1758181459.8633416,-0.490234375,-0.02978515625,0.873046875,-1.3427734375,0.67138671875,-0.1220703125,-1.73583984375,29.5916748046875,-110.1708984375
1758181459.8733435,-0.4912109375,-0.02880859375,0.87060546875,-1.40380859375,0.6103515625,-0.06103515625,-1.7523193359375,29.59716796875,-110.1654052734375
1758181459.8830814,-0.4912109375,-0.02880859375,0.87060546875,-1.40380859375,0.6103515625,-0.06103515625,-1.768798828125,29.6026611328125,-110.1654052734375
1758181459.8934782,-0.490234375,-0.02685546875,0.87060546875,-1.708984375,0.54931640625,0.0,-1.77978515625,29.6026611328125,-110.159912109375
1758181459.902727,-0.490234375,-0.02685546875,0.87060546875,-1.708984375,0.54931640625,0.0,-1.8017578125,29.608154296875,-110.1544189453125
1758181459.9127567,-0.4921875,-0.02880859375,0.8740234375,-2.13623046875,0.67138671875,0.244140625,-1.8182373046875,29.6136474609375,-110.14892578125
1758181459.9231853,-0.4921875,-0.02880859375,0.8740234375,-2.13623046875,0.67138671875,0.244140625,-1.834716796875,29.619140625,-110.1434326171875
1758181459.9328582,-0.486328125,-0.03173828125,0.873046875,-2.50244140625,0.732421875,0.3662109375,-1.856689453125,29.6246337890625,-110.1324462890625
1758181459.9428174,-0.486328125,-0.03173828125,0.873046875,-2.50244140625,0.732421875,0.3662109375,-1.878662109375,29.630126953125,-110.1214599609375
1758181459.952861,-0.486328125,-0.03076171875,0.87353515625,-2.74658203125,0.732421875,0.48828125,-1.9061279296875,29.6356201171875,-110.1104736328125
1758181459.9632626,-0.486328125,-0.03076171875,0.87353515625,-2.74658203125,0.732421875,0.48828125,-1.9281005859375,29.64111328125,-110.10498046875
1758181459.9728463,-0.48876953125,-0.03125,0.87158203125,-2.99072265625,0.6103515625,0.732421875,-1.95556640625,29.6466064453125,-110.0885009765625
1758181459.982959,-0.48876953125,-0.03125,0.87158203125,-2.99072265625,0.6103515625,0.732421875,-1.9775390625,29.652099609375,-110.0775146484375
1758181459.9928849,-0.4921875,-0.03173828125,0.869140625,-3.23486328125,0.6103515625,0.91552734375,-2.0050048828125,29.6575927734375,-110.0665283203125
1758181460.0028841,-0.4921875,-0.03173828125,0.869140625,-3.23486328125,0.6103515625,0.91552734375,-2.032470703125,29.6575927734375,-110.050048828125
1758181460.012873,-0.4931640625,-0.03271484375,0.87060546875,-3.72314453125,0.6103515625,1.03759765625,-2.0599365234375,29.6630859375,-110.0335693359375
1758181460.0234609,-0.4931640625,-0.03271484375,0.87060546875,-3.72314453125,0.6103515625,1.03759765625,-2.0928955078125,29.6685791015625,-110.0225830078125
1758181460.0329943,-0.490234375,-0.029296875,0.8740234375,-5.92041015625,0.6103515625,1.0986328125,-2.13134765625,29.674072265625,-110.006103515625
1758181460.0429401,-0.490234375,-0.029296875,0.8740234375,-5.92041015625,0.6103515625,1.0986328125,-2.186279296875,29.6795654296875,-109.9896240234375
1758181460.0529518,-0.48876953125,-0.0400390625,0.86572265625,-6.34765625,0.54931640625,1.220703125,-2.2357177734375,29.6795654296875,-109.9676513671875
1758181460.0632985,-0.48876953125,-0.0400390625,0.86572265625,-6.34765625,0.54931640625,1.220703125,-2.2906494140625,29.68505859375,-109.951171875
1758181460.0729358,-0.48828125,-0.041015625,0.86865234375,-3.96728515625,0.3662109375,1.15966796875,-2.3345947265625,29.6905517578125,-109.9346923828125
1758181460.082974,-0.48828125,-0.041015625,0.86865234375,-3.96728515625,0.3662109375,1.15966796875,-2.3675537109375,29.6905517578125,-109.9127197265625
1758181460.0931528,-0.4970703125,-0.03857421875,0.87158203125,-2.9296875,0.48828125,1.220703125,-2.39501953125,29.696044921875,-109.896240234375
1758181460.1030262,-0.4970703125,-0.03857421875,0.87158203125,-2.9296875,0.48828125,1.220703125,-2.4169921875,29.696044921875,-109.8797607421875
1758181460.113003,-0.50244140625,-0.0390625,0.86279296875,-3.5400390625,0.48828125,1.28173828125,-2.43896484375,29.7015380859375,-109.86328125
1758181460.1234818,-0.50244140625,-0.0390625,0.86279296875,-3.5400390625,0.48828125,1.28173828125,-2.4664306640625,29.70703125,-109.84130859375
1758181460.133087,-0.5078125,-0.0380859375,0.86181640625,-4.21142578125,0.54931640625,1.0986328125,-2.4993896484375,29.7125244140625,-109.8248291015625
1758181460.1429884,-0.5078125,-0.0380859375,0.86181640625,-4.21142578125,0.54931640625,1.0986328125,-2.5323486328125,29.718017578125,-109.808349609375
1758181460.1531332,-0.50830078125,-0.0390625,0.86181640625,-3.662109375,0.67138671875,0.91552734375,-2.5653076171875,29.7235107421875,-109.7918701171875
1758181460.1635332,-0.50830078125,-0.0390625,0.86181640625,-3.662109375,0.67138671875,0.91552734375,-2.5982666015625,29.72900390625,-109.775390625
1758181460.1731124,-0.5078125,-0.03955078125,0.859375,-2.38037109375,0.732421875,0.67138671875,-2.6202392578125,29.739990234375,-109.7589111328125
1758181460.183618,-0.5078125,-0.03955078125,0.859375,-2.38037109375,0.732421875,0.67138671875,-2.6422119140625,29.7454833984375,-109.7479248046875
1758181460.1932487,-0.5078125,-0.03955078125,0.859375,-1.708984375,0.67138671875,0.48828125,-2.65869140625,29.7564697265625,-109.7369384765625
1758181460.2035906,-0.50341796875,-0.0400390625,0.86083984375,-1.708984375,0.67138671875,0.48828125,-2.669677734375,29.7674560546875,-109.720458984375
1758181460.2131574,-0.50048828125,-0.0400390625,0.8642578125,-1.8310546875,0.48828125,0.30517578125,-2.6861572265625,29.77294921875,-109.7149658203125
1758181460.2239707,-0.50048828125,-0.0400390625,0.8642578125,-1.8310546875,0.48828125,0.30517578125,-2.70263671875,29.7784423828125,-109.7039794921875
1758181460.2332053,-0.50048828125,-0.04296875,0.86376953125,-2.13623046875,0.244140625,0.18310546875,-2.7191162109375,29.783935546875,-109.6929931640625
1758181460.2434518,-0.50048828125,-0.04296875,0.86376953125,-2.13623046875,0.244140625,0.18310546875,-2.735595703125,29.7894287109375,-109.6875
1758181460.2532005,-0.5009765625,-0.04443359375,0.86083984375,-1.953125,0.06103515625,0.18310546875,-2.757568359375,29.7894287109375,-109.676513671875
1758181460.264152,-0.5009765625,-0.04443359375,0.86083984375,-1.953125,0.06103515625,0.18310546875,-2.7740478515625,29.794921875,-109.66552734375
1758181460.273185,-0.50341796875,-0.04541015625,0.86328125,-1.64794921875,0.0,0.0,-2.79052734375,29.794921875,-109.6600341796875
1758181460.2835824,-0.50341796875,-0.04541015625,0.86328125,-1.64794921875,0.0,0.0,-2.8070068359375,29.8004150390625,-109.654541015625
1758181460.293316,-0.5029296875,-0.04443359375,0.86279296875,-1.5869140625,-0.06103515625,-0.06103515625,-2.823486328125,29.8004150390625,-109.6490478515625
1758181460.3037205,-0.5029296875,-0.04443359375,0.86279296875,-1.5869140625,-0.06103515625,-0.06103515625,-2.83447265625,29.8004150390625,-109.6435546875
1758181460.3133576,-0.50244140625,-0.04296875,0.86083984375,-1.5869140625,-0.1220703125,-0.18310546875,-2.8509521484375,29.8004150390625,-109.6380615234375
1758181460.3242798,-0.50244140625,-0.04296875,0.86083984375,-1.5869140625,-0.1220703125,-0.18310546875,-2.867431640625,29.8004150390625,-109.632568359375
1758181460.333371,-0.50439453125,-0.0439453125,0.86376953125,-1.28173828125,-0.1220703125,-0.30517578125,-2.8839111328125,29.805908203125,-109.6270751953125
1758181460.3438022,-0.50439453125,-0.0439453125,0.86376953125,-1.28173828125,-0.1220703125,-0.30517578125,-2.8948974609375,29.805908203125,-109.6270751953125
1758181460.353464,-0.50732421875,-0.04931640625,0.861328125,-0.42724609375,0.0,-0.18310546875,-2.900390625,29.805908203125,-109.62158203125
1758181460.364326,-0.50732421875,-0.04931640625,0.861328125,-0.42724609375,0.0,-0.18310546875,-2.9058837890625,29.805908203125,-109.6160888671875
1758181460.3733394,-0.5087890625,-0.05419921875,0.8623046875,0.0,0.18310546875,-0.1220703125,-2.9058837890625,29.8114013671875,-109.610595703125
1758181460.383447,-0.5087890625,-0.05419921875,0.8623046875,0.0,0.18310546875,-0.1220703125,-2.911376953125,29.81689453125,-109.610595703125
1758181460.3934941,-0.50634765625,-0.05029296875,0.86181640625,0.0,0.3662109375,-0.18310546875,-2.911376953125,29.8223876953125,-109.6051025390625
1758181460.4033961,-0.50634765625,-0.05029296875,0.86181640625,0.0,0.3662109375,-0.18310546875,-2.911376953125,29.827880859375,-109.6051025390625
1758181460.4134834,-0.50439453125,-0.041015625,0.86279296875,-0.1220703125,0.48828125,-0.48828125,-2.9168701171875,29.8388671875,-109.6051025390625
1758181460.4237823,-0.50439453125,-0.041015625,0.86279296875,-0.1220703125,0.48828125,-0.48828125,-2.92236328125,29.8443603515625,-109.6051025390625
1758181460.4335015,-0.50634765625,-0.037109375,0.86328125,-0.06103515625,0.67138671875,-0.79345703125,-2.9278564453125,29.8553466796875,-109.610595703125
1758181460.443532,-0.50634765625,-0.037109375,0.86328125,-0.06103515625,0.67138671875,-0.79345703125,-2.933349609375,29.86083984375,-109.6160888671875
1758181460.453543,-0.5087890625,-0.04345703125,0.8671875,0.6103515625,1.0986328125,-0.9765625,-2.933349609375,29.8773193359375,-109.62158203125
1758181460.4638104,-0.5087890625,-0.04345703125,0.8671875,0.6103515625,1.0986328125,-0.9765625,-2.933349609375,29.8883056640625,-109.6270751953125
1758181460.473502,-0.505859375,-0.05322265625,0.86083984375,1.77001953125,1.46484375,-1.03759765625,-2.92236328125,29.90478515625,-109.632568359375
1758181460.4835315,-0.505859375,-0.05322265625,0.86083984375,1.77001953125,1.46484375,-1.03759765625,-2.911376953125,29.9212646484375,-109.6435546875
1758181460.4936018,-0.498046875,-0.0517578125,0.86083984375,2.5634765625,1.40380859375,-1.0986328125,-2.8948974609375,29.937744140625,-109.6490478515625
1758181460.5035849,-0.498046875,-0.0517578125,0.86083984375,2.5634765625,1.40380859375,-1.0986328125,-2.87841796875,29.9542236328125,-109.6600341796875
1758181460.5136118,-0.49560546875,-0.044921875,0.86962890625,1.5869140625,1.28173828125,-0.9765625,-2.867431640625,29.9652099609375,-109.6710205078125
1758181460.5239103,-0.49560546875,-0.044921875,0.86962890625,1.5869140625,1.28173828125,-0.9765625,-2.8564453125,29.981689453125,-109.676513671875
1758181460.5336096,-0.49072265625,-0.04248046875,0.86767578125,-0.06103515625,1.03759765625,-1.03759765625,-2.867431640625,29.99267578125,-109.6875
1758181460.5435605,-0.49072265625,-0.04248046875,0.86767578125,-0.06103515625,1.03759765625,-1.03759765625,-2.8729248046875,29.9981689453125,-109.6929931640625
1758181460.5538425,-0.48828125,-0.0439453125,0.865234375,-0.06103515625,0.67138671875,-1.0986328125,-2.8839111328125,30.0091552734375,-109.7039794921875
1758181460.5637236,-0.48828125,-0.0439453125,0.865234375,-0.06103515625,0.67138671875,-1.0986328125,-2.889404296875,30.0146484375,-109.70947265625
1758181460.5736191,-0.4912109375,-0.04736328125,0.869140625,1.15966796875,0.42724609375,-1.52587890625,-2.889404296875,30.0146484375,-109.7259521484375
1758181460.5836692,-0.4912109375,-0.04736328125,0.869140625,1.15966796875,0.42724609375,-1.52587890625,-2.889404296875,30.0146484375,-109.7369384765625
1758181460.593945,-0.49560546875,-0.04296875,0.86669921875,2.44140625,0.30517578125,-1.953125,-2.8729248046875,30.0201416015625,-109.7589111328125
1758181460.6036084,-0.49560546875,-0.04296875,0.86669921875,2.44140625,0.30517578125,-1.953125,-2.8619384765625,30.0201416015625,-109.775390625
1758181460.6136599,-0.49853515625,-0.0380859375,0.861328125,3.2958984375,0.1220703125,-2.3193359375,-2.845458984375,30.0201416015625,-109.79736328125
1758181460.6238759,-0.49853515625,-0.0380859375,0.861328125,3.2958984375,0.1220703125,-2.3193359375,-2.823486328125,30.0146484375,-109.8193359375
1758181460.6337838,-0.4951171875,-0.04150390625,0.8642578125,3.41796875,0.0,-2.44140625,-2.8070068359375,30.0146484375,-109.84130859375
1758181460.6436741,-0.4951171875,-0.04150390625,0.8642578125,3.41796875,0.0,-2.44140625,-2.7850341796875,30.0146484375,-109.86328125
1758181460.654033,-0.486328125,-0.04736328125,0.87109375,2.86865234375,-0.30517578125,-2.38037109375,-2.7685546875,30.0091552734375,-109.8907470703125
1758181460.664469,-0.486328125,-0.04736328125,0.87109375,2.86865234375,-0.30517578125,-2.38037109375,-2.757568359375,30.003662109375,-109.9127197265625
1758181460.6739323,-0.486328125,-0.04736328125,0.87109375,2.9296875,-0.48828125,-1.8310546875,-2.735595703125,29.99267578125,-109.92919921875
1758181460.683732,-0.48193359375,-0.03076171875,0.8623046875,2.9296875,-0.48828125,-1.8310546875,-2.7191162109375,29.9871826171875,-109.9456787109375
1758181460.6945205,-0.486328125,-0.0546875,0.873046875,3.72314453125,-0.91552734375,-1.40380859375,-2.691650390625,29.970703125,-109.9566650390625
1758181460.7037597,-0.486328125,-0.0546875,0.873046875,3.72314453125,-0.91552734375,-1.40380859375,-2.6641845703125,29.959716796875,-109.9676513671875
1758181460.7144792,-0.49267578125,-0.05859375,0.8759765625,2.8076171875,-0.79345703125,-0.91552734375,-2.6422119140625,29.94873046875,-109.9786376953125
1758181460.723865,-0.49267578125,-0.05859375,0.8759765625,2.8076171875,-0.79345703125,-0.91552734375,-2.6202392578125,29.937744140625,-109.984130859375
1758181460.7345245,-0.4990234375,-0.05126953125,0.861328125,1.953125,-0.8544921875,-0.8544921875,-2.6092529296875,29.9267578125,-109.9951171875
1758181460.743874,-0.4990234375,-0.05126953125,0.861328125,1.953125,-0.8544921875,-0.8544921875,-2.5982666015625,29.915771484375,-110.0006103515625
1758181460.7541714,-0.50341796875,-0.03173828125,0.86572265625,2.3193359375,-0.67138671875,-1.03759765625,-2.581787109375,29.90478515625,-110.0115966796875
1758181460.7648516,-0.50341796875,-0.03173828125,0.86572265625,2.3193359375,-0.67138671875,-1.03759765625,-2.57080078125,29.8992919921875,-110.0225830078125
1758181460.7741537,-0.50341796875,-0.02685546875,0.869140625,3.11279296875,-0.244140625,-1.15966796875,-2.5433349609375,29.893798828125,-110.0335693359375
1758181460.784126,-0.50341796875,-0.02685546875,0.869140625,3.11279296875,-0.244140625,-1.15966796875,-2.5213623046875,29.8883056640625,-110.0390625
1758181460.7948053,-0.50390625,-0.03466796875,0.8642578125,3.7841796875,0.0,-1.3427734375,-2.493896484375,29.8883056640625,-110.050048828125
1758181460.803892,-0.50390625,-0.03466796875,0.8642578125,3.7841796875,0.0,-1.3427734375,-2.4664306640625,29.8883056640625,-110.06103515625
1758181460.814687,-0.5068359375,-0.04052734375,0.86669921875,3.662109375,0.30517578125,-1.40380859375,-2.43896484375,29.8883056640625,-110.072021484375
1758181460.824001,-0.5068359375,-0.04052734375,0.86669921875,3.662109375,0.30517578125,-1.40380859375,-2.4114990234375,29.893798828125,-110.0830078125
1758181460.8339212,-0.5146484375,-0.04345703125,0.8623046875,3.23486328125,0.732421875,-1.220703125,-2.384033203125,29.8992919921875,-110.093994140625
1758181460.8438654,-0.5146484375,-0.04345703125,0.8623046875,3.23486328125,0.732421875,-1.220703125,-2.362060546875,29.9102783203125,-110.0994873046875
1758181460.8541038,-0.51171875,-0.04345703125,0.85693359375,3.35693359375,0.9765625,-1.03759765625,-2.340087890625,29.9212646484375,-110.1104736328125
1758181460.8648508,-0.51171875,-0.04345703125,0.85693359375,3.35693359375,0.9765625,-1.03759765625,-2.3126220703125,29.9322509765625,-110.115966796875
1758181460.8739963,-0.5107421875,-0.03662109375,0.86083984375,3.23486328125,1.15966796875,-0.8544921875,-2.2906494140625,29.9432373046875,-110.1214599609375
1758181460.8840103,-0.5107421875,-0.03662109375,0.86083984375,3.23486328125,1.15966796875,-0.8544921875,-2.26318359375,29.9542236328125,-110.126953125
1758181460.8941615,-0.50634765625,-0.03369140625,0.86279296875,2.9296875,1.0986328125,-0.67138671875,-2.2412109375,29.970703125,-110.1324462890625
1758181460.904114,-0.50634765625,-0.03369140625,0.86279296875,2.9296875,1.0986328125,-0.67138671875,-2.21923828125,29.981689453125,-110.137939453125
1758181460.9142113,-0.5068359375,-0.03515625,0.8623046875,2.8076171875,1.03759765625,-0.42724609375,-2.197265625,29.99267578125,-110.137939453125
1758181460.9241524,-0.5068359375,-0.03515625,0.8623046875,2.8076171875,1.03759765625,-0.42724609375,-2.1697998046875,30.003662109375,-110.137939453125
1758181460.9342039,-0.50390625,-0.0361328125,0.859375,2.50244140625,0.79345703125,-0.18310546875,-2.1533203125,30.0146484375,-110.137939453125
1758181460.9440093,-0.50390625,-0.0361328125,0.859375,2.50244140625,0.79345703125,-0.18310546875,-2.13134765625,30.025634765625,-110.137939453125
1758181460.9541929,-0.5009765625,-0.03271484375,0.86083984375,1.8310546875,0.6103515625,-0.06103515625,-2.1148681640625,30.0311279296875,-110.1324462890625
1758181460.9649584,-0.5009765625,-0.03271484375,0.86083984375,1.8310546875,0.6103515625,-0.06103515625,-2.098388671875,30.0421142578125,-110.1324462890625
1758181460.9741578,-0.50830078125,-0.033203125,0.87060546875,1.46484375,0.42724609375,0.0,-2.08740234375,30.047607421875,-110.126953125
1758181460.9840322,-0.50830078125,-0.033203125,0.87060546875,1.46484375,0.42724609375,0.0,-2.0709228515625,30.0531005859375,-110.1214599609375
1758181460.994326,-0.50341796875,-0.03955078125,0.86181640625,0.732421875,0.54931640625,0.06103515625,-2.0654296875,30.05859375,-110.1214599609375
1758181461.0041182,-0.50341796875,-0.03955078125,0.86181640625,0.732421875,0.54931640625,0.06103515625,-2.0599365234375,30.069580078125,-110.115966796875
1758181461.0146074,-0.50244140625,-0.03466796875,0.85986328125,1.3427734375,0.3662109375,0.06103515625,-2.0489501953125,30.069580078125,-110.1104736328125
1758181461.024217,-0.50244140625,-0.03466796875,0.85986328125,1.3427734375,0.3662109375,0.06103515625,-2.0379638671875,30.0750732421875,-110.1104736328125
1758181461.0342984,-0.50341796875,-0.029296875,0.865234375,1.52587890625,0.244140625,0.1220703125,-2.0269775390625,30.08056640625,-110.10498046875
1758181461.0441203,-0.50341796875,-0.029296875,0.865234375,1.52587890625,0.244140625,0.1220703125,-2.010498046875,30.0860595703125,-110.0994873046875
1758181461.0541675,-0.50048828125,-0.0283203125,0.86376953125,1.03759765625,0.18310546875,0.1220703125,-2.0050048828125,30.0860595703125,-110.093994140625
1758181461.064756,-0.50048828125,-0.0283203125,0.86376953125,1.03759765625,0.18310546875,0.1220703125,-1.9940185546875,30.091552734375,-110.0885009765625
1758181461.0741942,-0.4970703125,-0.0322265625,0.8662109375,1.03759765625,0.0,0.06103515625,-1.9830322265625,30.091552734375,-110.0830078125
1758181461.0841627,-0.4970703125,-0.0322265625,0.8662109375,1.03759765625,0.0,0.06103515625,-1.9720458984375,30.091552734375,-110.0775146484375
1758181461.0946918,-0.49951171875,-0.03125,0.86865234375,1.3427734375,-0.1220703125,0.0,-1.9610595703125,30.091552734375,-110.0775146484375
1758181461.1041539,-0.49951171875,-0.03125,0.86865234375,1.3427734375,-0.1220703125,0.0,-1.9500732421875,30.091552734375,-110.072021484375
1758181461.1148138,-0.501953125,-0.02880859375,0.86376953125,1.8310546875,-0.244140625,-0.06103515625,-1.93359375,30.0860595703125,-110.0665283203125
1758181461.124641,-0.501953125,-0.02880859375,0.86376953125,1.8310546875,-0.244140625,-0.06103515625,-1.9171142578125,30.0860595703125,-110.0665283203125
1758181461.1342652,-0.50732421875,-0.02978515625,0.85986328125,1.953125,-0.244140625,-0.244140625,-1.900634765625,30.08056640625,-110.0665283203125
1758181461.1445374,-0.50732421875,-0.02978515625,0.85986328125,1.953125,-0.244140625,-0.244140625,-1.8841552734375,30.08056640625,-110.06103515625
1758181461.1542323,-0.50732421875,-0.02490234375,0.861328125,1.64794921875,-0.3662109375,-0.42724609375,-1.8731689453125,30.0750732421875,-110.06103515625
1758181461.1660588,-0.50732421875,-0.02490234375,0.861328125,1.64794921875,-0.3662109375,-0.42724609375,-1.856689453125,30.0750732421875,-110.06103515625
1758181461.1742282,-0.5078125,-0.02294921875,0.86181640625,1.3427734375,-0.42724609375,-0.6103515625,-1.8511962890625,30.069580078125,-110.06103515625
1758181461.1848981,-0.5078125,-0.02294921875,0.86181640625,1.3427734375,-0.42724609375,-0.6103515625,-1.8402099609375,30.069580078125,-110.0665283203125
1758181461.1944482,-0.5078125,-0.02294921875,0.86181640625,1.3427734375,-0.54931640625,-0.8544921875,-1.8292236328125,30.0640869140625,-110.0665283203125
1758181461.2046938,-0.5107421875,-0.02392578125,0.859375,1.3427734375,-0.54931640625,-0.8544921875,-1.82373046875,30.05859375,-110.072021484375
1758181461.2143512,-0.51171875,-0.02783203125,0.857421875,1.40380859375,-0.54931640625,-0.9765625,-1.812744140625,30.05859375,-110.0775146484375
1758181461.225106,-0.51171875,-0.02783203125,0.857421875,1.40380859375,-0.54931640625,-0.9765625,-1.8072509765625,30.0531005859375,-110.0830078125
1758181461.234363,-0.51513671875,-0.02734375,0.85791015625,1.28173828125,-0.48828125,-1.0986328125,-1.8017578125,30.047607421875,-110.0885009765625
1758181461.2447205,-0.51513671875,-0.02734375,0.85791015625,1.28173828125,-0.48828125,-1.0986328125,-1.7962646484375,30.047607421875,-110.093994140625
1758181461.25436,-0.51220703125,-0.0263671875,0.85986328125,1.220703125,-0.3662109375,-1.28173828125,-1.790771484375,30.047607421875,-110.10498046875
1758181461.2658453,-0.51220703125,-0.0263671875,0.85986328125,1.220703125,-0.3662109375,-1.28173828125,-1.7852783203125,30.047607421875,-110.1104736328125
1758181461.2743945,-0.50732421875,-0.02392578125,0.85986328125,1.28173828125,-0.3662109375,-1.46484375,-1.77978515625,30.047607421875,-110.1214599609375
1758181461.2851655,-0.50732421875,-0.02392578125,0.85986328125,1.28173828125,-0.3662109375,-1.46484375,-1.77978515625,30.0421142578125,-110.1324462890625
1758181461.2946002,-0.5029296875,-0.02392578125,0.8642578125,1.46484375,-0.48828125,-1.5869140625,-1.7742919921875,30.0421142578125,-110.1434326171875
1758181461.3049352,-0.5029296875,-0.02392578125,0.8642578125,1.46484375,-0.48828125,-1.5869140625,-1.768798828125,30.0421142578125,-110.1544189453125
1758181461.3145173,-0.50048828125,-0.02734375,0.865234375,1.77001953125,-0.67138671875,-1.64794921875,-1.7578125,30.03662109375,-110.1654052734375
1758181461.3245466,-0.50048828125,-0.02734375,0.865234375,1.77001953125,-0.67138671875,-1.64794921875,-1.7523193359375,30.0311279296875,-110.1763916015625
1758181461.3348815,-0.50048828125,-0.0302734375,0.8623046875,1.52587890625,-0.8544921875,-1.64794921875,-1.7413330078125,30.025634765625,-110.19287109375
1758181461.3447533,-0.50048828125,-0.0302734375,0.8623046875,1.52587890625,-0.8544921875,-1.64794921875,-1.7413330078125,30.0146484375,-110.203857421875
1758181461.3549938,-0.50634765625,-0.02734375,0.8662109375,1.220703125,-0.79345703125,-1.64794921875,-1.73583984375,30.0091552734375,-110.21484375
1758181461.3651295,-0.509765625,-0.025390625,0.8583984375,1.0986328125,-0.6103515625,-1.5869140625,-1.73583984375,30.003662109375,-110.2313232421875
1758181461.3745005,-0.509765625,-0.025390625,0.8583984375,1.0986328125,-0.6103515625,-1.5869140625,-1.7303466796875,29.9981689453125,-110.2423095703125
1758181461.384554,-0.51025390625,-0.025390625,0.85888671875,1.220703125,-0.48828125,-1.5869140625,-1.7303466796875,29.9981689453125,-110.2532958984375
1758181461.394598,-0.51025390625,-0.025390625,0.85888671875,1.220703125,-0.48828125,-1.5869140625,-1.7303466796875,29.99267578125,-110.2642822265625
1758181461.4045534,-0.5068359375,-0.02587890625,0.861328125,1.3427734375,-0.42724609375,-1.52587890625,-1.724853515625,29.99267578125,-110.2752685546875
1758181461.4145596,-0.5068359375,-0.02587890625,0.861328125,1.3427734375,-0.42724609375,-1.52587890625,-1.7193603515625,29.99267578125,-110.2862548828125
1758181461.4246883,-0.50537109375,-0.0263671875,0.8603515625,1.0986328125,-0.42724609375,-1.40380859375,-1.7138671875,29.9871826171875,-110.2972412109375
1758181461.434563,-0.50537109375,-0.0263671875,0.8603515625,1.0986328125,-0.42724609375,-1.40380859375,-1.7138671875,29.9871826171875,-110.3082275390625
1758181461.4446263,-0.49267578125,-0.02587890625,0.869140625,0.67138671875,-0.6103515625,-1.220703125,-1.7138671875,29.981689453125,-110.3192138671875
1758181461.4549155,-0.49267578125,-0.02587890625,0.869140625,0.67138671875,-0.6103515625,-1.220703125,-1.7138671875,29.981689453125,-110.32470703125
1758181461.465137,-0.486328125,-0.029296875,0.87451171875,0.06103515625,-0.732421875,-1.03759765625,-1.7138671875,29.9761962890625,-110.335693359375
1758181461.4746642,-0.486328125,-0.029296875,0.87451171875,0.06103515625,-0.732421875,-1.03759765625,-1.7193603515625,29.9652099609375,-110.3411865234375
1758181461.4847038,-0.486328125,-0.02978515625,0.86865234375,0.732421875,-0.8544921875,-0.8544921875,-1.724853515625,29.959716796875,-110.3466796875
1758181461.4954271,-0.486328125,-0.02978515625,0.86865234375,0.732421875,-0.8544921875,-0.8544921875,-1.7193603515625,29.94873046875,-110.3521728515625
1758181461.504688,-0.49951171875,-0.02587890625,0.87548828125,1.3427734375,-0.3662109375,-0.42724609375,-1.7138671875,29.9432373046875,-110.3521728515625
1758181461.5146646,-0.49951171875,-0.02587890625,0.87548828125,1.3427734375,-0.3662109375,-0.42724609375,-1.702880859375,29.937744140625,-110.3521728515625
1758181461.5248158,-0.51708984375,-0.0341796875,0.8779296875,0.3662109375,0.8544921875,0.06103515625,-1.6973876953125,29.9432373046875,-110.3521728515625
1758181461.5346766,-0.51708984375,-0.0341796875,0.8779296875,0.3662109375,0.8544921875,0.06103515625,-1.69189453125,29.94873046875,-110.3466796875
1758181461.5447297,-0.50927734375,-0.0390625,0.85791015625,-0.06103515625,1.8310546875,0.3662109375,-1.69189453125,29.9652099609375,-110.3411865234375
1758181461.55469,-0.50927734375,-0.0390625,0.85791015625,-0.06103515625,1.8310546875,0.3662109375,-1.69189453125,29.981689453125,-110.335693359375
1758181461.565159,-0.5068359375,-0.0234375,0.8603515625,0.1220703125,1.953125,0.30517578125,-1.69189453125,30.003662109375,-110.32470703125
1758181461.5747628,-0.5068359375,-0.0234375,0.8603515625,0.1220703125,1.953125,0.30517578125,-1.69189453125,30.025634765625,-110.3192138671875
1758181461.584849,-0.5048828125,-0.015625,0.8642578125,-0.54931640625,1.953125,0.1220703125,-1.6973876953125,30.0421142578125,-110.313720703125
1758181461.5949843,-0.5048828125,-0.015625,0.8642578125,-0.54931640625,1.953125,0.1220703125,-1.702880859375,30.0640869140625,-110.3082275390625
1758181461.6048503,-0.5029296875,-0.017578125,0.8564453125,-0.6103515625,1.5869140625,-0.244140625,-1.7083740234375,30.08056640625,-110.3082275390625
1758181461.615403,-0.5029296875,-0.017578125,0.8564453125,-0.6103515625,1.5869140625,-0.244140625,-1.7138671875,30.0970458984375,-110.302734375
1758181461.6249187,-0.505859375,-0.021484375,0.86279296875,0.0,1.28173828125,-0.79345703125,-1.7193603515625,30.113525390625,-110.3082275390625
1758181461.6356807,-0.505859375,-0.021484375,0.86279296875,0.0,1.28173828125,-0.79345703125,-1.724853515625,30.1300048828125,-110.3082275390625
1758181461.6454566,-0.50146484375,-0.0234375,0.85791015625,0.8544921875,0.8544921875,-1.28173828125,-1.724853515625,30.1409912109375,-110.3192138671875
1758181461.6551192,-0.50146484375,-0.0234375,0.85791015625,0.8544921875,0.8544921875,-1.28173828125,-1.724853515625,30.146484375,-110.32470703125
1758181461.6653254,-0.50048828125,-0.0224609375,0.86328125,1.15966796875,0.48828125,-1.5869140625,-1.724853515625,30.1519775390625,-110.335693359375
1758181461.6757863,-0.50048828125,-0.0224609375,0.86328125,1.15966796875,0.48828125,-1.5869140625,-1.7193603515625,30.157470703125,-110.3521728515625
1758181461.6848855,-0.5029296875,-0.02490234375,0.86572265625,0.91552734375,0.30517578125,-1.5869140625,-1.7193603515625,30.1629638671875,-110.3631591796875
1758181461.6956134,-0.5029296875,-0.02490234375,0.86572265625,0.91552734375,0.30517578125,-1.5869140625,-1.7193603515625,30.16845703125,-110.3741455078125
1758181461.7049725,-0.5009765625,-0.02880859375,0.8671875,0.732421875,0.48828125,-1.40380859375,-1.7138671875,30.16845703125,-110.3851318359375
1758181461.7154484,-0.5009765625,-0.02880859375,0.8671875,0.732421875,0.48828125,-1.40380859375,-1.7193603515625,30.1739501953125,-110.3961181640625
1758181461.725115,-0.49560546875,-0.03271484375,0.87060546875,0.732421875,0.732421875,-1.0986328125,-1.7193603515625,30.179443359375,-110.4071044921875
1758181461.7355232,-0.49560546875,-0.03271484375,0.87060546875,0.732421875,0.732421875,-1.0986328125,-1.7138671875,30.1849365234375,-110.41259765625
1758181461.744997,-0.4931640625,-0.03173828125,0.87255859375,0.1220703125,0.91552734375,-0.79345703125,-1.7193603515625,30.1959228515625,-110.423583984375
1758181461.7555132,-0.4931640625,-0.03173828125,0.87255859375,0.1220703125,0.91552734375,-0.79345703125,-1.7193603515625,30.201416015625,-110.4290771484375
1758181461.7654204,-0.490234375,-0.02685546875,0.86865234375,-0.42724609375,0.9765625,-0.732421875,-1.7303466796875,30.2069091796875,-110.4345703125
1758181461.775473,-0.490234375,-0.02685546875,0.86865234375,-0.42724609375,0.9765625,-0.732421875,-1.73583984375,30.2178955078125,-110.4400634765625
1758181461.7857177,-0.4814453125,-0.01953125,0.86669921875,-0.18310546875,0.6103515625,-0.8544921875,-1.746826171875,30.223388671875,-110.445556640625
1758181461.7951007,-0.4814453125,-0.01953125,0.86669921875,-0.18310546875,0.6103515625,-0.8544921875,-1.7523193359375,30.223388671875,-110.4510498046875
1758181461.8050768,-0.4775390625,-0.01953125,0.8837890625,0.18310546875,0.1220703125,-1.220703125,-1.7578125,30.223388671875,-110.4620361328125
1758181461.8151398,-0.4775390625,-0.01953125,0.8837890625,0.18310546875,0.1220703125,-1.220703125,-1.7633056640625,30.223388671875,-110.4730224609375
1758181461.8251996,-0.47021484375,-0.02880859375,0.89013671875,0.1220703125,0.18310546875,-1.28173828125,-1.768798828125,30.2178955078125,-110.4840087890625
1758181461.835128,-0.47021484375,-0.02880859375,0.89013671875,0.1220703125,0.18310546875,-1.28173828125,-1.7742919921875,30.21240234375,-110.4949951171875
1758181461.8452203,-0.4755859375,-0.03173828125,0.87255859375,1.52587890625,0.18310546875,-1.64794921875,-1.7742919921875,30.2069091796875,-110.5059814453125
1758181461.8550615,-0.4755859375,-0.03173828125,0.87255859375,1.52587890625,0.18310546875,-1.64794921875,-1.768798828125,30.201416015625,-110.5224609375
1758181461.8655198,-0.484375,-0.0244140625,0.88037109375,1.89208984375,0.30517578125,-1.89208984375,-1.7578125,30.201416015625,-110.5389404296875
1758181461.8751915,-0.484375,-0.0244140625,0.88037109375,1.89208984375,0.30517578125,-1.89208984375,-1.7523193359375,30.1959228515625,-110.5609130859375
1758181461.885408,-0.48974609375,-0.02099609375,0.87890625,0.91552734375,0.8544921875,-2.01416015625,-1.746826171875,30.1904296875,-110.5828857421875
1758181461.895218,-0.48974609375,-0.02099609375,0.87890625,0.91552734375,0.8544921875,-2.01416015625,-1.7523193359375,30.1959228515625,-110.6048583984375
1758181461.9051938,-0.48828125,-0.02490234375,0.873046875,1.5869140625,1.46484375,-2.01416015625,-1.746826171875,30.1959228515625,-110.6268310546875
1758181461.9151945,-0.48828125,-0.02490234375,0.873046875,1.5869140625,1.46484375,-2.01416015625,-1.746826171875,30.2069091796875,-110.6488037109375
1758181461.9253047,-0.49609375,-0.03076171875,0.8759765625,2.50244140625,2.13623046875,-1.77001953125,-1.73583984375,30.21240234375,-110.665283203125
1758181461.9352255,-0.49609375,-0.03076171875,0.8759765625,2.50244140625,2.13623046875,-1.77001953125,-1.7193603515625,30.2288818359375,-110.687255859375
1758181461.9452212,-0.4931640625,-0.0390625,0.87255859375,2.38037109375,2.5634765625,-1.708984375,-1.7083740234375,30.245361328125,-110.7037353515625
1758181461.9552176,-0.4931640625,-0.0390625,0.87255859375,2.38037109375,2.5634765625,-1.708984375,-1.69189453125,30.2618408203125,-110.7257080078125
1758181461.9656038,-0.48974609375,-0.025390625,0.8642578125,2.38037109375,2.3193359375,-1.52587890625,-1.680908203125,30.2838134765625,-110.7421875
1758181461.9752336,-0.48974609375,-0.025390625,0.8642578125,2.38037109375,2.3193359375,-1.52587890625,-1.669921875,30.30029296875,-110.7586669921875
1758181461.985297,-0.49169921875,-0.015625,0.86767578125,1.89208984375,1.708984375,-1.28173828125,-1.6534423828125,30.311279296875,-110.775146484375
1758181461.995279,-0.49169921875,-0.015625,0.86767578125,1.89208984375,1.708984375,-1.28173828125,-1.64794921875,30.322265625,-110.7861328125
1758181462.0052838,-0.49169921875,-0.02197265625,0.86474609375,0.18310546875,1.15966796875,-0.9765625,-1.6424560546875,30.3277587890625,-110.797119140625
1758181462.0155075,-0.49169921875,-0.02197265625,0.86474609375,0.18310546875,1.15966796875,-0.9765625,-1.64794921875,30.333251953125,-110.80810546875
1758181462.025423,-0.49169921875,-0.0283203125,0.86669921875,-1.220703125,0.79345703125,-0.54931640625,-1.6534423828125,30.3387451171875,-110.8135986328125
1758181462.0353444,-0.49169921875,-0.0283203125,0.86669921875,-1.220703125,0.79345703125,-0.54931640625,-1.669921875,30.3387451171875,-110.819091796875
1758181462.04543,-0.49072265625,-0.0390625,0.87451171875,-1.77001953125,0.732421875,0.0,-1.6864013671875,30.34423828125,-110.819091796875
1758181462.055313,-0.49072265625,-0.0390625,0.87451171875,-1.77001953125,0.732421875,0.0,-1.7083740234375,30.34423828125,-110.819091796875
1758181462.0658524,-0.4873046875,-0.041015625,0.87158203125,-1.8310546875,0.8544921875,0.30517578125,-1.724853515625,30.34423828125,-110.8135986328125
1758181462.0753715,-0.4873046875,-0.041015625,0.87158203125,-1.8310546875,0.8544921875,0.30517578125,-1.7413330078125,30.3497314453125,-110.8135986328125
1758181462.0859382,-0.4794921875,-0.03125,0.87451171875,-2.01416015625,0.732421875,0.42724609375,-1.7633056640625,30.3497314453125,-110.80810546875
1758181462.0954096,-0.4794921875,-0.03125,0.87451171875,-2.01416015625,0.732421875,0.42724609375,-1.77978515625,30.3497314453125,-110.8026123046875
1758181462.105767,-0.47900390625,-0.01953125,0.8740234375,-1.89208984375,0.67138671875,0.3662109375,-1.8017578125,30.3497314453125,-110.797119140625
1758181462.1155837,-0.47900390625,-0.01953125,0.8740234375,-1.89208984375,0.67138671875,0.3662109375,-1.8182373046875,30.3497314453125,-110.7916259765625
1758181462.1268854,-0.48095703125,-0.02392578125,0.87353515625,-0.79345703125,0.48828125,0.30517578125,-1.8292236328125,30.3497314453125,-110.7861328125
1758181462.1354663,-0.48095703125,-0.02392578125,0.87353515625,-0.79345703125,0.48828125,0.30517578125,-1.834716796875,30.3497314453125,-110.7861328125
1758181462.145673,-0.48828125,-0.0302734375,0.869140625,0.42724609375,0.3662109375,0.30517578125,-1.834716796875,30.34423828125,-110.7806396484375
1758181462.1557665,-0.48828125,-0.0302734375,0.869140625,0.42724609375,0.3662109375,0.30517578125,-1.8292236328125,30.3387451171875,-110.775146484375
1758181462.166742,-0.49169921875,-0.033203125,0.8623046875,0.91552734375,0.1220703125,0.30517578125,-1.8182373046875,30.3387451171875,-110.7696533203125
1758181462.1757584,-0.49169921875,-0.033203125,0.8623046875,0.91552734375,0.1220703125,0.30517578125,-1.812744140625,30.333251953125,-110.76416015625
1758181462.1863327,-0.49169921875,-0.033203125,0.8623046875,0.18310546875,0.06103515625,0.42724609375,-1.8017578125,30.3277587890625,-110.753173828125
1758181462.195576,-0.49169921875,-0.033203125,0.8623046875,0.18310546875,0.06103515625,0.42724609375,-1.8017578125,30.322265625,-110.7476806640625
1758181462.2060928,-0.51708984375,-0.03466796875,0.86279296875,-0.1220703125,0.1220703125,0.3662109375,-1.7962646484375,30.3167724609375,-110.7421875
1758181462.215549,-0.51708984375,-0.03466796875,0.86279296875,-0.1220703125,0.1220703125,0.3662109375,-1.7962646484375,30.311279296875,-110.7366943359375
1758181462.2266908,-0.517578125,-0.0224609375,0.8623046875,0.1220703125,0.18310546875,0.244140625,-1.7962646484375,30.311279296875,-110.731201171875
1758181462.2361014,-0.517578125,-0.0224609375,0.8623046875,0.1220703125,0.18310546875,0.244140625,-1.7962646484375,30.3057861328125,-110.7257080078125
1758181462.2456758,-0.51904296875,-0.02001953125,0.857421875,-0.91552734375,0.30517578125,0.0,-1.8017578125,30.3057861328125,-110.72021484375
1758181462.255951,-0.51904296875,-0.02001953125,0.857421875,-0.91552734375,0.30517578125,0.0,-1.8072509765625,30.311279296875,-110.7147216796875
1758181462.2658179,-0.52392578125,-0.013671875,0.85546875,-2.0751953125,0.3662109375,-0.244140625,-1.82373046875,30.311279296875,-110.709228515625
1758181462.2759008,-0.52392578125,-0.013671875,0.85546875,-2.0751953125,0.3662109375,-0.244140625,-1.845703125,30.3167724609375,-110.7037353515625
1758181462.2857077,-0.52685546875,-0.02587890625,0.8505859375,-1.15966796875,0.48828125,-0.3662109375,-1.8621826171875,30.322265625,-110.7037353515625
1758181462.2957041,-0.52685546875,-0.02587890625,0.8505859375,-1.15966796875,0.48828125,-0.3662109375,-1.8731689453125,30.3277587890625,-110.6982421875
1758181462.3056471,-0.5224609375,-0.03076171875,0.8505859375,0.18310546875,0.54931640625,-0.54931640625,-1.8841552734375,30.333251953125,-110.6927490234375
1758181462.3156986,-0.5224609375,-0.03076171875,0.8505859375,0.18310546875,0.54931640625,-0.54931640625,-1.8841552734375,30.3387451171875,-110.6927490234375
1758181462.3257012,-0.515625,-0.02783203125,0.85595703125,0.18310546875,0.48828125,-0.79345703125,-1.8841552734375,30.3497314453125,-110.6927490234375
1758181462.3358755,-0.515625,-0.02783203125,0.85595703125,0.18310546875,0.48828125,-0.79345703125,-1.8841552734375,30.355224609375,-110.6927490234375
1758181462.3456826,-0.5107421875,-0.02294921875,0.8583984375,-0.48828125,0.244140625,-0.732421875,-1.8896484375,30.3607177734375,-110.6927490234375
1758181462.355708,-0.5107421875,-0.02294921875,0.8583984375,-0.48828125,0.244140625,-0.732421875,-1.900634765625,30.3662109375,-110.6927490234375
1758181462.3660345,-0.509765625,-0.02783203125,0.85595703125,-0.79345703125,0.0,-0.67138671875,-1.9061279296875,30.3717041015625,-110.6927490234375
1758181462.375762,-0.509765625,-0.02783203125,0.85595703125,-0.79345703125,0.0,-0.67138671875,-1.9171142578125,30.3717041015625,-110.6927490234375
1758181462.3857849,-0.51513671875,-0.0283203125,0.8525390625,-0.6103515625,-0.244140625,-0.42724609375,-1.9281005859375,30.3717041015625,-110.687255859375
1758181462.3958235,-0.51513671875,-0.0283203125,0.8525390625,-0.6103515625,-0.244140625,-0.42724609375,-1.93359375,30.3717041015625,-110.6817626953125
1758181462.405798,-0.53271484375,-0.03955078125,0.84814453125,-0.18310546875,-0.48828125,-0.42724609375,-1.9390869140625,30.3717041015625,-110.67626953125
1758181462.4157913,-0.53271484375,-0.03955078125,0.84814453125,-0.18310546875,-0.48828125,-0.42724609375,-1.944580078125,30.3717041015625,-110.67626953125
1758181462.4258175,-0.53173828125,-0.03759765625,0.84375,-0.79345703125,-0.48828125,-0.48828125,-1.95556640625,30.3717041015625,-110.6707763671875
1758181462.4358833,-0.53173828125,-0.03759765625,0.84375,-0.79345703125,-0.48828125,-0.48828125,-1.966552734375,30.3717041015625,-110.6707763671875
1758181462.4458215,-0.5322265625,-0.02099609375,0.8486328125,-0.67138671875,-0.48828125,-0.54931640625,-1.9720458984375,30.3717041015625,-110.6707763671875
1758181462.45581,-0.5322265625,-0.02099609375,0.8486328125,-0.67138671875,-0.48828125,-0.54931640625,-1.9830322265625,30.3717041015625,-110.665283203125
1758181462.4662156,-0.52978515625,-0.02197265625,0.8515625,-0.8544921875,-0.42724609375,-0.54931640625,-1.9940185546875,30.377197265625,-110.665283203125
1758181462.4759243,-0.52978515625,-0.02197265625,0.8515625,-0.8544921875,-0.42724609375,-0.54931640625,-2.0050048828125,30.377197265625,-110.6597900390625
1758181462.4861712,-0.5302734375,-0.02978515625,0.84814453125,-1.03759765625,-0.3662109375,-0.6103515625,-2.021484375,30.3826904296875,-110.6597900390625
1758181462.4959493,-0.5302734375,-0.02978515625,0.84814453125,-1.03759765625,-0.3662109375,-0.6103515625,-2.032470703125,30.3826904296875,-110.654296875
1758181462.5059478,-0.5302734375,-0.0341796875,0.8466796875,-0.48828125,-0.244140625,-0.67138671875,-2.0379638671875,30.38818359375,-110.6488037109375
1758181462.5160165,-0.5302734375,-0.0341796875,0.8466796875,-0.48828125,-0.244140625,-0.67138671875,-2.0489501953125,30.3936767578125,-110.6488037109375
1758181462.5259953,-0.5322265625,-0.03662109375,0.8515625,-0.18310546875,0.0,-0.79345703125,-2.054443359375,30.4046630859375,-110.6488037109375
1758181462.5362613,-0.5322265625,-0.03662109375,0.8515625,-0.18310546875,0.0,-0.79345703125,-2.0599365234375,30.41015625,-110.6488037109375
1758181462.5460272,-0.533203125,-0.0341796875,0.8447265625,0.18310546875,0.18310546875,-0.79345703125,-2.0654296875,30.421142578125,-110.6488037109375
1758181462.5567489,-0.533203125,-0.0341796875,0.8447265625,0.18310546875,0.18310546875,-0.79345703125,-2.0654296875,30.43212890625,-110.643310546875
1758181462.5664122,-0.5283203125,-0.03125,0.8486328125,0.244140625,0.3662109375,-1.03759765625,-2.0709228515625,30.443115234375,-110.6488037109375
1758181462.5760734,-0.5283203125,-0.03125,0.8486328125,0.244140625,0.3662109375,-1.03759765625,-2.076416015625,30.4541015625,-110.6488037109375
1758181462.5862188,-0.5244140625,-0.0263671875,0.8525390625,0.06103515625,0.48828125,-1.28173828125,-2.0819091796875,30.465087890625,-110.654296875
1758181462.596691,-0.5244140625,-0.0263671875,0.8525390625,0.06103515625,0.48828125,-1.28173828125,-2.08740234375,30.47607421875,-110.6597900390625
1758181462.6060677,-0.51708984375,-0.02587890625,0.85205078125,0.6103515625,0.42724609375,-1.46484375,-2.0928955078125,30.4925537109375,-110.665283203125
1758181462.6162546,-0.51708984375,-0.02587890625,0.85205078125,0.6103515625,0.42724609375,-1.46484375,-2.0928955078125,30.5035400390625,-110.6707763671875
1758181462.6263237,-0.5126953125,-0.029296875,0.859375,1.15966796875,0.3662109375,-1.46484375,-2.0928955078125,30.509033203125,-110.6817626953125
1758181462.636316,-0.5126953125,-0.029296875,0.859375,1.15966796875,0.3662109375,-1.46484375,-2.08740234375,30.52001953125,-110.687255859375
1758181462.6460903,-0.509765625,-0.03515625,0.857421875,1.03759765625,0.18310546875,-1.40380859375,-2.0819091796875,30.5255126953125,-110.6927490234375
1758181462.6560636,-0.509765625,-0.03515625,0.857421875,1.03759765625,0.18310546875,-1.40380859375,-2.0819091796875,30.5364990234375,-110.6982421875
1758181462.666441,-0.5068359375,-0.037109375,0.8603515625,0.48828125,0.1220703125,-1.220703125,-2.08740234375,30.5419921875,-110.7037353515625
1758181462.6762629,-0.5068359375,-0.037109375,0.8603515625,0.48828125,0.1220703125,-1.220703125,-2.08740234375,30.5419921875,-110.709228515625
1758181462.6862085,-0.5087890625,-0.0322265625,0.86328125,0.06103515625,0.0,-1.03759765625,-2.0928955078125,30.5474853515625,-110.7147216796875
1758181462.6966224,-0.5087890625,-0.0322265625,0.86328125,0.06103515625,0.0,-1.03759765625,-2.098388671875,30.552978515625,-110.72021484375
1758181462.7063506,-0.50732421875,-0.03515625,0.85888671875,0.244140625,0.06103515625,-0.91552734375,-2.1038818359375,30.552978515625,-110.72021484375
1758181462.7164028,-0.50732421875,-0.03515625,0.85888671875,0.244140625,0.06103515625,-0.91552734375,-2.1038818359375,30.5584716796875,-110.7257080078125
1758181462.726248,-0.50927734375,-0.03515625,0.8603515625,0.3662109375,0.18310546875,-1.03759765625,-2.109375,30.5584716796875,-110.731201171875
1758181462.736377,-0.50927734375,-0.03515625,0.8603515625,0.3662109375,0.18310546875,-1.03759765625,-2.109375,30.56396484375,-110.731201171875
1758181462.7463844,-0.509765625,-0.03173828125,0.859375,0.8544921875,0.244140625,-0.9765625,-2.109375,30.5694580078125,-110.7366943359375
1758181462.756275,-0.509765625,-0.03173828125,0.859375,0.8544921875,0.244140625,-0.9765625,-2.109375,30.5694580078125,-110.7421875
1758181462.7665806,-0.509765625,-0.0322265625,0.85986328125,0.9765625,0.3662109375,-0.9765625,-2.1038818359375,30.574951171875,-110.7476806640625
1758181462.7762854,-0.509765625,-0.0322265625,0.85986328125,0.9765625,0.3662109375,-0.9765625,-2.098388671875,30.5804443359375,-110.753173828125
1758181462.7863796,-0.5068359375,-0.03369140625,0.86474609375,0.3662109375,0.48828125,-0.8544921875,-2.1038818359375,30.5859375,-110.753173828125
1758181462.7967155,-0.5068359375,-0.03369140625,0.86474609375,0.3662109375,0.48828125,-0.8544921875,-2.1038818359375,30.5914306640625,-110.7586669921875
1758181462.806391,-0.50048828125,-0.033203125,0.86376953125,0.1220703125,0.54931640625,-0.8544921875,-2.109375,30.596923828125,-110.7586669921875
1758181462.816444,-0.50048828125,-0.033203125,0.86376953125,0.1220703125,0.54931640625,-0.8544921875,-2.1148681640625,30.6024169921875,-110.76416015625
1758181462.826445,-0.5,-0.03125,0.865234375,0.732421875,0.6103515625,-0.8544921875,-2.109375,30.60791015625,-110.7696533203125
1758181462.8364682,-0.5,-0.03125,0.865234375,0.732421875,0.6103515625,-0.8544921875,-2.109375,30.6134033203125,-110.775146484375
1758181462.8463714,-0.498046875,-0.02978515625,0.8701171875,0.79345703125,0.67138671875,-0.67138671875,-2.1038818359375,30.618896484375,-110.775146484375
1758181462.8563476,-0.498046875,-0.02978515625,0.8701171875,0.79345703125,0.67138671875,-0.67138671875,-2.1038818359375,30.6243896484375,-110.7806396484375
1758181462.8666854,-0.49462890625,-0.03662109375,0.86474609375,0.54931640625,0.6103515625,-0.42724609375,-2.098388671875,30.6298828125,-110.7806396484375
1758181462.8763921,-0.49462890625,-0.03662109375,0.86474609375,0.54931640625,0.6103515625,-0.42724609375,-2.098388671875,30.6298828125,-110.7806396484375
1758181462.8864062,-0.49169921875,-0.03759765625,0.87060546875,0.18310546875,0.48828125,-0.244140625,-2.098388671875,30.6353759765625,-110.7806396484375
1758181462.8968675,-0.49169921875,-0.03759765625,0.87060546875,0.18310546875,0.48828125,-0.244140625,-2.098388671875,30.6353759765625,-110.7806396484375
1758181462.9064002,-0.4931640625,-0.03662109375,0.87255859375,0.1220703125,0.48828125,0.0,-2.098388671875,30.6353759765625,-110.775146484375
1758181462.9164906,-0.4931640625,-0.03662109375,0.87255859375,0.1220703125,0.48828125,0.0,-2.098388671875,30.640869140625,-110.7696533203125
1758181462.9265518,-0.4931640625,-0.0341796875,0.8671875,0.06103515625,0.3662109375,0.06103515625,-2.098388671875,30.640869140625,-110.76416015625
1758181462.936571,-0.4931640625,-0.0341796875,0.8671875,0.06103515625,0.3662109375,0.06103515625,-2.098388671875,30.6353759765625,-110.76416015625
1758181462.946482,-0.49609375,-0.029296875,0.8671875,-0.42724609375,0.244140625,0.1220703125,-2.1038818359375,30.6353759765625,-110.7586669921875
1758181462.9565973,-0.49609375,-0.029296875,0.8671875,-0.42724609375,0.244140625,0.1220703125,-2.1038818359375,30.6353759765625,-110.753173828125
1758181462.9670558,-0.50390625,-0.03125,0.8642578125,-0.42724609375,0.18310546875,0.06103515625,-2.109375,30.6298828125,-110.7476806640625
1758181462.9764977,-0.50390625,-0.03125,0.8642578125,-0.42724609375,0.18310546875,0.06103515625,-2.1148681640625,30.6298828125,-110.7421875
1758181462.9867392,-0.5087890625,-0.03369140625,0.859375,0.42724609375,0.244140625,0.0,-2.109375,30.6298828125,-110.7366943359375
1758181462.9969134,-0.5087890625,-0.03369140625,0.859375,0.42724609375,0.244140625,0.0,-2.109375,30.6243896484375,-110.731201171875
1758181463.0064948,-0.5078125,-0.033203125,0.85888671875,0.9765625,0.1220703125,0.0,-2.098388671875,30.6243896484375,-110.731201171875
1758181463.016543,-0.5078125,-0.033203125,0.85888671875,0.9765625,0.1220703125,0.0,-2.08740234375,30.6243896484375,-110.7257080078125
1758181463.0266666,-0.50927734375,-0.03173828125,0.8603515625,1.15966796875,0.0,-0.1220703125,-2.076416015625,30.618896484375,-110.7257080078125
1758181463.0367002,-0.50927734375,-0.03173828125,0.8603515625,1.15966796875,0.0,-0.1220703125,-2.0709228515625,30.618896484375,-110.72021484375
1758181463.0466537,-0.51416015625,-0.02978515625,0.857421875,0.91552734375,0.0,-0.18310546875,-2.0599365234375,30.6134033203125,-110.7147216796875
1758181463.0565963,-0.51416015625,-0.02978515625,0.857421875,0.91552734375,0.0,-0.18310546875,-2.054443359375,30.6134033203125,-110.7147216796875
1758181463.0672016,-0.51513671875,-0.02685546875,0.8544921875,0.54931640625,-0.06103515625,-0.30517578125,-2.0489501953125,30.6134033203125,-110.709228515625
1758181463.0766408,-0.51513671875,-0.02685546875,0.8544921875,0.54931640625,-0.06103515625,-0.30517578125,-2.0489501953125,30.6134033203125,-110.7037353515625
1758181463.0868583,-0.51806640625,-0.02978515625,0.8564453125,0.67138671875,0.0,-0.3662109375,-2.04345703125,30.60791015625,-110.7037353515625
1758181463.0971317,-0.51806640625,-0.02978515625,0.8564453125,0.67138671875,0.0,-0.3662109375,-2.0379638671875,30.60791015625,-110.6982421875
1758181463.1066134,-0.5146484375,-0.03271484375,0.85693359375,0.91552734375,0.0,-0.3662109375,-2.032470703125,30.60791015625,-110.6982421875
1758181463.1166775,-0.5146484375,-0.03271484375,0.85693359375,0.91552734375,0.0,-0.3662109375,-2.0269775390625,30.60791015625,-110.6927490234375
1758181463.1268117,-0.51318359375,-0.03173828125,0.85888671875,0.9765625,0.1220703125,-0.48828125,-2.0159912109375,30.6134033203125,-110.6927490234375
1758181463.1369405,-0.51318359375,-0.03173828125,0.85888671875,0.9765625,0.1220703125,-0.48828125,-2.010498046875,30.6134033203125,-110.6927490234375
1758181463.146757,-0.5107421875,-0.02880859375,0.85791015625,0.9765625,0.06103515625,-0.6103515625,-2.0050048828125,30.6134033203125,-110.6927490234375
1758181463.1567438,-0.5107421875,-0.02880859375,0.85791015625,0.9765625,0.06103515625,-0.6103515625,-1.99951171875,30.6134033203125,-110.6927490234375
1758181463.167221,-0.50927734375,-0.02783203125,0.85986328125,0.8544921875,0.06103515625,-0.6103515625,-1.9940185546875,30.618896484375,-110.6927490234375
1758181463.176756,-0.50927734375,-0.02783203125,0.85986328125,0.8544921875,0.06103515625,-0.6103515625,-1.988525390625,30.618896484375,-110.6927490234375
1758181463.1867633,-0.50927734375,-0.02783203125,0.85986328125,0.79345703125,0.06103515625,-0.54931640625,-1.988525390625,30.618896484375,-110.6927490234375
1758181463.197194,-0.50927734375,-0.02783203125,0.85986328125,0.79345703125,0.06103515625,-0.54931640625,-1.9830322265625,30.618896484375,-110.6927490234375
1758181463.206737,-0.5078125,-0.0361328125,0.8603515625,0.9765625,0.06103515625,-0.54931640625,-1.9775390625,30.618896484375,-110.6927490234375
1758181463.2167847,-0.5078125,-0.0361328125,0.8603515625,0.9765625,0.06103515625,-0.54931640625,-1.9720458984375,30.618896484375,-110.6927490234375
1758181463.2284112,-0.50732421875,-0.03466796875,0.86083984375,1.64794921875,0.06103515625,-0.54931640625,-1.95556640625,30.618896484375,-110.6927490234375
1758181463.237028,-0.50732421875,-0.03466796875,0.86083984375,1.64794921875,0.06103515625,-0.54931640625,-1.944580078125,30.6243896484375,-110.6927490234375
1758181463.2468495,-0.50732421875,-0.025390625,0.857421875,2.44140625,0.0,-0.48828125,-1.922607421875,30.6243896484375,-110.6927490234375
1758181463.2571325,-0.50732421875,-0.025390625,0.857421875,2.44140625,0.0,-0.48828125,-1.9061279296875,30.6243896484375,-110.6927490234375
1758181463.2675188,-0.5107421875,-0.0234375,0.85791015625,2.01416015625,-0.18310546875,-0.54931640625,-1.8896484375,30.618896484375,-110.6927490234375
1758181463.276883,-0.5107421875,-0.0234375,0.85791015625,2.01416015625,-0.18310546875,-0.54931640625,-1.8731689453125,30.618896484375,-110.6927490234375
1758181463.2871377,-0.5146484375,-0.02685546875,0.86181640625,1.3427734375,-0.18310546875,-0.42724609375,-1.8621826171875,30.618896484375,-110.6927490234375
1758181463.2979882,-0.5146484375,-0.02685546875,0.86181640625,1.3427734375,-0.18310546875,-0.42724609375,-1.8511962890625,30.6134033203125,-110.687255859375
1758181463.3068974,-0.51416015625,-0.0341796875,0.861328125,1.3427734375,-0.06103515625,-0.30517578125,-1.8402099609375,30.6134033203125,-110.687255859375
1758181463.3171794,-0.51416015625,-0.0341796875,0.861328125,1.3427734375,-0.06103515625,-0.30517578125,-1.8292236328125,30.6134033203125,-110.6817626953125
1758181463.3270555,-0.51611328125,-0.0361328125,0.85498046875,1.5869140625,-0.06103515625,-0.244140625,-1.8182373046875,30.6134033203125,-110.6817626953125
1758181463.33724,-0.51611328125,-0.0361328125,0.85498046875,1.5869140625,-0.06103515625,-0.244140625,-1.8017578125,30.6134033203125,-110.67626953125
1758181463.3469691,-0.51513671875,-0.0283203125,0.85595703125,1.953125,-0.06103515625,-0.244140625,-1.7852783203125,30.6134033203125,-110.67626953125
1758181463.3572667,-0.51513671875,-0.0283203125,0.85595703125,1.953125,-0.06103515625,-0.244140625,-1.768798828125,30.6134033203125,-110.6707763671875
1758181463.3677762,-0.5166015625,-0.02099609375,0.85693359375,1.46484375,-0.1220703125,-0.18310546875,-1.7578125,30.6134033203125,-110.6707763671875
1758181463.376944,-0.5166015625,-0.02099609375,0.85693359375,1.46484375,-0.1220703125,-0.18310546875,-1.746826171875,30.6134033203125,-110.665283203125
1758181463.3870702,-0.51806640625,-0.02197265625,0.8544921875,1.0986328125,-0.18310546875,-0.06103515625,-1.73583984375,30.6134033203125,-110.6597900390625
1758181463.397543,-0.51806640625,-0.02197265625,0.8544921875,1.0986328125,-0.18310546875,-0.06103515625,-1.724853515625,30.6134033203125,-110.6488037109375
1758181463.4069135,-0.51904296875,-0.02783203125,0.85400390625,1.15966796875,-0.18310546875,0.0,-1.7138671875,30.6134033203125,-110.643310546875
1758181463.4172478,-0.51953125,-0.02978515625,0.85595703125,1.40380859375,-0.18310546875,0.06103515625,-1.702880859375,30.6134033203125,-110.6378173828125
1758181463.4274132,-0.51953125,-0.02978515625,0.85595703125,1.40380859375,-0.18310546875,0.06103515625,-1.69189453125,30.618896484375,-110.6268310546875
1758181463.437532,-0.51953125,-0.0263671875,0.85205078125,1.46484375,-0.18310546875,0.1220703125,-1.6754150390625,30.618896484375,-110.621337890625
1758181463.4470854,-0.51953125,-0.0263671875,0.85205078125,1.46484375,-0.18310546875,0.1220703125,-1.658935546875,30.618896484375,-110.6103515625
1758181463.4571595,-0.5185546875,-0.02099609375,0.85595703125,1.0986328125,-0.18310546875,0.18310546875,-1.64794921875,30.618896484375,-110.6048583984375
1758181463.467559,-0.5185546875,-0.02099609375,0.85595703125,1.0986328125,-0.18310546875,0.18310546875,-1.636962890625,30.618896484375,-110.5938720703125
1758181463.4772205,-0.521484375,-0.021484375,0.85595703125,0.6103515625,-0.06103515625,0.30517578125,-1.6259765625,30.6243896484375,-110.5828857421875
1758181463.4870753,-0.521484375,-0.021484375,0.85595703125,0.6103515625,-0.06103515625,0.30517578125,-1.6204833984375,30.6243896484375,-110.5718994140625
1758181463.4976606,-0.52197265625,-0.025390625,0.8505859375,0.6103515625,0.0,0.42724609375,-1.614990234375,30.6298828125,-110.5609130859375
1758181463.507038,-0.52197265625,-0.025390625,0.8505859375,0.6103515625,0.0,0.42724609375,-1.60400390625,30.6298828125,-110.5499267578125
1758181463.5171254,-0.51904296875,-0.02587890625,0.8544921875,0.6103515625,0.0,0.54931640625,-1.5985107421875,30.6353759765625,-110.533447265625
1758181463.5275128,-0.51904296875,-0.02587890625,0.8544921875,0.6103515625,0.0,0.54931640625,-1.5875244140625,30.640869140625,-110.5224609375
1758181463.5373323,-0.513671875,-0.02392578125,0.859375,0.06103515625,0.06103515625,0.54931640625,-1.58203125,30.640869140625,-110.5059814453125
1758181463.547151,-0.513671875,-0.02392578125,0.859375,0.06103515625,0.06103515625,0.54931640625,-1.58203125,30.6463623046875,-110.4949951171875
1758181463.5571144,-0.5078125,-0.021484375,0.8583984375,-0.1220703125,0.0,0.48828125,-1.5765380859375,30.65185546875,-110.4840087890625
1758181463.5675247,-0.5078125,-0.021484375,0.8583984375,-0.1220703125,0.0,0.48828125,-1.5765380859375,30.65185546875,-110.467529296875
1758181463.5771945,-0.50634765625,-0.0205078125,0.861328125,0.18310546875,-0.06103515625,0.54931640625,-1.571044921875,30.6573486328125,-110.45654296875
1758181463.587393,-0.50634765625,-0.0205078125,0.861328125,0.18310546875,-0.06103515625,0.54931640625,-1.571044921875,30.6573486328125,-110.445556640625
1758181463.597696,-0.5078125,-0.02490234375,0.86181640625,0.54931640625,-0.1220703125,0.67138671875,-1.56005859375,30.6573486328125,-110.4290771484375
1758181463.6071556,-0.5078125,-0.02490234375,0.86181640625,0.54931640625,-0.1220703125,0.67138671875,-1.5545654296875,30.6573486328125,-110.4180908203125
1758181463.6172626,-0.51171875,-0.02880859375,0.85986328125,0.6103515625,-0.06103515625,0.79345703125,-1.5435791015625,30.6573486328125,-110.401611328125
1758181463.627642,-0.51171875,-0.02880859375,0.85986328125,0.6103515625,-0.06103515625,0.79345703125,-1.5325927734375,30.6573486328125,-110.3851318359375
1758181463.6374717,-0.51123046875,-0.02587890625,0.85986328125,0.48828125,0.0,0.91552734375,-1.5216064453125,30.6573486328125,-110.36865234375
1758181463.6471922,-0.51123046875,-0.02587890625,0.85986328125,0.48828125,0.0,0.91552734375,-1.5106201171875,30.662841796875,-110.3521728515625
1758181463.6572464,-0.51025390625,-0.021484375,0.85791015625,0.48828125,0.0,0.91552734375,-1.505126953125,30.662841796875,-110.3411865234375
1758181463.6675713,-0.51025390625,-0.021484375,0.85791015625,0.48828125,0.0,0.91552734375,-1.494140625,30.662841796875,-110.32470703125
1758181463.677697,-0.5087890625,-0.01806640625,0.8642578125,0.30517578125,0.06103515625,0.91552734375,-1.483154296875,30.662841796875,-110.3082275390625
1758181463.6873639,-0.5087890625,-0.01806640625,0.8642578125,0.30517578125,0.06103515625,0.91552734375,-1.4776611328125,30.6683349609375,-110.291748046875
1758181463.697361,-0.50341796875,-0.02099609375,0.8623046875,0.18310546875,0.1220703125,0.91552734375,-1.47216796875,30.6683349609375,-110.2752685546875
1758181463.7073257,-0.50341796875,-0.02099609375,0.8623046875,0.18310546875,0.1220703125,0.91552734375,-1.461181640625,30.6683349609375,-110.2587890625
1758181463.7174327,-0.50341796875,-0.021484375,0.86181640625,0.42724609375,0.0,0.8544921875,-1.4556884765625,30.6683349609375,-110.2423095703125
1758181463.7277982,-0.50341796875,-0.021484375,0.86181640625,0.42724609375,0.0,0.8544921875,-1.4447021484375,30.6683349609375,-110.225830078125
1758181463.7375968,-0.50537109375,-0.0224609375,0.869140625,0.67138671875,0.1220703125,0.91552734375,-1.4337158203125,30.6683349609375,-110.2093505859375
1758181463.7472968,-0.50537109375,-0.0224609375,0.869140625,0.67138671875,0.1220703125,0.91552734375,-1.4227294921875,30.6683349609375,-110.19287109375
1758181463.7573519,-0.50244140625,-0.0234375,0.85986328125,0.9765625,0.1220703125,0.91552734375,-1.4117431640625,30.673828125,-110.1763916015625
1758181463.7676501,-0.50244140625,-0.0234375,0.85986328125,0.9765625,0.1220703125,0.91552734375,-1.395263671875,30.673828125,-110.159912109375
1758181463.7774448,-0.50439453125,-0.0185546875,0.86376953125,0.732421875,0.0,0.91552734375,-1.38427734375,30.6683349609375,-110.1434326171875
1758181463.7876585,-0.50439453125,-0.0185546875,0.86376953125,0.732421875,0.0,0.91552734375,-1.373291015625,30.6683349609375,-110.126953125
1758181463.7974844,-0.50244140625,-0.029296875,0.86767578125,0.244140625,0.1220703125,0.9765625,-1.3623046875,30.6683349609375,-110.1104736328125
1758181463.8074281,-0.50244140625,-0.029296875,0.86767578125,0.244140625,0.1220703125,0.9765625,-1.3568115234375,30.6683349609375,-110.093994140625
1758181463.8174741,-0.50244140625,-0.02392578125,0.86279296875,1.40380859375,0.06103515625,0.8544921875,-1.34033203125,30.6683349609375,-110.0830078125
1758181463.8278425,-0.50244140625,-0.02392578125,0.86279296875,1.40380859375,0.06103515625,0.8544921875,-1.3238525390625,30.6683349609375,-110.0665283203125
1758181463.837629,-0.51123046875,-0.01123046875,0.86181640625,1.46484375,0.0,0.732421875,-1.307373046875,30.662841796875,-110.0555419921875
1758181463.8474529,-0.51123046875,-0.01123046875,0.86181640625,1.46484375,0.0,0.732421875,-1.2908935546875,30.662841796875,-110.0445556640625
1758181463.8574476,-0.5166015625,-0.00537109375,0.857421875,0.91552734375,0.244140625,0.67138671875,-1.2744140625,30.662841796875,-110.028076171875
1758181463.8679469,-0.5166015625,-0.00537109375,0.857421875,0.91552734375,0.244140625,0.67138671875,-1.2579345703125,30.662841796875,-110.01708984375
1758181463.8774955,-0.51220703125,-0.01708984375,0.857421875,0.9765625,0.30517578125,0.732421875,-1.2469482421875,30.6683349609375,-110.0006103515625
1758181463.8877432,-0.51220703125,-0.01708984375,0.857421875,0.9765625,0.30517578125,0.732421875,-1.23046875,30.6683349609375,-109.9896240234375
1758181463.8975456,-0.50830078125,-0.0224609375,0.85986328125,0.67138671875,0.18310546875,0.54931640625,-1.219482421875,30.673828125,-109.97314453125
1758181463.9076414,-0.50830078125,-0.0224609375,0.85986328125,0.67138671875,0.18310546875,0.54931640625,-1.20849609375,30.673828125,-109.962158203125
1758181463.9176185,-0.51025390625,-0.0146484375,0.85888671875,0.30517578125,0.06103515625,0.3662109375,-1.2030029296875,30.673828125,-109.951171875
1758181463.9281793,-0.51025390625,-0.0146484375,0.85888671875,0.30517578125,0.06103515625,0.3662109375,-1.197509765625,30.673828125,-109.940185546875
1758181463.9376004,-0.5107421875,-0.01123046875,0.85791015625,0.6103515625,0.0,0.18310546875,-1.1920166015625,30.673828125,-109.9346923828125
1758181463.9475684,-0.5107421875,-0.01123046875,0.85791015625,0.6103515625,0.0,0.18310546875,-1.1810302734375,30.673828125,-109.9237060546875
1758181463.957576,-0.513671875,-0.01611328125,0.859375,1.03759765625,0.0,0.18310546875,-1.175537109375,30.673828125,-109.918212890625
1758181463.9678679,-0.513671875,-0.01611328125,0.859375,1.03759765625,0.0,0.18310546875,-1.16455078125,30.673828125,-109.9072265625
1758181463.9776175,-0.51220703125,-0.0205078125,0.85888671875,0.732421875,0.0,0.244140625,-1.153564453125,30.673828125,-109.9017333984375
1758181463.9876156,-0.51220703125,-0.0205078125,0.85888671875,0.732421875,0.0,0.244140625,-1.142578125,30.673828125,-109.896240234375
1758181463.997698,-0.50927734375,-0.01708984375,0.86083984375,0.30517578125,0.0,0.18310546875,-1.1370849609375,30.673828125,-109.88525390625
1758181464.007675,-0.50927734375,-0.01708984375,0.86083984375,0.30517578125,0.0,0.18310546875,-1.131591796875,30.673828125,-109.8797607421875
1758181464.017659,-0.51123046875,-0.015625,0.8583984375,0.91552734375,0.0,0.30517578125,-1.1260986328125,30.673828125,-109.874267578125
1758181464.0280464,-0.51123046875,-0.015625,0.8583984375,0.91552734375,0.0,0.30517578125,-1.1151123046875,30.673828125,-109.86328125
1758181464.0377827,-0.5048828125,-0.0166015625,0.861328125,1.77001953125,0.0,0.42724609375,-1.0986328125,30.673828125,-109.852294921875
1758181464.0479207,-0.5048828125,-0.0166015625,0.861328125,1.77001953125,0.0,0.42724609375,-1.07666015625,30.673828125,-109.8468017578125
1758181464.0577164,-0.50927734375,-0.01708984375,0.86279296875,1.0986328125,-0.1220703125,0.54931640625,-1.0601806640625,30.673828125,-109.8358154296875
1758181464.0679998,-0.50927734375,-0.01708984375,0.86279296875,1.0986328125,-0.1220703125,0.54931640625,-1.0491943359375,30.673828125,-109.8248291015625
1758181464.077731,-0.5078125,-0.01416015625,0.861328125,-0.06103515625,-0.18310546875,0.54931640625,-1.0382080078125,30.6683349609375,-109.8138427734375
1758181464.0877833,-0.5078125,-0.01416015625,0.861328125,-0.06103515625,-0.18310546875,0.54931640625,-1.0382080078125,30.6683349609375,-109.8028564453125
1758181464.0978608,-0.5126953125,-0.01318359375,0.859375,0.48828125,-0.1220703125,0.67138671875,-1.03271484375,30.6683349609375,-109.786376953125
1758181464.1077652,-0.5126953125,-0.01318359375,0.859375,0.48828125,-0.1220703125,0.67138671875,-1.021728515625,30.662841796875,-109.775390625
1758181464.1177804,-0.51123046875,-0.01416015625,0.86376953125,0.42724609375,0.0,0.67138671875,-1.0162353515625,30.662841796875,-109.764404296875
1758181464.1281204,-0.51123046875,-0.01416015625,0.86376953125,0.42724609375,0.0,0.67138671875,-1.0052490234375,30.662841796875,-109.75341796875
1758181464.1378264,-0.509765625,-0.01025390625,0.85888671875,-0.48828125,0.0,0.48828125,-1.0052490234375,30.662841796875,-109.742431640625
1758181464.1479747,-0.509765625,-0.01025390625,0.85888671875,-0.48828125,0.0,0.48828125,-1.0052490234375,30.662841796875,-109.7314453125
1758181464.1578279,-0.50927734375,-0.00830078125,0.8564453125,-0.732421875,-0.1220703125,0.1220703125,-1.0107421875,30.662841796875,-109.720458984375
1758181464.1678622,-0.50927734375,-0.00830078125,0.8564453125,-0.732421875,-0.1220703125,0.1220703125,-1.0162353515625,30.662841796875,-109.7149658203125
1758181464.1778624,-0.51220703125,-0.00830078125,0.86181640625,0.06103515625,-0.18310546875,-0.06103515625,-1.0162353515625,30.662841796875,-109.7039794921875
1758181464.1878767,-0.51220703125,-0.00830078125,0.86181640625,0.06103515625,-0.18310546875,-0.06103515625,-1.0162353515625,30.6573486328125,-109.698486328125
1758181464.1979287,-0.51220703125,-0.00830078125,0.86181640625,1.0986328125,0.06103515625,-0.18310546875,-1.0107421875,30.6573486328125,-109.6929931640625
1758181464.2078736,-0.5107421875,-0.0126953125,0.86083984375,1.0986328125,0.06103515625,-0.18310546875,-0.999755859375,30.6573486328125,-109.6929931640625
1758181464.217983,-0.50537109375,-0.01611328125,0.865234375,0.91552734375,0.244140625,-0.244140625,-0.98876953125,30.662841796875,-109.6875
1758181464.228251,-0.50537109375,-0.01611328125,0.865234375,0.91552734375,0.244140625,-0.244140625,-0.9832763671875,30.662841796875,-109.6820068359375
1758181464.2379665,-0.5048828125,-0.0146484375,0.86376953125,0.1220703125,0.244140625,-0.244140625,-0.977783203125,30.662841796875,-109.6820068359375
1758181464.2478898,-0.5048828125,-0.0146484375,0.86376953125,0.1220703125,0.244140625,-0.244140625,-0.977783203125,30.6683349609375,-109.676513671875
1758181464.2580106,-0.5029296875,-0.01220703125,0.86181640625,-0.18310546875,0.18310546875,-0.30517578125,-0.977783203125,30.6683349609375,-109.676513671875
1758181464.267988,-0.5029296875,-0.01220703125,0.86181640625,-0.18310546875,0.18310546875,-0.30517578125,-0.9832763671875,30.6683349609375,-109.676513671875
1758181464.2779372,-0.49853515625,-0.01220703125,0.86767578125,0.1220703125,0.1220703125,-0.244140625,-0.9832763671875,30.6683349609375,-109.6710205078125
1758181464.287929,-0.49853515625,-0.01220703125,0.86767578125,0.1220703125,0.1220703125,-0.244140625,-0.9832763671875,30.6683349609375,-109.6710205078125
1758181464.2981906,-0.494140625,-0.015625,0.86865234375,0.67138671875,0.06103515625,-0.18310546875,-0.977783203125,30.6683349609375,-109.66552734375
1758181464.3079345,-0.494140625,-0.015625,0.86865234375,0.67138671875,0.06103515625,-0.18310546875,-0.9722900390625,30.6683349609375,-109.66552734375
1758181464.3180294,-0.49755859375,-0.01416015625,0.86962890625,0.244140625,0.0,-0.1220703125,-0.966796875,30.662841796875,-109.6600341796875
1758181464.3282576,-0.49755859375,-0.01416015625,0.86962890625,0.244140625,0.0,-0.1220703125,-0.966796875,30.662841796875,-109.6600341796875
1758181464.3383958,-0.5009765625,-0.01416015625,0.87060546875,-0.8544921875,0.18310546875,-0.06103515625,-0.9722900390625,30.6573486328125,-109.654541015625
1758181464.3483508,-0.5009765625,-0.01416015625,0.87060546875,-0.8544921875,0.18310546875,-0.06103515625,-0.977783203125,30.6573486328125,-109.6490478515625
1758181464.3581617,-0.49951171875,-0.01416015625,0.861328125,-0.67138671875,0.1220703125,-0.06103515625,-0.9832763671875,30.6573486328125,-109.6490478515625
1758181464.3684537,-0.49951171875,-0.01416015625,0.861328125,-0.67138671875,0.1220703125,-0.06103515625,-0.9942626953125,30.65185546875,-109.6435546875
1758181464.3780725,-0.505859375,-0.0126953125,0.86572265625,-0.67138671875,0.06103515625,-0.06103515625,-0.999755859375,30.65185546875,-109.6380615234375
1758181464.3880856,-0.505859375,-0.0126953125,0.86572265625,-0.67138671875,0.06103515625,-0.06103515625,-1.0052490234375,30.6463623046875,-109.632568359375
1758181464.3985424,-0.51123046875,-0.013671875,0.859375,-1.03759765625,0.1220703125,-0.1220703125,-1.0162353515625,30.6463623046875,-109.632568359375
1758181464.4081037,-0.51123046875,-0.013671875,0.859375,-1.03759765625,0.1220703125,-0.1220703125,-1.021728515625,30.6463623046875,-109.6270751953125
1758181464.4181156,-0.509765625,-0.01513671875,0.857421875,-0.3662109375,0.244140625,-0.244140625,-1.03271484375,30.6463623046875,-109.62158203125
1758181464.428308,-0.509765625,-0.01513671875,0.857421875,-0.3662109375,0.244140625,-0.244140625,-1.0382080078125,30.6463623046875,-109.62158203125
1758181464.4382026,-0.509765625,-0.015625,0.86328125,0.18310546875,0.3662109375,-0.18310546875,-1.0382080078125,30.6463623046875,-109.6160888671875
1758181464.4481745,-0.509765625,-0.015625,0.86328125,0.18310546875,0.3662109375,-0.18310546875,-1.0382080078125,30.6463623046875,-109.610595703125
1758181464.45857,-0.5107421875,-0.01220703125,0.85986328125,-0.6103515625,0.42724609375,-0.244140625,-1.0382080078125,30.65185546875,-109.610595703125
1758181464.4683185,-0.5107421875,-0.01220703125,0.85986328125,-0.6103515625,0.42724609375,-0.244140625,-1.043701171875,30.65185546875,-109.6051025390625
1758181464.4782224,-0.5126953125,-0.0107421875,0.85986328125,-1.46484375,0.42724609375,-0.244140625,-1.0601806640625,30.6573486328125,-109.599609375
1758181464.4881663,-0.5126953125,-0.0107421875,0.85986328125,-1.46484375,0.42724609375,-0.244140625,-1.07666015625,30.662841796875,-109.599609375
1758181464.4984958,-0.51171875,-0.015625,0.85791015625,-1.46484375,0.48828125,-0.244140625,-1.0931396484375,30.662841796875,-109.5941162109375
1758181464.5081787,-0.51171875,-0.015625,0.85791015625,-1.46484375,0.48828125,-0.244140625,-1.1041259765625,30.6683349609375,-109.588623046875
1758181464.5181913,-0.5107421875,-0.01904296875,0.8583984375,-0.79345703125,0.42724609375,-0.30517578125,-1.1151123046875,30.673828125,-109.588623046875
1758181464.5283494,-0.5107421875,-0.01904296875,0.8583984375,-0.79345703125,0.42724609375,-0.30517578125,-1.1260986328125,30.673828125,-109.5831298828125
1758181464.5382617,-0.5107421875,-0.015625,0.857421875,-0.3662109375,0.30517578125,-0.3662109375,-1.1260986328125,30.6793212890625,-109.5831298828125
1758181464.5482118,-0.5107421875,-0.015625,0.857421875,-0.3662109375,0.30517578125,-0.3662109375,-1.131591796875,30.6793212890625,-109.57763671875
1758181464.5583823,-0.51416015625,-0.0146484375,0.8583984375,-0.67138671875,0.244140625,-0.30517578125,-1.142578125,30.684814453125,-109.57763671875
1758181464.568367,-0.51416015625,-0.0146484375,0.8583984375,-0.67138671875,0.244140625,-0.30517578125,-1.1480712890625,30.684814453125,-109.5721435546875
1758181464.5782957,-0.5146484375,-0.01708984375,0.8564453125,-1.220703125,0.30517578125,-0.30517578125,-1.16455078125,30.6903076171875,-109.5721435546875
1758181464.5883162,-0.5146484375,-0.01708984375,0.8564453125,-1.220703125,0.30517578125,-0.30517578125,-1.175537109375,30.6903076171875,-109.566650390625
1758181464.5986493,-0.51708984375,-0.0185546875,0.8544921875,-1.15966796875,0.244140625,-0.30517578125,-1.1865234375,30.69580078125,-109.566650390625
1758181464.608345,-0.51708984375,-0.0185546875,0.8544921875,-1.15966796875,0.244140625,-0.30517578125,-1.197509765625,30.69580078125,-109.5611572265625
1758181464.6184113,-0.51611328125,-0.01806640625,0.85546875,-0.67138671875,0.18310546875,-0.18310546875,-1.20849609375,30.7012939453125,-109.5556640625
1758181464.6286752,-0.51611328125,-0.01806640625,0.85546875,-0.67138671875,0.18310546875,-0.18310546875,-1.2139892578125,30.7012939453125,-109.5556640625
1758181464.6387112,-0.50927734375,-0.0205078125,0.8583984375,-0.3662109375,0.244140625,-0.1220703125,-1.219482421875,30.706787109375,-109.5501708984375
1758181464.648632,-0.50927734375,-0.0205078125,0.8583984375,-0.3662109375,0.244140625,-0.1220703125,-1.219482421875,30.706787109375,-109.544677734375
1758181464.6587694,-0.50927734375,-0.0185546875,0.8642578125,-0.48828125,0.18310546875,0.18310546875,-1.2249755859375,30.7122802734375,-109.5391845703125
1758181464.6692908,-0.50927734375,-0.0185546875,0.8642578125,-0.48828125,0.18310546875,0.18310546875,-1.23046875,30.7122802734375,-109.5281982421875
1758181464.678675,-0.51171875,-0.021484375,0.85888671875,-1.953125,0.1220703125,0.42724609375,-1.2469482421875,30.7177734375,-109.522705078125
1758181464.6889477,-0.51171875,-0.021484375,0.85888671875,-1.953125,0.1220703125,0.42724609375,-1.263427734375,30.7177734375,-109.51171875
1758181464.699023,-0.51806640625,-0.02294921875,0.85400390625,-2.3193359375,0.06103515625,0.48828125,-1.2799072265625,30.7177734375,-109.500732421875
1758181464.7090511,-0.51806640625,-0.02294921875,0.85400390625,-2.3193359375,0.06103515625,0.48828125,-1.3018798828125,30.7177734375,-109.48974609375
1758181464.7188005,-0.51806640625,-0.02197265625,0.85546875,-1.52587890625,0.1220703125,0.30517578125,-1.3128662109375,30.7232666015625,-109.478759765625
1758181464.7293937,-0.51806640625,-0.02197265625,0.85546875,-1.52587890625,0.1220703125,0.30517578125,-1.329345703125,30.7232666015625,-109.4677734375
1758181464.7389185,-0.52197265625,-0.01708984375,0.85205078125,0.1220703125,0.18310546875,0.0,-1.329345703125,30.728759765625,-109.4622802734375
1758181464.7484806,-0.52197265625,-0.01708984375,0.85205078125,0.1220703125,0.18310546875,0.0,-1.3238525390625,30.728759765625,-109.456787109375
1758181464.75866,-0.5263671875,-0.01318359375,0.8486328125,1.52587890625,0.18310546875,-0.18310546875,-1.3128662109375,30.7342529296875,-109.4512939453125
1758181464.7688723,-0.5263671875,-0.01318359375,0.8486328125,1.52587890625,0.18310546875,-0.18310546875,-1.29638671875,30.73974609375,-109.4512939453125
1758181464.778656,-0.525390625,-0.0146484375,0.85205078125,1.52587890625,0.3662109375,-0.30517578125,-1.2799072265625,30.7452392578125,-109.44580078125
1758181464.7885752,-0.525390625,-0.0146484375,0.85205078125,1.52587890625,0.3662109375,-0.30517578125,-1.2689208984375,30.750732421875,-109.4403076171875
1758181464.798766,-0.517578125,-0.0205078125,0.8583984375,0.79345703125,0.54931640625,-0.244140625,-1.263427734375,30.76171875,-109.434814453125
1758181464.8085911,-0.517578125,-0.0205078125,0.8583984375,0.79345703125,0.54931640625,-0.244140625,-1.25244140625,30.7672119140625,-109.434814453125
1758181464.8186913,-0.5087890625,-0.025390625,0.859375,0.244140625,0.48828125,-0.18310546875,-1.25244140625,30.7781982421875,-109.4293212890625
1758181464.8286812,-0.5087890625,-0.025390625,0.859375,0.244140625,0.48828125,-0.18310546875,-1.25244140625,30.78369140625,-109.423828125
1758181464.8387015,-0.50732421875,-0.01904296875,0.85986328125,0.79345703125,0.42724609375,-0.18310546875,-1.2469482421875,30.7891845703125,-109.423828125
1758181464.8485901,-0.50732421875,-0.01904296875,0.85986328125,0.79345703125,0.42724609375,-0.18310546875,-1.241455078125,30.794677734375,-109.4183349609375
1758181464.8587992,-0.50146484375,-0.015625,0.86767578125,1.0986328125,0.3662109375,-0.18310546875,-1.23046875,30.8001708984375,-109.412841796875
1758181464.8688836,-0.50146484375,-0.015625,0.86767578125,1.0986328125,0.3662109375,-0.18310546875,-1.219482421875,30.8056640625,-109.412841796875
1758181464.8786798,-0.50244140625,-0.0185546875,0.86376953125,1.15966796875,0.30517578125,0.0,-1.20849609375,30.8056640625,-109.4073486328125
1758181464.8886082,-0.50244140625,-0.0185546875,0.86376953125,1.15966796875,0.30517578125,0.0,-1.197509765625,30.8111572265625,-109.3963623046875
1758181464.8989992,-0.50732421875,-0.02392578125,0.86474609375,0.9765625,0.30517578125,0.1220703125,-1.1865234375,30.8111572265625,-109.390869140625
1758181464.9086602,-0.50732421875,-0.02392578125,0.86474609375,0.9765625,0.30517578125,0.1220703125,-1.175537109375,30.8111572265625,-109.3853759765625
1758181464.9186702,-0.51025390625,-0.021484375,0.859375,0.732421875,0.3662109375,0.06103515625,-1.1700439453125,30.816650390625,-109.3798828125
1758181464.928825,-0.51025390625,-0.021484375,0.859375,0.732421875,0.3662109375,0.06103515625,-1.16455078125,30.816650390625,-109.3743896484375
1758181464.9417272,-0.5146484375,-0.013671875,0.85498046875,1.15966796875,0.3662109375,0.0,-1.153564453125,30.8221435546875,-109.368896484375
1758181464.950575,-0.5146484375,-0.013671875,0.85498046875,1.15966796875,0.3662109375,0.0,-1.142578125,30.8221435546875,-109.3634033203125
1758181464.95871,-0.51806640625,-0.01025390625,0.85302734375,1.708984375,0.48828125,0.06103515625,-1.1260986328125,30.82763671875,-109.35791015625
1758181464.9691305,-0.51806640625,-0.01025390625,0.85302734375,1.708984375,0.48828125,0.06103515625,-1.109619140625,30.8331298828125,-109.3524169921875
1758181464.9787014,-0.517578125,-0.01611328125,0.85888671875,2.13623046875,0.30517578125,0.06103515625,-1.087646484375,30.838623046875,-109.346923828125
1758181464.988884,-0.517578125,-0.01611328125,0.85888671875,2.13623046875,0.30517578125,0.06103515625,-1.065673828125,30.838623046875,-109.3414306640625
1758181464.9991412,-0.51318359375,-0.0224609375,0.86181640625,0.67138671875,0.42724609375,0.1220703125,-1.0601806640625,30.8441162109375,-109.3359375
1758181465.008786,-0.51318359375,-0.0224609375,0.86181640625,0.67138671875,0.42724609375,0.1220703125,-1.0546875,30.849609375,-109.3304443359375
1758181465.0187452,-0.5087890625,-0.01806640625,0.85498046875,0.48828125,0.3662109375,0.0,-1.0491943359375,30.849609375,-109.324951171875
1758181465.0289125,-0.5087890625,-0.01806640625,0.85498046875,0.48828125,0.3662109375,0.0,-1.043701171875,30.8551025390625,-109.3194580078125
1758181465.0388045,-0.51318359375,-0.01220703125,0.85888671875,1.77001953125,0.244140625,-0.06103515625,-1.0272216796875,30.8551025390625,-109.31396484375
1758181465.0488038,-0.51318359375,-0.01220703125,0.85888671875,1.77001953125,0.244140625,-0.06103515625,-1.0107421875,30.860595703125,-109.31396484375
1758181465.0588672,-0.515625,-0.00927734375,0.85498046875,2.38037109375,0.18310546875,-0.1220703125,-0.98876953125,30.860595703125,-109.3084716796875
1758181465.0688906,-0.515625,-0.00927734375,0.85498046875,2.38037109375,0.18310546875,-0.1220703125,-0.966796875,30.8660888671875,-109.302978515625
1758181465.0788767,-0.51416015625,-0.00927734375,0.85693359375,1.5869140625,0.1220703125,-0.18310546875,-0.9503173828125,30.8660888671875,-109.302978515625
1758181465.0888262,-0.51416015625,-0.00927734375,0.85693359375,1.5869140625,0.1220703125,-0.18310546875,-0.9393310546875,30.8660888671875,-109.302978515625
1758181465.0991611,-0.517578125,-0.017578125,0.85888671875,1.0986328125,0.30517578125,-0.1220703125,-0.9283447265625,30.87158203125,-109.2974853515625
1758181465.1089547,-0.517578125,-0.017578125,0.85888671875,1.0986328125,0.30517578125,-0.1220703125,-0.9173583984375,30.87158203125,-109.2919921875
