timestamp,acc_x,acc_y,acc_z,gyro_x,gyro_y,gyro_z,angle_x,angle_y,angle_z
1758788030.0558348,-0.73193359375,-0.00146484375,0.67919921875,0.0,0.0,0.30517578125,-0.2801513671875,46.8896484375,-163.6029052734375
1758788030.0677164,-0.73193359375,-0.00146484375,0.67919921875,0.0,0.0,0.30517578125,-0.2801513671875,46.8896484375,-163.597412109375
1758788030.0760195,-0.73095703125,-0.00439453125,0.68798828125,0.0,0.1220703125,0.30517578125,-0.274658203125,46.8896484375,-163.5919189453125
1758788030.0852923,-0.73095703125,-0.00439453125,0.68798828125,0.0,0.1220703125,0.30517578125,-0.2691650390625,46.8951416015625,-163.58642578125
1758788030.0955725,-0.7265625,-0.001953125,0.68310546875,0.0,0.06103515625,0.30517578125,-0.2691650390625,46.8951416015625,-163.5809326171875
1758788030.105536,-0.7265625,-0.001953125,0.68310546875,0.0,0.06103515625,0.30517578125,-0.263671875,46.8951416015625,-163.575439453125
1758788030.1153505,-0.73095703125,0.0,0.6806640625,0.1220703125,0.06103515625,0.244140625,-0.263671875,46.8951416015625,-163.575439453125
1758788030.124275,-0.73095703125,0.0,0.6806640625,0.1220703125,0.06103515625,0.244140625,-0.2581787109375,46.8951416015625,-163.5699462890625
1758788030.1343915,-0.72998046875,-0.0029296875,0.68212890625,-0.18310546875,0.1220703125,0.244140625,-0.2581787109375,46.900634765625,-163.564453125
1758788030.1442466,-0.72998046875,-0.0029296875,0.68212890625,-0.18310546875,0.1220703125,0.244140625,-0.252685546875,46.900634765625,-163.564453125
1758788030.1542587,-0.7294921875,-0.0048828125,0.685546875,-0.06103515625,0.1220703125,0.244140625,-0.252685546875,46.900634765625,-163.5589599609375
1758788030.1642785,-0.7294921875,-0.0048828125,0.685546875,-0.06103515625,0.1220703125,0.244140625,-0.252685546875,46.900634765625,-163.553466796875
1758788030.174284,-0.72900390625,-0.001953125,0.68115234375,-0.1220703125,0.0,0.30517578125,-0.2471923828125,46.900634765625,-163.5479736328125
1758788030.1842856,-0.72900390625,-0.001953125,0.68115234375,-0.1220703125,0.0,0.30517578125,-0.2471923828125,46.900634765625,-163.5479736328125
1758788030.1943064,-0.7275390625,0.0,0.6845703125,-0.30517578125,0.0,0.244140625,-0.2471923828125,46.900634765625,-163.54248046875
1758788030.2042959,-0.7275390625,0.0,0.6845703125,-0.30517578125,0.0,0.244140625,-0.2471923828125,46.900634765625,-163.5369873046875
1758788030.2143629,-0.732421875,-0.00146484375,0.681640625,-0.54931640625,0.0,0.18310546875,-0.252685546875,46.900634765625,-163.5369873046875
1758788030.2244728,-0.732421875,-0.00146484375,0.681640625,-0.54931640625,0.0,0.18310546875,-0.252685546875,46.900634765625,-163.531494140625
1758788030.2348452,-0.73046875,0.0,0.68115234375,-0.42724609375,0.06103515625,0.1220703125,-0.2581787109375,46.900634765625,-163.531494140625
1758788030.2443554,-0.73046875,0.0,0.68115234375,-0.42724609375,0.06103515625,0.1220703125,-0.2581787109375,46.9061279296875,-163.5260009765625
1758788030.25439,-0.72705078125,-0.0048828125,0.6826171875,-0.42724609375,0.1220703125,0.1220703125,-0.2581787109375,46.9061279296875,-163.5260009765625
1758788030.264379,-0.72607421875,-0.00390625,0.6904296875,-0.18310546875,0.06103515625,0.1220703125,-0.263671875,46.9061279296875,-163.5260009765625
1758788030.2744074,-0.72607421875,-0.00390625,0.6904296875,-0.18310546875,0.06103515625,0.1220703125,-0.263671875,46.9061279296875,-163.5205078125
1758788030.2843575,-0.7236328125,-0.00146484375,0.685546875,0.0,0.1220703125,0.0,-0.263671875,46.9061279296875,-163.5205078125
1758788030.2943776,-0.7236328125,-0.00146484375,0.685546875,0.0,0.1220703125,0.0,-0.263671875,46.9061279296875,-163.5205078125
1758788030.3043947,-0.724609375,0.00048828125,0.689453125,-0.18310546875,0.244140625,0.0,-0.263671875,46.9061279296875,-163.5205078125
1758788030.3144104,-0.724609375,0.00048828125,0.689453125,-0.18310546875,0.244140625,0.0,-0.263671875,46.91162109375,-163.5205078125
1758788030.3244064,-0.72607421875,-0.0048828125,0.6875,-0.3662109375,0.244140625,0.0,-0.263671875,46.91162109375,-163.5205078125
1758788030.334424,-0.72607421875,-0.0048828125,0.6875,-0.3662109375,0.244140625,0.0,-0.2691650390625,46.91162109375,-163.5205078125
1758788030.3444357,-0.7236328125,-0.00341796875,0.68115234375,-0.8544921875,0.244140625,0.0,-0.274658203125,46.91162109375,-163.5205078125
1758788030.3544543,-0.7236328125,-0.00341796875,0.68115234375,-0.8544921875,0.244140625,0.0,-0.2801513671875,46.91162109375,-163.5205078125
1758788030.364493,-0.7197265625,0.0,0.70458984375,0.18310546875,0.42724609375,-0.1220703125,-0.28564453125,46.9171142578125,-163.5205078125
1758788030.3745022,-0.7197265625,0.0,0.70458984375,0.18310546875,0.42724609375,-0.1220703125,-0.28564453125,46.9171142578125,-163.5260009765625
1758788030.3845031,-0.71337890625,-0.0009765625,0.69482421875,-0.1220703125,0.244140625,-0.1220703125,-0.28564453125,46.9171142578125,-163.5260009765625
1758788030.3945243,-0.71337890625,-0.0009765625,0.69482421875,-0.1220703125,0.244140625,-0.1220703125,-0.28564453125,46.9171142578125,-163.5260009765625
1758788030.4045315,-0.7158203125,-0.00390625,0.6884765625,-1.3427734375,-0.06103515625,0.0,-0.296630859375,46.9171142578125,-163.531494140625
1758788030.4145424,-0.7158203125,-0.00390625,0.6884765625,-1.3427734375,-0.06103515625,0.0,-0.3076171875,46.91162109375,-163.531494140625
1758788030.4245572,-0.71533203125,-0.00732421875,0.71240234375,-1.220703125,0.1220703125,0.0,-0.318603515625,46.9061279296875,-163.5369873046875
1758788030.4345803,-0.71533203125,-0.00732421875,0.71240234375,-1.220703125,0.1220703125,0.0,-0.32958984375,46.9061279296875,-163.54248046875
1758788030.4445872,-0.7041015625,-0.00341796875,0.70361328125,-0.18310546875,0.0,0.0,-0.3350830078125,46.900634765625,-163.5479736328125
1758788030.4545941,-0.7041015625,-0.00341796875,0.70361328125,-0.18310546875,0.0,0.0,-0.340576171875,46.8951416015625,-163.553466796875
1758788030.4646118,-0.7021484375,-0.00537109375,0.7109375,0.30517578125,-0.30517578125,0.0,-0.3350830078125,46.8841552734375,-163.5589599609375
1758788030.4746623,-0.7021484375,-0.00537109375,0.7109375,0.30517578125,-0.30517578125,0.0,-0.3350830078125,46.878662109375,-163.564453125
1758788030.4846616,-0.71240234375,-0.00537109375,0.708984375,0.30517578125,-0.30517578125,-0.1220703125,-0.32958984375,46.86767578125,-163.575439453125
1758788030.494678,-0.71240234375,-0.00537109375,0.708984375,0.30517578125,-0.30517578125,-0.1220703125,-0.32958984375,46.856689453125,-163.58642578125
1758788030.5046856,-0.7138671875,-0.00390625,0.70458984375,0.732421875,-0.30517578125,-0.18310546875,-0.3240966796875,46.845703125,-163.6029052734375
1758788030.5146832,-0.7138671875,-0.00390625,0.70458984375,0.732421875,-0.30517578125,-0.18310546875,-0.318603515625,46.834716796875,-163.6138916015625
1758788030.524705,-0.71875,-0.001953125,0.69091796875,0.30517578125,-0.54931640625,-0.30517578125,-0.318603515625,46.82373046875,-163.6248779296875
1758788030.5347226,-0.71875,-0.001953125,0.69091796875,0.30517578125,-0.54931640625,-0.30517578125,-0.318603515625,46.8072509765625,-163.641357421875
1758788030.5448208,-0.72119140625,-0.00830078125,0.69287109375,2.13623046875,-0.42724609375,-0.48828125,-0.3131103515625,46.7962646484375,-163.6578369140625
1758788030.5548117,-0.72119140625,-0.00830078125,0.69287109375,2.13623046875,-0.42724609375,-0.48828125,-0.296630859375,46.7852783203125,-163.67431640625
1758788030.5648181,-0.7177734375,-0.01123046875,0.6982421875,5.126953125,0.0,-0.6103515625,-0.263671875,46.77978515625,-163.6907958984375
1758788030.5748365,-0.7177734375,-0.01123046875,0.6982421875,5.126953125,0.0,-0.6103515625,-0.2197265625,46.7742919921875,-163.707275390625
1758788030.5848527,-0.703125,-0.00537109375,0.70654296875,6.77490234375,-0.18310546875,-0.79345703125,-0.1702880859375,46.7633056640625,-163.729248046875
1758788030.5948641,-0.703125,-0.00537109375,0.70654296875,6.77490234375,-0.18310546875,-0.79345703125,-0.1153564453125,46.7578125,-163.751220703125
1758788030.6048505,-0.71142578125,0.0068359375,0.7041015625,5.126953125,-0.91552734375,-0.67138671875,-0.06591796875,46.7413330078125,-163.773193359375
1758788030.6148496,-0.71142578125,0.0068359375,0.7041015625,5.126953125,-0.91552734375,-0.67138671875,-0.02197265625,46.724853515625,-163.7896728515625
1758788030.624896,-0.71728515625,0.00927734375,0.69873046875,1.3427734375,-1.15966796875,-0.18310546875,0.0,46.7083740234375,-163.8116455078125
1758788030.6349082,-0.71728515625,0.00927734375,0.69873046875,1.3427734375,-1.15966796875,-0.18310546875,0.0054931640625,46.69189453125,-163.8226318359375
1758788030.6449409,-0.7138671875,0.00439453125,0.697265625,-0.8544921875,-1.15966796875,0.0,0.010986328125,46.6754150390625,-163.8336181640625
1758788030.6549902,-0.7138671875,0.00439453125,0.697265625,-0.8544921875,-1.15966796875,0.0,0.0,46.6534423828125,-163.839111328125
1758788030.6649392,-0.71435546875,0.00390625,0.708984375,-0.79345703125,-1.0986328125,-0.18310546875,-0.0054931640625,46.636962890625,-163.8446044921875
1758788030.6750407,-0.71435546875,0.00390625,0.708984375,-0.79345703125,-1.0986328125,-0.18310546875,-0.010986328125,46.6204833984375,-163.8555908203125
1758788030.684938,-0.70947265625,0.00048828125,0.69091796875,-0.54931640625,-1.220703125,-0.18310546875,-0.02197265625,46.60400390625,-163.8665771484375
1758788030.700713,-0.70947265625,0.00048828125,0.69091796875,-0.54931640625,-1.220703125,-0.18310546875,-0.0274658203125,46.58203125,-163.8775634765625
1758788030.7068331,-0.70166015625,0.00537109375,0.6943359375,-0.67138671875,-1.64794921875,0.0,-0.032958984375,46.56005859375,-163.883056640625
1758788030.7149541,-0.70166015625,0.00537109375,0.6943359375,-0.67138671875,-1.64794921875,0.0,-0.0384521484375,46.5380859375,-163.89404296875
1758788030.7250316,-0.70947265625,-0.01025390625,0.71337890625,-1.28173828125,-1.8310546875,0.1220703125,-0.0494384765625,46.51611328125,-163.8995361328125
1758788030.735339,-0.70947265625,-0.01025390625,0.71337890625,-1.28173828125,-1.8310546875,0.1220703125,-0.0604248046875,46.494140625,-163.905029296875
1758788030.745241,-0.70849609375,-0.00390625,0.7099609375,-1.03759765625,-1.8310546875,0.06103515625,-0.0714111328125,46.4666748046875,-163.9105224609375
1758788030.755033,-0.70849609375,-0.00390625,0.7099609375,-1.03759765625,-1.8310546875,0.06103515625,-0.0823974609375,46.439208984375,-163.916015625
1758788030.765067,-0.705078125,0.00341796875,0.7001953125,-0.732421875,-1.708984375,-0.30517578125,-0.0933837890625,46.417236328125,-163.927001953125
1758788030.7750378,-0.705078125,0.00341796875,0.7001953125,-0.732421875,-1.708984375,-0.30517578125,-0.1043701171875,46.395263671875,-163.9434814453125
1758788030.785246,-0.70263671875,0.0107421875,0.712890625,-0.732421875,-1.708984375,-0.42724609375,-0.10986328125,46.3677978515625,-163.9544677734375
1758788030.7950828,-0.70263671875,0.0107421875,0.712890625,-0.732421875,-1.708984375,-0.42724609375,-0.120849609375,46.3458251953125,-163.970947265625
1758788030.8050852,-0.70849609375,0.00830078125,0.708984375,-4.638671875,-1.89208984375,0.0,-0.1483154296875,46.318359375,-163.9764404296875
1758788030.815051,-0.70849609375,0.00830078125,0.708984375,-4.638671875,-1.89208984375,0.0,-0.1922607421875,46.29638671875,-163.9874267578125
1758788030.8253117,-0.70849609375,0.0078125,0.689453125,-8.11767578125,-2.0751953125,0.42724609375,-0.252685546875,46.2689208984375,-163.9874267578125
1758788030.8353844,-0.70849609375,0.0078125,0.689453125,-8.11767578125,-2.0751953125,0.42724609375,-0.3240966796875,46.241455078125,-163.9874267578125
1758788030.8451703,-0.70751953125,-0.001953125,0.70556640625,-9.033203125,-2.13623046875,0.48828125,-0.4010009765625,46.2139892578125,-163.98193359375
1758788030.855175,-0.70751953125,-0.001953125,0.70556640625,-9.033203125,-2.13623046875,0.48828125,-0.4833984375,46.1865234375,-163.98193359375
1758788030.8651965,-0.681640625,-0.01708984375,0.72998046875,-6.591796875,-2.0751953125,0.54931640625,-0.54931640625,46.1590576171875,-163.9764404296875
1758788030.875181,-0.681640625,-0.01708984375,0.72998046875,-6.591796875,-2.0751953125,0.54931640625,-0.6097412109375,46.131591796875,-163.9764404296875
1758788030.885597,-0.69482421875,-0.02685546875,0.736328125,-2.13623046875,-2.50244140625,0.3662109375,-0.6427001953125,46.0986328125,-163.9764404296875
1758788030.8952458,-0.69482421875,-0.02685546875,0.736328125,-2.13623046875,-2.50244140625,0.3662109375,-0.6591796875,46.065673828125,-163.98193359375
1758788030.9052615,-0.70654296875,-0.0244140625,0.71337890625,-1.5869140625,-2.44140625,0.42724609375,-0.670166015625,46.03271484375,-163.9874267578125
1758788030.9153166,-0.70654296875,-0.0244140625,0.71337890625,-1.5869140625,-2.44140625,0.42724609375,-0.68115234375,45.999755859375,-163.992919921875
1758788030.925545,-0.7001953125,-0.001953125,0.6904296875,-1.03759765625,-2.5634765625,0.42724609375,-0.692138671875,45.966796875,-163.992919921875
1758788030.9354532,-0.7001953125,-0.001953125,0.6904296875,-1.03759765625,-2.5634765625,0.42724609375,-0.6976318359375,45.933837890625,-163.9984130859375
1758788030.945271,-0.70458984375,-0.0126953125,0.7236328125,2.62451171875,-2.62451171875,0.30517578125,-0.6866455078125,45.90087890625,-163.9984130859375
1758788030.9553728,-0.70458984375,-0.0126953125,0.7236328125,2.62451171875,-2.62451171875,0.30517578125,-0.6536865234375,45.867919921875,-164.00390625
1758788030.9655693,-0.6982421875,-0.00634765625,0.7197265625,0.3662109375,-2.44140625,0.30517578125,-0.63720703125,45.8349609375,-164.0093994140625
1758788030.9753232,-0.6982421875,-0.00634765625,0.7197265625,0.3662109375,-2.44140625,0.30517578125,-0.6317138671875,45.802001953125,-164.0093994140625
1758788030.9853218,-0.703125,0.01318359375,0.70458984375,-1.28173828125,-2.99072265625,0.54931640625,-0.6317138671875,45.76904296875,-164.014892578125
1758788030.9953802,-0.703125,0.01318359375,0.70458984375,-1.28173828125,-2.99072265625,0.54931640625,-0.63720703125,45.7305908203125,-164.014892578125
1758788031.0056705,-0.73046875,0.00390625,0.73046875,-4.5166015625,-3.173828125,0.9765625,-0.6536865234375,45.692138671875,-164.0093994140625
1758788031.015415,-0.73046875,0.00390625,0.73046875,-4.5166015625,-3.173828125,0.9765625,-0.6866455078125,45.6536865234375,-163.9984130859375
1758788031.025337,-0.73583984375,0.01025390625,0.6572265625,-10.31494140625,-2.86865234375,0.91552734375,-0.7470703125,45.6207275390625,-163.992919921875
1758788031.0353613,-0.73583984375,0.01025390625,0.6572265625,-10.31494140625,-2.86865234375,0.91552734375,-0.8404541015625,45.5877685546875,-163.9764404296875
1758788031.0455709,-0.71728515625,-0.009765625,0.6689453125,-11.962890625,-3.35693359375,0.732421875,-0.933837890625,45.5548095703125,-163.9599609375
1758788031.0554929,-0.71728515625,-0.009765625,0.6689453125,-11.962890625,-3.35693359375,0.732421875,-1.043701171875,45.5218505859375,-163.9434814453125
1758788031.065344,-0.71728515625,-0.009765625,0.6689453125,-9.09423828125,-3.0517578125,0.8544921875,-1.131591796875,45.494384765625,-163.927001953125
1758788031.0754294,-0.7119140625,-0.03564453125,0.708984375,-9.09423828125,-3.0517578125,0.8544921875,-1.20849609375,45.46142578125,-163.9105224609375
1758788031.0853925,-0.705078125,-0.0224609375,0.7060546875,-6.7138671875,-3.173828125,0.9765625,-1.2744140625,45.4339599609375,-163.89404296875
1758788031.0958714,-0.705078125,-0.0224609375,0.7060546875,-6.7138671875,-3.173828125,0.9765625,-1.329345703125,45.4010009765625,-163.8775634765625
1758788031.1054142,-0.70703125,-0.01513671875,0.703125,-4.2724609375,-3.11279296875,1.03759765625,-1.373291015625,45.3680419921875,-163.861083984375
1758788031.1154814,-0.70703125,-0.01513671875,0.703125,-4.2724609375,-3.11279296875,1.03759765625,-1.4007568359375,45.340576171875,-163.8446044921875
1758788031.1254685,-0.6982421875,-0.02880859375,0.68310546875,-3.11279296875,-3.0517578125,1.0986328125,-1.4227294921875,45.3076171875,-163.828125
1758788031.1355789,-0.6982421875,-0.02880859375,0.68310546875,-3.11279296875,-3.0517578125,1.0986328125,-1.439208984375,45.2801513671875,-163.80615234375
1758788031.14551,-0.7021484375,-0.025390625,0.71630859375,1.03759765625,-3.173828125,1.0986328125,-1.439208984375,45.252685546875,-163.7896728515625
1758788031.15554,-0.7021484375,-0.025390625,0.71630859375,1.03759765625,-3.173828125,1.0986328125,-1.417236328125,45.2197265625,-163.7677001953125
1758788031.1655586,-0.6962890625,-0.0458984375,0.7177734375,8.23974609375,-2.99072265625,0.79345703125,-1.3568115234375,45.186767578125,-163.7567138671875
1758788031.1757414,-0.6962890625,-0.0458984375,0.7177734375,8.23974609375,-2.99072265625,0.79345703125,-1.2689208984375,45.1593017578125,-163.7457275390625
1758788031.1857853,-0.7158203125,-0.0361328125,0.685546875,11.29150390625,-2.9296875,0.48828125,-1.1700439453125,45.1263427734375,-163.740234375
1758788031.1955683,-0.7158203125,-0.0361328125,0.685546875,11.29150390625,-2.9296875,0.48828125,-1.0546875,45.098876953125,-163.7347412109375
1758788031.2055686,-0.72412109375,-0.01123046875,0.7314453125,12.63427734375,-2.9296875,0.48828125,-0.933837890625,45.0714111328125,-163.729248046875
1758788031.2156966,-0.72412109375,-0.01123046875,0.7314453125,12.63427734375,-2.9296875,0.48828125,-0.81298828125,45.0439453125,-163.7237548828125
1758788031.2261078,-0.71630859375,-0.00390625,0.703125,12.939453125,-2.86865234375,0.6103515625,-0.68115234375,45.0164794921875,-163.71826171875
1758788031.2356136,-0.71630859375,-0.00390625,0.703125,12.939453125,-2.86865234375,0.6103515625,-0.5548095703125,44.989013671875,-163.7127685546875
1758788031.2455838,-0.7119140625,0.02490234375,0.697265625,4.5166015625,-3.5400390625,0.67138671875,-0.4669189453125,44.9560546875,-163.707275390625
1758788031.2556567,-0.7119140625,0.02490234375,0.697265625,4.5166015625,-3.5400390625,0.67138671875,-0.41748046875,44.923095703125,-163.6962890625
1758788031.2658725,-0.73193359375,0.04736328125,0.716796875,-4.638671875,-3.35693359375,1.220703125,-0.4119873046875,44.89013671875,-163.6798095703125
1758788031.275895,-0.73193359375,0.04736328125,0.716796875,-4.638671875,-3.35693359375,1.220703125,-0.4449462890625,44.8626708984375,-163.6578369140625
1758788031.2856057,-0.71142578125,0.03515625,0.6728515625,-14.34326171875,-3.23486328125,1.89208984375,-0.5218505859375,44.8297119140625,-163.6248779296875
1758788031.2956371,-0.71142578125,0.03515625,0.6728515625,-14.34326171875,-3.23486328125,1.89208984375,-0.63720703125,44.80224609375,-163.58642578125
1758788031.3056414,-0.70263671875,-0.01953125,0.6826171875,-10.6201171875,-2.86865234375,1.8310546875,-0.736083984375,44.7747802734375,-163.5479736328125
1758788031.316132,-0.70263671875,-0.01953125,0.6826171875,-10.6201171875,-2.86865234375,1.8310546875,-0.8184814453125,44.7528076171875,-163.509521484375
1758788031.3256288,-0.72119140625,-0.0634765625,0.7265625,-6.53076171875,-2.5634765625,1.46484375,-0.867919921875,44.736328125,-163.4820556640625
1758788031.3356767,-0.72119140625,-0.0634765625,0.7265625,-6.53076171875,-2.5634765625,1.46484375,-0.911865234375,44.71435546875,-163.45458984375
1758788031.3457155,-0.6806640625,-0.029296875,0.70751953125,-4.638671875,-2.197265625,1.3427734375,-0.94482421875,44.6923828125,-163.4271240234375
1758788031.3558598,-0.6806640625,-0.029296875,0.70751953125,-4.638671875,-2.197265625,1.3427734375,-0.977783203125,44.6759033203125,-163.4051513671875
1758788031.3657012,-0.689453125,-0.0107421875,0.701171875,3.90625,-2.5634765625,1.0986328125,-0.9283447265625,44.6539306640625,-163.3831787109375
1758788031.375896,-0.689453125,-0.0107421875,0.701171875,3.90625,-2.5634765625,1.0986328125,-0.87890625,44.6319580078125,-163.36669921875
1758788031.386194,-0.7021484375,-0.017578125,0.74560546875,6.04248046875,-2.38037109375,0.9765625,-0.81298828125,44.6099853515625,-163.3447265625
1758788031.3957984,-0.7021484375,-0.017578125,0.74560546875,6.04248046875,-2.38037109375,0.9765625,-0.7415771484375,44.5880126953125,-163.3282470703125
1758788031.4057448,-0.70849609375,0.02197265625,0.734375,0.3662109375,-2.25830078125,0.91552734375,-0.7305908203125,44.5660400390625,-163.3172607421875
1758788031.4158452,-0.70849609375,0.02197265625,0.734375,0.3662109375,-2.25830078125,0.91552734375,-0.7196044921875,44.5440673828125,-163.2952880859375
1758788031.4265084,-0.69384765625,0.03076171875,0.71484375,-4.08935546875,-2.50244140625,0.91552734375,-0.7470703125,44.5166015625,-163.27880859375
1758788031.4360323,-0.69384765625,0.03076171875,0.71484375,-4.08935546875,-2.50244140625,0.91552734375,-0.7745361328125,44.49462890625,-163.2568359375
1758788031.4458315,-0.69677734375,-0.01953125,0.73974609375,-3.47900390625,-2.38037109375,0.67138671875,-0.7965087890625,44.4671630859375,-163.2403564453125
1758788031.4561584,-0.69677734375,-0.01953125,0.73974609375,-3.47900390625,-2.38037109375,0.67138671875,-0.823974609375,44.4451904296875,-163.2293701171875
1758788031.4659588,-0.71826171875,-0.05224609375,0.712890625,-2.62451171875,-2.25830078125,0.6103515625,-0.8404541015625,44.417724609375,-163.2183837890625
1758788031.47642,-0.71826171875,-0.05224609375,0.712890625,-2.62451171875,-2.25830078125,0.6103515625,-0.8624267578125,44.395751953125,-163.2073974609375
1758788031.4858568,-0.70654296875,-0.056640625,0.66796875,9.765625,-1.708984375,0.18310546875,-0.7635498046875,44.384765625,-163.201904296875
1758788031.4958494,-0.70654296875,-0.056640625,0.66796875,9.765625,-1.708984375,0.18310546875,-0.670166015625,44.3682861328125,-163.1964111328125
1758788031.5059953,-0.69921875,-0.01611328125,0.6923828125,12.5732421875,-2.3193359375,-0.48828125,-0.5548095703125,44.3463134765625,-163.201904296875
1758788031.5158832,-0.69921875,-0.01611328125,0.6923828125,12.5732421875,-2.3193359375,-0.48828125,-0.439453125,44.329833984375,-163.2073974609375
1758788031.526002,-0.7001953125,0.02880859375,0.73681640625,11.90185546875,-2.13623046875,-0.48828125,-0.32958984375,44.307861328125,-163.212890625
1758788031.5359504,-0.7001953125,0.02880859375,0.73681640625,11.90185546875,-2.13623046875,-0.48828125,-0.2197265625,44.2913818359375,-163.2183837890625
1758788031.5459971,-0.6845703125,0.02490234375,0.7138671875,6.53076171875,-2.3193359375,-0.42724609375,-0.164794921875,44.2694091796875,-163.223876953125
1758788031.555983,-0.6845703125,0.02490234375,0.7138671875,6.53076171875,-2.3193359375,-0.42724609375,-0.1043701171875,44.2474365234375,-163.223876953125
1758788031.5660095,-0.68408203125,0.00537109375,0.736328125,5.37109375,-2.74658203125,-0.6103515625,-0.0604248046875,44.219970703125,-163.2293701171875
1758788031.5759957,-0.68408203125,0.00537109375,0.736328125,5.37109375,-2.74658203125,-0.6103515625,-0.010986328125,44.1925048828125,-163.23486328125
1758788031.586069,-0.6923828125,-0.03369140625,0.73193359375,10.1318359375,-3.11279296875,-1.220703125,0.0714111328125,44.1595458984375,-163.2513427734375
1758788031.595987,-0.6923828125,-0.03369140625,0.73193359375,10.1318359375,-3.11279296875,-1.220703125,0.15380859375,44.132080078125,-163.267822265625
1758788031.6059954,-0.7021484375,-0.01904296875,0.72314453125,10.68115234375,-3.23486328125,-1.52587890625,0.24169921875,44.09912109375,-163.289794921875
1758788031.6159596,-0.7021484375,-0.01904296875,0.72314453125,10.68115234375,-3.23486328125,-1.52587890625,0.3240966796875,44.066162109375,-163.311767578125
1758788031.6260247,-0.6806640625,0.02001953125,0.71533203125,10.19287109375,-3.84521484375,-1.89208984375,0.406494140625,44.0277099609375,-163.3447265625
1758788031.635982,-0.6806640625,0.02001953125,0.71533203125,10.19287109375,-3.84521484375,-1.89208984375,0.4833984375,43.9892578125,-163.3721923828125
1758788031.6460109,-0.68798828125,0.02783203125,0.71630859375,10.7421875,-3.96728515625,-2.25830078125,0.560302734375,43.9508056640625,-163.399658203125
1758788031.6559825,-0.68798828125,0.02783203125,0.71630859375,10.7421875,-3.96728515625,-2.25830078125,0.6427001953125,43.912353515625,-163.4326171875
1758788031.6660843,-0.671875,0.0,0.7529296875,9.82666015625,-3.90625,-2.5634765625,0.714111328125,43.868408203125,-163.465576171875
1758788031.6765122,-0.671875,0.0,0.7529296875,9.82666015625,-3.90625,-2.5634765625,0.7855224609375,43.8299560546875,-163.5040283203125
1758788031.6861188,-0.666015625,0.02099609375,0.7275390625,4.94384765625,-3.7841796875,-2.685546875,0.802001953125,43.79150390625,-163.54248046875
1758788031.6960948,-0.666015625,0.02099609375,0.7275390625,4.94384765625,-3.7841796875,-2.685546875,0.823974609375,43.7530517578125,-163.5809326171875
1758788031.7061708,-0.66455078125,0.0439453125,0.73193359375,0.1220703125,-4.0283203125,-2.74658203125,0.7965087890625,43.7091064453125,-163.619384765625
1758788031.716348,-0.66455078125,0.0439453125,0.73193359375,0.1220703125,-4.0283203125,-2.74658203125,0.76904296875,43.6651611328125,-163.6578369140625
1758788031.726236,-0.6513671875,0.025390625,0.751953125,-0.732421875,-4.7607421875,-2.86865234375,0.736083984375,43.61572265625,-163.6962890625
1758788031.7361226,-0.6513671875,0.025390625,0.751953125,-0.732421875,-4.7607421875,-2.86865234375,0.703125,43.560791015625,-163.740234375
1758788031.7462006,-0.64013671875,-0.01513671875,0.767578125,4.57763671875,-4.94384765625,-2.99072265625,0.72509765625,43.505859375,-163.7841796875
1758788031.7564092,-0.64013671875,-0.01513671875,0.767578125,4.57763671875,-4.94384765625,-2.99072265625,0.7415771484375,43.450927734375,-163.828125
1758788031.7664094,-0.66845703125,-0.0546875,0.72216796875,8.30078125,-4.2724609375,-3.23486328125,0.791015625,43.4014892578125,-163.883056640625
1758788031.7761524,-0.66845703125,-0.0546875,0.72216796875,8.30078125,-4.2724609375,-3.23486328125,0.8349609375,43.35205078125,-163.93798828125
1758788031.7862122,-0.6689453125,0.01513671875,0.76123046875,4.2724609375,-4.8828125,-3.5400390625,0.8404541015625,43.297119140625,-163.9984130859375
1758788031.7961721,-0.6689453125,0.01513671875,0.76123046875,4.2724609375,-4.8828125,-3.5400390625,0.8404541015625,43.2421875,-164.058837890625
1758788031.806703,-0.6953125,0.06103515625,0.73876953125,2.38037109375,-3.35693359375,-3.47900390625,0.8294677734375,43.2037353515625,-164.11376953125
1758788031.8161645,-0.6953125,0.06103515625,0.73876953125,2.38037109375,-3.35693359375,-3.47900390625,0.8184814453125,43.165283203125,-164.168701171875
1758788031.826203,-0.68701171875,0.02197265625,0.71240234375,2.197265625,-3.35693359375,-3.84521484375,0.8074951171875,43.1268310546875,-164.2236328125
1758788031.8361979,-0.68701171875,0.02197265625,0.71240234375,2.197265625,-3.35693359375,-3.84521484375,0.791015625,43.0938720703125,-164.278564453125
1758788031.846355,-0.63720703125,-0.015625,0.76025390625,1.64794921875,-4.638671875,-4.5166015625,0.76904296875,43.04443359375,-164.344482421875
1758788031.8562791,-0.63720703125,-0.015625,0.76025390625,1.64794921875,-4.638671875,-4.5166015625,0.7415771484375,42.989501953125,-164.410400390625
1758788031.8662508,-0.64892578125,-0.005859375,0.78759765625,1.5869140625,-5.55419921875,-4.8828125,0.7086181640625,42.9290771484375,-164.4818115234375
1758788031.8766272,-0.64892578125,-0.005859375,0.78759765625,1.5869140625,-5.55419921875,-4.8828125,0.6756591796875,42.86865234375,-164.5587158203125
1758788031.8862739,-0.63818359375,-0.001953125,0.75048828125,6.103515625,-6.28662109375,-4.69970703125,0.692138671875,42.7972412109375,-164.6356201171875
1758788031.8962314,-0.63818359375,-0.001953125,0.75048828125,6.103515625,-6.28662109375,-4.69970703125,0.7086181640625,42.725830078125,-164.70703125
1758788031.906335,-0.65283203125,0.02294921875,0.7802734375,3.7841796875,-6.103515625,-4.7607421875,0.6976318359375,42.659912109375,-164.783935546875
1758788031.9166114,-0.65283203125,0.02294921875,0.7802734375,3.7841796875,-6.103515625,-4.7607421875,0.692138671875,42.5885009765625,-164.8553466796875
1758788031.926398,-0.646484375,0.0322265625,0.732421875,-4.57763671875,-4.69970703125,-4.5166015625,0.604248046875,42.5335693359375,-164.9267578125
1758788031.9363701,-0.646484375,0.0322265625,0.732421875,-4.57763671875,-4.69970703125,-4.5166015625,0.516357421875,42.4786376953125,-164.99267578125
1758788031.9464202,-0.646484375,0.03173828125,0.73095703125,-6.40869140625,-4.94384765625,-5.0048828125,0.4119873046875,42.4237060546875,-165.0640869140625
1758788031.9563735,-0.646484375,0.03173828125,0.73095703125,-6.40869140625,-4.94384765625,-5.0048828125,0.3076171875,42.3687744140625,-165.135498046875
1758788031.966481,-0.666015625,0.01123046875,0.7705078125,-9.033203125,-4.5166015625,-4.7607421875,0.17578125,42.3193359375,-165.201416015625
1758788031.9765968,-0.666015625,0.01123046875,0.7705078125,-9.033203125,-4.5166015625,-4.7607421875,0.0494384765625,42.264404296875,-165.267333984375
1758788031.9863596,-0.626953125,-0.0048828125,0.7607421875,-10.92529296875,-5.0048828125,-4.638671875,-0.087890625,42.20947265625,-165.3277587890625
1758788031.9964063,-0.626953125,-0.0048828125,0.7607421875,-10.92529296875,-5.0048828125,-4.638671875,-0.230712890625,42.1490478515625,-165.38818359375
1758788032.0064127,-0.63623046875,-0.0283203125,0.77294921875,-5.67626953125,-4.33349609375,-5.06591796875,-0.32958984375,42.099609375,-165.4595947265625
1758788032.0165436,-0.63623046875,-0.0283203125,0.77294921875,-5.67626953125,-4.33349609375,-5.06591796875,-0.428466796875,42.044677734375,-165.531005859375
1758788032.0264807,-0.62255859375,-0.0078125,0.7744140625,-4.5166015625,-3.2958984375,-4.94384765625,-0.5108642578125,42.000732421875,-165.6024169921875
1758788032.036411,-0.62255859375,-0.0078125,0.7744140625,-4.5166015625,-3.2958984375,-4.94384765625,-0.5987548828125,41.956787109375,-165.673828125
1758788032.046462,-0.67138671875,0.04150390625,0.8037109375,-10.3759765625,-1.46484375,-4.82177734375,-0.736083984375,41.934814453125,-165.73974609375
1758788032.0566368,-0.67138671875,0.04150390625,0.8037109375,-10.3759765625,-1.46484375,-4.82177734375,-0.8734130859375,41.9073486328125,-165.8056640625
1758788032.066771,-0.67138671875,0.04150390625,0.8037109375,-21.05712890625,0.6103515625,-5.06591796875,-1.12060546875,41.90185546875,-165.8770751953125
1758788032.0764418,-0.67578125,0.02978515625,0.79052734375,-21.05712890625,0.6103515625,-5.06591796875,-1.3623046875,41.8963623046875,-165.9429931640625
1758788032.086487,-0.6298828125,-0.00732421875,0.69287109375,-19.4091796875,1.89208984375,-4.33349609375,-1.58203125,41.9073486328125,-165.9979248046875
1758788032.0964508,-0.6298828125,-0.00732421875,0.69287109375,-19.4091796875,1.89208984375,-4.33349609375,-1.8017578125,41.9183349609375,-166.0528564453125
1758788032.1068342,-0.68603515625,-0.099609375,0.70556640625,3.23486328125,1.708984375,-5.43212890625,-1.8072509765625,41.923828125,-166.1187744140625
1758788032.1164572,-0.68603515625,-0.099609375,0.70556640625,3.23486328125,1.708984375,-5.43212890625,-1.812744140625,41.934814453125,-166.190185546875
1758788032.126484,-0.712890625,-0.15185546875,0.7265625,27.83203125,2.5634765625,-6.53076171875,-1.5985107421875,41.956787109375,-166.2835693359375
1758788032.136479,-0.712890625,-0.15185546875,0.7265625,27.83203125,2.5634765625,-6.53076171875,-1.38427734375,41.978759765625,-166.376953125
1758788032.147003,-0.7373046875,-0.0986328125,0.7490234375,44.73876953125,3.23486328125,-7.75146484375,-1.021728515625,42.01171875,-166.48681640625
1758788032.15657,-0.7373046875,-0.0986328125,0.7490234375,44.73876953125,3.23486328125,-7.75146484375,-0.6591796875,42.044677734375,-166.5966796875
1758788032.1665952,-0.74755859375,0.072265625,0.78125,21.91162109375,3.90625,-7.9345703125,-0.52734375,42.0831298828125,-166.70654296875
1758788032.176556,-0.74755859375,0.072265625,0.78125,21.91162109375,3.90625,-7.9345703125,-0.3900146484375,42.1270751953125,-166.81640625
1758788032.1871698,-0.685546875,0.1845703125,0.6162109375,-5.43212890625,4.45556640625,-6.4697265625,-0.50537109375,42.176513671875,-166.893310546875
1758788032.1966794,-0.685546875,0.1845703125,0.6162109375,-5.43212890625,4.45556640625,-6.4697265625,-0.615234375,42.2259521484375,-166.959228515625
1758788032.2066624,-0.70068359375,0.0078125,0.65380859375,-18.24951171875,3.96728515625,-5.37109375,-0.8349609375,42.275390625,-167.0086669921875
1758788032.2166471,-0.70068359375,0.0078125,0.65380859375,-18.24951171875,3.96728515625,-5.37109375,-1.0546875,42.3248291015625,-167.05810546875
1758788032.227297,-0.71484375,-0.12890625,0.78759765625,-11.962890625,4.08935546875,-4.94384765625,-1.2139892578125,42.374267578125,-167.1075439453125
1758788032.2366905,-0.71484375,-0.12890625,0.78759765625,-11.962890625,4.08935546875,-4.94384765625,-1.3787841796875,42.4237060546875,-167.1624755859375
1758788032.246675,-0.673828125,-0.1240234375,0.69091796875,10.6201171875,3.41796875,-5.43212890625,-1.3238525390625,42.462158203125,-167.2283935546875
1758788032.2566402,-0.673828125,-0.1240234375,0.69091796875,10.6201171875,3.41796875,-5.43212890625,-1.2744140625,42.506103515625,-167.2998046875
1758788032.2671998,-0.66943359375,-0.0625,0.7197265625,27.4658203125,1.89208984375,-6.34765625,-1.0711669921875,42.528076171875,-167.3876953125
1758788032.2767644,-0.66943359375,-0.0625,0.7197265625,27.4658203125,1.89208984375,-6.34765625,-0.867919921875,42.5555419921875,-167.4755859375
1758788032.286702,-0.68408203125,-0.02001953125,0.765625,24.2919921875,0.9765625,-6.89697265625,-0.703125,42.572021484375,-167.5689697265625
1758788032.2967443,-0.68408203125,-0.02001953125,0.765625,24.2919921875,0.9765625,-6.89697265625,-0.5328369140625,42.5830078125,-167.6678466796875
1758788032.30721,-0.638671875,0.0244140625,0.6650390625,10.92529296875,0.0,-5.79833984375,-0.4888916015625,42.5885009765625,-167.750244140625
1758788032.3167222,-0.638671875,0.0244140625,0.6650390625,10.92529296875,0.0,-5.79833984375,-0.4449462890625,42.593994140625,-167.8271484375
1758788032.3267543,-0.6806640625,0.00830078125,0.783203125,12.20703125,-1.77001953125,-5.7373046875,-0.384521484375,42.5775146484375,-167.9095458984375
1758788032.3367448,-0.6806640625,0.00830078125,0.783203125,12.20703125,-1.77001953125,-5.7373046875,-0.318603515625,42.56103515625,-167.9864501953125
1758788032.3471892,-0.666015625,-0.02978515625,0.7568359375,11.23046875,-2.197265625,-5.55419921875,-0.2691650390625,42.5390625,-168.06884765625
1758788032.3567,-0.666015625,-0.02978515625,0.7568359375,11.23046875,-2.197265625,-5.55419921875,-0.2142333984375,42.5225830078125,-168.145751953125
1758788032.3667557,-0.65087890625,-0.03125,0.74462890625,19.47021484375,-4.08935546875,-6.04248046875,-0.0823974609375,42.4786376953125,-168.233642578125
1758788032.3770325,-0.65087890625,-0.03125,0.74462890625,19.47021484375,-4.08935546875,-6.04248046875,0.0384521484375,42.440185546875,-168.3270263671875
1758788032.3867571,-0.68017578125,-0.0166015625,0.79931640625,20.20263671875,-4.69970703125,-6.04248046875,0.17578125,42.3907470703125,-168.4149169921875
1758788032.397175,-0.6396484375,0.0283203125,0.70654296875,10.25390625,-5.2490234375,-5.31005859375,0.263671875,42.34130859375,-168.5028076171875
1758788032.4068077,-0.6396484375,0.0283203125,0.70654296875,10.25390625,-5.2490234375,-5.31005859375,0.3076171875,42.286376953125,-168.585205078125
1758788032.4167757,-0.63037109375,0.07470703125,0.697265625,-9.6435546875,-5.79833984375,-3.84521484375,0.263671875,42.2314453125,-168.651123046875
1758788032.4269128,-0.63037109375,0.07470703125,0.697265625,-9.6435546875,-5.79833984375,-3.84521484375,0.1318359375,42.1710205078125,-168.7060546875
1758788032.437279,-0.6279296875,0.03564453125,0.80419921875,-11.962890625,-5.67626953125,-3.11279296875,0.0,42.1160888671875,-168.7554931640625
1758788032.4470005,-0.6279296875,0.03564453125,0.80419921875,-11.962890625,-5.67626953125,-3.11279296875,-0.1483154296875,42.0556640625,-168.7939453125
1758788032.456913,-0.65673828125,-0.05615234375,0.74169921875,-4.150390625,-5.37109375,-2.86865234375,-0.2471923828125,41.9952392578125,-168.837890625
1758788032.4674294,-0.65673828125,-0.05615234375,0.74169921875,-4.150390625,-5.37109375,-2.86865234375,-0.3131103515625,41.934814453125,-168.8818359375
1758788032.4770267,-0.65869140625,-0.0595703125,0.77392578125,5.31005859375,-5.9814453125,-3.35693359375,-0.3350830078125,41.8743896484375,-168.9312744140625
1758788032.486938,-0.65869140625,-0.0595703125,0.77392578125,5.31005859375,-5.9814453125,-3.35693359375,-0.3131103515625,41.81396484375,-168.9862060546875
1758788032.4969099,-0.70458984375,-0.03857421875,0.759765625,6.2255859375,-5.615234375,-3.11279296875,-0.2911376953125,41.7535400390625,-169.03564453125
1758788032.507059,-0.70458984375,-0.03857421875,0.759765625,6.2255859375,-5.615234375,-3.11279296875,-0.2581787109375,41.693115234375,-169.0850830078125
1758788032.5170083,-0.66259765625,0.01708984375,0.77734375,-4.150390625,-6.16455078125,-2.685546875,-0.2801513671875,41.6326904296875,-169.134521484375
1758788032.526922,-0.66259765625,0.01708984375,0.77734375,-4.150390625,-6.16455078125,-2.685546875,-0.3515625,41.572265625,-169.178466796875
1758788032.5369074,-0.66064453125,-0.0048828125,0.73193359375,1.03759765625,-5.4931640625,-2.01416015625,-0.3900146484375,41.5118408203125,-169.21142578125
1758788032.547188,-0.66064453125,-0.0048828125,0.73193359375,1.03759765625,-5.4931640625,-2.01416015625,-0.4010009765625,41.4569091796875,-169.244384765625
1758788032.5573688,-0.6357421875,-0.0234375,0.72216796875,9.8876953125,-5.2490234375,-2.685546875,-0.3680419921875,41.4019775390625,-169.27734375
1758788032.566992,-0.6357421875,-0.0234375,0.72216796875,9.8876953125,-5.2490234375,-2.685546875,-0.296630859375,41.3470458984375,-169.3212890625
1758788032.5770087,-0.6357421875,-0.0234375,0.72216796875,5.615234375,-4.39453125,-3.173828125,-0.2471923828125,41.3031005859375,-169.365234375
1758788032.5870323,-0.66552734375,-0.02392578125,0.7548828125,5.615234375,-4.39453125,-3.173828125,-0.2252197265625,41.2591552734375,-169.4091796875
1758788032.5974102,-0.6533203125,0.05419921875,0.7451171875,-4.94384765625,-3.7841796875,-2.13623046875,-0.2471923828125,41.2152099609375,-169.4476318359375
1758788032.6071703,-0.6533203125,0.05419921875,0.7451171875,-4.94384765625,-3.7841796875,-2.13623046875,-0.318603515625,41.1822509765625,-169.47509765625
1758788032.6171196,-0.65185546875,0.02880859375,0.7783203125,-10.009765625,-4.08935546875,-1.64794921875,-0.406494140625,41.143798828125,-169.4970703125
1758788032.6270652,-0.65185546875,0.02880859375,0.7783203125,-10.009765625,-4.08935546875,-1.64794921875,-0.516357421875,41.099853515625,-169.51904296875
1758788032.6373322,-0.67041015625,-0.03759765625,0.75732421875,-7.38525390625,-3.662109375,-1.46484375,-0.615234375,41.0614013671875,-169.5355224609375
1758788032.6470811,-0.67041015625,-0.03759765625,0.75732421875,-7.38525390625,-3.662109375,-1.46484375,-0.6976318359375,41.0284423828125,-169.552001953125
1758788032.6570334,-0.65283203125,-0.0302734375,0.73974609375,-1.15966796875,-4.5166015625,-1.64794921875,-0.7470703125,40.989990234375,-169.573974609375
1758788032.66718,-0.65283203125,-0.0302734375,0.73974609375,-1.15966796875,-4.5166015625,-1.64794921875,-0.7745361328125,40.946044921875,-169.5904541015625
1758788032.677164,-0.7021484375,0.00341796875,0.76318359375,-1.5869140625,-4.638671875,-1.64794921875,-0.802001953125,40.902099609375,-169.60693359375
1758788032.687738,-0.7021484375,0.00341796875,0.76318359375,-1.5869140625,-4.638671875,-1.64794921875,-0.8294677734375,40.858154296875,-169.6234130859375
1758788032.6971984,-0.6533203125,0.0322265625,0.7119140625,-18.06640625,-3.84521484375,-0.42724609375,-0.933837890625,40.8197021484375,-169.62890625
1758788032.7072425,-0.6533203125,0.0322265625,0.7119140625,-18.06640625,-3.84521484375,-0.42724609375,-1.109619140625,40.7867431640625,-169.62890625
1758788032.7172174,-0.68994140625,-0.017578125,0.7216796875,-11.41357421875,-1.89208984375,0.1220703125,-1.25244140625,40.7647705078125,-169.617919921875
1758788032.7273462,-0.68994140625,-0.017578125,0.7216796875,-11.41357421875,-1.89208984375,0.1220703125,-1.3568115234375,40.748291015625,-169.6014404296875
1758788032.7372093,-0.70263671875,-0.12109375,0.748046875,12.63427734375,0.1220703125,-0.6103515625,-1.3458251953125,40.748291015625,-169.5904541015625
1758788032.7472286,-0.70263671875,-0.12109375,0.748046875,12.63427734375,0.1220703125,-0.6103515625,-1.2249755859375,40.75927734375,-169.5904541015625
1758788032.757156,-0.6796875,-0.13037109375,0.75146484375,32.8369140625,0.79345703125,-2.44140625,-1.0162353515625,40.770263671875,-169.60693359375
1758788032.767407,-0.6796875,-0.13037109375,0.75146484375,32.8369140625,0.79345703125,-2.44140625,-0.72509765625,40.7867431640625,-169.639892578125
1758788032.7774694,-0.69921875,0.0390625,0.82861328125,22.15576171875,-0.54931640625,-2.0751953125,-0.4833984375,40.7977294921875,-169.6728515625
1758788032.787213,-0.69921875,0.0390625,0.82861328125,22.15576171875,-0.54931640625,-2.0751953125,-0.296630859375,40.7977294921875,-169.7003173828125
1758788032.797218,-0.62109375,0.16064453125,0.7216796875,-1.89208984375,-1.52587890625,-0.54931640625,-0.2142333984375,40.792236328125,-169.7222900390625
1758788032.8074818,-0.62109375,0.16064453125,0.7216796875,-1.89208984375,-1.52587890625,-0.54931640625,-0.2362060546875,40.7867431640625,-169.7222900390625
1758788032.817601,-0.59130859375,0.02294921875,0.67724609375,-16.41845703125,-3.96728515625,0.06103515625,-0.32958984375,40.7647705078125,-169.716796875
1758788032.8273134,-0.59130859375,0.02294921875,0.67724609375,-16.41845703125,-3.96728515625,0.06103515625,-0.4833984375,40.726318359375,-169.7003173828125
1758788032.8373039,-0.65380859375,-0.0712890625,0.802734375,-3.41796875,-5.79833984375,-0.30517578125,-0.5767822265625,40.682373046875,-169.69482421875
1758788032.8473248,-0.65380859375,-0.0712890625,0.802734375,-3.41796875,-5.79833984375,-0.30517578125,-0.6097412109375,40.62744140625,-169.69482421875
1758788032.8577862,-0.69091796875,-0.10986328125,0.8046875,13.36669921875,-6.89697265625,-0.48828125,-0.5657958984375,40.5670166015625,-169.69482421875
1758788032.8673482,-0.69091796875,-0.10986328125,0.8046875,13.36669921875,-6.89697265625,-0.48828125,-0.439453125,40.5010986328125,-169.7003173828125
1758788032.8774366,-0.67578125,-0.044921875,0.71240234375,14.2822265625,-6.4697265625,-0.79345703125,-0.3131103515625,40.440673828125,-169.716796875
1758788032.8873775,-0.67578125,-0.044921875,0.71240234375,14.2822265625,-6.4697265625,-0.79345703125,-0.1922607421875,40.3802490234375,-169.727783203125
1758788032.8973775,-0.67041015625,-0.00634765625,0.677734375,13.7939453125,-5.06591796875,-1.3427734375,-0.0714111328125,40.330810546875,-169.7442626953125
1758788032.907352,-0.67041015625,-0.00634765625,0.677734375,13.7939453125,-5.06591796875,-1.3427734375,0.0384521484375,40.286865234375,-169.7607421875
1758788032.9173255,-0.68798828125,0.0302734375,0.76513671875,15.44189453125,-4.39453125,-2.0751953125,0.1593017578125,40.25390625,-169.7772216796875
1758788032.9274352,-0.68798828125,0.0302734375,0.76513671875,15.44189453125,-4.39453125,-2.0751953125,0.28564453125,40.220947265625,-169.7991943359375
1758788032.9377866,-0.6923828125,0.017578125,0.76904296875,15.9912109375,-3.2958984375,-2.74658203125,0.4119873046875,40.1934814453125,-169.82666015625
1758788032.9474308,-0.6923828125,0.017578125,0.76904296875,15.9912109375,-3.2958984375,-2.74658203125,0.5438232421875,40.1715087890625,-169.8541259765625
1758788032.957477,-0.67529296875,-0.01806640625,0.7509765625,18.37158203125,-2.86865234375,-2.50244140625,0.68115234375,40.1495361328125,-169.881591796875
1758788032.9675016,-0.67529296875,-0.01806640625,0.7509765625,18.37158203125,-2.86865234375,-2.50244140625,0.8349609375,40.133056640625,-169.9090576171875
1758788032.9777627,-0.67724609375,-0.00732421875,0.76953125,18.98193359375,-1.8310546875,-2.685546875,0.98876953125,40.1220703125,-169.9365234375
1758788032.9875357,-0.67724609375,-0.00732421875,0.76953125,18.98193359375,-1.8310546875,-2.685546875,1.1480712890625,40.111083984375,-169.969482421875
1758788032.997747,-0.6337890625,0.04248046875,0.72607421875,6.40869140625,-0.91552734375,-2.25830078125,1.241455078125,40.111083984375,-169.9969482421875
1758788033.0075085,-0.6337890625,0.04248046875,0.72607421875,6.40869140625,-0.91552734375,-2.25830078125,1.2744140625,40.111083984375,-170.0244140625
1758788033.0183122,-0.63037109375,0.09228515625,0.7119140625,-2.25830078125,-0.54931640625,-1.5869140625,1.2744140625,40.1165771484375,-170.0408935546875
1758788033.0274959,-0.63037109375,0.09228515625,0.7119140625,-2.25830078125,-0.54931640625,-1.5869140625,1.2359619140625,40.1220703125,-170.0518798828125
1758788033.0374722,-0.6513671875,0.01611328125,0.76220703125,0.0,-0.1220703125,-1.64794921875,1.2139892578125,40.1275634765625,-170.0628662109375
1758788033.0474722,-0.6513671875,0.01611328125,0.76220703125,0.0,-0.1220703125,-1.64794921875,1.197509765625,40.133056640625,-170.0738525390625
1758788033.0578227,-0.6767578125,-0.04345703125,0.77392578125,-0.06103515625,-0.732421875,-1.708984375,1.1810302734375,40.1385498046875,-170.09033203125
1758788033.0676954,-0.6767578125,-0.04345703125,0.77392578125,-0.06103515625,-0.732421875,-1.708984375,1.16455078125,40.1385498046875,-170.1068115234375
1758788033.0774937,-0.65283203125,0.0166015625,0.7314453125,-0.9765625,0.0,-1.3427734375,1.142578125,40.14404296875,-170.123291015625
1758788033.087588,-0.65283203125,0.0166015625,0.7314453125,-0.9765625,0.0,-1.3427734375,1.12060546875,40.1495361328125,-170.13427734375
1758788033.0978801,-0.681640625,0.03466796875,0.72412109375,-0.3662109375,-0.42724609375,-1.52587890625,1.0986328125,40.155029296875,-170.1507568359375
1758788033.1078959,-0.681640625,0.03466796875,0.72412109375,-0.3662109375,-0.42724609375,-1.52587890625,1.07666015625,40.1605224609375,-170.1617431640625
1758788033.1176689,-0.65576171875,0.013671875,0.8271484375,-9.70458984375,-0.6103515625,-0.732421875,1.0162353515625,40.166015625,-170.167236328125
1758788033.1275969,-0.65576171875,0.013671875,0.8271484375,-9.70458984375,-0.6103515625,-0.732421875,0.9173583984375,40.166015625,-170.167236328125
1758788033.1379943,-0.6298828125,-0.0146484375,0.7490234375,-4.5166015625,-0.48828125,0.3662109375,0.8404541015625,40.166015625,-170.167236328125
1758788033.1483512,-0.6298828125,-0.0146484375,0.7490234375,-4.5166015625,-0.48828125,0.3662109375,0.802001953125,40.166015625,-170.15625
1758788033.1576262,-0.64794921875,-0.03076171875,0.7431640625,3.2958984375,-0.42724609375,0.06103515625,0.7965087890625,40.1715087890625,-170.1507568359375
1758788033.167645,-0.64794921875,-0.03076171875,0.7431640625,3.2958984375,-0.42724609375,0.06103515625,0.823974609375,40.1715087890625,-170.1507568359375
1758788033.1777923,-0.67236328125,0.02685546875,0.73486328125,2.9296875,0.67138671875,-0.91552734375,0.845947265625,40.177001953125,-170.15625
1758788033.188679,-0.67236328125,0.02685546875,0.73486328125,2.9296875,0.67138671875,-0.91552734375,0.867919921875,40.18798828125,-170.1617431640625
1758788033.1981516,-0.64306640625,0.0537109375,0.6904296875,1.8310546875,0.732421875,-0.91552734375,0.87890625,40.2044677734375,-170.1727294921875
1758788033.207788,-0.64306640625,0.0537109375,0.6904296875,1.8310546875,0.732421875,-0.91552734375,0.889892578125,40.2154541015625,-170.17822265625
1758788033.2176967,-0.638671875,0.048828125,0.77587890625,-8.23974609375,0.91552734375,0.0,0.85693359375,40.23193359375,-170.1727294921875
1758788033.2277062,-0.638671875,0.048828125,0.77587890625,-8.23974609375,0.91552734375,0.0,0.7745361328125,40.2484130859375,-170.167236328125
1758788033.2384098,-0.6259765625,0.00244140625,0.83935546875,-12.63427734375,0.91552734375,0.91552734375,0.68115234375,40.2593994140625,-170.1507568359375
1758788033.2481482,-0.6259765625,0.00244140625,0.83935546875,-12.63427734375,0.91552734375,0.91552734375,0.5657958984375,40.2703857421875,-170.13427734375
1758788033.2577293,-0.62646484375,-0.021484375,0.7646484375,-9.27734375,1.220703125,0.79345703125,0.472412109375,40.2813720703125,-170.123291015625
1758788033.2677667,-0.62646484375,-0.021484375,0.7646484375,-9.27734375,1.220703125,0.79345703125,0.3900146484375,40.2923583984375,-170.1123046875
1758788033.2781506,-0.63720703125,0.009765625,0.76025390625,-2.5634765625,0.8544921875,0.48828125,0.3350830078125,40.3033447265625,-170.1068115234375
1758788033.2878203,-0.63720703125,0.009765625,0.76025390625,-2.5634765625,0.8544921875,0.48828125,0.318603515625,40.308837890625,-170.101318359375
1758788033.297754,-0.6416015625,0.0400390625,0.77587890625,-4.08935546875,0.9765625,-0.244140625,0.28564453125,40.31982421875,-170.0958251953125
1758788033.3077965,-0.6416015625,0.0400390625,0.77587890625,-4.08935546875,0.9765625,-0.244140625,0.252685546875,40.3253173828125,-170.101318359375
1758788033.3180475,-0.6337890625,0.06103515625,0.78955078125,-19.22607421875,0.1220703125,-0.244140625,0.1373291015625,40.330810546875,-170.101318359375
1758788033.3279002,-0.6337890625,0.06103515625,0.78955078125,-19.22607421875,0.1220703125,-0.244140625,-0.0439453125,40.330810546875,-170.101318359375
1758788033.3378787,-0.60205078125,-0.00439453125,0.7607421875,-17.333984375,0.3662109375,0.42724609375,-0.2142333984375,40.3253173828125,-170.101318359375
1758788033.3479278,-0.60205078125,-0.00439453125,0.7607421875,-17.333984375,0.3662109375,0.42724609375,-0.3680419921875,40.3253173828125,-170.0958251953125
1758788033.3578558,-0.59716796875,-0.09033203125,0.74365234375,-3.11279296875,0.18310546875,-0.06103515625,-0.46142578125,40.3253173828125,-170.09033203125
1758788033.3681707,-0.59716796875,-0.09033203125,0.74365234375,-3.11279296875,0.18310546875,-0.06103515625,-0.4888916015625,40.31982421875,-170.0958251953125
1758788033.377862,-0.61767578125,-0.0859375,0.7900390625,18.6767578125,0.06103515625,-1.77001953125,-0.41748046875,40.3143310546875,-170.1177978515625
1758788033.3878732,-0.61767578125,-0.0859375,0.7900390625,18.6767578125,0.06103515625,-1.77001953125,-0.2471923828125,40.308837890625,-170.15625
1758788033.3978841,-0.68701171875,-0.037109375,0.8603515625,31.43310546875,-0.9765625,-3.41796875,-0.0274658203125,40.2978515625,-170.2056884765625
1758788033.408173,-0.68701171875,-0.037109375,0.8603515625,31.43310546875,-0.9765625,-3.41796875,0.24169921875,40.2813720703125,-170.26611328125
1758788033.4178884,-0.65185546875,0.09326171875,0.78466796875,17.822265625,-0.8544921875,-3.35693359375,0.450439453125,40.264892578125,-170.3265380859375
1758788033.4278967,-0.65185546875,0.09326171875,0.78466796875,17.822265625,-0.8544921875,-3.35693359375,0.59326171875,40.2484130859375,-170.3814697265625
1758788033.4379215,-0.58935546875,0.1552734375,0.69873046875,-9.8876953125,-0.48828125,-1.953125,0.6097412109375,40.2374267578125,-170.4254150390625
1758788033.4482877,-0.58935546875,0.1552734375,0.69873046875,-9.8876953125,-0.48828125,-1.953125,0.4998779296875,40.2264404296875,-170.452880859375
1758788033.458026,-0.62890625,0.021484375,0.78369140625,-26.611328125,-0.91552734375,-1.0986328125,0.3131103515625,40.2154541015625,-170.4693603515625
1758788033.4680197,-0.62890625,0.021484375,0.78369140625,-26.611328125,-0.91552734375,-1.0986328125,0.0494384765625,40.198974609375,-170.48583984375
1758788033.4780173,-0.64453125,-0.06298828125,0.81103515625,-12.939453125,0.0,-1.15966796875,-0.076904296875,40.1934814453125,-170.5023193359375
1758788033.4889982,-0.64453125,-0.06298828125,0.81103515625,-12.939453125,0.0,-1.15966796875,-0.208740234375,40.18798828125,-170.5242919921875
1758788033.4981298,-0.619140625,-0.0595703125,0.7470703125,4.0283203125,0.18310546875,-2.9296875,-0.186767578125,40.1824951171875,-170.5682373046875
1758788033.5082247,-0.619140625,-0.0595703125,0.7470703125,4.0283203125,0.18310546875,-2.9296875,-0.1702880859375,40.177001953125,-170.61767578125
1758788033.518118,-0.6640625,-0.0869140625,0.828125,17.02880859375,0.67138671875,-4.08935546875,-0.0384521484375,40.177001953125,-170.6781005859375
1758788033.5281153,-0.6640625,-0.0869140625,0.828125,17.02880859375,0.67138671875,-4.08935546875,0.0823974609375,40.177001953125,-170.74951171875
1758788033.538291,-0.6103515625,-0.02099609375,0.72607421875,19.22607421875,1.89208984375,-3.72314453125,0.2362060546875,40.1934814453125,-170.8099365234375
1758788033.5482047,-0.6103515625,-0.02099609375,0.72607421875,19.22607421875,1.89208984375,-3.72314453125,0.384521484375,40.2044677734375,-170.8758544921875
1758788033.55809,-0.62939453125,0.04443359375,0.7880859375,14.46533203125,2.197265625,-3.662109375,0.4888916015625,40.220947265625,-170.936279296875
1758788033.5681014,-0.62939453125,0.04443359375,0.7880859375,14.46533203125,2.197265625,-3.662109375,0.5987548828125,40.2374267578125,-170.9967041015625
1758788033.5785434,-0.640625,0.01513671875,0.8369140625,11.65771484375,2.86865234375,-3.84521484375,0.6756591796875,40.2593994140625,-171.0626220703125
1758788033.5881011,-0.640625,0.01513671875,0.8369140625,11.65771484375,2.86865234375,-3.84521484375,0.7525634765625,40.2813720703125,-171.123046875
1758788033.5980694,-0.630859375,0.0,0.77099609375,10.80322265625,2.8076171875,-4.2724609375,0.8184814453125,40.2978515625,-171.1944580078125
1758788033.60815,-0.630859375,0.0,0.77099609375,10.80322265625,2.8076171875,-4.2724609375,0.8843994140625,40.31982421875,-171.265869140625
1758788033.6184099,-0.60595703125,0.01123046875,0.7509765625,10.1318359375,2.86865234375,-4.57763671875,0.9393310546875,40.341796875,-171.3427734375
1758788033.6281388,-0.60595703125,0.01123046875,0.7509765625,10.1318359375,2.86865234375,-4.57763671875,0.999755859375,40.36376953125,-171.4141845703125
1758788033.6381552,-0.64404296875,0.03466796875,0.7998046875,8.72802734375,3.7841796875,-5.0048828125,1.0382080078125,40.3912353515625,-171.49658203125
1758788033.6485932,-0.64404296875,0.03466796875,0.7998046875,8.72802734375,3.7841796875,-5.0048828125,1.07666015625,40.418701171875,-171.573486328125
1758788033.6589503,-0.64697265625,0.0185546875,0.7138671875,2.50244140625,6.65283203125,-5.4931640625,1.0546875,40.4791259765625,-171.6558837890625
1758788033.668156,-0.64697265625,0.0185546875,0.7138671875,2.50244140625,6.65283203125,-5.4931640625,1.03271484375,40.53955078125,-171.73828125
1758788033.678489,-0.67919921875,0.03759765625,0.744140625,-2.86865234375,6.40869140625,-6.4697265625,0.94482421875,40.5999755859375,-171.826171875
1758788033.688288,-0.67919921875,0.03759765625,0.744140625,-2.86865234375,6.40869140625,-6.4697265625,0.8624267578125,40.660400390625,-171.9195556640625
1758788033.6987262,-0.69140625,0.00390625,0.74609375,4.638671875,6.103515625,-7.14111328125,0.8514404296875,40.7208251953125,-172.012939453125
1758788033.7083423,-0.69140625,0.00390625,0.74609375,4.638671875,6.103515625,-7.14111328125,0.8349609375,40.78125,-172.11181640625
1758788033.718336,-0.60205078125,-0.04345703125,0.78173828125,1.89208984375,3.173828125,-7.26318359375,0.791015625,40.814208984375,-172.210693359375
1758788033.7283654,-0.60205078125,-0.04345703125,0.78173828125,1.89208984375,3.173828125,-7.26318359375,0.7470703125,40.8416748046875,-172.320556640625
1758788033.7384205,-0.63720703125,-0.02685546875,0.79931640625,11.77978515625,0.79345703125,-6.591796875,0.802001953125,40.8416748046875,-172.41943359375
1758788033.7483413,-0.63720703125,-0.02685546875,0.79931640625,11.77978515625,0.79345703125,-6.591796875,0.85693359375,40.84716796875,-172.518310546875
1758788033.7583752,-0.60205078125,0.00537109375,0.76123046875,2.685546875,-0.54931640625,-5.37109375,0.8294677734375,40.836181640625,-172.606201171875
1758788033.768261,-0.60205078125,0.00537109375,0.76123046875,2.685546875,-0.54931640625,-5.37109375,0.802001953125,40.8197021484375,-172.694091796875
1758788033.7797136,-0.61376953125,0.07958984375,0.712890625,-8.056640625,-1.28173828125,-4.638671875,0.68115234375,40.80322265625,-172.77099609375
1758788033.7883632,-0.61376953125,0.07958984375,0.712890625,-8.056640625,-1.28173828125,-4.638671875,0.560302734375,40.78125,-172.8424072265625
1758788033.799193,-0.662109375,0.02685546875,0.7802734375,-9.6435546875,-1.46484375,-4.39453125,0.4339599609375,40.75927734375,-172.9083251953125
1758788033.8198571,-0.662109375,0.02685546875,0.7802734375,-9.6435546875,-1.46484375,-4.39453125,0.3021240234375,40.7427978515625,-172.9742431640625
1758788033.8315487,-0.65966796875,-0.0498046875,0.78955078125,-3.5400390625,-0.42724609375,-4.638671875,0.230712890625,40.7318115234375,-173.045654296875
1758788033.841079,-0.65966796875,-0.0498046875,0.78955078125,-3.5400390625,-0.42724609375,-4.638671875,0.15380859375,40.7208251953125,-173.1170654296875
1758788033.847162,-0.65966796875,-0.0498046875,0.78955078125,1.8310546875,-1.03759765625,-5.7373046875,0.1263427734375,40.7098388671875,-173.2049560546875
1758788033.8533735,-0.6630859375,-0.0146484375,0.732421875,1.8310546875,-1.03759765625,-5.7373046875,0.0933837890625,40.693359375,-173.2928466796875
1758788033.859444,-0.68994140625,0.033203125,0.7890625,-1.15966796875,-0.48828125,-6.04248046875,0.032958984375,40.6878662109375,-173.375244140625
1758788033.8684196,-0.68994140625,0.033203125,0.7890625,-1.15966796875,-0.48828125,-6.04248046875,-0.0274658203125,40.682373046875,-173.463134765625
1758788033.878468,-0.6318359375,0.0390625,0.7001953125,-12.0849609375,0.0,-4.57763671875,-0.1812744140625,40.682373046875,-173.5235595703125
1758788033.8884587,-0.6318359375,0.0390625,0.7001953125,-12.0849609375,0.0,-4.57763671875,-0.3350830078125,40.682373046875,-173.583984375
1758788033.8984962,-0.6796875,-0.0517578125,0.6943359375,0.18310546875,0.0,-3.72314453125,-0.3570556640625,40.682373046875,-173.6334228515625
1758788033.9084787,-0.6796875,-0.0517578125,0.6943359375,0.18310546875,0.0,-3.72314453125,-0.384521484375,40.6878662109375,-173.682861328125
1758788033.9186926,-0.6953125,-0.15966796875,0.7490234375,26.30615234375,0.30517578125,-4.08935546875,-0.1593017578125,40.693359375,-173.73779296875
1758788033.9284532,-0.6953125,-0.15966796875,0.7490234375,26.30615234375,0.30517578125,-4.08935546875,0.0494384765625,40.704345703125,-173.7982177734375
1758788033.9386203,-0.76318359375,-0.0498046875,0.83349609375,29.9072265625,-1.28173828125,-5.0048828125,0.2911376953125,40.693359375,-173.8751220703125
1758788033.9485312,-0.76318359375,-0.0498046875,0.83349609375,29.9072265625,-1.28173828125,-5.0048828125,0.52734375,40.6878662109375,-173.946533203125
1758788033.9587312,-0.66259765625,0.13818359375,0.677734375,14.2822265625,-0.54931640625,-3.35693359375,0.6317138671875,40.693359375,-173.9959716796875
1758788033.968873,-0.66259765625,0.13818359375,0.677734375,14.2822265625,-0.54931640625,-3.35693359375,0.736083984375,40.6988525390625,-174.034423828125
1758788033.9786735,-0.60400390625,0.076171875,0.60693359375,-8.9111328125,-1.03759765625,-1.03759765625,0.63720703125,40.6988525390625,-174.04541015625
1758788033.9887064,-0.60400390625,0.076171875,0.60693359375,-8.9111328125,-1.03759765625,-1.03759765625,0.538330078125,40.6988525390625,-174.04541015625
1758788033.9989982,-0.71435546875,-0.01611328125,0.84814453125,-19.287109375,-2.197265625,1.28173828125,0.362548828125,40.6878662109375,-174.0179443359375
1758788034.008827,-0.71435546875,-0.01611328125,0.84814453125,-19.287109375,-2.197265625,1.28173828125,0.1812744140625,40.67138671875,-173.9959716796875
1758788034.0186014,-0.68310546875,-0.10498046875,0.8349609375,-2.197265625,-2.44140625,2.3193359375,0.17578125,40.6549072265625,-173.9630126953125
1758788034.0285754,-0.68310546875,-0.10498046875,0.8349609375,-2.197265625,-2.44140625,2.3193359375,0.1702880859375,40.638427734375,-173.935546875
1758788034.0386121,-0.619140625,-0.10009765625,0.62353515625,14.83154296875,-1.953125,1.28173828125,0.318603515625,40.62744140625,-173.9190673828125
1758788034.048991,-0.619140625,-0.10009765625,0.62353515625,14.83154296875,-1.953125,1.28173828125,0.46142578125,40.616455078125,-173.91357421875
1758788034.0586433,-0.6904296875,-0.01025390625,0.7236328125,25.634765625,-1.8310546875,0.91552734375,0.7086181640625,40.60546875,-173.902587890625
1758788034.06864,-0.6904296875,-0.01025390625,0.7236328125,25.634765625,-1.8310546875,0.91552734375,0.955810546875,40.5999755859375,-173.8970947265625
1758788034.0787199,-0.71240234375,0.05517578125,0.81103515625,20.6298828125,-0.8544921875,1.28173828125,1.1590576171875,40.5999755859375,-173.8861083984375
1758788034.089251,-0.71240234375,0.05517578125,0.81103515625,20.6298828125,-0.8544921875,1.28173828125,1.3623046875,40.5999755859375,-173.86962890625
1758788034.0987568,-0.66650390625,0.05859375,0.73828125,7.6904296875,-1.40380859375,2.50244140625,1.4501953125,40.594482421875,-173.8421630859375
1758788034.1087058,-0.66650390625,0.05859375,0.73828125,7.6904296875,-1.40380859375,2.50244140625,1.5380859375,40.5889892578125,-173.8092041015625
1758788034.1187525,-0.63330078125,0.01806640625,0.74365234375,0.9765625,-1.708984375,3.60107421875,1.571044921875,40.58349609375,-173.7652587890625
1758788034.1287262,-0.63330078125,0.01806640625,0.74365234375,0.9765625,-1.708984375,3.60107421875,1.60400390625,40.572509765625,-173.7213134765625
1758788034.1391659,-0.61083984375,0.0361328125,0.767578125,-9.46044921875,-1.64794921875,4.45556640625,1.5435791015625,40.5615234375,-173.6663818359375
1758788034.1487124,-0.61083984375,0.0361328125,0.767578125,-9.46044921875,-1.64794921875,4.45556640625,1.4776611328125,40.5450439453125,-173.6114501953125
1758788034.159073,-0.5947265625,0.0712890625,0.7626953125,-14.6484375,-2.3193359375,5.31005859375,1.3787841796875,40.5230712890625,-173.5455322265625
1758788034.1693592,-0.5947265625,0.0712890625,0.7626953125,-14.6484375,-2.3193359375,5.31005859375,1.2744140625,40.5010986328125,-173.4796142578125
1758788034.1809373,-0.62744140625,0.02001953125,0.70703125,-7.14111328125,-2.5634765625,5.4931640625,1.25244140625,40.4791259765625,-173.408203125
1758788034.1888962,-0.62744140625,0.02001953125,0.70703125,-7.14111328125,-2.5634765625,5.4931640625,1.23046875,40.45166015625,-173.3367919921875
1758788034.1989663,-0.677734375,-0.02099609375,0.7998046875,-4.33349609375,-4.0283203125,5.2490234375,1.2359619140625,40.4132080078125,-173.2763671875
1758788034.209418,-0.677734375,-0.02099609375,0.7998046875,-4.33349609375,-4.0283203125,5.2490234375,1.2359619140625,40.374755859375,-173.21044921875
1758788034.219034,-0.64404296875,0.00732421875,0.7744140625,-5.4931640625,-5.126953125,5.126953125,1.219482421875,40.31982421875,-173.1500244140625
1758788034.2288682,-0.64404296875,0.00732421875,0.7744140625,-5.4931640625,-5.126953125,5.126953125,1.20849609375,40.2703857421875,-173.089599609375
1758788034.238885,-0.61669921875,0.04443359375,0.833984375,-11.04736328125,-6.591796875,5.4931640625,1.142578125,40.2044677734375,-173.023681640625
1758788034.2488587,-0.61669921875,0.04443359375,0.833984375,-11.04736328125,-6.591796875,5.4931640625,1.07666015625,40.133056640625,-172.9632568359375
1758788034.2592857,-0.61328125,0.0380859375,0.755859375,-6.04248046875,-6.89697265625,5.7373046875,1.065673828125,40.0616455078125,-172.8973388671875
1758788034.26888,-0.61328125,0.0380859375,0.755859375,-6.04248046875,-6.89697265625,5.7373046875,1.0546875,39.990234375,-172.8314208984375
1758788034.2789056,-0.60107421875,0.03515625,0.705078125,-10.3759765625,-6.77490234375,5.4931640625,0.999755859375,39.9188232421875,-172.77099609375
1758788034.2891326,-0.60107421875,0.03515625,0.705078125,-10.3759765625,-6.77490234375,5.4931640625,0.9503173828125,39.8529052734375,-172.6995849609375
1758788034.2993946,-0.623046875,0.0625,0.76611328125,-20.01953125,-6.8359375,6.7138671875,0.81298828125,39.781494140625,-172.6171875
1758788034.3088984,-0.623046875,0.0625,0.76611328125,-20.01953125,-6.8359375,6.7138671875,0.6756591796875,39.7100830078125,-172.529296875
1758788034.3189883,-0.65478515625,0.03125,0.82177734375,-18.73779296875,-6.40869140625,6.65283203125,0.5548095703125,39.6441650390625,-172.4468994140625
1758788034.3289464,-0.65478515625,0.03125,0.82177734375,-18.73779296875,-6.40869140625,6.65283203125,0.4339599609375,39.5782470703125,-172.3590087890625
1758788034.339451,-0.65234375,-0.01025390625,0.74169921875,-11.5966796875,-4.45556640625,7.01904296875,0.384521484375,39.5343017578125,-172.265625
1758788034.348995,-0.65234375,-0.01025390625,0.74169921875,-11.5966796875,-4.45556640625,7.01904296875,0.3350830078125,39.4903564453125,-172.1722412109375
1758788034.3590093,-0.68115234375,-0.00146484375,0.779296875,-8.4228515625,-4.2724609375,7.4462890625,0.318603515625,39.451904296875,-172.0733642578125
1758788034.3690214,-0.68115234375,-0.00146484375,0.779296875,-8.4228515625,-4.2724609375,7.4462890625,0.3021240234375,39.4134521484375,-171.968994140625
1758788034.3793843,-0.62939453125,0.0244140625,0.74072265625,-13.61083984375,-2.3193359375,7.62939453125,0.2362060546875,39.3914794921875,-171.8646240234375
1758788034.3894916,-0.62939453125,0.0244140625,0.74072265625,-13.61083984375,-2.3193359375,7.62939453125,0.1702880859375,39.375,-171.76025390625
1758788034.3991022,-0.5810546875,0.03271484375,0.7294921875,-16.54052734375,-2.0751953125,8.48388671875,0.0823974609375,39.35302734375,-171.6448974609375
1758788034.409139,-0.5810546875,0.03271484375,0.7294921875,-16.54052734375,-2.0751953125,8.48388671875,0.0,39.3365478515625,-171.529541015625
1758788034.4190974,-0.6259765625,-0.02294921875,0.82568359375,-5.4931640625,-1.0986328125,8.9111328125,0.02197265625,39.3310546875,-171.40869140625
1758788034.4292576,-0.6259765625,-0.02294921875,0.82568359375,-5.4931640625,-1.0986328125,8.9111328125,0.0494384765625,39.320068359375,-171.287841796875
1758788034.4391992,-0.66455078125,-0.08154296875,0.85009765625,11.77978515625,-0.91552734375,7.50732421875,0.230712890625,39.30908203125,-171.1944580078125
1758788034.4492269,-0.66455078125,-0.08154296875,0.85009765625,11.77978515625,-0.91552734375,7.50732421875,0.406494140625,39.298095703125,-171.10107421875
1758788034.4591374,-0.71240234375,0.03369140625,0.857421875,10.68115234375,-1.28173828125,6.591796875,0.5657958984375,39.2816162109375,-171.0186767578125
1758788034.4694142,-0.71240234375,0.03369140625,0.857421875,10.68115234375,-1.28173828125,6.591796875,0.7196044921875,39.2706298828125,-170.936279296875
1758788034.4791672,-0.57763671875,0.12744140625,0.65478515625,-1.89208984375,-0.1220703125,6.591796875,0.758056640625,39.26513671875,-170.8538818359375
1758788034.489136,-0.57763671875,0.12744140625,0.65478515625,-1.89208984375,-0.1220703125,6.591796875,0.7965087890625,39.26513671875,-170.760498046875
1758788034.4992254,-0.591796875,0.0673828125,0.69091796875,-16.7236328125,-1.40380859375,6.4697265625,0.692138671875,39.254150390625,-170.6671142578125
1758788034.5095952,-0.591796875,0.0673828125,0.69091796875,-16.7236328125,-1.40380859375,6.4697265625,0.5877685546875,39.2431640625,-170.57373046875
1758788034.5192242,-0.65576171875,-0.0244140625,0.94775390625,-4.69970703125,-2.86865234375,5.92041015625,0.5987548828125,39.210205078125,-170.48583984375
1758788034.529171,-0.59814453125,-0.06884765625,0.79443359375,6.103515625,-4.5166015625,4.82177734375,0.6536865234375,39.1717529296875,-170.4144287109375
1758788034.5391862,-0.59814453125,-0.06884765625,0.79443359375,6.103515625,-4.5166015625,4.82177734375,0.758056640625,39.122314453125,-170.35400390625
1758788034.5492935,-0.5703125,-0.04248046875,0.63916015625,16.6015625,-5.4931640625,3.90625,0.9063720703125,39.0728759765625,-170.3045654296875
1758788034.559506,-0.5703125,-0.04248046875,0.63916015625,16.6015625,-5.4931640625,3.90625,1.0931396484375,39.012451171875,-170.255126953125
1758788034.5692704,-0.66259765625,0.04736328125,0.857421875,15.07568359375,-7.01904296875,2.62451171875,1.2689208984375,38.9520263671875,-170.22216796875
1758788034.5792968,-0.66259765625,0.04736328125,0.857421875,15.07568359375,-7.01904296875,2.62451171875,1.4337158203125,38.880615234375,-170.1947021484375
1758788034.5892456,-0.67138671875,0.076171875,0.81396484375,9.27734375,-5.9814453125,3.41796875,1.5765380859375,38.814697265625,-170.15625
1758788034.5997007,-0.67138671875,0.076171875,0.81396484375,9.27734375,-5.9814453125,3.41796875,1.69189453125,38.7542724609375,-170.1177978515625
1758788034.6093323,-0.626953125,0.046875,0.6767578125,5.31005859375,-6.28662109375,2.99072265625,1.7852783203125,38.69384765625,-170.0738525390625
1758788034.6193876,-0.626953125,0.046875,0.6767578125,5.31005859375,-6.28662109375,2.99072265625,1.8621826171875,38.6334228515625,-170.0299072265625
1758788034.629436,-0.62890625,0.076171875,0.7734375,-6.40869140625,-4.69970703125,3.35693359375,1.878662109375,38.583984375,-169.9859619140625
1758788034.6395686,-0.62890625,0.076171875,0.7734375,-6.40869140625,-4.69970703125,3.35693359375,1.845703125,38.5400390625,-169.9310302734375
1758788034.649378,-0.64501953125,0.05126953125,0.73828125,-11.04736328125,-1.89208984375,3.72314453125,1.790771484375,38.5125732421875,-169.8760986328125
1758788034.659479,-0.64501953125,0.05126953125,0.73828125,-11.04736328125,-1.89208984375,3.72314453125,1.7138671875,38.5015869140625,-169.815673828125
1758788034.669565,-0.6513671875,0.0009765625,0.70263671875,-8.72802734375,-1.8310546875,4.39453125,1.6534423828125,38.4906005859375,-169.749755859375
1758788034.6797817,-0.6513671875,0.0009765625,0.70263671875,-8.72802734375,-1.8310546875,4.39453125,1.60400390625,38.4796142578125,-169.6783447265625
1758788034.6894064,-0.74853515625,-0.0166015625,0.8447265625,-2.74658203125,-1.15966796875,4.45556640625,1.5875244140625,38.47412109375,-169.60693359375
1758788034.6994362,-0.74853515625,-0.0166015625,0.8447265625,-2.74658203125,-1.15966796875,4.45556640625,1.5985107421875,38.47412109375,-169.5355224609375
1758788034.7094097,-0.62158203125,0.005859375,0.79443359375,-7.8125,-1.40380859375,5.0048828125,1.58203125,38.47412109375,-169.4586181640625
1758788034.7199905,-0.62158203125,0.005859375,0.79443359375,-7.8125,-1.40380859375,5.0048828125,1.5435791015625,38.4686279296875,-169.3817138671875
1758788034.729399,-0.6171875,-0.001953125,0.71142578125,-4.08935546875,-1.03759765625,5.92041015625,1.5216064453125,38.463134765625,-169.29931640625
1758788034.7394385,-0.6171875,-0.001953125,0.71142578125,-4.08935546875,-1.03759765625,5.92041015625,1.527099609375,38.463134765625,-169.21142578125
1758788034.749412,-0.63818359375,0.02880859375,0.7626953125,-7.080078125,-0.30517578125,6.04248046875,1.51611328125,38.4686279296875,-169.12353515625
1758788034.7597394,-0.63818359375,0.02880859375,0.7626953125,-7.080078125,-0.30517578125,6.04248046875,1.494140625,38.47412109375,-169.03564453125
1758788034.7694705,-0.6298828125,0.1142578125,0.70849609375,-14.46533203125,0.30517578125,5.7373046875,1.4337158203125,38.4796142578125,-168.94775390625
1758788034.7795131,-0.6298828125,0.1142578125,0.70849609375,-14.46533203125,0.30517578125,5.7373046875,1.3348388671875,38.49609375,-168.85986328125
1758788034.7894843,-0.57275390625,0.05908203125,0.771484375,-22.64404296875,0.6103515625,6.8359375,1.20849609375,38.507080078125,-168.7554931640625
1758788034.7999089,-0.57275390625,0.05908203125,0.771484375,-22.64404296875,0.6103515625,6.8359375,1.0491943359375,38.5235595703125,-168.651123046875
1758788034.809626,-0.64013671875,-0.0224609375,0.8720703125,-5.9814453125,1.3427734375,6.65283203125,0.9722900390625,38.5345458984375,-168.5467529296875
1758788034.8195374,-0.64013671875,-0.0224609375,0.8720703125,-5.9814453125,1.3427734375,6.65283203125,0.9722900390625,38.5565185546875,-168.4478759765625
1758788034.8295271,-0.65869140625,-0.01171875,0.818359375,-10.68115234375,0.54931640625,5.37109375,0.94482421875,38.5675048828125,-168.365478515625
1758788034.8395934,-0.65869140625,-0.01171875,0.818359375,-10.68115234375,0.54931640625,5.37109375,0.8843994140625,38.572998046875,-168.28857421875
1758788034.8497005,-0.66259765625,0.125,0.80712890625,-22.88818359375,-0.18310546875,4.638671875,0.7635498046875,38.5784912109375,-168.2171630859375
1758788034.85954,-0.66259765625,0.125,0.80712890625,-22.88818359375,-0.18310546875,4.638671875,0.582275390625,38.5784912109375,-168.145751953125
1758788034.8695362,-0.5576171875,0.05810546875,0.68310546875,-29.84619140625,-0.1220703125,5.4931640625,0.37353515625,38.5784912109375,-168.0633544921875
1758788034.8795693,-0.5576171875,0.05810546875,0.68310546875,-29.84619140625,-0.1220703125,5.4931640625,0.1373291015625,38.5784912109375,-167.9754638671875
1758788034.889752,-0.56005859375,-0.02783203125,0.716796875,-23.98681640625,-0.42724609375,5.9814453125,-0.06591796875,38.5784912109375,-167.882080078125
1758788034.8999226,-0.56005859375,-0.02783203125,0.716796875,-23.98681640625,-0.42724609375,5.9814453125,-0.2362060546875,38.5784912109375,-167.7886962890625
1758788034.9095755,-0.650390625,-0.1103515625,0.87158203125,1.708984375,-0.18310546875,5.0048828125,-0.2911376953125,38.5784912109375,-167.706298828125
1758788034.91963,-0.650390625,-0.1103515625,0.87158203125,1.708984375,-0.18310546875,5.0048828125,-0.2252197265625,38.5784912109375,-167.6348876953125
1758788034.9295638,-0.67236328125,-0.05810546875,0.84228515625,13.0615234375,-0.42724609375,2.74658203125,-0.120849609375,38.572998046875,-167.5799560546875
1758788034.940085,-0.67236328125,-0.05810546875,0.84228515625,13.0615234375,-0.42724609375,2.74658203125,0.0274658203125,38.5675048828125,-167.5469970703125
1758788034.9496017,-0.65087890625,0.09130859375,0.78173828125,4.45556640625,-1.28173828125,2.3193359375,0.1318359375,38.56201171875,-167.5140380859375
1758788034.9596193,-0.65087890625,0.09130859375,0.78173828125,4.45556640625,-1.28173828125,2.3193359375,0.1922607421875,38.5455322265625,-167.4755859375
1758788034.9697495,-0.5458984375,0.09033203125,0.658203125,-7.01904296875,-0.1220703125,2.8076171875,0.2032470703125,38.5400390625,-167.4371337890625
1758788034.9803774,-0.5458984375,0.09033203125,0.658203125,-7.01904296875,-0.1220703125,2.8076171875,0.164794921875,38.5400390625,-167.3876953125
1758788034.9896975,-0.634765625,0.0283203125,0.81396484375,-23.37646484375,-1.40380859375,2.86865234375,0.0494384765625,38.5345458984375,-167.332763671875
1758788034.9997346,-0.634765625,0.0283203125,0.81396484375,-23.37646484375,-1.40380859375,2.86865234375,-0.1483154296875,38.5235595703125,-167.2833251953125
1758788035.0097191,-0.671875,-0.0498046875,0.919921875,-9.8876953125,-0.79345703125,3.11279296875,-0.274658203125,38.5125732421875,-167.2283935546875
1758788035.0201573,-0.671875,-0.0498046875,0.919921875,-9.8876953125,-0.79345703125,3.11279296875,-0.340576171875,38.507080078125,-167.178955078125
1758788035.0297406,-0.57666015625,-0.09326171875,0.69970703125,6.103515625,-0.79345703125,1.40380859375,-0.3350830078125,38.49609375,-167.14599609375
1758788035.0397742,-0.57666015625,-0.09326171875,0.69970703125,6.103515625,-0.79345703125,1.40380859375,-0.263671875,38.485107421875,-167.1240234375
1758788035.0497787,-0.6123046875,-0.0625,0.7021484375,17.578125,-0.732421875,0.06103515625,-0.142822265625,38.4796142578125,-167.113037109375
1758788035.0600028,-0.6123046875,-0.0625,0.7021484375,17.578125,-0.732421875,0.06103515625,0.02197265625,38.47412109375,-167.1075439453125
1758788035.0698001,-0.6171875,0.0107421875,0.88916015625,19.59228515625,-1.28173828125,-0.732421875,0.19775390625,38.463134765625,-167.113037109375
1758788035.0797815,-0.6171875,0.0107421875,0.88916015625,19.59228515625,-1.28173828125,-0.732421875,0.3790283203125,38.4521484375,-167.1240234375
1758788035.0898204,-0.64208984375,0.02099609375,0.845703125,20.3857421875,-1.0986328125,-0.54931640625,0.5657958984375,38.4356689453125,-167.135009765625
1758788035.1001778,-0.64208984375,0.02099609375,0.845703125,20.3857421875,-1.0986328125,-0.54931640625,0.758056640625,38.4246826171875,-167.14599609375
1758788035.109858,-0.60302734375,0.01513671875,0.7392578125,16.78466796875,-1.52587890625,-1.15966796875,0.9283447265625,38.408203125,-167.156982421875
1758788035.1198478,-0.60302734375,0.01513671875,0.7392578125,16.78466796875,-1.52587890625,-1.15966796875,1.0821533203125,38.3917236328125,-167.178955078125
1758788035.1298392,-0.5849609375,0.02978515625,0.75439453125,13.5498046875,-0.54931640625,-1.953125,1.2139892578125,38.3807373046875,-167.200927734375
1758788035.139832,-0.5849609375,0.02978515625,0.75439453125,13.5498046875,-0.54931640625,-1.953125,1.3238525390625,38.3697509765625,-167.222900390625
1758788035.1501405,-0.5849609375,0.07470703125,0.7900390625,3.41796875,0.06103515625,-2.13623046875,1.3897705078125,38.3697509765625,-167.2503662109375
1758788035.1598568,-0.5849609375,0.07470703125,0.7900390625,3.41796875,0.06103515625,-2.13623046875,1.4007568359375,38.3642578125,-167.2833251953125
1758788035.1698947,-0.603515625,0.0498046875,0.7470703125,-6.34765625,1.28173828125,-1.708984375,1.373291015625,38.3697509765625,-167.3052978515625
1758788035.1798809,-0.603515625,0.0498046875,0.7470703125,-6.34765625,1.28173828125,-1.708984375,1.29638671875,38.3807373046875,-167.32177734375
1758788035.1904612,-0.6494140625,0.0029296875,0.802734375,-3.5400390625,1.220703125,-2.01416015625,1.2359619140625,38.3917236328125,-167.3382568359375
1758788035.1998951,-0.6494140625,0.0029296875,0.802734375,-3.5400390625,1.220703125,-2.01416015625,1.1865234375,38.4027099609375,-167.3602294921875
1758788035.2099218,-0.67529296875,-0.0361328125,0.849609375,0.54931640625,1.0986328125,-3.23486328125,1.1480712890625,38.4136962890625,-167.3931884765625
1758788035.2201552,-0.67529296875,-0.0361328125,0.849609375,0.54931640625,1.0986328125,-3.23486328125,1.131591796875,38.4246826171875,-167.431640625
1758788035.2300227,-0.6044921875,-0.02392578125,0.7734375,10.80322265625,2.99072265625,-3.96728515625,1.153564453125,38.441162109375,-167.4755859375
1758788035.2399104,-0.6044921875,-0.02392578125,0.7734375,10.80322265625,2.99072265625,-3.96728515625,1.2249755859375,38.4686279296875,-167.530517578125
1758788035.249939,-0.66552734375,-0.0048828125,0.76416015625,18.37158203125,3.0517578125,-5.126953125,1.329345703125,38.5015869140625,-167.58544921875
1758788035.2599728,-0.66552734375,-0.0048828125,0.76416015625,18.37158203125,3.0517578125,-5.126953125,1.4666748046875,38.5345458984375,-167.6568603515625
1758788035.2704723,-0.6923828125,0.06982421875,0.748046875,0.6103515625,6.53076171875,-6.16455078125,1.5106201171875,38.583984375,-167.728271484375
1758788035.2799947,-0.6923828125,0.06982421875,0.748046875,0.6103515625,6.53076171875,-6.16455078125,1.461181640625,38.6553955078125,-167.7996826171875
1758788035.2900152,-0.6787109375,0.12353515625,0.6591796875,-13.0615234375,8.97216796875,-5.92041015625,1.351318359375,38.73779296875,-167.8656005859375
1758788035.3000934,-0.6787109375,0.12353515625,0.6591796875,-13.0615234375,8.97216796875,-5.92041015625,1.1810302734375,38.836669921875,-167.9205322265625
1758788035.3103685,-0.705078125,0.05126953125,0.76953125,-15.380859375,11.71875,-7.8125,0.9942626953125,38.9520263671875,-167.9864501953125
1758788035.3201914,-0.705078125,0.05126953125,0.76953125,-15.380859375,11.71875,-7.8125,0.791015625,39.0838623046875,-168.057861328125
1758788035.3300705,-0.68115234375,-0.05029296875,0.720703125,-4.5166015625,13.5498046875,-7.99560546875,0.63720703125,39.22119140625,-168.134765625
1758788035.3400955,-0.68115234375,-0.05029296875,0.720703125,-4.5166015625,13.5498046875,-7.99560546875,0.538330078125,39.3695068359375,-168.211669921875
1758788035.3500862,-0.64404296875,-0.052734375,0.759765625,9.27734375,11.3525390625,-8.72802734375,0.4998779296875,39.5068359375,-168.299560546875
1758788035.3606899,-0.64404296875,-0.052734375,0.759765625,9.27734375,11.3525390625,-8.72802734375,0.5218505859375,39.627685546875,-168.3984375
1758788035.370117,-0.65087890625,-0.00732421875,0.794921875,9.94873046875,9.21630859375,-8.36181640625,0.54931640625,39.7430419921875,-168.497314453125
1758788035.380026,-0.65087890625,-0.00732421875,0.794921875,9.94873046875,9.21630859375,-8.36181640625,0.5767822265625,39.8419189453125,-168.59619140625
1758788035.3900867,-0.54541015625,0.04833984375,0.73046875,-10.43701171875,7.2021484375,-4.638671875,0.5218505859375,39.9298095703125,-168.673095703125
1758788035.4001312,-0.54541015625,0.04833984375,0.73046875,-10.43701171875,7.2021484375,-4.638671875,0.3790283203125,40.0067138671875,-168.72802734375
1758788035.4105148,-0.58740234375,0.005859375,0.775390625,-14.16015625,4.8828125,-1.953125,0.230712890625,40.067138671875,-168.760986328125
1758788035.4201632,-0.58740234375,0.005859375,0.775390625,-14.16015625,4.8828125,-1.953125,0.076904296875,40.111083984375,-168.7884521484375
1758788035.4301212,-0.673828125,-0.115234375,0.81103515625,12.14599609375,3.84521484375,-1.89208984375,0.054931640625,40.155029296875,-168.8104248046875
1758788035.4401846,-0.673828125,-0.115234375,0.81103515625,12.14599609375,3.84521484375,-1.89208984375,0.1593017578125,40.18798828125,-168.8433837890625
1758788035.4502115,-0.69677734375,-0.09521484375,0.75927734375,27.16064453125,2.5634765625,-3.0517578125,0.32958984375,40.2154541015625,-168.8818359375
1758788035.4602103,-0.69677734375,-0.09521484375,0.75927734375,27.16064453125,2.5634765625,-3.0517578125,0.560302734375,40.242919921875,-168.936767578125
1758788035.4701846,-0.71142578125,0.06982421875,0.7275390625,16.11328125,2.25830078125,-2.74658203125,0.736083984375,40.264892578125,-168.9862060546875
1758788035.480158,-0.71142578125,0.06982421875,0.7275390625,16.11328125,2.25830078125,-2.74658203125,0.8624267578125,40.2923583984375,-169.024658203125
1758788035.4904664,-0.671875,0.14599609375,0.67333984375,-1.52587890625,2.685546875,-1.64794921875,0.911865234375,40.31982421875,-169.0521240234375
1758788035.5002294,-0.671875,0.14599609375,0.67333984375,-1.52587890625,2.685546875,-1.64794921875,0.87890625,40.352783203125,-169.068603515625
1758788035.5101855,-0.7001953125,0.0322265625,0.6884765625,-18.49365234375,2.38037109375,-1.0986328125,0.7745361328125,40.3912353515625,-169.07958984375
1758788035.5204225,-0.7001953125,0.0322265625,0.6884765625,-18.49365234375,2.38037109375,-1.0986328125,0.582275390625,40.4241943359375,-169.07958984375
1758788035.5307543,-0.716796875,-0.03955078125,0.775390625,-11.5966796875,2.99072265625,-0.6103515625,0.4339599609375,40.462646484375,-169.0740966796875
1758788035.5403674,-0.716796875,-0.03955078125,0.775390625,-11.5966796875,2.99072265625,-0.6103515625,0.318603515625,40.5010986328125,-169.0740966796875
1758788035.5503042,-0.6806640625,-0.05859375,0.69091796875,2.74658203125,2.8076171875,-0.9765625,0.2691650390625,40.5450439453125,-169.0740966796875
1758788035.560346,-0.6806640625,-0.05859375,0.69091796875,2.74658203125,2.8076171875,-0.9765625,0.28564453125,40.58349609375,-169.0740966796875
1758788035.570876,-0.6865234375,-0.0673828125,0.7578125,8.056640625,2.74658203125,-1.52587890625,0.3240966796875,40.62744140625,-169.0850830078125
1758788035.5814013,-0.6865234375,-0.0673828125,0.7578125,8.056640625,2.74658203125,-1.52587890625,0.384521484375,40.6658935546875,-169.0960693359375
1758788035.5903676,-0.669921875,0.0,0.69677734375,12.63427734375,3.7841796875,-1.46484375,0.4669189453125,40.7098388671875,-169.112548828125
1758788035.6004193,-0.669921875,0.0,0.69677734375,12.63427734375,3.7841796875,-1.46484375,0.5712890625,40.75927734375,-169.1290283203125
1758788035.6103792,-0.68505859375,0.04931640625,0.74169921875,10.7421875,2.5634765625,-1.220703125,0.6591796875,40.7977294921875,-169.1400146484375
1758788035.6207232,-0.68505859375,0.04931640625,0.74169921875,10.7421875,2.5634765625,-1.220703125,0.7525634765625,40.836181640625,-169.1510009765625
1758788035.630514,-0.6962890625,0.01123046875,0.82421875,10.6201171875,2.0751953125,-0.30517578125,0.8514404296875,40.869140625,-169.1510009765625
1758788035.640483,-0.6962890625,0.01123046875,0.82421875,10.6201171875,2.0751953125,-0.30517578125,0.9503173828125,40.8966064453125,-169.1510009765625
1758788035.650396,-0.6455078125,-0.0009765625,0.68994140625,7.87353515625,0.54931640625,0.06103515625,1.0272216796875,40.9130859375,-169.1455078125
1758788035.6609411,-0.6455078125,-0.0009765625,0.68994140625,7.87353515625,0.54931640625,0.06103515625,1.0986328125,40.9295654296875,-169.1455078125
1758788035.6704755,-0.6630859375,-0.005859375,0.751953125,10.8642578125,0.0,-0.1220703125,1.197509765625,40.93505859375,-169.1455078125
1758788035.6806896,-0.6630859375,-0.005859375,0.751953125,10.8642578125,0.0,-0.1220703125,1.29638671875,40.946044921875,-169.1510009765625
1758788035.690573,-0.69580078125,0.0205078125,0.7685546875,10.1318359375,0.0,-0.48828125,1.3897705078125,40.9515380859375,-169.156494140625
1758788035.700418,-0.69580078125,0.0205078125,0.7685546875,10.1318359375,0.0,-0.48828125,1.4776611328125,40.95703125,-169.1619873046875
1758788035.7109902,-0.65966796875,0.07080078125,0.697265625,2.86865234375,0.54931640625,-0.1220703125,1.4996337890625,40.9735107421875,-169.1619873046875
1758788035.720565,-0.65966796875,0.07080078125,0.697265625,2.86865234375,0.54931640625,-0.1220703125,1.527099609375,40.9844970703125,-169.1619873046875
1758788035.7306824,-0.69091796875,0.0625,0.72607421875,-1.953125,0.244140625,-0.42724609375,1.505126953125,41.0009765625,-169.156494140625
1758788035.74099,-0.69091796875,0.0625,0.72607421875,-1.953125,0.244140625,-0.42724609375,1.483154296875,41.011962890625,-169.156494140625
1758788035.750656,-0.69775390625,0.01123046875,0.6865234375,-2.38037109375,0.3662109375,-1.0986328125,1.4501953125,41.0284423828125,-169.156494140625
1758788035.7605708,-0.69775390625,0.01123046875,0.6865234375,-2.38037109375,0.3662109375,-1.0986328125,1.417236328125,41.044921875,-169.1619873046875
1758788035.7706137,-0.66552734375,0.00244140625,0.6767578125,2.01416015625,-0.244140625,-1.8310546875,1.4227294921875,41.055908203125,-169.1729736328125
1758788035.7809374,-0.66552734375,0.00244140625,0.6767578125,2.01416015625,-0.244140625,-1.8310546875,1.42822265625,41.06689453125,-169.1839599609375
1758788035.7907016,-0.681640625,0.00146484375,0.78076171875,7.50732421875,-0.42724609375,-2.3193359375,1.483154296875,41.0723876953125,-169.2059326171875
1758788035.8006117,-0.681640625,0.00146484375,0.78076171875,7.50732421875,-0.42724609375,-2.3193359375,1.5325927734375,41.0833740234375,-169.2333984375
1758788035.8106737,-0.6787109375,0.0244140625,0.7353515625,3.84521484375,-1.0986328125,-2.3193359375,1.549072265625,41.0833740234375,-169.25537109375
1758788035.8205872,-0.6787109375,0.0244140625,0.7353515625,3.84521484375,-1.0986328125,-2.3193359375,1.5655517578125,41.0833740234375,-169.2828369140625
1758788035.8310905,-0.6787109375,0.0244140625,0.7353515625,-7.32421875,-2.62451171875,-1.89208984375,1.4776611328125,41.06689453125,-169.29931640625
1758788035.8406625,-0.6787109375,0.0244140625,0.7353515625,-7.32421875,-2.62451171875,-1.89208984375,1.3897705078125,41.055908203125,-169.3157958984375
1758788035.8507025,-0.66015625,0.01611328125,0.7646484375,-6.4697265625,-2.86865234375,-1.5869140625,1.3128662109375,41.033935546875,-169.332275390625
1758788035.8606906,-0.66015625,0.01611328125,0.7646484375,-6.4697265625,-2.86865234375,-1.5869140625,1.2359619140625,41.0174560546875,-169.3487548828125
1758788035.871147,-0.65869140625,-0.017578125,0.71630859375,0.42724609375,-4.08935546875,-1.5869140625,1.23046875,40.9844970703125,-169.365234375
1758788035.8810704,-0.65869140625,-0.017578125,0.71630859375,0.42724609375,-4.08935546875,-1.5869140625,1.219482421875,40.9515380859375,-169.3817138671875
1758788035.890825,-0.6484375,-0.01806640625,0.76025390625,9.521484375,-4.5166015625,-1.708984375,1.29638671875,40.9130859375,-169.4036865234375
1758788035.900928,-0.6484375,-0.01806640625,0.76025390625,9.521484375,-4.5166015625,-1.708984375,1.373291015625,40.8746337890625,-169.4256591796875
1758788035.9108725,-0.6630859375,0.02587890625,0.75,3.84521484375,-4.8828125,-1.5869140625,1.395263671875,40.836181640625,-169.442138671875
1758788035.9212897,-0.6630859375,0.02587890625,0.75,3.84521484375,-4.8828125,-1.5869140625,1.417236328125,40.792236328125,-169.464111328125
1758788035.93077,-0.62255859375,0.083984375,0.732421875,-4.5166015625,-5.31005859375,-0.8544921875,1.3623046875,40.748291015625,-169.4696044921875
1758788035.940816,-0.62255859375,0.083984375,0.732421875,-4.5166015625,-5.31005859375,-0.8544921875,1.3128662109375,40.6988525390625,-169.4805908203125
1758788035.950804,-0.62890625,0.04638671875,0.76123046875,-12.51220703125,-5.18798828125,-0.244140625,1.1865234375,40.6549072265625,-169.47509765625
1758788035.9611673,-0.62890625,0.04638671875,0.76123046875,-12.51220703125,-5.18798828125,-0.244140625,1.065673828125,40.60546875,-169.47509765625
1758788035.9708464,-0.63525390625,0.0341796875,0.77734375,-17.76123046875,-5.126953125,0.06103515625,0.8953857421875,40.5560302734375,-169.4696044921875
1758788035.9807663,-0.63525390625,0.0341796875,0.77734375,-17.76123046875,-5.126953125,0.06103515625,0.7305908203125,40.506591796875,-169.464111328125
1758788035.9910073,-0.60205078125,-0.03271484375,0.79833984375,-9.70458984375,-4.638671875,0.30517578125,0.6427001953125,40.462646484375,-169.4586181640625
1758788036.0008595,-0.60205078125,-0.03271484375,0.79833984375,-9.70458984375,-4.638671875,0.30517578125,0.5548095703125,40.418701171875,-169.4586181640625
1758788036.0115502,-0.60302734375,-0.04833984375,0.7783203125,-1.03759765625,-4.69970703125,-0.30517578125,0.5438232421875,40.3692626953125,-169.4696044921875
1758788036.020874,-0.60302734375,-0.04833984375,0.7783203125,-1.03759765625,-4.69970703125,-0.30517578125,0.52734375,40.3143310546875,-169.4805908203125
1758788036.0309012,-0.61572265625,0.00634765625,0.81787109375,1.3427734375,-4.82177734375,-0.30517578125,0.538330078125,40.264892578125,-169.4970703125
1758788036.0409067,-0.61572265625,0.00634765625,0.81787109375,1.3427734375,-4.82177734375,-0.30517578125,0.54931640625,40.2099609375,-169.5135498046875
1758788036.051057,-0.6083984375,0.06884765625,0.79736328125,-0.8544921875,-4.82177734375,0.6103515625,0.5438232421875,40.155029296875,-169.5135498046875
1758788036.0609505,-0.6083984375,0.06884765625,0.79736328125,-0.8544921875,-4.82177734375,0.6103515625,0.54931640625,40.10009765625,-169.51904296875
1758788036.0709233,-0.6259765625,0.04443359375,0.79150390625,-16.90673828125,-5.43212890625,1.40380859375,0.3955078125,40.0396728515625,-169.508056640625
1758788036.0809438,-0.6259765625,0.04443359375,0.79150390625,-16.90673828125,-5.43212890625,1.40380859375,0.2471923828125,39.9737548828125,-169.4970703125
1758788036.091567,-0.5927734375,-0.00244140625,0.77490234375,-21.1181640625,-5.2490234375,2.8076171875,0.06591796875,39.913330078125,-169.4696044921875
1758788036.101068,-0.5927734375,-0.00244140625,0.77490234375,-21.1181640625,-5.2490234375,2.8076171875,-0.10986328125,39.8529052734375,-169.442138671875
1758788036.1111085,-0.59033203125,-0.02978515625,0.7373046875,-14.46533203125,-5.0048828125,3.23486328125,-0.2197265625,39.7979736328125,-169.4036865234375
1758788036.121058,-0.59033203125,-0.02978515625,0.7373046875,-14.46533203125,-5.0048828125,3.23486328125,-0.32958984375,39.737548828125,-169.3707275390625
1758788036.1310985,-0.65234375,-0.05810546875,0.7861328125,1.77001953125,-4.2724609375,2.9296875,-0.2801513671875,39.6881103515625,-169.34326171875
1758788036.1415222,-0.65234375,-0.05810546875,0.7861328125,1.77001953125,-4.2724609375,2.9296875,-0.24169921875,39.6441650390625,-169.3157958984375
1758788036.1511664,-0.6630859375,-0.0849609375,0.74169921875,20.751953125,-3.5400390625,2.38037109375,-0.0164794921875,39.605712890625,-169.2938232421875
1758788036.161149,-0.6630859375,-0.0849609375,0.74169921875,20.751953125,-3.5400390625,2.38037109375,0.19775390625,39.5672607421875,-169.2718505859375
1758788036.1711624,-0.68896484375,-0.02685546875,0.779296875,22.27783203125,-2.74658203125,1.52587890625,0.4229736328125,39.539794921875,-169.2608642578125
1758788036.1813788,-0.68896484375,-0.02685546875,0.779296875,22.27783203125,-2.74658203125,1.52587890625,0.6427001953125,39.5123291015625,-169.2498779296875
1758788036.191055,-0.705078125,0.10302734375,0.81396484375,8.11767578125,-1.46484375,1.46484375,0.7305908203125,39.5013427734375,-169.2388916015625
1758788036.2010515,-0.705078125,0.10302734375,0.81396484375,8.11767578125,-1.46484375,1.46484375,0.8184814453125,39.48486328125,-169.222412109375
1758788036.2111034,-0.6494140625,0.16015625,0.71923828125,-12.0849609375,-0.42724609375,1.8310546875,0.714111328125,39.48486328125,-169.1949462890625
1758788036.2213879,-0.6494140625,0.16015625,0.71923828125,-12.0849609375,-0.42724609375,1.8310546875,0.615234375,39.48486328125,-169.156494140625
1758788036.2312148,-0.62646484375,0.033203125,0.736328125,-15.13671875,0.79345703125,1.89208984375,0.4888916015625,39.5013427734375,-169.1180419921875
1758788036.2411075,-0.62646484375,0.033203125,0.736328125,-15.13671875,0.79345703125,1.89208984375,0.3680419921875,39.5123291015625,-169.07958984375
1758788036.2512147,-0.63525390625,-0.072265625,0.779296875,-10.55908203125,1.0986328125,0.8544921875,0.2801513671875,39.52880859375,-169.0521240234375
1758788036.2614136,-0.63525390625,-0.072265625,0.779296875,-10.55908203125,1.0986328125,0.8544921875,0.186767578125,39.539794921875,-169.03564453125
1758788036.2713213,-0.63916015625,-0.068359375,0.79541015625,6.40869140625,1.5869140625,-0.18310546875,0.2471923828125,39.561767578125,-169.03564453125
1758788036.2811599,-0.63916015625,-0.068359375,0.79541015625,6.40869140625,1.5869140625,-0.18310546875,0.3076171875,39.5782470703125,-169.03564453125
1758788036.2911897,-0.60693359375,-0.01318359375,0.76123046875,16.6015625,1.77001953125,-1.5869140625,0.46142578125,39.6002197265625,-169.0576171875
1758788036.3011842,-0.60693359375,-0.01318359375,0.76123046875,16.6015625,1.77001953125,-1.5869140625,0.604248046875,39.61669921875,-169.07958984375
1758788036.3117082,-0.66748046875,0.0546875,0.82177734375,12.20703125,0.9765625,-2.01416015625,0.7086181640625,39.627685546875,-169.1015625
1758788036.3212008,-0.66748046875,0.0546875,0.82177734375,12.20703125,0.9765625,-2.01416015625,0.81298828125,39.6331787109375,-169.1290283203125
1758788036.3312802,-0.6337890625,0.01611328125,0.755859375,7.26318359375,0.48828125,-2.0751953125,0.8624267578125,39.638671875,-169.156494140625
1758788036.3412597,-0.6337890625,0.01611328125,0.755859375,7.26318359375,0.48828125,-2.0751953125,0.9173583984375,39.6441650390625,-169.1839599609375
1758788036.3518572,-0.58349609375,-0.02099609375,0.7197265625,8.48388671875,-0.732421875,-1.8310546875,0.9832763671875,39.638671875,-169.2059326171875
1758788036.3613632,-0.58349609375,-0.02099609375,0.7197265625,8.48388671875,-0.732421875,-1.8310546875,1.0491943359375,39.627685546875,-169.2333984375
1758788036.3713818,-0.58935546875,-0.00537109375,0.8154296875,13.24462890625,-1.5869140625,-1.708984375,1.16455078125,39.6112060546875,-169.2608642578125
1758788036.381379,-0.58935546875,-0.00537109375,0.8154296875,13.24462890625,-1.5869140625,-1.708984375,1.2744140625,39.5947265625,-169.2938232421875
1758788036.391557,-0.5908203125,0.0107421875,0.87255859375,13.5498046875,-2.25830078125,-1.46484375,1.3897705078125,39.561767578125,-169.3267822265625
1758788036.4014416,-0.5908203125,0.0107421875,0.87255859375,13.5498046875,-2.25830078125,-1.46484375,1.505126953125,39.5343017578125,-169.3597412109375
1758788036.4113533,-0.60302734375,0.0283203125,0.7822265625,12.39013671875,-3.23486328125,-1.15966796875,1.6094970703125,39.4903564453125,-169.38720703125
1758788036.4213765,-0.60302734375,0.0283203125,0.7822265625,12.39013671875,-3.23486328125,-1.15966796875,1.7138671875,39.451904296875,-169.420166015625
1758788036.4320068,-0.62255859375,0.01708984375,0.78662109375,11.5966796875,-3.72314453125,-1.220703125,1.812744140625,39.4024658203125,-169.453125
1758788036.441446,-0.62255859375,0.01708984375,0.78662109375,11.5966796875,-3.72314453125,-1.220703125,1.91162109375,39.3585205078125,-169.486083984375
1758788036.45136,-0.63916015625,0.0283203125,0.77392578125,9.033203125,-3.90625,-1.0986328125,1.9830322265625,39.3145751953125,-169.5135498046875
1758788036.4614449,-0.63916015625,0.0283203125,0.77392578125,9.033203125,-3.90625,-1.0986328125,2.0599365234375,39.26513671875,-169.5465087890625
1758788036.4718366,-0.6181640625,0.052734375,0.74755859375,3.7841796875,-3.41796875,-1.15966796875,2.076416015625,39.2266845703125,-169.573974609375
1758788036.4822905,-0.6181640625,0.052734375,0.74755859375,3.7841796875,-3.41796875,-1.15966796875,2.1038818359375,39.188232421875,-169.595947265625
1758788036.4914813,-0.62744140625,0.08056640625,0.73779296875,-0.91552734375,-2.99072265625,-0.9765625,2.0819091796875,39.1552734375,-169.617919921875
1758788036.5015595,-0.62744140625,0.08056640625,0.73779296875,-0.91552734375,-2.99072265625,-0.9765625,2.0654296875,39.1278076171875,-169.6343994140625
1758788036.511977,-0.6474609375,0.03662109375,0.77099609375,-2.62451171875,-1.5869140625,-1.28173828125,2.032470703125,39.1058349609375,-169.65087890625
1758788036.521594,-0.6474609375,0.03662109375,0.77099609375,-2.62451171875,-1.5869140625,-1.28173828125,1.9940185546875,39.0948486328125,-169.6673583984375
1758788036.5315313,-0.66015625,0.0048828125,0.74267578125,-4.0283203125,-0.54931640625,-0.9765625,1.9500732421875,39.08935546875,-169.6783447265625
1758788036.5414686,-0.66015625,0.0048828125,0.74267578125,-4.0283203125,-0.54931640625,-0.9765625,1.900634765625,39.0838623046875,-169.6893310546875
1758788036.551883,-0.689453125,0.01318359375,0.7734375,-2.3193359375,0.244140625,-1.220703125,1.86767578125,39.08935546875,-169.705810546875
1758788036.5615737,-0.689453125,0.01318359375,0.7734375,-2.3193359375,0.244140625,-1.220703125,1.834716796875,39.100341796875,-169.716796875
1758788036.5715308,-0.69091796875,0.01123046875,0.7236328125,4.94384765625,1.28173828125,-1.28173828125,1.8731689453125,39.1168212890625,-169.727783203125
1758788036.5816805,-0.69091796875,0.01123046875,0.7236328125,4.94384765625,1.28173828125,-1.28173828125,1.91162109375,39.1387939453125,-169.7332763671875
1758788036.5917041,-0.67578125,0.02294921875,0.7490234375,-3.2958984375,1.220703125,-0.9765625,1.8731689453125,39.1607666015625,-169.73876953125
1758788036.6022322,-0.67578125,0.02294921875,0.7490234375,-3.2958984375,1.220703125,-0.9765625,1.8292236328125,39.1827392578125,-169.7442626953125
1758788036.6116738,-0.65966796875,0.0380859375,0.80908203125,-8.056640625,2.62451171875,-0.30517578125,1.746826171875,39.22119140625,-169.73876953125
1758788036.6216462,-0.65966796875,0.0380859375,0.80908203125,-8.056640625,2.62451171875,-0.30517578125,1.6644287109375,39.254150390625,-169.7332763671875
1758788036.6316833,-0.64599609375,0.01318359375,0.7109375,-0.48828125,3.41796875,0.0,1.6644287109375,39.298095703125,-169.7222900390625
1758788036.6417,-0.65771484375,-0.01513671875,0.76220703125,6.4697265625,2.8076171875,0.0,1.69189453125,39.3365478515625,-169.716796875
1758788036.6516485,-0.65771484375,-0.01513671875,0.76220703125,6.4697265625,2.8076171875,0.0,1.7578125,39.375,-169.705810546875
1758788036.6617136,-0.64501953125,0.01123046875,0.787109375,7.568359375,2.8076171875,0.6103515625,1.8292236328125,39.4134521484375,-169.7003173828125
1758788036.671783,-0.64501953125,0.01123046875,0.787109375,7.568359375,2.8076171875,0.6103515625,1.9061279296875,39.4464111328125,-169.683837890625
1758788036.6819515,-0.6123046875,0.06396484375,0.72314453125,-5.06591796875,2.38037109375,1.52587890625,1.922607421875,39.4793701171875,-169.6673583984375
1758788036.6917593,-0.6123046875,0.06396484375,0.72314453125,-5.06591796875,2.38037109375,1.52587890625,1.8841552734375,39.5068359375,-169.639892578125
1758788036.7016926,-0.63427734375,0.07861328125,0.7841796875,-8.30078125,2.25830078125,2.01416015625,1.8292236328125,39.5343017578125,-169.6124267578125
1758788036.711743,-0.63427734375,0.07861328125,0.7841796875,-8.30078125,2.25830078125,2.01416015625,1.768798828125,39.561767578125,-169.5794677734375
1758788036.7217047,-0.62548828125,0.05126953125,0.7724609375,-10.80322265625,2.5634765625,2.50244140625,1.6973876953125,39.5892333984375,-169.541015625
1758788036.7321439,-0.62548828125,0.05126953125,0.7724609375,-10.80322265625,2.5634765625,2.50244140625,1.614990234375,39.61669921875,-169.5025634765625
1758788036.7417197,-0.595703125,0.0078125,0.78076171875,-11.16943359375,1.953125,2.74658203125,1.5380859375,39.638671875,-169.4586181640625
1758788036.7518072,-0.595703125,0.0078125,0.78076171875,-11.16943359375,1.953125,2.74658203125,1.4556884765625,39.6551513671875,-169.420166015625
1758788036.7617316,-0.62109375,-0.03515625,0.8349609375,-5.67626953125,2.197265625,2.74658203125,1.4007568359375,39.6771240234375,-169.38720703125
1758788036.7721267,-0.62109375,-0.03515625,0.8349609375,-5.67626953125,2.197265625,2.74658203125,1.3677978515625,39.693603515625,-169.354248046875
1758788036.7837567,-0.6015625,0.01318359375,0.75927734375,-4.0283203125,2.5634765625,2.50244140625,1.34033203125,39.7100830078125,-169.3267822265625
1758788036.791788,-0.6015625,0.01318359375,0.75927734375,-4.0283203125,2.5634765625,2.50244140625,1.3238525390625,39.7320556640625,-169.3048095703125
1758788036.801845,-0.63720703125,0.04443359375,0.8046875,-2.13623046875,1.8310546875,1.52587890625,1.3128662109375,39.74853515625,-169.2828369140625
1758788036.8118477,-0.63720703125,0.04443359375,0.8046875,-2.13623046875,1.8310546875,1.52587890625,1.3018798828125,39.759521484375,-169.2718505859375
1758788036.8223565,-0.6552734375,0.056640625,0.796875,-3.90625,2.3193359375,0.9765625,1.285400390625,39.7760009765625,-169.266357421875
1758788036.831904,-0.6552734375,0.056640625,0.796875,-3.90625,2.3193359375,0.9765625,1.2579345703125,39.79248046875,-169.25537109375
1758788036.8418908,-0.6552734375,0.056640625,0.796875,-9.6435546875,1.77001953125,0.91552734375,1.20849609375,39.803466796875,-169.2498779296875
1758788036.8519545,-0.6455078125,0.03515625,0.76708984375,-9.6435546875,1.77001953125,0.91552734375,1.1260986328125,39.8199462890625,-169.2388916015625
1758788036.8622785,-0.61376953125,0.033203125,0.7451171875,-15.07568359375,2.38037109375,0.6103515625,1.0162353515625,39.83642578125,-169.2279052734375
1758788036.8720067,-0.61376953125,0.033203125,0.7451171875,-15.07568359375,2.38037109375,0.6103515625,0.87890625,39.8529052734375,-169.222412109375
1758788036.8819358,-0.6171875,0.02099609375,0.77099609375,-15.68603515625,1.953125,0.42724609375,0.736083984375,39.869384765625,-169.2169189453125
1758788036.891976,-0.6171875,0.02099609375,0.77099609375,-15.68603515625,1.953125,0.42724609375,0.59326171875,39.8858642578125,-169.21142578125
1758788036.9022226,-0.60400390625,-0.015625,0.76904296875,-5.18798828125,2.62451171875,-0.244140625,0.4998779296875,39.90234375,-169.21142578125
1758788036.9122732,-0.60400390625,-0.015625,0.76904296875,-5.18798828125,2.62451171875,-0.244140625,0.4559326171875,39.92431640625,-169.2169189453125
1758788036.92189,-0.6220703125,-0.046875,0.74658203125,8.97216796875,2.5634765625,-1.89208984375,0.472412109375,39.9462890625,-169.2388916015625
1758788036.9319515,-0.6220703125,-0.046875,0.74658203125,8.97216796875,2.5634765625,-1.89208984375,0.5438232421875,39.9627685546875,-169.2718505859375
1758788036.9419577,-0.63671875,-0.04248046875,0.8203125,20.751953125,2.5634765625,-3.60107421875,0.670166015625,39.9847412109375,-169.3157958984375
1758788036.9521422,-0.63671875,-0.04248046875,0.8203125,20.751953125,2.5634765625,-3.60107421875,0.845947265625,40.0067138671875,-169.376220703125
1758788036.9619703,-0.66748046875,0.0146484375,0.798828125,23.98681640625,2.5634765625,-4.94384765625,1.0272216796875,40.023193359375,-169.442138671875
1758788036.9720345,-0.66748046875,0.0146484375,0.798828125,23.98681640625,2.5634765625,-4.94384765625,1.219482421875,40.045166015625,-169.5245361328125
1758788036.9820447,-0.67529296875,0.09326171875,0.7998046875,13.00048828125,2.0751953125,-5.9814453125,1.351318359375,40.0616455078125,-169.60693359375
1758788036.9924967,-0.67529296875,0.09326171875,0.7998046875,13.00048828125,2.0751953125,-5.9814453125,1.42822265625,40.078125,-169.6893310546875
1758788037.001997,-0.640625,0.12255859375,0.75146484375,-6.04248046875,2.0751953125,-5.126953125,1.417236328125,40.0946044921875,-169.7662353515625
1758788037.0120356,-0.640625,0.12255859375,0.75146484375,-6.04248046875,2.0751953125,-5.126953125,1.318359375,40.111083984375,-169.8321533203125
1758788037.0220308,-0.609375,0.04296875,0.7568359375,-16.6015625,2.0751953125,-4.82177734375,1.175537109375,40.133056640625,-169.892578125
1758788037.032279,-0.609375,0.04296875,0.7568359375,-16.6015625,2.0751953125,-4.82177734375,0.977783203125,40.1495361328125,-169.9530029296875
1758788037.042068,-0.650390625,-0.04296875,0.787109375,-8.72802734375,2.38037109375,-5.859375,0.8184814453125,40.166015625,-170.0189208984375
1758788037.0520365,-0.650390625,-0.04296875,0.787109375,-8.72802734375,2.38037109375,-5.859375,0.692138671875,40.18798828125,-170.09033203125
1758788037.062077,-0.64501953125,-0.068359375,0.77197265625,11.04736328125,2.685546875,-6.9580078125,0.6536865234375,40.2044677734375,-170.17822265625
1758788037.0724885,-0.64501953125,-0.068359375,0.77197265625,11.04736328125,2.685546875,-6.9580078125,0.7086181640625,40.23193359375,-170.277099609375
1758788037.0821083,-0.6142578125,-0.03271484375,0.7060546875,22.8271484375,2.74658203125,-8.30078125,0.81298828125,40.25390625,-170.3814697265625
1758788037.0921159,-0.6142578125,-0.03271484375,0.7060546875,22.8271484375,2.74658203125,-8.30078125,0.966796875,40.2813720703125,-170.496826171875
1758788037.1021686,-0.6689453125,-0.00830078125,0.79736328125,23.86474609375,2.74658203125,-7.9345703125,1.12060546875,40.3033447265625,-170.6121826171875
1758788037.1121871,-0.6689453125,-0.00830078125,0.79736328125,23.86474609375,2.74658203125,-7.9345703125,1.285400390625,40.330810546875,-170.7275390625
1758788037.1224532,-0.7041015625,0.0166015625,0.8134765625,15.7470703125,3.96728515625,-8.544921875,1.40625,40.36376953125,-170.8428955078125
1758788037.132241,-0.7041015625,0.0166015625,0.8134765625,15.7470703125,3.96728515625,-8.544921875,1.483154296875,40.4022216796875,-170.9637451171875
1758788037.1422215,-0.64990234375,0.06494140625,0.662109375,11.65771484375,5.4931640625,-9.46044921875,1.5380859375,40.45166015625,-171.0845947265625
1758788037.1522114,-0.64990234375,0.06494140625,0.662109375,11.65771484375,5.4931640625,-9.46044921875,1.571044921875,40.506591796875,-171.2109375
1758788037.162623,-0.68505859375,0.04541015625,0.7001953125,17.63916015625,5.79833984375,-10.80322265625,1.6259765625,40.5670166015625,-171.3427734375
1758788037.1722312,-0.68505859375,0.04541015625,0.7001953125,17.63916015625,5.79833984375,-10.80322265625,1.7083740234375,40.6329345703125,-171.485595703125
1758788037.1821573,-0.70556640625,0.01416015625,0.7880859375,18.6767578125,6.9580078125,-11.71875,1.7962646484375,40.704345703125,-171.62841796875
1758788037.192187,-0.70556640625,0.01416015625,0.7880859375,18.6767578125,6.9580078125,-11.71875,1.878662109375,40.78125,-171.7767333984375
1758788037.2024453,-0.6689453125,0.02734375,0.74072265625,14.70947265625,8.11767578125,-12.26806640625,1.9390869140625,40.8636474609375,-171.9305419921875
1758788037.2122755,-0.6689453125,0.02734375,0.74072265625,14.70947265625,8.11767578125,-12.26806640625,1.9830322265625,40.95703125,-172.08984375
1758788037.2222502,-0.65966796875,0.01416015625,0.73779296875,14.404296875,8.4228515625,-12.75634765625,2.0159912109375,41.044921875,-172.2491455078125
1758788037.232308,-0.65966796875,0.01416015625,0.73779296875,14.404296875,8.4228515625,-12.75634765625,2.0489501953125,41.1383056640625,-172.4139404296875
1758788037.2427158,-0.68505859375,0.021484375,0.77978515625,18.310546875,8.60595703125,-13.7939453125,2.098388671875,41.231689453125,-172.5897216796875
1758788037.2523062,-0.68505859375,0.021484375,0.77978515625,18.310546875,8.60595703125,-13.7939453125,2.1588134765625,41.3250732421875,-172.77099609375
1758788037.2622952,-0.65234375,0.03564453125,0.7060546875,18.37158203125,8.4228515625,-14.22119140625,2.2137451171875,41.4129638671875,-172.957763671875
1758788037.2722957,-0.65234375,0.03564453125,0.7060546875,18.37158203125,8.4228515625,-14.22119140625,2.274169921875,41.50634765625,-173.14453125
1758788037.2827027,-0.62841796875,0.0263671875,0.74169921875,21.484375,7.50732421875,-14.2822265625,2.3455810546875,41.59423828125,-173.3367919921875
1758788037.2922995,-0.62841796875,0.0263671875,0.74169921875,21.484375,7.50732421875,-14.2822265625,2.4334716796875,41.671142578125,-173.529052734375
1758788037.3023093,-0.63525390625,0.03369140625,0.7763671875,13.18359375,6.7138671875,-13.427734375,2.48291015625,41.748046875,-173.7158203125
1758788037.3127549,-0.63525390625,0.03369140625,0.7763671875,13.18359375,6.7138671875,-13.427734375,2.493896484375,41.8194580078125,-173.902587890625
1758788037.3224318,-0.63525390625,0.03369140625,0.7763671875,-2.99072265625,5.126953125,-11.8408203125,2.427978515625,41.8798828125,-174.0838623046875
1758788037.3324058,-0.62939453125,0.07470703125,0.7861328125,-2.99072265625,5.126953125,-11.8408203125,2.296142578125,41.9293212890625,-174.2486572265625
1758788037.3423746,-0.61669921875,0.04150390625,0.763671875,-6.77490234375,4.638671875,-10.19287109375,2.1533203125,41.9732666015625,-174.407958984375
1758788037.3524103,-0.61669921875,0.04150390625,0.763671875,-6.77490234375,4.638671875,-10.19287109375,1.9940185546875,42.01171875,-174.561767578125
1758788037.363016,-0.62890625,-0.02685546875,0.72314453125,-0.6103515625,3.90625,-10.19287109375,1.8731689453125,42.0501708984375,-174.7100830078125
1758788037.3725052,-0.62890625,-0.02685546875,0.72314453125,-0.6103515625,3.90625,-10.19287109375,1.77978515625,42.07763671875,-174.8638916015625
1758788037.3827686,-0.64697265625,-0.04052734375,0.74755859375,11.29150390625,2.62451171875,-11.1083984375,1.73583984375,42.1051025390625,-175.023193359375
1758788037.3925421,-0.64697265625,-0.04052734375,0.74755859375,11.29150390625,2.62451171875,-11.1083984375,1.746826171875,42.1270751953125,-175.1934814453125
1758788037.4031534,-0.673828125,0.01416015625,0.76611328125,12.75634765625,2.0751953125,-11.23046875,1.7578125,42.1435546875,-175.36376953125
1758788037.4125173,-0.673828125,0.01416015625,0.76611328125,12.75634765625,2.0751953125,-11.23046875,1.77978515625,42.1600341796875,-175.53955078125
1758788037.4225419,-0.68798828125,0.06201171875,0.7060546875,9.033203125,1.46484375,-11.3525390625,1.7852783203125,42.1710205078125,-175.7098388671875
1758788037.432534,-0.68798828125,0.06201171875,0.7060546875,9.033203125,1.46484375,-11.3525390625,1.768798828125,42.1820068359375,-175.880126953125
1758788037.4425218,-0.6923828125,0.033203125,0.76025390625,-0.91552734375,0.6103515625,-10.986328125,1.7083740234375,42.1929931640625,-176.044921875
1758788037.452629,-0.6923828125,0.033203125,0.76025390625,-0.91552734375,0.6103515625,-10.986328125,1.5985107421875,42.198486328125,-176.209716796875
1758788037.4625006,-0.67529296875,0.0234375,0.75634765625,-4.69970703125,0.30517578125,-10.55908203125,1.4776611328125,42.198486328125,-176.3690185546875
1758788037.472622,-0.67529296875,0.0234375,0.75634765625,-4.69970703125,0.30517578125,-10.55908203125,1.3348388671875,42.2039794921875,-176.5228271484375
1758788037.4829721,-0.654296875,-0.01806640625,0.68212890625,4.8828125,-0.3662109375,-10.80322265625,1.241455078125,42.198486328125,-176.68212890625
1758788037.4929721,-0.654296875,-0.01806640625,0.68212890625,4.8828125,-0.3662109375,-10.80322265625,1.1920166015625,42.198486328125,-176.8414306640625
1758788037.502551,-0.68701171875,-0.0302734375,0.708984375,18.5546875,-0.67138671875,-11.41357421875,1.20849609375,42.1929931640625,-177.000732421875
1758788037.5126078,-0.68701171875,-0.0302734375,0.708984375,18.5546875,-0.67138671875,-11.41357421875,1.2908935546875,42.1875,-177.16552734375
1758788037.5231173,-0.70361328125,-0.00390625,0.73779296875,13.24462890625,-1.03759765625,-11.8408203125,1.34033203125,42.1820068359375,-177.3358154296875
1758788037.5326514,-0.70361328125,-0.00390625,0.73779296875,13.24462890625,-1.03759765625,-11.8408203125,1.3568115234375,42.176513671875,-177.5115966796875
1758788037.542569,-0.7021484375,0.06689453125,0.72802734375,1.953125,-1.220703125,-10.986328125,1.3238525390625,42.1710205078125,-177.6763916015625
1758788037.5526297,-0.7021484375,0.06689453125,0.72802734375,1.953125,-1.220703125,-10.986328125,1.2469482421875,42.16552734375,-177.8302001953125
1758788037.5625887,-0.67041015625,0.04833984375,0.70849609375,-4.0283203125,-0.48828125,-9.765625,1.142578125,42.16552734375,-177.978515625
1758788037.5731218,-0.67041015625,0.04833984375,0.70849609375,-4.0283203125,-0.48828125,-9.765625,1.0162353515625,42.16552734375,-178.1158447265625
1758788037.5826006,-0.66845703125,0.02685546875,0.72998046875,-10.19287109375,-0.42724609375,-9.21630859375,0.8624267578125,42.16552734375,-178.2476806640625
1758788037.5926402,-0.66845703125,0.02685546875,0.72998046875,-10.19287109375,-0.42724609375,-9.21630859375,0.6866455078125,42.1710205078125,-178.3740234375
1758788037.6026928,-0.6669921875,-0.02294921875,0.78466796875,-2.0751953125,0.30517578125,-8.72802734375,0.54931640625,42.1710205078125,-178.5003662109375
1758788037.6131816,-0.6669921875,-0.02294921875,0.78466796875,-2.0751953125,0.30517578125,-8.72802734375,0.4559326171875,42.176513671875,-178.6212158203125
1758788037.6227694,-0.6298828125,-0.0576171875,0.70361328125,3.11279296875,0.06103515625,-8.72802734375,0.384521484375,42.1820068359375,-178.74755859375
1758788037.6328547,-0.6298828125,-0.0576171875,0.70361328125,3.11279296875,0.06103515625,-8.72802734375,0.3350830078125,42.1820068359375,-178.87939453125
1758788037.6428876,-0.65869140625,-0.04052734375,0.78466796875,5.43212890625,-0.244140625,-7.8125,0.3021240234375,42.1820068359375,-179.000244140625
1758788037.652826,-0.65869140625,-0.04052734375,0.78466796875,5.43212890625,-0.244140625,-7.8125,0.28564453125,42.1820068359375,-179.12109375
1758788037.6631947,-0.69873046875,0.01904296875,0.78466796875,6.4697265625,-0.18310546875,-7.26318359375,0.2691650390625,42.176513671875,-179.241943359375
1758788037.6727433,-0.69873046875,0.01904296875,0.78466796875,6.4697265625,-0.18310546875,-7.26318359375,0.263671875,42.176513671875,-179.3572998046875
1758788037.6830566,-0.67138671875,0.07177734375,0.6904296875,-0.48828125,-0.30517578125,-7.01904296875,0.230712890625,42.1710205078125,-179.47265625
1758788037.6928344,-0.67138671875,0.07177734375,0.6904296875,-0.48828125,-0.30517578125,-7.01904296875,0.164794921875,42.16552734375,-179.5770263671875
1758788037.7030904,-0.69287109375,0.01611328125,0.75732421875,-10.19287109375,-0.54931640625,-6.2255859375,0.054931640625,42.16552734375,-179.6759033203125
1758788037.7129922,-0.69287109375,0.01611328125,0.75732421875,-10.19287109375,-0.54931640625,-6.2255859375,-0.0933837890625,42.1600341796875,-179.769287109375
1758788037.72281,-0.6435546875,-0.01611328125,0.74462890625,-10.498046875,0.18310546875,-5.18798828125,-0.2362060546875,42.1600341796875,-179.8516845703125
1758788037.7327745,-0.6435546875,-0.01611328125,0.74462890625,-10.498046875,0.18310546875,-5.18798828125,-0.384521484375,42.1600341796875,-179.93408203125
1758788037.7428203,-0.646484375,-0.07373046875,0.7021484375,0.54931640625,0.1220703125,-4.8828125,-0.41748046875,42.1600341796875,179.9835205078125
1758788037.7532928,-0.646484375,-0.07373046875,0.7021484375,0.54931640625,0.1220703125,-4.8828125,-0.4559326171875,42.1600341796875,179.9066162109375
1758788037.7628589,-0.65380859375,-0.07177734375,0.7607421875,13.61083984375,0.732421875,-5.18798828125,-0.37353515625,42.16552734375,179.8187255859375
1758788037.7728753,-0.65380859375,-0.07177734375,0.7607421875,13.61083984375,0.732421875,-5.18798828125,-0.2911376953125,42.1710205078125,179.7308349609375
1758788037.7828784,-0.65087890625,-0.04443359375,0.7509765625,24.90234375,0.91552734375,-5.4931640625,-0.098876953125,42.1820068359375,179.6319580078125
1758788037.793326,-0.65087890625,-0.04443359375,0.7509765625,24.90234375,0.91552734375,-5.4931640625,0.0823974609375,42.1875,179.53857421875
1758788037.8028636,-0.66796875,-0.0302734375,0.7724609375,35.2783203125,0.54931640625,-5.67626953125,0.3680419921875,42.1875,179.439697265625
1758788037.812896,-0.66796875,-0.0302734375,0.7724609375,35.2783203125,0.54931640625,-5.67626953125,0.6536865234375,42.1929931640625,179.3353271484375
1758788037.8229406,-0.68896484375,0.01708984375,0.8115234375,28.38134765625,-0.06103515625,-5.55419921875,0.8734130859375,42.1875,179.2364501953125
1758788037.8333952,-0.68896484375,0.01708984375,0.8115234375,28.38134765625,-0.06103515625,-5.55419921875,1.0931396484375,42.1820068359375,179.132080078125
1758788037.843035,-0.68896484375,0.01708984375,0.8115234375,-1.3427734375,0.1220703125,-3.60107421875,1.0382080078125,42.176513671875,179.0606689453125
1758788037.8530438,-0.68408203125,0.1171875,0.7783203125,-1.3427734375,0.1220703125,-3.60107421875,0.9832763671875,42.176513671875,178.9947509765625
1758788037.8630564,-0.66455078125,0.1083984375,0.67431640625,-14.0380859375,0.30517578125,-2.0751953125,0.8294677734375,42.176513671875,178.9453125
1758788037.8735943,-0.66455078125,0.1083984375,0.67431640625,-14.0380859375,0.30517578125,-2.0751953125,0.6756591796875,42.176513671875,178.9068603515625
1758788037.8830755,-0.64599609375,-0.01318359375,0.71826171875,-18.12744140625,1.03759765625,-1.5869140625,0.4888916015625,42.1820068359375,178.8739013671875
1758788037.8931253,-0.64599609375,-0.01318359375,0.71826171875,-18.12744140625,1.03759765625,-1.5869140625,0.296630859375,42.1929931640625,178.8409423828125
1758788037.9030046,-0.64599609375,-0.0712890625,0.7783203125,-11.16943359375,0.732421875,-1.40380859375,0.1812744140625,42.198486328125,178.8079833984375
1758788037.9136515,-0.64599609375,-0.0712890625,0.7783203125,-11.16943359375,0.732421875,-1.40380859375,0.054931640625,42.198486328125,178.76953125
1758788037.9230487,-0.67529296875,-0.05322265625,0.7646484375,2.99072265625,0.1220703125,-0.8544921875,0.076904296875,42.198486328125,178.736572265625
1758788037.933066,-0.67529296875,-0.05322265625,0.7646484375,2.99072265625,0.1220703125,-0.8544921875,0.0933837890625,42.1929931640625,178.70361328125
1758788037.9431112,-0.662109375,-0.00048828125,0.75390625,4.33349609375,-0.8544921875,-0.18310546875,0.1318359375,42.1820068359375,178.681640625
1758788037.9531891,-0.662109375,-0.00048828125,0.75390625,4.33349609375,-0.8544921875,-0.18310546875,0.1702880859375,42.1710205078125,178.6541748046875
1758788037.963482,-0.66455078125,0.0029296875,0.76416015625,1.5869140625,-0.91552734375,0.244140625,0.1812744140625,42.154541015625,178.6376953125
1758788037.973067,-0.66455078125,0.0029296875,0.76416015625,1.5869140625,-0.91552734375,0.244140625,0.19775390625,42.1435546875,178.61572265625
1758788037.9830844,-0.66650390625,-0.02783203125,0.708984375,7.8125,-0.1220703125,0.0,0.2691650390625,42.1380615234375,178.59375
1758788037.9931097,-0.66650390625,-0.02783203125,0.708984375,7.8125,-0.1220703125,0.0,0.340576171875,42.132568359375,178.57177734375
1758788038.0036635,-0.673828125,0.0,0.69482421875,8.36181640625,-0.48828125,0.1220703125,0.4229736328125,42.1270751953125,178.5552978515625
1758788038.0130987,-0.673828125,0.0,0.69482421875,8.36181640625,-0.48828125,0.1220703125,0.4998779296875,42.12158203125,178.538818359375
1758788038.0231104,-0.67919921875,0.017578125,0.783203125,14.5263671875,-0.79345703125,0.0,0.63720703125,42.110595703125,178.5223388671875
1758788038.0331435,-0.67919921875,0.017578125,0.783203125,14.5263671875,-0.79345703125,0.0,0.780029296875,42.1051025390625,178.5003662109375
1758788038.0437376,-0.66455078125,0.0029296875,0.734375,13.85498046875,-0.9765625,0.06103515625,0.911865234375,42.0941162109375,178.48388671875
