timestamp,acc_x,acc_y,acc_z,gyro_x,gyro_y,gyro_z,angle_x,angle_y,angle_z
1758527998.0031025,0.6123046875,0.0947265625,0.83251953125,6.65283203125,4.94384765625,6.40869140625,3.4442138671875,-36.090087890625,-38.3807373046875
1758527998.012313,0.6123046875,0.0947265625,0.83251953125,6.65283203125,4.94384765625,6.40869140625,3.4661865234375,-36.0406494140625,-38.3367919921875
1758527998.0214713,0.61865234375,0.095703125,0.8125,5.7373046875,4.8828125,6.4697265625,3.49365234375,-35.9967041015625,-38.2928466796875
1758527998.0327883,0.61865234375,0.095703125,0.8125,5.7373046875,4.8828125,6.4697265625,3.5101318359375,-35.947265625,-38.243408203125
1758527998.0450337,0.37744140625,-0.0302734375,1.2001953125,-33.5693359375,-0.30517578125,3.47900390625,3.3453369140625,-35.92529296875,-38.221435546875
1758527998.0568855,0.37744140625,-0.0302734375,1.2001953125,-33.5693359375,-0.30517578125,3.47900390625,2.9937744140625,-35.914306640625,-38.2269287109375
1758527998.066766,0.55517578125,0.1328125,0.8974609375,-57.0068359375,-4.82177734375,4.150390625,2.5213623046875,-35.9197998046875,-38.2379150390625
1758527998.0738647,0.55517578125,0.1328125,0.8974609375,-57.0068359375,-4.82177734375,4.150390625,1.9390869140625,-35.9417724609375,-38.243408203125
1758527998.080062,0.61181640625,-0.0966796875,0.81689453125,-24.35302734375,-5.67626953125,3.41796875,1.5216064453125,-35.9747314453125,-38.25439453125
1758527998.0896432,0.61181640625,-0.0966796875,0.81689453125,-24.35302734375,-5.67626953125,3.41796875,1.2689208984375,-36.01318359375,-38.2708740234375
1758527998.099657,0.578125,-0.01318359375,0.68310546875,1.03759765625,-4.8828125,0.244140625,1.153564453125,-36.046142578125,-38.29833984375
1758527998.109653,0.578125,-0.01318359375,0.68310546875,1.03759765625,-4.8828125,0.244140625,1.1700439453125,-36.0791015625,-38.34228515625
1758527998.119703,0.4892578125,0.01171875,0.83154296875,-0.91552734375,-3.35693359375,-1.40380859375,1.1810302734375,-36.1065673828125,-38.397216796875
1758527998.1297424,0.4892578125,0.01171875,0.83154296875,-0.91552734375,-3.35693359375,-1.40380859375,1.1865234375,-36.1285400390625,-38.463134765625
1758527998.1397095,0.59130859375,0.02685546875,0.73291015625,-3.173828125,-3.60107421875,-2.5634765625,1.1865234375,-36.14501953125,-38.5345458984375
1758527998.1497402,0.59130859375,0.02685546875,0.73291015625,-3.173828125,-3.60107421875,-2.5634765625,1.1810302734375,-36.1669921875,-38.60595703125
1758527998.1597035,0.54931640625,0.001953125,0.85888671875,-3.35693359375,-2.8076171875,-2.44140625,1.1700439453125,-36.18896484375,-38.682861328125
1758527998.1696877,0.54931640625,0.001953125,0.85888671875,-3.35693359375,-2.8076171875,-2.44140625,1.1590576171875,-36.2054443359375,-38.7542724609375
1758527998.1801906,0.57080078125,0.02978515625,0.841796875,-2.62451171875,-1.52587890625,-1.3427734375,1.1480712890625,-36.2109375,-38.8201904296875
1758527998.1899712,0.57080078125,0.02978515625,0.841796875,-2.62451171875,-1.52587890625,-1.3427734375,1.1370849609375,-36.2164306640625,-38.8751220703125
1758527998.1997519,0.5595703125,0.01318359375,0.84375,-2.38037109375,1.0986328125,-0.54931640625,1.12060546875,-36.2054443359375,-38.9300537109375
1758527998.2097464,0.5595703125,0.01318359375,0.84375,-2.38037109375,1.0986328125,-0.54931640625,1.1041259765625,-36.177978515625,-38.9794921875
1758527998.2197618,0.56689453125,0.00830078125,0.814453125,-2.01416015625,3.41796875,-0.79345703125,1.0931396484375,-36.14501953125,-39.0289306640625
1758527998.229758,0.56689453125,0.00830078125,0.814453125,-2.01416015625,3.41796875,-0.79345703125,1.07666015625,-36.0955810546875,-39.078369140625
1758527998.239763,0.599609375,0.00732421875,0.86328125,-2.197265625,3.90625,-1.52587890625,1.065673828125,-36.046142578125,-39.1278076171875
1758527998.2497828,0.599609375,0.00732421875,0.86328125,-2.197265625,3.90625,-1.52587890625,1.0601806640625,-35.9967041015625,-39.188232421875
1758527998.2598186,0.61669921875,-0.01513671875,0.9111328125,-0.54931640625,2.5634765625,-1.77001953125,1.0546875,-35.9527587890625,-39.2431640625
1758527998.269796,0.61669921875,-0.01513671875,0.9111328125,-0.54931640625,2.5634765625,-1.77001953125,1.065673828125,-35.9197998046875,-39.3035888671875
1758527998.2797976,0.59521484375,0.01318359375,0.83154296875,-0.42724609375,1.03759765625,-1.40380859375,1.0711669921875,-35.892333984375,-39.3585205078125
1758527998.2898078,0.59521484375,0.01318359375,0.83154296875,-0.42724609375,1.03759765625,-1.40380859375,1.0711669921875,-35.870361328125,-39.4134521484375
1758527998.2998164,0.56396484375,0.02880859375,0.84130859375,-2.197265625,0.1220703125,-0.6103515625,1.065673828125,-35.8538818359375,-39.462890625
1758527998.3098245,0.56396484375,0.02880859375,0.84130859375,-2.197265625,0.1220703125,-0.6103515625,1.0491943359375,-35.8428955078125,-39.5013427734375
1758527998.3198388,0.5888671875,-0.0126953125,0.84375,-2.197265625,-0.54931640625,0.0,1.0272216796875,-35.83740234375,-39.539794921875
1758527998.3298404,0.5888671875,-0.0126953125,0.84375,-2.197265625,-0.54931640625,0.0,1.0052490234375,-35.83740234375,-39.5782470703125
1758527998.339848,0.60693359375,0.00537109375,0.84228515625,-1.8310546875,-1.77001953125,-0.1220703125,0.9832763671875,-35.83740234375,-39.6112060546875
1758527998.3498576,0.60693359375,0.00537109375,0.84228515625,-1.8310546875,-1.77001953125,-0.1220703125,0.966796875,-35.848388671875,-39.649658203125
1758527998.3598745,0.5849609375,0.00634765625,0.8740234375,-1.89208984375,-2.5634765625,0.18310546875,0.94482421875,-35.8648681640625,-39.6826171875
1758527998.3699872,0.5849609375,0.00634765625,0.8740234375,-1.89208984375,-2.5634765625,0.18310546875,0.9228515625,-35.88134765625,-39.715576171875
1758527998.3798883,0.58740234375,-0.015625,0.80078125,-0.67138671875,-2.62451171875,0.30517578125,0.9063720703125,-35.8978271484375,-39.7430419921875
1758527998.389896,0.58740234375,-0.015625,0.80078125,-0.67138671875,-2.62451171875,0.30517578125,0.8953857421875,-35.9197998046875,-39.7705078125
1758527998.3999467,0.5576171875,0.005859375,0.79736328125,2.50244140625,-1.0986328125,-0.1220703125,0.90087890625,-35.9307861328125,-39.803466796875
1758527998.40996,0.5576171875,0.005859375,0.79736328125,2.50244140625,-1.0986328125,-0.1220703125,0.9228515625,-35.936279296875,-39.83642578125
1758527998.4203036,0.55517578125,0.0068359375,0.85205078125,-0.1220703125,0.06103515625,0.1220703125,0.933837890625,-35.9307861328125,-39.869384765625
1758527998.4302685,0.55517578125,0.0068359375,0.85205078125,-0.1220703125,0.06103515625,0.1220703125,0.9283447265625,-35.92529296875,-39.8968505859375
1758527998.4400134,0.56396484375,0.00537109375,0.8115234375,-3.662109375,0.42724609375,1.0986328125,0.90087890625,-35.914306640625,-39.92431640625
1758527998.4500024,0.56396484375,0.00537109375,0.8115234375,-3.662109375,0.42724609375,1.0986328125,0.8514404296875,-35.9033203125,-39.9462890625
1758527998.4599903,0.55224609375,-0.00927734375,0.74658203125,-2.44140625,1.28173828125,1.5869140625,0.81298828125,-35.8868408203125,-39.957275390625
1758527998.470126,0.55224609375,-0.00927734375,0.74658203125,-2.44140625,1.28173828125,1.5869140625,0.76904296875,-35.8648681640625,-39.9737548828125
1758527998.4800155,0.5361328125,0.0,0.814453125,-0.79345703125,3.47900390625,1.953125,0.7415771484375,-35.83740234375,-39.979248046875
1758527998.4901013,0.5361328125,0.0,0.814453125,-0.79345703125,3.47900390625,1.953125,0.714111328125,-35.79345703125,-39.9847412109375
1758527998.500095,0.5810546875,0.00927734375,0.8544921875,-1.953125,4.8828125,3.11279296875,0.6756591796875,-35.74951171875,-39.9847412109375
1758527998.510166,0.5810546875,0.00927734375,0.8544921875,-1.953125,4.8828125,3.11279296875,0.6317138671875,-35.6890869140625,-39.979248046875
1758527998.5202615,0.6015625,0.00439453125,0.869140625,-4.2724609375,3.84521484375,4.2724609375,0.5712890625,-35.6396484375,-39.96826171875
1758527998.5302188,0.6015625,0.00439453125,0.869140625,-4.2724609375,3.84521484375,4.2724609375,0.4998779296875,-35.595703125,-39.9462890625
1758527998.5402236,0.60546875,-0.0185546875,0.85400390625,-5.2490234375,1.46484375,4.5166015625,0.41748046875,-35.562744140625,-39.92431640625
1758527998.550161,0.60546875,-0.0185546875,0.85400390625,-5.2490234375,1.46484375,4.5166015625,0.32958984375,-35.5462646484375,-39.8968505859375
1758527998.5602477,0.60302734375,-0.009765625,0.84716796875,-5.43212890625,-0.30517578125,4.21142578125,0.2471923828125,-35.5352783203125,-39.8748779296875
1758527998.5701766,0.60302734375,-0.009765625,0.84716796875,-5.43212890625,-0.30517578125,4.21142578125,0.1593017578125,-35.5352783203125,-39.8529052734375
1758527998.5802796,0.6015625,0.00634765625,0.890625,-5.4931640625,-1.77001953125,4.33349609375,0.0714111328125,-35.540771484375,-39.8309326171875
1758527998.5902092,0.6015625,0.00634765625,0.890625,-5.4931640625,-1.77001953125,4.33349609375,-0.0054931640625,-35.5517578125,-39.8089599609375
1758527998.600437,0.60888671875,0.0107421875,0.85986328125,-9.70458984375,-4.0283203125,4.638671875,-0.1153564453125,-35.5792236328125,-39.781494140625
1758527998.6104333,0.60888671875,0.0107421875,0.85986328125,-9.70458984375,-4.0283203125,4.638671875,-0.24169921875,-35.6121826171875,-39.7540283203125
1758527998.6204698,0.62060546875,-0.00537109375,0.857421875,-8.4228515625,-7.568359375,4.08935546875,-0.362548828125,-35.6671142578125,-39.7320556640625
1758527998.630371,0.62060546875,-0.00537109375,0.857421875,-8.4228515625,-7.568359375,4.08935546875,-0.472412109375,-35.7330322265625,-39.7100830078125
1758527998.640313,0.650390625,-0.00244140625,0.8818359375,-4.94384765625,-12.02392578125,3.173828125,-0.5657958984375,-35.826416015625,-39.693603515625
1758527998.653802,0.650390625,-0.00244140625,0.8818359375,-4.94384765625,-12.02392578125,3.173828125,-0.6317138671875,-35.9417724609375,-39.6771240234375
1758527998.6605506,0.6611328125,0.0048828125,0.8818359375,-9.94873046875,-16.845703125,2.44140625,-0.72509765625,-36.0845947265625,-39.6661376953125
1758527998.6703267,0.6611328125,0.0048828125,0.8818359375,-9.94873046875,-16.845703125,2.44140625,-0.8404541015625,-36.2493896484375,-39.66064453125
1758527998.6806183,0.6318359375,-0.04833984375,0.8603515625,-11.474609375,-19.8974609375,2.01416015625,-0.9613037109375,-36.4251708984375,-39.6551513671875
1758527998.6909316,0.6318359375,-0.04833984375,0.8603515625,-11.474609375,-19.8974609375,2.01416015625,-1.087646484375,-36.6229248046875,-39.649658203125
1758527998.7003453,0.64111328125,-0.03125,0.80810546875,-2.5634765625,-21.30126953125,0.67138671875,-1.16455078125,-36.8206787109375,-39.6551513671875
1758527998.71039,0.64111328125,-0.03125,0.80810546875,-2.5634765625,-21.30126953125,0.67138671875,-1.197509765625,-37.0294189453125,-39.6661376953125
1758527998.7206938,0.6259765625,-0.029296875,0.85546875,2.38037109375,-21.97265625,-0.244140625,-1.2030029296875,-37.2381591796875,-39.6826171875
1758527998.7304788,0.6259765625,-0.029296875,0.85546875,2.38037109375,-21.97265625,-0.244140625,-1.175537109375,-37.452392578125,-39.70458984375
1758527998.7403603,0.63671875,-0.03271484375,0.82177734375,3.60107421875,-21.78955078125,-0.9765625,-1.142578125,-37.6611328125,-39.737548828125
1758527998.7504108,0.63671875,-0.03271484375,0.82177734375,3.60107421875,-21.78955078125,-0.9765625,-1.1041259765625,-37.869873046875,-39.7705078125
1758527998.760993,0.578125,-0.03173828125,0.79931640625,5.0048828125,-19.53125,-1.28173828125,-1.0546875,-38.067626953125,-39.8089599609375
1758527998.770424,0.578125,-0.03173828125,0.79931640625,5.0048828125,-19.53125,-1.28173828125,-0.999755859375,-38.25439453125,-39.847412109375
1758527998.780425,0.60595703125,-0.0361328125,0.81298828125,7.87353515625,-16.7236328125,-0.79345703125,-0.933837890625,-38.419189453125,-39.8858642578125
1758527998.7905564,0.60595703125,-0.0361328125,0.81298828125,7.87353515625,-16.7236328125,-0.79345703125,-0.85693359375,-38.5784912109375,-39.9188232421875
1758527998.800419,0.6083984375,0.01318359375,0.78271484375,3.5400390625,-14.5263671875,-0.3662109375,-0.7965087890625,-38.7213134765625,-39.9517822265625
1758527998.810393,0.6083984375,0.01318359375,0.78271484375,3.5400390625,-14.5263671875,-0.3662109375,-0.7635498046875,-38.8531494140625,-39.9847412109375
1758527998.820492,0.5615234375,0.015625,0.7470703125,-6.04248046875,-11.1083984375,-0.244140625,-0.780029296875,-38.9630126953125,-40.01220703125
1758527998.830986,0.5615234375,0.015625,0.7470703125,-6.04248046875,-11.1083984375,-0.244140625,-0.8349609375,-39.0618896484375,-40.045166015625
1758527998.840468,0.53662109375,-0.00341796875,0.71923828125,-9.033203125,-6.04248046875,-1.0986328125,-0.9063720703125,-39.13330078125,-40.0836181640625
1758527998.850458,0.53662109375,-0.00341796875,0.71923828125,-9.033203125,-6.04248046875,-1.0986328125,-0.98876953125,-39.1827392578125,-40.1220703125
1758527998.8611083,0.5361328125,-0.0078125,0.7626953125,-5.615234375,-1.40380859375,-1.40380859375,-1.0272216796875,-39.17724609375,-40.1715087890625
1758527998.870538,0.5361328125,-0.0078125,0.7626953125,-5.615234375,-1.40380859375,-1.40380859375,-1.0711669921875,-39.17724609375,-40.220947265625
1758527998.8804643,0.6025390625,-0.03466796875,0.73779296875,-4.21142578125,1.46484375,-1.28173828125,-1.0986328125,-39.1497802734375,-40.2703857421875
1758527998.8905497,0.6025390625,-0.03466796875,0.73779296875,-4.21142578125,1.46484375,-1.28173828125,-1.131591796875,-39.122314453125,-40.31982421875
1758527998.9010372,0.5908203125,-0.0087890625,0.72021484375,-6.4697265625,3.47900390625,-2.13623046875,-1.175537109375,-39.0728759765625,-40.374755859375
1758527998.9105048,0.5908203125,-0.0087890625,0.72021484375,-6.4697265625,3.47900390625,-2.13623046875,-1.219482421875,-39.0289306640625,-40.4296875
1758527998.9205086,0.55419921875,-0.01806640625,0.783203125,-4.0283203125,5.92041015625,-3.23486328125,-1.23046875,-38.95751953125,-40.5010986328125
1758527998.9310613,0.55419921875,-0.01806640625,0.783203125,-4.0283203125,5.92041015625,-3.23486328125,-1.241455078125,-38.8916015625,-40.572509765625
1758527998.9405363,0.609375,-0.025390625,0.7724609375,1.953125,7.99560546875,-4.2724609375,-1.1865234375,-38.8037109375,-40.6549072265625
1758527998.9505124,0.609375,-0.025390625,0.7724609375,1.953125,7.99560546875,-4.2724609375,-1.131591796875,-38.7103271484375,-40.7373046875
1758527998.960585,0.62451171875,-0.03466796875,0.81494140625,1.708984375,8.23974609375,-4.45556640625,-1.07666015625,-38.6224365234375,-40.8251953125
1758527998.9711745,0.62451171875,-0.03466796875,0.81494140625,1.708984375,8.23974609375,-4.45556640625,-1.0272216796875,-38.5345458984375,-40.9075927734375
1758527998.9805589,0.626953125,0.0390625,0.7314453125,-1.0986328125,7.080078125,-4.2724609375,-0.999755859375,-38.4576416015625,-40.9844970703125
1758527998.9906073,0.626953125,0.0390625,0.7314453125,-1.0986328125,7.080078125,-4.2724609375,-0.977783203125,-38.38623046875,-41.0614013671875
1758527999.0012116,0.57275390625,-0.025390625,0.79248046875,-4.150390625,7.14111328125,-3.72314453125,-0.9832763671875,-38.309326171875,-41.1328125
1758527999.0106974,0.57275390625,-0.025390625,0.79248046875,-4.150390625,7.14111328125,-3.72314453125,-0.9942626953125,-38.232421875,-41.2042236328125
1758527999.0223966,0.61572265625,-0.0517578125,0.76318359375,-0.3662109375,6.9580078125,-4.5166015625,-0.9613037109375,-38.1610107421875,-41.2811279296875
1758527999.0335674,0.61572265625,-0.0517578125,0.76318359375,-0.3662109375,6.9580078125,-4.5166015625,-0.933837890625,-38.089599609375,-41.3580322265625
1758527999.0409925,0.638671875,-0.03271484375,0.84765625,0.42724609375,5.9814453125,-4.94384765625,-0.8953857421875,-38.0291748046875,-41.4404296875
1758527999.0507183,0.638671875,-0.03271484375,0.84765625,0.42724609375,5.9814453125,-4.94384765625,-0.8514404296875,-37.96875,-41.5228271484375
1758527999.0608363,0.68359375,-0.0234375,0.8115234375,-0.9765625,3.23486328125,-4.8828125,-0.8294677734375,-37.935791015625,-41.605224609375
1758527999.0706923,0.68359375,-0.0234375,0.8115234375,-0.9765625,3.23486328125,-4.8828125,-0.8074951171875,-37.90283203125,-41.68212890625
1758527999.0806684,0.6435546875,0.0009765625,0.85693359375,-0.6103515625,0.42724609375,-4.39453125,-0.780029296875,-37.90283203125,-41.7535400390625
1758527999.0907981,0.6435546875,0.0009765625,0.85693359375,-0.6103515625,0.42724609375,-4.39453125,-0.758056640625,-37.8973388671875,-41.824951171875
1758527999.1013184,0.65283203125,-0.052734375,0.84814453125,-0.79345703125,-2.0751953125,-3.41796875,-0.7415771484375,-37.9193115234375,-41.8798828125
1758527999.1107142,0.65283203125,-0.052734375,0.84814453125,-0.79345703125,-2.0751953125,-3.41796875,-0.7305908203125,-37.9412841796875,-41.9403076171875
1758527999.1208596,0.6552734375,-0.04296875,0.8076171875,2.86865234375,-4.7607421875,-3.2958984375,-0.68115234375,-37.9852294921875,-41.9952392578125
1758527999.1308212,0.6552734375,-0.04296875,0.8076171875,2.86865234375,-4.7607421875,-3.2958984375,-0.63720703125,-38.03466796875,-42.0501708984375
1758527999.140688,0.6455078125,-0.0283203125,0.80029296875,6.77490234375,-7.32421875,-3.41796875,-0.54931640625,-38.1060791015625,-42.110595703125
1758527999.1514168,0.6455078125,-0.0283203125,0.80029296875,6.77490234375,-7.32421875,-3.41796875,-0.4669189453125,-38.1829833984375,-42.16552734375
1758527999.1607637,0.642578125,-0.01025390625,0.818359375,8.36181640625,-9.6435546875,-2.86865234375,-0.3680419921875,-38.2763671875,-42.2149658203125
1758527999.1707737,0.642578125,-0.01025390625,0.818359375,8.36181640625,-9.6435546875,-2.86865234375,-0.2691650390625,-38.375244140625,-42.264404296875
1758527999.1808054,0.64111328125,-0.037109375,0.79541015625,9.21630859375,-11.962890625,-2.0751953125,-0.1702880859375,-38.4906005859375,-42.3028564453125
1758527999.190769,0.64111328125,-0.037109375,0.79541015625,9.21630859375,-11.962890625,-2.0751953125,-0.076904296875,-38.60595703125,-42.3468017578125
1758527999.2007852,0.61669921875,-0.02978515625,0.7880859375,13.61083984375,-13.24462890625,-2.38037109375,0.0604248046875,-38.73779296875,-42.3907470703125
1758527999.210955,0.61669921875,-0.02978515625,0.7880859375,13.61083984375,-13.24462890625,-2.38037109375,0.2032470703125,-38.8641357421875,-42.440185546875
1758527999.2207947,0.6298828125,-0.01611328125,0.76513671875,15.625,-13.48876953125,-2.86865234375,0.37353515625,-38.9959716796875,-42.4951171875
1758527999.2308257,0.6298828125,-0.01611328125,0.76513671875,15.625,-13.48876953125,-2.86865234375,0.538330078125,-39.1278076171875,-42.550048828125
1758527999.241344,0.63037109375,0.00927734375,0.7978515625,15.5029296875,-13.12255859375,-2.8076171875,0.703125,-39.254150390625,-42.60498046875
1758527999.2507875,0.63037109375,0.00927734375,0.7978515625,15.5029296875,-13.12255859375,-2.8076171875,0.867919921875,-39.3804931640625,-42.659912109375
1758527999.2609768,0.62890625,0.03173828125,0.7958984375,11.77978515625,-12.39013671875,-2.62451171875,0.999755859375,-39.495849609375,-42.71484375
1758527999.2711382,0.62890625,0.03173828125,0.7958984375,11.77978515625,-12.39013671875,-2.62451171875,1.131591796875,-39.6112060546875,-42.769775390625
1758527999.2808475,0.6220703125,0.0185546875,0.8017578125,6.04248046875,-11.71875,-1.77001953125,1.197509765625,-39.7210693359375,-42.813720703125
1758527999.2908306,0.6220703125,0.0185546875,0.8017578125,6.04248046875,-11.71875,-1.77001953125,1.263427734375,-39.8309326171875,-42.857666015625
1758527999.3010733,0.6318359375,0.0205078125,0.75341796875,6.28662109375,-10.986328125,-1.15966796875,1.329345703125,-39.9298095703125,-42.8961181640625
1758527999.3116548,0.6318359375,0.0205078125,0.75341796875,6.28662109375,-10.986328125,-1.15966796875,1.395263671875,-40.0286865234375,-42.9290771484375
1758527999.3226483,0.59326171875,0.03564453125,0.7109375,7.080078125,-9.33837890625,-1.5869140625,1.4776611328125,-40.1165771484375,-42.9730224609375
1758527999.3330307,0.59326171875,0.03564453125,0.7109375,7.080078125,-9.33837890625,-1.5869140625,1.5545654296875,-40.198974609375,-43.011474609375
1758527999.341426,0.5751953125,0.0244140625,0.73876953125,5.2490234375,-6.4697265625,-1.64794921875,1.614990234375,-40.25390625,-43.055419921875
1758527999.350955,0.5751953125,0.0244140625,0.73876953125,5.2490234375,-6.4697265625,-1.64794921875,1.680908203125,-40.308837890625,-43.0938720703125
1758527999.3609302,0.58642578125,0.00634765625,0.69482421875,1.40380859375,-3.5400390625,-1.52587890625,1.702880859375,-40.3363037109375,-43.1378173828125
1758527999.3709118,0.58642578125,0.00634765625,0.69482421875,1.40380859375,-3.5400390625,-1.52587890625,1.724853515625,-40.3582763671875,-43.17626953125
1758527999.3813999,0.62548828125,0.02392578125,0.77685546875,1.89208984375,-1.64794921875,-1.0986328125,1.746826171875,-40.3692626953125,-43.209228515625
1758527999.3909676,0.62548828125,0.02392578125,0.77685546875,1.89208984375,-1.64794921875,-1.0986328125,1.7742919921875,-40.374755859375,-43.2476806640625
1758527999.4009075,0.65087890625,0.02880859375,0.74462890625,1.708984375,-0.6103515625,-0.9765625,1.790771484375,-40.374755859375,-43.275146484375
1758527999.41117,0.65087890625,0.02880859375,0.74462890625,1.708984375,-0.6103515625,-0.9765625,1.812744140625,-40.3692626953125,-43.30810546875
1758527999.4209287,0.63525390625,0.01904296875,0.78759765625,-0.91552734375,0.06103515625,-1.0986328125,1.812744140625,-40.36376953125,-43.341064453125
1758527999.431225,0.63525390625,0.01904296875,0.78759765625,-0.91552734375,0.06103515625,-1.0986328125,1.8072509765625,-40.3582763671875,-43.3740234375
1758527999.4411013,0.6474609375,0.01904296875,0.798828125,-0.732421875,0.6103515625,-0.9765625,1.8072509765625,-40.341796875,-43.4014892578125
1758527999.4509552,0.6474609375,0.01904296875,0.798828125,-0.732421875,0.6103515625,-0.9765625,1.8017578125,-40.330810546875,-43.4344482421875
1758527999.460934,0.68017578125,0.013671875,0.7744140625,-2.197265625,0.48828125,-0.79345703125,1.7852783203125,-40.31982421875,-43.4564208984375
1758527999.471479,0.68017578125,0.013671875,0.7744140625,-2.197265625,0.48828125,-0.79345703125,1.7633056640625,-40.308837890625,-43.48388671875
1758527999.4815602,0.68896484375,0.0107421875,0.81591796875,-0.3662109375,-0.67138671875,-0.6103515625,1.7633056640625,-40.308837890625,-43.505859375
1758527999.4909503,0.68896484375,0.0107421875,0.81591796875,-0.3662109375,-0.67138671875,-0.6103515625,1.7633056640625,-40.3143310546875,-43.52783203125
1758527999.5009346,0.712890625,0.03759765625,0.8173828125,-2.5634765625,-3.11279296875,0.0,1.7303466796875,-40.341796875,-43.5443115234375
1758527999.5116827,0.712890625,0.03759765625,0.8173828125,-2.5634765625,-3.11279296875,0.0,1.7083740234375,-40.3692626953125,-43.5552978515625
1758527999.5209801,0.68603515625,0.017578125,0.81591796875,-4.7607421875,-5.615234375,0.6103515625,1.6534423828125,-40.4241943359375,-43.5662841796875
1758527999.531029,0.68603515625,0.017578125,0.81591796875,-4.7607421875,-5.615234375,0.6103515625,1.5985107421875,-40.4791259765625,-43.57177734375
1758527999.5415125,0.72509765625,0.0244140625,0.7998046875,-1.8310546875,-8.4228515625,0.42724609375,1.5765380859375,-40.5615234375,-43.582763671875
1758527999.5512133,0.72509765625,0.0244140625,0.7998046875,-1.8310546875,-8.4228515625,0.42724609375,1.56005859375,-40.6439208984375,-43.59375
1758527999.560993,0.69873046875,0.03125,0.8232421875,-2.38037109375,-12.20703125,0.91552734375,1.527099609375,-40.7647705078125,-43.59375
1758527999.5710685,0.69873046875,0.03125,0.8232421875,-2.38037109375,-12.20703125,0.91552734375,1.4996337890625,-40.880126953125,-43.5992431640625
1758527999.5815382,0.70654296875,-0.02197265625,0.76953125,-3.173828125,-15.5029296875,1.03759765625,1.461181640625,-41.033935546875,-43.604736328125
1758527999.591087,0.70654296875,-0.02197265625,0.76953125,-3.173828125,-15.5029296875,1.03759765625,1.4227294921875,-41.187744140625,-43.604736328125
1758527999.6009917,0.6767578125,0.00830078125,0.7705078125,-3.5400390625,-17.822265625,1.220703125,1.3787841796875,-41.363525390625,-43.604736328125
1758527999.6118252,0.6767578125,0.00830078125,0.7705078125,-3.5400390625,-17.822265625,1.220703125,1.3348388671875,-41.539306640625,-43.6102294921875
1758527999.6210296,0.6708984375,-0.00390625,0.73193359375,3.23486328125,-18.73779296875,0.54931640625,1.3623046875,-41.7205810546875,-43.6212158203125
1758527999.6311016,0.6708984375,-0.00390625,0.73193359375,3.23486328125,-18.73779296875,0.54931640625,1.3897705078125,-41.90185546875,-43.6322021484375
1758527999.641224,0.65966796875,0.00341796875,0.744140625,9.6435546875,-18.310546875,0.06103515625,1.483154296875,-42.0831298828125,-43.648681640625
1758527999.651185,0.65966796875,0.00341796875,0.744140625,9.6435546875,-18.310546875,0.06103515625,1.58203125,-42.2589111328125,-43.670654296875
1758527999.6610386,0.673828125,0.0029296875,0.734375,9.46044921875,-17.63916015625,-0.30517578125,1.6754150390625,-42.42919921875,-43.6981201171875
1758527999.671111,0.673828125,0.0029296875,0.734375,9.46044921875,-17.63916015625,-0.30517578125,1.768798828125,-42.5994873046875,-43.7200927734375
1758527999.681258,0.65966796875,0.03662109375,0.71826171875,8.056640625,-16.357421875,-0.6103515625,1.856689453125,-42.7532958984375,-43.74755859375
1758527999.691097,0.65966796875,0.03662109375,0.71826171875,8.056640625,-16.357421875,-0.6103515625,1.9390869140625,-42.91259765625,-43.780517578125
1758527999.7010908,0.65673828125,0.025390625,0.744140625,15.56396484375,-14.0380859375,-1.3427734375,2.109375,-43.04443359375,-43.8189697265625
1758527999.7116957,0.65673828125,0.025390625,0.744140625,15.56396484375,-14.0380859375,-1.3427734375,2.274169921875,-43.1707763671875,-43.857421875
1758527999.7213027,0.67822265625,0.01953125,0.75,16.05224609375,-11.5966796875,-1.953125,2.449951171875,-43.2806396484375,-43.9068603515625
1758527999.7312205,0.67822265625,0.01953125,0.75,16.05224609375,-11.5966796875,-1.953125,2.625732421875,-43.385009765625,-43.956298828125
1758527999.7413855,0.654296875,0.04248046875,0.701171875,8.30078125,-9.3994140625,-2.3193359375,2.7301025390625,-43.4674072265625,-44.01123046875
1758527999.75191,0.654296875,0.04248046875,0.701171875,8.30078125,-9.3994140625,-2.3193359375,2.8289794921875,-43.5498046875,-44.0606689453125
1758527999.7611694,0.61865234375,0.0390625,0.7060546875,6.40869140625,-6.40869140625,-2.38037109375,2.911376953125,-43.5992431640625,-44.1156005859375
1758527999.771342,0.61865234375,0.0390625,0.7060546875,6.40869140625,-6.40869140625,-2.38037109375,2.9937744140625,-43.6541748046875,-44.1650390625
1758527999.7819269,0.6494140625,0.0234375,0.68896484375,12.8173828125,-3.72314453125,-2.5634765625,3.14208984375,-43.6761474609375,-44.219970703125
1758527999.791305,0.6494140625,0.0234375,0.68896484375,12.8173828125,-3.72314453125,-2.5634765625,3.2904052734375,-43.70361328125,-44.27490234375
1758527999.8012874,0.64794921875,0.05712890625,0.69482421875,11.90185546875,-1.40380859375,-2.50244140625,3.427734375,-43.7091064453125,-44.3243408203125
1758527999.8123274,0.64794921875,0.05712890625,0.69482421875,11.90185546875,-1.40380859375,-2.50244140625,3.5650634765625,-43.7091064453125,-44.373779296875
1758527999.821182,0.6259765625,0.0595703125,0.69970703125,8.85009765625,0.79345703125,-2.13623046875,3.6639404296875,-43.692626953125,-44.417724609375
1758527999.8315415,0.6259765625,0.0595703125,0.69970703125,8.85009765625,0.79345703125,-2.13623046875,3.768310546875,-43.670654296875,-44.461669921875
1758527999.8413622,0.63232421875,0.06884765625,0.65673828125,10.498046875,2.86865234375,-1.953125,3.8836669921875,-43.6322021484375,-44.5001220703125
1758527999.8515277,0.63232421875,0.06884765625,0.65673828125,10.498046875,2.86865234375,-1.953125,4.0045166015625,-43.5992431640625,-44.53857421875
1758527999.861311,0.65673828125,0.0498046875,0.6806640625,9.27734375,4.8828125,-2.3193359375,4.10888671875,-43.538818359375,-44.5770263671875
1758527999.8717923,0.65673828125,0.0498046875,0.6806640625,9.27734375,4.8828125,-2.3193359375,4.21875,-43.48388671875,-44.615478515625
1758527999.8813,0.66064453125,0.03271484375,0.7314453125,3.96728515625,6.2255859375,-2.74658203125,4.273681640625,-43.41796875,-44.659423828125
1758527999.8913274,0.66064453125,0.03271484375,0.7314453125,3.96728515625,6.2255859375,-2.74658203125,4.32861328125,-43.3465576171875,-44.703369140625
1758527999.9012647,0.67724609375,0.015625,0.7216796875,4.45556640625,7.01904296875,-3.173828125,4.39453125,-43.2696533203125,-44.747314453125
1758527999.9122207,0.67724609375,0.015625,0.7216796875,4.45556640625,7.01904296875,-3.173828125,4.4549560546875,-43.1927490234375,-44.7967529296875
1758527999.9230466,0.69140625,0.0703125,0.75244140625,6.4697265625,7.6904296875,-3.23486328125,4.5318603515625,-43.1158447265625,-44.8406982421875
1758527999.9329941,0.69140625,0.0703125,0.75244140625,6.4697265625,7.6904296875,-3.23486328125,4.6142578125,-43.033447265625,-44.89013671875
1758527999.9415076,0.6943359375,0.08642578125,0.728515625,1.953125,7.87353515625,-2.3193359375,4.647216796875,-42.9510498046875,-44.923095703125
1758527999.951531,0.6943359375,0.08642578125,0.728515625,-6.04248046875,7.8125,-0.79345703125,4.6307373046875,-42.86865234375,-44.945068359375
1758527999.9613223,0.69580078125,0.09619140625,0.7265625,-6.04248046875,7.8125,-0.79345703125,4.5703125,-42.791748046875,-44.9505615234375
1758527999.971828,0.67041015625,0.08984375,0.7646484375,-9.33837890625,7.4462890625,0.30517578125,4.4879150390625,-42.71484375,-44.9560546875
1758527999.9813778,0.67041015625,0.08984375,0.7646484375,-9.33837890625,7.4462890625,0.30517578125,4.3890380859375,-42.6434326171875,-44.9505615234375
1758527999.9913688,0.7001953125,0.0419921875,0.7275390625,-10.009765625,6.40869140625,0.67138671875,4.2901611328125,-42.572021484375,-44.945068359375
1758528000.002105,0.7001953125,0.0419921875,0.7275390625,-10.009765625,6.40869140625,0.67138671875,4.1802978515625,-42.5115966796875,-44.9395751953125
1758528000.0123324,0.69482421875,0.0009765625,0.74267578125,-9.70458984375,5.06591796875,-0.30517578125,4.0814208984375,-42.4566650390625,-44.9395751953125
1758528000.0213628,0.69482421875,0.0009765625,0.74267578125,-9.70458984375,5.06591796875,-0.30517578125,3.9825439453125,-42.4072265625,-44.945068359375
1758528000.0316978,0.685546875,0.0625,0.77734375,-5.06591796875,3.23486328125,-0.54931640625,3.9111328125,-42.3687744140625,-44.9560546875
1758528000.041541,0.685546875,0.0625,0.77734375,-5.06591796875,3.23486328125,-0.54931640625,3.8616943359375,-42.34130859375,-44.967041015625
1758528000.0515282,0.7333984375,0.0634765625,0.73681640625,-5.859375,1.0986328125,0.0,3.812255859375,-42.3193359375,-44.9725341796875
1758528000.0614123,0.7333984375,0.0634765625,0.73681640625,-5.859375,1.0986328125,0.0,3.7518310546875,-42.308349609375,-44.97802734375
1758528000.072119,0.69482421875,0.0244140625,0.7900390625,-8.7890625,-0.6103515625,0.732421875,3.680419921875,-42.3138427734375,-44.97802734375
1758528000.0815322,0.69482421875,0.0244140625,0.7900390625,-8.7890625,-0.6103515625,0.732421875,3.5870361328125,-42.3248291015625,-44.9725341796875
1758528000.091552,0.6962890625,0.00439453125,0.7392578125,-4.39453125,-2.685546875,1.3427734375,3.5101318359375,-42.34130859375,-44.967041015625
1758528000.1015227,0.6962890625,0.00439453125,0.7392578125,-4.39453125,-2.685546875,1.3427734375,3.4552001953125,-42.3687744140625,-44.9560546875
1758528000.1122499,0.68505859375,0.03466796875,0.75048828125,-0.30517578125,-4.39453125,1.77001953125,3.416748046875,-42.4072265625,-44.945068359375
1758528000.1214833,0.68505859375,0.03466796875,0.75048828125,-0.30517578125,-4.39453125,1.77001953125,3.4002685546875,-42.4566650390625,-44.9285888671875
1758528000.1316257,0.72216796875,0.06982421875,0.7509765625,-2.25830078125,-6.2255859375,2.50244140625,3.3673095703125,-42.5115966796875,-44.912109375
1758528000.1416674,0.72216796875,0.06982421875,0.7509765625,-2.25830078125,-6.2255859375,2.50244140625,3.3233642578125,-42.5775146484375,-44.89013671875
1758528000.1516259,0.70703125,0.03759765625,0.751953125,-4.150390625,-7.568359375,2.86865234375,3.27392578125,-42.64892578125,-44.8626708984375
1758528000.1614947,0.70703125,0.03759765625,0.751953125,-4.150390625,-7.568359375,2.86865234375,3.2080078125,-42.725830078125,-44.835205078125
1758528000.1721942,0.6689453125,0.00732421875,0.73095703125,1.89208984375,-8.23974609375,2.44140625,3.175048828125,-42.8082275390625,-44.8077392578125
1758528000.1817055,0.6689453125,0.00732421875,0.73095703125,1.89208984375,-8.23974609375,2.44140625,3.175048828125,-42.8961181640625,-44.791259765625
1758528000.191625,0.6767578125,0.03564453125,0.72607421875,2.197265625,-8.60595703125,1.52587890625,3.1805419921875,-42.978515625,-44.7747802734375
1758528000.2015774,0.6767578125,0.03564453125,0.72607421875,2.197265625,-8.60595703125,1.52587890625,3.1915283203125,-43.06640625,-44.769287109375
1758528000.2122192,0.708984375,0.0703125,0.7392578125,2.74658203125,-9.1552734375,0.91552734375,3.2080078125,-43.154296875,-44.769287109375
1758528000.2255826,0.708984375,0.0703125,0.7392578125,2.74658203125,-9.1552734375,0.91552734375,3.22998046875,-43.2421875,-44.769287109375
1758528000.234867,0.72021484375,0.0283203125,0.76220703125,5.06591796875,-9.6435546875,0.30517578125,3.2684326171875,-43.3355712890625,-44.7747802734375
1758528000.242177,0.72021484375,0.0283203125,0.76220703125,5.06591796875,-9.6435546875,0.30517578125,3.3233642578125,-43.428955078125,-44.7857666015625
1758528000.2517233,0.6982421875,0.04736328125,0.75341796875,4.33349609375,-10.31494140625,-0.42724609375,3.372802734375,-43.52783203125,-44.80224609375
1758528000.2617793,0.6982421875,0.04736328125,0.75341796875,4.33349609375,-10.31494140625,-0.42724609375,3.4222412109375,-43.626708984375,-44.82421875
1758528000.2719433,0.7001953125,0.0517578125,0.7177734375,2.8076171875,-10.55908203125,-0.732421875,3.4716796875,-43.7255859375,-44.8516845703125
1758528000.2816112,0.7001953125,0.0517578125,0.7177734375,2.8076171875,-10.55908203125,-0.732421875,3.5101318359375,-43.8299560546875,-44.879150390625
1758528000.2917342,0.689453125,0.05029296875,0.720703125,1.0986328125,-10.43701171875,-1.220703125,3.5430908203125,-43.9288330078125,-44.912109375
1758528000.3019912,0.689453125,0.05029296875,0.720703125,1.0986328125,-10.43701171875,-1.220703125,3.570556640625,-44.0277099609375,-44.945068359375
1758528000.3122458,0.6923828125,0.0556640625,0.720703125,-0.30517578125,-10.3759765625,-1.64794921875,3.5980224609375,-44.1265869140625,-44.9835205078125
1758528000.3216512,0.6923828125,0.0556640625,0.720703125,-0.30517578125,-10.3759765625,-1.64794921875,3.614501953125,-44.2254638671875,-45.0274658203125
1758528000.332338,0.73388671875,0.02978515625,0.74853515625,2.13623046875,-10.68115234375,-2.13623046875,3.6474609375,-44.3243408203125,-45.0714111328125
1758528000.342416,0.73388671875,0.02978515625,0.74853515625,2.13623046875,-10.68115234375,-2.13623046875,3.6968994140625,-44.4232177734375,-45.120849609375
1758528000.3517716,0.74462890625,0.04296875,0.7451171875,4.7607421875,-11.41357421875,-2.685546875,3.75732421875,-44.527587890625,-45.1702880859375
1758528000.3616753,0.74462890625,0.04296875,0.7451171875,4.7607421875,-11.41357421875,-2.685546875,3.8397216796875,-44.6319580078125,-45.230712890625
1758528000.3721511,0.72900390625,0.0498046875,0.720703125,4.39453125,-12.451171875,-2.685546875,3.9166259765625,-44.747314453125,-45.28564453125
1758528000.3819578,0.72900390625,0.0498046875,0.720703125,4.39453125,-12.451171875,-2.685546875,3.9935302734375,-44.8626708984375,-45.3460693359375
1758528000.3918254,0.71728515625,0.05029296875,0.7275390625,2.44140625,-13.427734375,-2.38037109375,4.0594482421875,-44.9835205078125,-45.4010009765625
1758528000.4016874,0.71728515625,0.05029296875,0.7275390625,2.44140625,-13.427734375,-2.38037109375,4.10888671875,-45.10986328125,-45.4559326171875
1758528000.4131143,0.71337890625,0.05029296875,0.69921875,0.1220703125,-14.09912109375,-2.25830078125,4.15283203125,-45.24169921875,-45.5108642578125
1758528000.4217548,0.71337890625,0.05029296875,0.69921875,0.1220703125,-14.09912109375,-2.25830078125,4.185791015625,-45.37353515625,-45.5657958984375
1758528000.431899,0.73046875,0.04052734375,0.7021484375,1.220703125,-14.09912109375,-1.953125,4.21875,-45.50537109375,-45.6207275390625
1758528000.4423294,0.73046875,0.04052734375,0.7021484375,1.220703125,-14.09912109375,-1.953125,4.2572021484375,-45.6427001953125,-45.670166015625
1758528000.4518993,0.7373046875,0.0537109375,0.71875,3.23486328125,-13.916015625,-1.64794921875,4.306640625,-45.7745361328125,-45.7196044921875
1758528000.461747,0.7373046875,0.0537109375,0.71875,3.23486328125,-13.916015625,-1.64794921875,4.361572265625,-45.9063720703125,-45.7635498046875
1758528000.4719493,0.72265625,0.0634765625,0.70068359375,-0.8544921875,-13.24462890625,-1.46484375,4.4000244140625,-46.03271484375,-45.8074951171875
1758528000.4823024,0.72265625,0.0634765625,0.70068359375,-0.8544921875,-13.24462890625,-1.46484375,4.4110107421875,-46.153564453125,-45.8514404296875
1758528000.49193,0.7412109375,0.08203125,0.70068359375,-7.75146484375,-12.451171875,-1.03759765625,4.3890380859375,-46.2744140625,-45.889892578125
1758528000.501792,0.7412109375,0.08203125,0.70068359375,-7.75146484375,-12.451171875,-1.03759765625,4.3341064453125,-46.3897705078125,-45.9283447265625
1758528000.5122037,0.73828125,0.0625,0.6943359375,-11.41357421875,-11.5966796875,-0.3662109375,4.2572021484375,-46.505126953125,-45.955810546875
1758528000.5219774,0.73828125,0.0625,0.6943359375,-11.41357421875,-11.5966796875,-0.3662109375,4.1583251953125,-46.614990234375,-45.9832763671875
1758528000.531936,0.7822265625,0.03173828125,0.720703125,-4.57763671875,-11.16943359375,-0.244140625,4.0924072265625,-46.7193603515625,-46.0052490234375
1758528000.5418131,0.7822265625,0.03173828125,0.720703125,-4.57763671875,-11.16943359375,-0.244140625,4.0594482421875,-46.82373046875,-46.0272216796875
1758528000.5524273,0.7646484375,0.0087890625,0.72412109375,2.01416015625,-11.29150390625,-0.3662109375,4.0594482421875,-46.93359375,-46.0491943359375
1758528000.5618038,0.7646484375,0.0087890625,0.72412109375,2.01416015625,-11.29150390625,-0.3662109375,4.0869140625,-47.0379638671875,-46.0711669921875
1758528000.5719929,0.78466796875,0.0419921875,0.6796875,-0.9765625,-11.29150390625,-0.54931640625,4.1033935546875,-47.142333984375,-46.0986328125
1758528000.5824196,0.78466796875,0.0419921875,0.6796875,-0.9765625,-11.29150390625,-0.54931640625,4.1033935546875,-47.252197265625,-46.12060546875
1758528000.5921307,0.767578125,0.08349609375,0.71826171875,-4.2724609375,-11.77978515625,-0.18310546875,4.0869140625,-47.362060546875,-46.142578125
1758528000.6018193,0.767578125,0.08349609375,0.71826171875,-4.2724609375,-11.77978515625,-0.18310546875,4.0594482421875,-47.471923828125,-46.1590576171875
1758528000.6120098,0.75048828125,0.05615234375,0.68896484375,-0.48828125,-12.26806640625,0.18310546875,4.04296875,-47.5872802734375,-46.175537109375
1758528000.6223981,0.75048828125,0.05615234375,0.68896484375,-0.48828125,-12.26806640625,0.18310546875,4.0484619140625,-47.70263671875,-46.1920166015625
1758528000.6320055,0.71875,0.0830078125,0.66796875,-7.14111328125,-12.5732421875,0.3662109375,4.0155029296875,-47.823486328125,-46.20849609375
1758528000.642524,0.71875,0.0830078125,0.66796875,-7.14111328125,-12.5732421875,0.3662109375,3.955078125,-47.9443359375,-46.219482421875
1758528000.6520257,0.705078125,0.08349609375,0.61572265625,-18.49365234375,-11.77978515625,0.91552734375,3.834228515625,-48.05419921875,-46.23046875
1758528000.6618977,0.705078125,0.08349609375,0.61572265625,-18.49365234375,-11.77978515625,0.91552734375,3.658447265625,-48.1695556640625,-46.23046875
1758528000.6720722,0.6494140625,0.0029296875,0.58349609375,-18.00537109375,-9.8876953125,0.79345703125,3.482666015625,-48.2684326171875,-46.2359619140625
1758528000.6847868,0.6494140625,0.0029296875,0.58349609375,-18.00537109375,-9.8876953125,0.79345703125,3.306884765625,-48.36181640625,-46.241455078125
1758528000.692493,0.66455078125,0.01416015625,0.61474609375,-9.70458984375,-8.056640625,0.8544921875,3.175048828125,-48.4442138671875,-46.241455078125
1758528000.7019596,0.66455078125,0.01416015625,0.61474609375,-9.70458984375,-8.056640625,0.8544921875,3.076171875,-48.5211181640625,-46.241455078125
1758528000.7123704,0.68359375,0.01171875,0.59716796875,-1.0986328125,-6.103515625,1.3427734375,3.021240234375,-48.58154296875,-46.2359619140625
1758528000.725964,0.68359375,0.01171875,0.59716796875,-1.0986328125,-6.103515625,1.3427734375,2.999267578125,-48.636474609375,-46.23046875
1758528000.7326949,0.7041015625,0.01611328125,0.6123046875,-0.42724609375,-3.90625,1.15966796875,2.9827880859375,-48.680419921875,-46.219482421875
1758528000.7419636,0.7041015625,0.01611328125,0.6123046875,-0.42724609375,-3.90625,1.15966796875,2.9718017578125,-48.71337890625,-46.20849609375
1758528000.7587328,0.71728515625,0.017578125,0.66259765625,1.03759765625,-2.50244140625,1.0986328125,2.9608154296875,-48.7408447265625,-46.2030029296875
1758528000.765463,0.71728515625,0.017578125,0.66259765625,1.03759765625,-2.50244140625,1.0986328125,2.9608154296875,-48.7628173828125,-46.1920166015625
1758528000.7719896,0.716796875,0.0224609375,0.6162109375,4.33349609375,-1.5869140625,0.91552734375,2.977294921875,-48.7738037109375,-46.1865234375
1758528000.7820082,0.716796875,0.0224609375,0.6162109375,4.33349609375,-1.5869140625,0.91552734375,3.01025390625,-48.7847900390625,-46.1810302734375
1758528000.7960844,0.7080078125,0.05126953125,0.62451171875,6.77490234375,-0.3662109375,0.732421875,3.05419921875,-48.790283203125,-46.175537109375
1758528000.8029976,0.7080078125,0.05126953125,0.62451171875,6.77490234375,-0.3662109375,0.732421875,3.1146240234375,-48.790283203125,-46.1700439453125
1758528000.8121767,0.712890625,0.03759765625,0.625,4.57763671875,0.42724609375,0.9765625,3.1585693359375,-48.790283203125,-46.1590576171875
1758528000.8322496,0.712890625,0.03759765625,0.625,4.57763671875,0.42724609375,0.9765625,3.1915283203125,-48.779296875,-46.1480712890625
1758528000.8387017,0.7255859375,0.0322265625,0.65087890625,4.150390625,0.8544921875,0.9765625,3.2244873046875,-48.7738037109375,-46.1370849609375
1758528000.8453693,0.7255859375,0.0322265625,0.65087890625,4.150390625,0.8544921875,0.9765625,3.251953125,-48.7628173828125,-46.1260986328125
1758528000.852465,0.7578125,0.0263671875,0.646484375,4.5166015625,0.732421875,0.67138671875,3.284912109375,-48.7518310546875,-46.1151123046875
1758528000.8662407,0.7578125,0.0263671875,0.646484375,4.5166015625,0.732421875,0.67138671875,3.31787109375,-48.7408447265625,-46.109619140625
1758528000.8728483,0.77197265625,0.04345703125,0.68115234375,4.0283203125,0.48828125,0.244140625,3.3563232421875,-48.7353515625,-46.1041259765625
1758528000.8822799,0.77197265625,0.04345703125,0.68115234375,4.0283203125,0.48828125,0.244140625,3.3892822265625,-48.724365234375,-46.1041259765625
1758528000.8976028,0.7421875,0.080078125,0.6396484375,1.15966796875,0.0,0.42724609375,3.4112548828125,-48.724365234375,-46.0986328125
1758528000.9043906,0.7421875,0.080078125,0.6396484375,1.15966796875,0.0,0.42724609375,3.416748046875,-48.724365234375,-46.0986328125
1758528000.9122086,0.701171875,0.0107421875,0.63232421875,0.06103515625,0.18310546875,0.8544921875,3.416748046875,-48.7188720703125,-46.087646484375
1758528000.9261549,0.701171875,0.0107421875,0.63232421875,0.06103515625,0.18310546875,0.8544921875,3.4112548828125,-48.7188720703125,-46.07666015625
1758528000.933935,0.72607421875,0.01123046875,0.60888671875,1.28173828125,0.48828125,0.6103515625,3.40576171875,-48.71337890625,-46.065673828125
1758528000.9429157,0.72607421875,0.01123046875,0.60888671875,1.28173828125,0.48828125,0.6103515625,3.4112548828125,-48.7078857421875,-46.0601806640625
1758528000.952195,0.72607421875,0.01123046875,0.60888671875,2.685546875,0.8544921875,0.244140625,3.4222412109375,-48.702392578125,-46.0546875
1758528000.9682727,0.7529296875,0.025390625,0.68017578125,2.685546875,0.8544921875,0.244140625,3.438720703125,-48.69140625,-46.0491943359375
1758528000.9747865,0.75,0.0322265625,0.63623046875,1.46484375,1.52587890625,0.18310546875,3.4552001953125,-48.680419921875,-46.0491943359375
1758528000.9822588,0.75,0.0322265625,0.63623046875,1.46484375,1.52587890625,0.18310546875,3.460693359375,-48.6639404296875,-46.043701171875
1758528000.9925475,0.73974609375,0.0576171875,0.65625,2.74658203125,2.13623046875,0.0,3.4771728515625,-48.6474609375,-46.043701171875
1758528001.0058472,0.73974609375,0.0576171875,0.65625,2.74658203125,2.13623046875,0.0,3.4991455078125,-48.62548828125,-46.043701171875
1758528001.0138419,0.7294921875,0.04345703125,0.67578125,-0.3662109375,1.953125,1.0986328125,3.504638671875,-48.6090087890625,-46.03271484375
1758528001.0231705,0.7294921875,0.04345703125,0.67578125,-0.3662109375,1.953125,1.0986328125,3.482666015625,-48.5870361328125,-46.021728515625
1758528001.0322576,0.76806640625,0.0390625,0.62890625,-5.0048828125,1.708984375,1.52587890625,3.438720703125,-48.570556640625,-45.999755859375
1758528001.049132,0.76806640625,0.0390625,0.62890625,-5.0048828125,1.708984375,1.52587890625,3.372802734375,-48.5540771484375,-45.977783203125
1758528001.0556953,0.763671875,0.06494140625,0.67138671875,-1.64794921875,2.01416015625,1.77001953125,3.3343505859375,-48.53759765625,-45.9503173828125
1758528001.062419,0.763671875,0.06494140625,0.67138671875,-1.64794921875,2.01416015625,1.77001953125,3.2958984375,-48.5211181640625,-45.9228515625
1758528001.0752525,0.77880859375,0.05517578125,0.70166015625,-4.21142578125,1.64794921875,2.5634765625,3.22998046875,-48.504638671875,-45.8843994140625
1758528001.082268,0.77880859375,0.05517578125,0.70166015625,-4.21142578125,1.64794921875,2.5634765625,3.1640625,-48.4881591796875,-45.845947265625
1758528001.0925307,0.79443359375,0.0244140625,0.68994140625,-5.55419921875,0.91552734375,2.50244140625,3.0816650390625,-48.482666015625,-45.8074951171875
1758528001.1067984,0.79443359375,0.0244140625,0.68994140625,-5.55419921875,0.91552734375,2.50244140625,2.999267578125,-48.4771728515625,-45.76904296875
1758528001.112997,0.78173828125,0.02587890625,0.6787109375,-4.69970703125,0.1220703125,2.25830078125,2.933349609375,-48.4771728515625,-45.736083984375
1758528001.1227164,0.78173828125,0.02587890625,0.6787109375,-4.69970703125,0.1220703125,2.25830078125,2.8619384765625,-48.4771728515625,-45.703125
1758528001.1325088,0.7861328125,0.04150390625,0.68017578125,-4.33349609375,-0.48828125,1.89208984375,2.801513671875,-48.4881591796875,-45.6756591796875
1758528001.1467428,0.7861328125,0.04150390625,0.68017578125,-4.33349609375,-0.48828125,1.89208984375,2.7410888671875,-48.49365234375,-45.648193359375
1758528001.152906,0.78173828125,0.03662109375,0.66845703125,-3.84521484375,-1.46484375,1.5869140625,2.6861572265625,-48.5101318359375,-45.626220703125
1758528001.162373,0.78173828125,0.03662109375,0.66845703125,-3.84521484375,-1.46484375,1.5869140625,2.63671875,-48.526611328125,-45.604248046875
1758528001.1788688,0.7744140625,0.03955078125,0.6787109375,-6.7138671875,-2.3193359375,1.52587890625,2.5543212890625,-48.5540771484375,-45.582275390625
1758528001.1851509,0.7744140625,0.03955078125,0.6787109375,-6.7138671875,-2.3193359375,1.52587890625,2.4774169921875,-48.58154296875,-45.5657958984375
1758528001.1931472,0.77001953125,0.013671875,0.677734375,-5.79833984375,-3.96728515625,1.77001953125,2.406005859375,-48.6199951171875,-45.538330078125
1758528001.2026813,0.77001953125,0.013671875,0.677734375,-5.79833984375,-3.96728515625,1.77001953125,2.3345947265625,-48.6639404296875,-45.516357421875
1758528001.2129784,0.77734375,0.0263671875,0.65185546875,-3.60107421875,-4.82177734375,1.0986328125,2.2906494140625,-48.71337890625,-45.50537109375
1758528001.222498,0.77734375,0.0263671875,0.65185546875,-3.60107421875,-4.82177734375,1.0986328125,2.2467041015625,-48.7628173828125,-45.494384765625
1758528001.2325351,0.76171875,0.03515625,0.6572265625,-1.89208984375,-5.43212890625,0.42724609375,2.230224609375,-48.8177490234375,-45.4888916015625
1758528001.2433984,0.76171875,0.03515625,0.6572265625,-1.89208984375,-5.43212890625,0.42724609375,2.2137451171875,-48.8726806640625,-45.4888916015625
1758528001.2525184,0.7275390625,0.03271484375,0.64697265625,-3.5400390625,-5.859375,0.54931640625,2.17529296875,-48.93310546875,-45.4833984375
1758528001.2625024,0.7275390625,0.03271484375,0.64697265625,-3.5400390625,-5.859375,0.54931640625,2.142333984375,-48.9935302734375,-45.4779052734375
1758528001.2745216,0.7529296875,0.00927734375,0.6455078125,-4.638671875,-5.9814453125,0.54931640625,2.0928955078125,-49.053955078125,-45.4779052734375
1758528001.2828302,0.7529296875,0.00927734375,0.6455078125,-4.638671875,-5.9814453125,0.54931640625,2.0489501953125,-49.10888671875,-45.472412109375
1758528001.2935767,0.7705078125,0.01806640625,0.65185546875,1.46484375,-6.103515625,0.0,2.0654296875,-49.1693115234375,-45.4779052734375
1758528001.3025067,0.7705078125,0.01806640625,0.65185546875,1.46484375,-6.103515625,0.0,2.08740234375,-49.229736328125,-45.4833984375
1758528001.3139799,0.76171875,0.03564453125,0.65087890625,1.0986328125,-6.04248046875,-0.244140625,2.1038818359375,-49.2901611328125,-45.494384765625
1758528001.322526,0.76171875,0.03564453125,0.65087890625,1.0986328125,-6.04248046875,-0.244140625,2.120361328125,-49.3505859375,-45.50537109375
1758528001.3327835,0.74267578125,0.04736328125,0.63720703125,-1.3427734375,-5.9814453125,-0.244140625,2.1148681640625,-49.4110107421875,-45.5108642578125
1758528001.3425665,0.74267578125,0.04736328125,0.63720703125,-1.3427734375,-5.9814453125,-0.244140625,2.1148681640625,-49.4659423828125,-45.5218505859375
1758528001.3535156,0.76611328125,-0.013671875,0.63525390625,-0.18310546875,-5.92041015625,-0.42724609375,2.120361328125,-49.5263671875,-45.5328369140625
1758528001.362542,0.76611328125,-0.013671875,0.63525390625,-0.18310546875,-5.92041015625,-0.42724609375,2.1258544921875,-49.581298828125,-45.5438232421875
1758528001.372876,0.7744140625,0.0068359375,0.6484375,4.69970703125,-5.92041015625,-1.28173828125,2.1917724609375,-49.6417236328125,-45.5657958984375
1758528001.3826368,0.7744140625,0.0068359375,0.6484375,4.69970703125,-5.92041015625,-1.28173828125,2.252197265625,-49.7021484375,-45.5877685546875
1758528001.3939507,0.77978515625,0.03466796875,0.67333984375,8.36181640625,-5.79833984375,-2.0751953125,2.362060546875,-49.757080078125,-45.626220703125
1758528001.402665,0.77978515625,0.03466796875,0.67333984375,8.36181640625,-5.79833984375,-2.0751953125,2.4664306640625,-49.81201171875,-45.6591796875
1758528001.413615,0.77490234375,0.01953125,0.62060546875,8.97216796875,-5.92041015625,-2.38037109375,2.5872802734375,-49.866943359375,-45.703125
1758528001.422677,0.77490234375,0.01953125,0.62060546875,8.97216796875,-5.92041015625,-2.38037109375,2.70263671875,-49.921875,-45.7415771484375
1758528001.4332583,0.7490234375,0.015625,0.6533203125,7.4462890625,-6.103515625,-2.13623046875,2.801513671875,-49.9822998046875,-45.780029296875
1758528001.4426522,0.7490234375,0.015625,0.6533203125,7.4462890625,-6.103515625,-2.13623046875,2.900390625,-50.042724609375,-45.8184814453125
1758528001.4528902,0.7578125,0.03271484375,0.6171875,7.38525390625,-6.2255859375,-1.8310546875,2.9937744140625,-50.09765625,-45.8514404296875
1758528001.4626958,0.7578125,0.03271484375,0.6171875,7.38525390625,-6.2255859375,-1.8310546875,3.087158203125,-50.1580810546875,-45.8843994140625
1758528001.4728508,0.7705078125,0.03125,0.64013671875,5.615234375,-5.4931640625,-1.5869140625,3.1585693359375,-50.2130126953125,-45.911865234375
1758528001.4826736,0.7705078125,0.03125,0.64013671875,5.615234375,-5.4931640625,-1.5869140625,3.22998046875,-50.262451171875,-45.9393310546875
1758528001.4931812,0.76708984375,0.03076171875,0.64208984375,6.7138671875,-5.18798828125,-1.15966796875,3.306884765625,-50.3118896484375,-45.9613037109375
1758528001.5031815,0.76708984375,0.03076171875,0.64208984375,6.7138671875,-5.18798828125,-1.15966796875,3.3892822265625,-50.361328125,-45.98876953125
1758528001.512727,0.751953125,0.03125,0.615234375,4.7607421875,-5.18798828125,-0.42724609375,3.438720703125,-50.4107666015625,-45.999755859375
1758528001.5226827,0.751953125,0.03125,0.615234375,4.7607421875,-5.18798828125,-0.42724609375,3.4881591796875,-50.460205078125,-46.0107421875
1758528001.5330043,0.72802734375,0.01904296875,0.61767578125,5.2490234375,-5.126953125,0.244140625,3.5321044921875,-50.5096435546875,-46.0107421875
1758528001.5427127,0.72802734375,0.01904296875,0.61767578125,5.2490234375,-5.126953125,0.244140625,3.58154296875,-50.5535888671875,-46.0162353515625
1758528001.5527446,0.75048828125,0.0341796875,0.59033203125,6.40869140625,-4.638671875,0.732421875,3.6309814453125,-50.5975341796875,-46.0107421875
1758528001.5628731,0.75048828125,0.0341796875,0.59033203125,6.40869140625,-4.638671875,0.732421875,3.680419921875,-50.64697265625,-46.0052490234375
1758528001.572967,0.78759765625,0.0439453125,0.654296875,6.591796875,-3.35693359375,0.79345703125,3.7353515625,-50.6744384765625,-45.9942626953125
1758528001.5827794,0.78759765625,0.0439453125,0.654296875,6.591796875,-3.35693359375,0.79345703125,3.7847900390625,-50.7073974609375,-45.98876953125
1758528001.5936964,0.802734375,0.04345703125,0.6513671875,4.94384765625,-2.685546875,0.67138671875,3.8232421875,-50.73486328125,-45.9832763671875
1758528001.6030326,0.802734375,0.04345703125,0.6513671875,4.94384765625,-2.685546875,0.67138671875,3.8616943359375,-50.7568359375,-45.977783203125
1758528001.6129675,0.7685546875,0.04052734375,0.63623046875,5.31005859375,-2.50244140625,0.6103515625,3.9056396484375,-50.77880859375,-45.9722900390625
1758528001.622859,0.7685546875,0.04052734375,0.63623046875,5.31005859375,-2.50244140625,0.6103515625,3.944091796875,-50.8062744140625,-45.966796875
1758528001.633152,0.75732421875,0.03466796875,0.61376953125,4.69970703125,-2.685546875,0.732421875,3.9825439453125,-50.8282470703125,-45.955810546875
1758528001.642831,0.75732421875,0.03466796875,0.61376953125,4.69970703125,-2.685546875,0.732421875,4.0155029296875,-50.855712890625,-45.9503173828125
1758528001.6530085,0.75732421875,0.03466796875,0.61376953125,6.77490234375,-2.01416015625,0.30517578125,4.075927734375,-50.8721923828125,-45.9503173828125
1758528001.663204,0.77783203125,0.05322265625,0.6044921875,6.77490234375,-2.01416015625,0.30517578125,4.1363525390625,-50.8941650390625,-45.94482421875
1758528001.672909,0.80322265625,0.0693359375,0.65869140625,2.50244140625,-1.5869140625,0.3662109375,4.1583251953125,-50.91064453125,-45.94482421875
1758528001.6828387,0.80322265625,0.0693359375,0.65869140625,2.50244140625,-1.5869140625,0.3662109375,4.1802978515625,-50.921630859375,-45.9393310546875
1758528001.6937878,0.81005859375,0.07666015625,0.65234375,-5.0048828125,-1.953125,0.91552734375,4.119873046875,-50.943603515625,-45.9283447265625
1758528001.7030303,0.81005859375,0.07666015625,0.65234375,-5.0048828125,-1.953125,0.91552734375,4.0594482421875,-50.9600830078125,-45.9173583984375
1758528001.7130516,0.80078125,0.060546875,0.6337890625,-8.4228515625,-2.25830078125,1.46484375,3.966064453125,-50.9820556640625,-45.90087890625
1758528001.7268896,0.80078125,0.060546875,0.6337890625,-8.4228515625,-2.25830078125,1.46484375,3.8671875,-51.0040283203125,-45.8843994140625
1758528001.7357197,0.80419921875,0.025390625,0.63623046875,-7.2021484375,-2.25830078125,1.15966796875,3.7847900390625,-51.031494140625,-45.867919921875
1758528001.743157,0.80419921875,0.025390625,0.63623046875,-7.2021484375,-2.25830078125,1.15966796875,3.7078857421875,-51.053466796875,-45.8514404296875
1758528001.7530708,0.80810546875,0.04248046875,0.64453125,-1.708984375,-2.38037109375,0.6103515625,3.6859130859375,-51.075439453125,-45.845947265625
1758528001.7641127,0.80810546875,0.04248046875,0.64453125,-1.708984375,-2.38037109375,0.6103515625,3.6639404296875,-51.1029052734375,-45.8349609375
1758528001.7729304,0.81982421875,0.0615234375,0.65087890625,-10.19287109375,-3.173828125,1.5869140625,3.548583984375,-51.1358642578125,-45.81298828125
1758528001.7835252,0.81982421875,0.0615234375,0.65087890625,-10.19287109375,-3.173828125,1.5869140625,3.438720703125,-51.1688232421875,-45.791015625
1758528001.7934132,0.82763671875,0.0048828125,0.66015625,-12.3291015625,-3.90625,2.01416015625,3.2958984375,-51.207275390625,-45.7635498046875
1758528001.8036098,0.82763671875,0.0048828125,0.66015625,-12.3291015625,-3.90625,2.01416015625,3.153076171875,-51.2457275390625,-45.7305908203125
1758528001.813015,0.7998046875,-0.03125,0.6220703125,-2.9296875,-4.08935546875,1.220703125,3.1146240234375,-51.2896728515625,-45.714111328125
1758528001.8240147,0.7998046875,-0.03125,0.6220703125,-2.9296875,-4.08935546875,1.220703125,3.065185546875,-51.328125,-45.6976318359375
1758528001.833299,0.79345703125,0.00634765625,0.6240234375,2.38037109375,-4.150390625,0.30517578125,3.087158203125,-51.3720703125,-45.692138671875
1758528001.843053,0.79345703125,0.00634765625,0.6240234375,2.38037109375,-4.150390625,0.30517578125,3.1036376953125,-51.416015625,-45.692138671875
1758528001.8531675,0.810546875,0.033203125,0.62255859375,0.0,-4.8828125,0.48828125,3.0926513671875,-51.4654541015625,-45.6866455078125
1758528001.862993,0.810546875,0.033203125,0.62255859375,0.0,-4.8828125,0.48828125,3.087158203125,-51.514892578125,-45.68115234375
1758528001.872992,0.794921875,0.06103515625,0.64453125,-5.43212890625,-5.79833984375,1.28173828125,3.0157470703125,-51.5753173828125,-45.6646728515625
1758528001.8834064,0.794921875,0.06103515625,0.64453125,-5.43212890625,-5.79833984375,1.28173828125,2.9498291015625,-51.6302490234375,-45.648193359375
1758528001.8933804,0.7783203125,0.02783203125,0.591796875,-3.662109375,-5.9814453125,1.89208984375,2.8948974609375,-51.690673828125,-45.6207275390625
1758528001.9031549,0.7783203125,0.02783203125,0.591796875,-3.662109375,-5.9814453125,1.89208984375,2.83447265625,-51.7510986328125,-45.59326171875
1758528001.9133039,0.76904296875,0.0126953125,0.583984375,1.03759765625,-5.615234375,1.5869140625,2.8289794921875,-51.8115234375,-45.5712890625
1758528001.923099,0.76904296875,0.0126953125,0.583984375,1.03759765625,-5.615234375,1.5869140625,2.823486328125,-51.866455078125,-45.54931640625
1758528001.9331367,0.740234375,0.07080078125,0.58740234375,3.7841796875,-5.126953125,1.89208984375,2.8399658203125,-51.9158935546875,-45.5218505859375
1758528001.9434125,0.740234375,0.07080078125,0.58740234375,3.7841796875,-5.126953125,1.89208984375,2.8564453125,-51.9708251953125,-45.494384765625
1758528001.953306,0.740234375,0.07080078125,0.58740234375,-1.46484375,-5.43212890625,3.35693359375,2.8070068359375,-52.0257568359375,-45.4449462890625
1758528001.9631104,0.76171875,0.04736328125,0.6083984375,-1.46484375,-5.43212890625,3.35693359375,2.757568359375,-52.0806884765625,-45.3955078125
1758528001.9731047,0.76171875,-0.0234375,0.57275390625,-6.28662109375,-5.31005859375,4.150390625,2.647705078125,-52.130126953125,-45.3350830078125
1758528001.9835644,0.76171875,-0.0234375,0.57275390625,-6.28662109375,-5.31005859375,4.150390625,2.5323486328125,-52.18505859375,-45.2691650390625
1758528001.993435,0.75,-0.0107421875,0.57080078125,0.0,-3.90625,3.35693359375,2.493896484375,-52.2235107421875,-45.2197265625
1758528002.003273,0.75,-0.0107421875,0.57080078125,0.0,-3.90625,3.35693359375,2.449951171875,-52.261962890625,-45.164794921875
1758528002.0134747,0.74755859375,0.0625,0.583984375,-1.03759765625,-2.44140625,3.84521484375,2.3895263671875,-52.2894287109375,-45.1043701171875
1758528002.0260324,0.74755859375,0.0625,0.583984375,-1.03759765625,-2.44140625,3.84521484375,2.3291015625,-52.3114013671875,-45.0439453125
1758528002.0349238,0.76318359375,0.076171875,0.60546875,-2.8076171875,-1.708984375,6.103515625,2.230224609375,-52.3333740234375,-44.945068359375
1758528002.0432532,0.76318359375,0.076171875,0.60546875,-2.8076171875,-1.708984375,6.103515625,2.13134765625,-52.349853515625,-44.8516845703125
1758528002.0535822,0.7822265625,-0.02685546875,0.615234375,-3.0517578125,-0.9765625,7.080078125,2.0159912109375,-52.36083984375,-44.7418212890625
1758528002.0632358,0.7822265625,-0.02685546875,0.615234375,-3.0517578125,-0.9765625,7.080078125,1.8951416015625,-52.3663330078125,-44.62646484375
1758528002.0732417,0.84521484375,-0.04052734375,0.60107421875,0.54931640625,-1.15966796875,6.89697265625,1.812744140625,-52.3828125,-44.5166015625
1758528002.0832696,0.84521484375,-0.04052734375,0.60107421875,0.54931640625,-1.15966796875,6.89697265625,1.724853515625,-52.393798828125,-44.40673828125
1758528002.0942569,0.77880859375,0.1015625,0.630859375,-5.37109375,-1.46484375,7.6904296875,1.5765380859375,-52.4102783203125,-44.2803955078125
1758528002.1033983,0.748046875,0.04296875,0.58203125,-0.8544921875,0.0,8.48388671875,1.4447021484375,-52.4212646484375,-44.154052734375
1758528002.1136022,0.748046875,0.04296875,0.58203125,-0.8544921875,0.0,8.48388671875,1.3348388671875,-52.4212646484375,-44.022216796875
1758528002.1235669,0.80078125,-0.02783203125,0.60888671875,-6.103515625,1.46484375,7.50732421875,1.2030029296875,-52.415771484375,-43.890380859375
1758528002.1340384,0.80078125,-0.02783203125,0.60888671875,-6.103515625,1.46484375,7.50732421875,1.0491943359375,-52.3992919921875,-43.7750244140625
1758528002.1432724,0.82763671875,-0.009765625,0.6455078125,0.42724609375,2.01416015625,5.2490234375,0.94482421875,-52.3828125,-43.670654296875
1758528002.1536388,0.82763671875,-0.009765625,0.6455078125,0.42724609375,2.01416015625,5.2490234375,0.87890625,-52.3663330078125,-43.5882568359375
1758528002.1634092,0.81982421875,0.00439453125,0.6025390625,-4.39453125,2.25830078125,3.7841796875,0.802001953125,-52.3443603515625,-43.516845703125
1758528002.1736953,0.81982421875,0.00439453125,0.6025390625,-4.39453125,2.25830078125,3.7841796875,0.714111328125,-52.3223876953125,-43.4564208984375
1758528002.1833916,0.77783203125,0.07470703125,0.6416015625,-3.2958984375,2.0751953125,3.7841796875,0.6317138671875,-52.3004150390625,-43.39599609375
1758528002.1948442,0.77783203125,0.07470703125,0.6416015625,-3.2958984375,2.0751953125,3.7841796875,0.5548095703125,-52.2784423828125,-43.3355712890625
1758528002.2035515,0.79443359375,-0.00634765625,0.56787109375,1.708984375,2.25830078125,2.13623046875,0.516357421875,-52.261962890625,-43.2916259765625
1758528002.2139204,0.79443359375,-0.00634765625,0.56787109375,1.708984375,2.25830078125,2.13623046875,0.516357421875,-52.239990234375,-43.2586669921875
1758528002.22342,0.83544921875,-0.02978515625,0.66162109375,-0.91552734375,2.3193359375,-0.3662109375,0.5108642578125,-52.218017578125,-43.2476806640625
1758528002.2340143,0.83544921875,-0.02978515625,0.66162109375,-0.91552734375,2.3193359375,-0.3662109375,0.5108642578125,-52.196044921875,-43.253173828125
1758528002.2434108,0.84228515625,-0.01806640625,0.609375,-0.54931640625,0.91552734375,-1.77001953125,0.5218505859375,-52.1795654296875,-43.2696533203125
1758528002.2547052,0.84228515625,-0.01806640625,0.609375,-0.54931640625,0.91552734375,-1.77001953125,0.538330078125,-52.174072265625,-43.2916259765625
1758528002.2635162,0.75244140625,-0.0185546875,0.6015625,-3.0517578125,0.54931640625,-3.173828125,0.54931640625,-52.1685791015625,-43.330078125
1758528002.273392,0.75244140625,-0.0185546875,0.6015625,-3.0517578125,0.54931640625,-3.173828125,0.5548095703125,-52.1685791015625,-43.3795166015625
1758528002.2834475,0.75146484375,-0.02734375,0.55126953125,-0.3662109375,1.220703125,-3.90625,0.582275390625,-52.1575927734375,-43.4344482421875
1758528002.294086,0.75146484375,-0.02734375,0.55126953125,-0.3662109375,1.220703125,-3.90625,0.6207275390625,-52.1466064453125,-43.494873046875
1758528002.30407,0.79248046875,-0.09619140625,0.62744140625,1.708984375,1.3427734375,-5.126953125,0.6756591796875,-52.14111328125,-43.560791015625
1758528002.313483,0.79248046875,-0.09619140625,0.62744140625,1.708984375,1.3427734375,-5.126953125,0.7470703125,-52.1246337890625,-43.6376953125
1758528002.3235354,0.77880859375,-0.1826171875,0.5888671875,4.0283203125,0.6103515625,-8.23974609375,0.8404541015625,-52.119140625,-43.7420654296875
1758528002.3337526,0.77880859375,-0.1826171875,0.5888671875,4.0283203125,0.6103515625,-8.23974609375,0.9613037109375,-52.1136474609375,-43.8629150390625
1758528002.3435104,0.70556640625,-0.14111328125,0.56689453125,7.568359375,0.6103515625,-11.77978515625,1.109619140625,-52.108154296875,-44.0167236328125
1758528002.3538043,0.70556640625,-0.14111328125,0.56689453125,7.568359375,0.6103515625,-11.77978515625,1.2908935546875,-52.1026611328125,-44.197998046875
1758528002.363606,0.7724609375,-0.00732421875,0.5830078125,25.69580078125,1.77001953125,-14.7705078125,1.58203125,-52.086181640625,-44.4012451171875
1758528002.373554,0.7724609375,-0.00732421875,0.5830078125,25.69580078125,1.77001953125,-14.7705078125,1.9775390625,-52.064208984375,-44.6319580078125
1758528002.3835752,0.81640625,0.0517578125,0.638671875,14.6484375,1.28173828125,-16.54052734375,2.3345947265625,-52.0477294921875,-44.8736572265625
1758528002.3942862,0.81640625,0.0517578125,0.638671875,14.6484375,1.28173828125,-16.54052734375,2.6531982421875,-52.03125,-45.1263427734375
1758528002.4041984,0.8291015625,0.03076171875,0.625,3.96728515625,-0.6103515625,-17.2119140625,2.9278564453125,-52.020263671875,-45.3900146484375
1758528002.413614,0.8291015625,0.03076171875,0.625,3.96728515625,-0.6103515625,-17.2119140625,3.153076171875,-52.020263671875,-45.6536865234375
1758528002.4239962,0.78369140625,0.01171875,0.591796875,5.126953125,-1.40380859375,-19.287109375,3.4002685546875,-52.020263671875,-45.9393310546875
1758528002.4336433,0.78369140625,0.01171875,0.591796875,5.126953125,-1.40380859375,-19.287109375,3.6639404296875,-52.0257568359375,-46.2359619140625
1758528002.4436536,0.77734375,0.0673828125,0.61962890625,13.85498046875,-1.46484375,-20.01953125,3.97705078125,-52.03125,-46.5435791015625
1758528002.4543457,0.77734375,0.0673828125,0.61962890625,13.85498046875,-1.46484375,-20.01953125,4.3450927734375,-52.0367431640625,-46.8511962890625
1758528002.463668,0.77734375,0.0673828125,0.61962890625,14.22119140625,-1.89208984375,-17.76123046875,4.7021484375,-52.0367431640625,-47.142333984375
1758528002.473645,0.79150390625,0.1357421875,0.59912109375,14.22119140625,-1.89208984375,-17.76123046875,5.0537109375,-52.0477294921875,-47.4224853515625
1758528002.484097,0.798828125,0.1337890625,0.62109375,6.77490234375,-2.3193359375,-15.0146484375,5.350341796875,-52.05322265625,-47.6751708984375
1758528002.4938226,0.798828125,0.1337890625,0.62109375,6.77490234375,-2.3193359375,-15.0146484375,5.60302734375,-52.064208984375,-47.9058837890625
1758528002.5041099,0.7783203125,0.07275390625,0.58203125,-1.5869140625,-1.77001953125,-13.427734375,5.80078125,-52.0751953125,-48.131103515625
1758528002.5136778,0.7783203125,0.07275390625,0.58203125,-1.5869140625,-1.77001953125,-13.427734375,5.95458984375,-52.0806884765625,-48.3343505859375
1758528002.524626,0.78271484375,0.10302734375,0.6064453125,7.38525390625,-0.6103515625,-10.986328125,6.13037109375,-52.0806884765625,-48.5211181640625
1758528002.5336885,0.78271484375,0.10302734375,0.6064453125,7.38525390625,-0.6103515625,-10.986328125,6.339111328125,-52.0751953125,-48.6859130859375
1758528002.5440242,0.81787109375,0.1708984375,0.6455078125,13.97705078125,0.1220703125,-7.2021484375,6.558837890625,-52.0697021484375,-48.8232421875
1758528002.554592,0.81787109375,0.1708984375,0.6455078125,13.97705078125,0.1220703125,-7.2021484375,6.78955078125,-52.0587158203125,-48.9276123046875
1758528002.5639358,0.77880859375,0.27099609375,0.603515625,-1.3427734375,0.1220703125,-1.5869140625,6.9158935546875,-52.05322265625,-48.988037109375
1758528002.5737097,0.77880859375,0.27099609375,0.603515625,-1.3427734375,0.1220703125,-1.5869140625,6.9378662109375,-52.0477294921875,-49.0045166015625
1758528002.5845842,0.814453125,0.21337890625,0.61376953125,-5.92041015625,0.79345703125,5.126953125,6.9049072265625,-52.0477294921875,-48.9715576171875
1758528002.5941143,0.814453125,0.21337890625,0.61376953125,-5.92041015625,0.79345703125,5.126953125,6.8060302734375,-52.042236328125,-48.8836669921875
1758528002.6043298,0.86572265625,0.0595703125,0.658203125,-11.53564453125,0.67138671875,8.30078125,6.6632080078125,-52.042236328125,-48.7738037109375
1758528002.6137881,0.86572265625,0.0595703125,0.658203125,-11.53564453125,0.67138671875,8.30078125,6.470947265625,-52.042236328125,-48.636474609375
1758528002.6262927,0.84423828125,0.08935546875,0.64404296875,-8.72802734375,0.48828125,9.033203125,6.2896728515625,-52.0477294921875,-48.49365234375
1758528002.6340125,0.84423828125,0.08935546875,0.64404296875,-8.72802734375,0.48828125,9.033203125,6.1138916015625,-52.05322265625,-48.3453369140625
1758528002.6461208,0.82763671875,0.0322265625,0.63427734375,-13.18359375,0.0,9.58251953125,5.91064453125,-52.0587158203125,-48.197021484375
1758528002.654315,0.82763671875,0.0322265625,0.63427734375,-13.18359375,0.0,9.58251953125,5.6744384765625,-52.0697021484375,-48.0377197265625
1758528002.663829,0.78662109375,0.029296875,0.595703125,-8.48388671875,-1.0986328125,10.31494140625,5.460205078125,-52.086181640625,-47.87841796875
1758528002.673838,0.78662109375,0.029296875,0.595703125,-8.48388671875,-1.0986328125,10.31494140625,5.262451171875,-52.108154296875,-47.7081298828125
1758528002.6841457,0.81982421875,0.03955078125,0.61279296875,-4.21142578125,-0.6103515625,10.31494140625,5.086669921875,-52.1246337890625,-47.5433349609375
1758528002.6939075,0.81982421875,0.03955078125,0.61279296875,-4.21142578125,-0.6103515625,10.31494140625,4.9273681640625,-52.1466064453125,-47.373046875
1758528002.704426,0.89111328125,0.08837890625,0.64599609375,-4.82177734375,-0.1220703125,10.07080078125,4.76806640625,-52.1575927734375,-47.2027587890625
1758528002.7140756,0.89111328125,0.08837890625,0.64599609375,-4.82177734375,-0.1220703125,10.07080078125,4.603271484375,-52.1685791015625,-47.032470703125
1758528002.7239983,0.84716796875,0.0615234375,0.69287109375,-13.3056640625,-0.42724609375,9.8876953125,4.4000244140625,-52.18505859375,-46.86767578125
1758528002.7339153,0.84716796875,0.0615234375,0.69287109375,-13.3056640625,-0.42724609375,9.8876953125,4.1583251953125,-52.196044921875,-46.7083740234375
1758528002.7439506,0.8115234375,0.04443359375,0.6142578125,-12.451171875,-0.244140625,10.009765625,3.9166259765625,-52.20703125,-46.5435791015625
1758528002.7548423,0.8115234375,0.04443359375,0.6142578125,-12.451171875,-0.244140625,10.009765625,3.680419921875,-52.218017578125,-46.38427734375
1758528002.7640133,0.7509765625,0.0458984375,0.5810546875,-6.16455078125,0.67138671875,9.09423828125,3.482666015625,-52.2235107421875,-46.2249755859375
1758528002.7739298,0.7509765625,0.0458984375,0.5810546875,-6.16455078125,0.67138671875,9.09423828125,3.31787109375,-52.2235107421875,-46.07666015625
1758528002.7839844,0.7451171875,0.07275390625,0.625,-6.8359375,0.91552734375,10.19287109375,3.1475830078125,-52.2235107421875,-45.9228515625
1758528002.7947257,0.7451171875,0.07275390625,0.625,-6.8359375,0.91552734375,10.19287109375,2.96630859375,-52.218017578125,-45.7525634765625
1758528002.804481,0.7646484375,0.0146484375,0.60107421875,-21.42333984375,0.48828125,12.20703125,2.6971435546875,-52.2125244140625,-45.5767822265625
1758528002.8139787,0.7646484375,0.0146484375,0.60107421875,-21.42333984375,0.48828125,12.20703125,2.3455810546875,-52.2125244140625,-45.3790283203125
1758528002.824121,0.7841796875,-0.04052734375,0.56201171875,-23.01025390625,1.220703125,11.962890625,1.9830322265625,-52.20703125,-45.186767578125
1758528002.833976,0.7841796875,-0.04052734375,0.56201171875,-23.01025390625,1.220703125,11.962890625,1.614990234375,-52.2015380859375,-44.989013671875
1758528002.843967,0.79443359375,0.037109375,0.630859375,-10.43701171875,2.38037109375,11.16943359375,1.3128662109375,-52.18505859375,-44.80224609375
1758528002.8541286,0.79443359375,0.037109375,0.630859375,-10.43701171875,2.38037109375,11.16943359375,1.07666015625,-52.1630859375,-44.6209716796875
1758528002.8640294,0.7431640625,0.087890625,0.5908203125,-17.63916015625,2.74658203125,12.5732421875,0.802001953125,-52.14111328125,-44.4287109375
1758528002.8739786,0.7431640625,0.087890625,0.5908203125,-17.63916015625,2.74658203125,12.5732421875,0.4833984375,-52.1136474609375,-44.23095703125
1758528002.8840222,0.72607421875,-0.03759765625,0.56005859375,-24.2919921875,2.74658203125,14.0380859375,0.1318359375,-52.0916748046875,-44.0167236328125
1758528002.8948522,0.72607421875,-0.03759765625,0.56005859375,-24.2919921875,2.74658203125,14.0380859375,-0.263671875,-52.064208984375,-43.7969970703125
1758528002.9040124,0.724609375,-0.0615234375,0.56396484375,-17.578125,2.74658203125,13.3056640625,-0.6317138671875,-52.0367431640625,-43.5772705078125
1758528002.9142537,0.724609375,-0.0615234375,0.56396484375,-17.578125,2.74658203125,13.3056640625,-0.955810546875,-52.0037841796875,-43.3685302734375
1758528002.9277053,0.7568359375,-0.0244140625,0.5859375,-7.50732421875,2.62451171875,12.51220703125,-1.23046875,-51.976318359375,-43.165283203125
1758528002.9367578,0.7568359375,-0.0244140625,0.5859375,-7.50732421875,2.62451171875,12.51220703125,-1.4501953125,-51.9488525390625,-42.9620361328125
1758528002.9440765,0.77685546875,-0.00732421875,0.5966796875,-7.32421875,2.74658203125,12.14599609375,-1.669921875,-51.92138671875,-42.769775390625
1758528002.9557984,0.77685546875,-0.00732421875,0.5966796875,-7.32421875,2.74658203125,12.14599609375,-1.8841552734375,-51.8939208984375,-42.572021484375
1758528002.9641168,0.77001953125,-0.0146484375,0.57568359375,-11.71875,2.74658203125,11.77978515625,-2.1148681640625,-51.8609619140625,-42.38525390625
1758528002.9746351,0.77001953125,-0.0146484375,0.57568359375,-11.71875,2.74658203125,11.77978515625,-2.362060546875,-51.83349609375,-42.198486328125
1758528002.9843638,0.7548828125,-0.03369140625,0.62060546875,-10.009765625,2.44140625,11.474609375,-2.603759765625,-51.8060302734375,-42.01171875
1758528002.9950082,0.7548828125,-0.03369140625,0.62060546875,-10.009765625,2.44140625,11.474609375,-2.83447265625,-51.778564453125,-41.8304443359375
1758528003.0041375,0.77978515625,-0.06982421875,0.6162109375,-2.9296875,2.50244140625,10.498046875,-3.021240234375,-51.7510986328125,-41.66015625
1758528003.0141237,0.77978515625,-0.06982421875,0.6162109375,-2.9296875,2.50244140625,10.498046875,-3.1695556640625,-51.7236328125,-41.495361328125
1758528003.024397,0.8388671875,-0.02392578125,0.63720703125,-0.06103515625,2.38037109375,9.58251953125,-3.3013916015625,-51.690673828125,-41.341552734375
1758528003.0341508,0.8388671875,-0.02392578125,0.63720703125,-0.06103515625,2.38037109375,9.58251953125,-3.4112548828125,-51.668701171875,-41.1932373046875
1758528003.0441973,0.822265625,0.02587890625,0.6259765625,-9.46044921875,1.89208984375,10.1318359375,-3.570556640625,-51.6412353515625,-41.0394287109375
1758528003.054129,0.822265625,0.02587890625,0.6259765625,-9.46044921875,1.89208984375,10.1318359375,-3.779296875,-51.6192626953125,-40.880126953125
1758528003.0641634,0.7900390625,-0.044921875,0.623046875,-11.5966796875,1.28173828125,10.3759765625,-3.9935302734375,-51.602783203125,-40.71533203125
1758528003.0744119,0.7900390625,-0.044921875,0.623046875,-11.5966796875,1.28173828125,10.3759765625,-4.21875,-51.5863037109375,-40.5560302734375
1758528003.0843356,0.7841796875,-0.10400390625,0.625,-5.2490234375,0.8544921875,9.3994140625,-4.4110107421875,-51.56982421875,-40.4022216796875
1758528003.094278,0.7841796875,-0.10400390625,0.625,-5.2490234375,0.8544921875,9.3994140625,-4.5703125,-51.558837890625,-40.25390625
1758528003.1042347,0.78662109375,-0.06396484375,0.6201171875,2.0751953125,0.48828125,8.1787109375,-4.6856689453125,-51.5478515625,-40.1165771484375
1758528003.1145036,0.78662109375,-0.06396484375,0.6201171875,2.0751953125,0.48828125,8.1787109375,-4.7625732421875,-51.536865234375,-39.9847412109375
1758528003.1242476,0.8134765625,-0.03759765625,0.63134765625,0.0,0.0,7.87353515625,-4.844970703125,-51.5313720703125,-39.8583984375
1758528003.1342547,0.8134765625,-0.03759765625,0.63134765625,0.0,0.0,7.87353515625,-4.932861328125,-51.52587890625,-39.737548828125
1758528003.1443539,0.8134765625,-0.0390625,0.625,-3.90625,-0.42724609375,7.87353515625,-5.042724609375,-51.52587890625,-39.6112060546875
1758528003.1542487,0.8134765625,-0.0390625,0.625,-3.90625,-0.42724609375,7.87353515625,-5.174560546875,-51.52587890625,-39.48486328125
1758528003.1642933,0.77099609375,-0.06787109375,0.6064453125,-4.08935546875,-0.9765625,7.62939453125,-5.3009033203125,-51.52587890625,-39.364013671875
1758528003.1745658,0.77099609375,-0.06787109375,0.6064453125,-4.08935546875,-0.9765625,7.62939453125,-5.42724609375,-51.5313720703125,-39.2431640625
1758528003.1844823,0.7578125,-0.08642578125,0.62109375,1.953125,-1.15966796875,6.7138671875,-5.4876708984375,-51.5423583984375,-39.13330078125
1758528003.1942925,0.7578125,-0.08642578125,0.62109375,1.953125,-1.15966796875,6.7138671875,-5.548095703125,-51.5478515625,-39.0289306640625
1758528003.2043223,0.76025390625,-0.05712890625,0.58984375,5.4931640625,-1.46484375,5.92041015625,-5.5645751953125,-51.558837890625,-38.935546875
1758528003.214733,0.76025390625,-0.05712890625,0.58984375,5.4931640625,-1.46484375,5.92041015625,-5.5810546875,-51.5643310546875,-38.8421630859375
1758528003.2243702,0.75341796875,-0.0224609375,0.59033203125,-1.40380859375,-1.0986328125,5.4931640625,-5.657958984375,-51.5753173828125,-38.7542724609375
1758528003.2343798,0.75341796875,-0.0224609375,0.59033203125,-1.40380859375,-1.0986328125,5.4931640625,-5.73486328125,-51.580810546875,-38.6663818359375
1758528003.2445505,0.76123046875,-0.0576171875,0.60302734375,-1.52587890625,-1.0986328125,5.2490234375,-5.811767578125,-51.5863037109375,-38.583984375
1758528003.2543933,0.76123046875,-0.0576171875,0.60302734375,-1.52587890625,-1.0986328125,5.2490234375,-5.8831787109375,-51.591796875,-38.5015869140625
1758528003.2644427,0.74560546875,-0.0849609375,0.5751953125,-0.6103515625,-0.9765625,4.0283203125,-5.9381103515625,-51.602783203125,-38.441162109375
1758528003.2745905,0.74560546875,-0.0849609375,0.5751953125,-0.6103515625,-0.9765625,4.0283203125,-5.987548828125,-51.6082763671875,-38.375244140625
1758528003.284559,0.7548828125,-0.076171875,0.60986328125,1.28173828125,-0.48828125,3.173828125,-6.0150146484375,-51.6082763671875,-38.3258056640625
1758528003.294409,0.7548828125,-0.076171875,0.60986328125,1.28173828125,-0.48828125,3.173828125,-6.0369873046875,-51.6082763671875,-38.2763671875
1758528003.3044784,0.771484375,-0.0400390625,0.61279296875,0.91552734375,-0.244140625,2.8076171875,-6.0589599609375,-51.6082763671875,-38.2379150390625
1758528003.3148737,0.771484375,-0.0400390625,0.61279296875,0.91552734375,-0.244140625,2.8076171875,-6.0809326171875,-51.6082763671875,-38.1939697265625
1758528003.324448,0.7734375,-0.05859375,0.60400390625,-3.0517578125,0.18310546875,2.62451171875,-6.141357421875,-51.602783203125,-38.155517578125
1758528003.3347697,0.7734375,-0.05859375,0.60400390625,-3.0517578125,0.18310546875,2.62451171875,-6.2017822265625,-51.602783203125,-38.1170654296875
1758528003.3444984,0.8115234375,-0.11474609375,0.62841796875,-1.28173828125,0.54931640625,2.25830078125,-6.2347412109375,-51.591796875,-38.0841064453125
1758528003.3544304,0.8115234375,-0.11474609375,0.62841796875,-1.28173828125,0.54931640625,2.25830078125,-6.2786865234375,-51.5863037109375,-38.0511474609375
1758528003.3644688,0.78662109375,-0.03515625,0.63427734375,-0.91552734375,0.91552734375,2.25830078125,-6.3116455078125,-51.5753173828125,-38.0181884765625
1758528003.3747427,0.78662109375,-0.03515625,0.63427734375,-0.91552734375,0.91552734375,2.25830078125,-6.3446044921875,-51.5643310546875,-37.99072265625
1758528003.3847673,0.78955078125,-0.10498046875,0.62939453125,-4.39453125,1.28173828125,2.8076171875,-6.416015625,-51.5478515625,-37.94677734375
1758528003.3945725,0.78955078125,-0.10498046875,0.62939453125,-4.39453125,1.28173828125,2.8076171875,-6.492919921875,-51.5313720703125,-37.9083251953125
1758528003.4045625,0.806640625,-0.0732421875,0.63134765625,-2.50244140625,1.46484375,2.86865234375,-6.5533447265625,-51.514892578125,-37.869873046875
1758528003.4149833,0.806640625,-0.0732421875,0.63134765625,-2.50244140625,1.46484375,2.86865234375,-6.6082763671875,-51.4984130859375,-37.825927734375
1758528003.4245803,0.83154296875,-0.05126953125,0.64501953125,-5.43212890625,1.5869140625,2.9296875,-6.6961669921875,-51.4764404296875,-37.7874755859375
1758528003.4345345,0.83154296875,-0.05126953125,0.64501953125,-5.43212890625,1.5869140625,2.9296875,-6.7840576171875,-51.4599609375,-37.7490234375
1758528003.4447184,0.82373046875,-0.09375,0.6396484375,-8.36181640625,1.8310546875,2.685546875,-6.8939208984375,-51.43798828125,-37.7105712890625
1758528003.4545507,0.82373046875,-0.09375,0.6396484375,-8.36181640625,1.8310546875,2.685546875,-7.0037841796875,-51.4215087890625,-37.672119140625
1758528003.4646142,0.8193359375,-0.107421875,0.66455078125,-5.2490234375,1.40380859375,2.38037109375,-7.0806884765625,-51.405029296875,-37.63916015625
1758528003.4747624,0.8193359375,-0.107421875,0.66455078125,-5.2490234375,1.40380859375,2.38037109375,-7.1575927734375,-51.3885498046875,-37.606201171875
1758528003.4848397,0.79736328125,-0.06005859375,0.61669921875,-4.08935546875,0.79345703125,2.685546875,-7.22900390625,-51.3775634765625,-37.5677490234375
1758528003.4945612,0.79736328125,-0.06005859375,0.61669921875,-4.08935546875,0.79345703125,2.685546875,-7.3004150390625,-51.3665771484375,-37.529296875
1758528003.504615,0.79638671875,-0.10400390625,0.63134765625,-4.638671875,0.48828125,2.9296875,-7.3828125,-51.361083984375,-37.4853515625
1758528003.5146801,0.79638671875,-0.10400390625,0.63134765625,-4.638671875,0.48828125,2.9296875,-7.459716796875,-51.3555908203125,-37.44140625
1758528003.5268185,0.80224609375,-0.0439453125,0.63037109375,-6.591796875,0.42724609375,2.86865234375,-7.55859375,-51.3446044921875,-37.3974609375
1758528003.5354404,0.80224609375,-0.0439453125,0.63037109375,-6.591796875,0.42724609375,2.86865234375,-7.6519775390625,-51.339111328125,-37.353515625
1758528003.5446799,0.80615234375,-0.11328125,0.6328125,-4.82177734375,0.54931640625,2.38037109375,-7.7288818359375,-51.3336181640625,-37.320556640625
1758528003.5550866,0.80615234375,-0.11328125,0.6328125,-4.82177734375,0.54931640625,2.38037109375,-7.80029296875,-51.328125,-37.2821044921875
1758528003.5646994,0.798828125,-0.11669921875,0.63525390625,1.708984375,0.732421875,1.3427734375,-7.7947998046875,-51.317138671875,-37.265625
1758528003.5746963,0.798828125,-0.11669921875,0.63525390625,1.708984375,0.732421875,1.3427734375,-7.7947998046875,-51.3116455078125,-37.2491455078125
1758528003.5849612,0.77392578125,-0.07421875,0.619140625,1.40380859375,1.0986328125,1.03759765625,-7.789306640625,-51.3006591796875,-37.2381591796875
1758528003.5952315,0.77392578125,-0.07421875,0.619140625,1.40380859375,1.0986328125,1.03759765625,-7.789306640625,-51.2896728515625,-37.2271728515625
1758528003.6047964,0.7646484375,-0.06591796875,0.60595703125,-3.72314453125,1.40380859375,1.708984375,-7.84423828125,-51.273193359375,-37.2052001953125
1758528003.6146994,0.7646484375,-0.06591796875,0.60595703125,-3.72314453125,1.40380859375,1.708984375,-7.8936767578125,-51.2567138671875,-37.1832275390625
1758528003.624921,0.76953125,-0.1015625,0.60888671875,-4.57763671875,1.708984375,2.25830078125,-7.965087890625,-51.240234375,-37.1502685546875
1758528003.6348398,0.76953125,-0.1015625,0.60888671875,-4.57763671875,1.708984375,2.25830078125,-8.0364990234375,-51.21826171875,-37.122802734375
1758528003.6448138,0.7890625,-0.1181640625,0.61572265625,-4.7607421875,2.44140625,1.8310546875,-8.096923828125,-51.1907958984375,-37.100830078125
1758528003.6548357,0.7890625,-0.1181640625,0.61572265625,-4.7607421875,2.44140625,1.8310546875,-8.1683349609375,-51.1688232421875,-37.078857421875
1758528003.6654453,0.78076171875,-0.07177734375,0.63037109375,-0.3662109375,2.9296875,1.15966796875,-8.1793212890625,-51.141357421875,-37.06787109375
1758528003.6747956,0.78076171875,-0.07177734375,0.63037109375,-0.3662109375,2.9296875,1.15966796875,-8.1903076171875,-51.1083984375,-37.056884765625
1758528003.6848598,0.75439453125,-0.10205078125,0.60986328125,-1.89208984375,3.11279296875,1.28173828125,-8.2177734375,-51.075439453125,-37.0458984375
1758528003.6954722,0.75439453125,-0.10205078125,0.60986328125,-1.89208984375,3.11279296875,1.28173828125,-8.250732421875,-51.0479736328125,-37.034912109375
1758528003.7048259,0.765625,-0.123046875,0.60546875,1.52587890625,3.5400390625,1.15966796875,-8.2452392578125,-51.009521484375,-37.02392578125
1758528003.7148237,0.765625,-0.123046875,0.60546875,1.52587890625,3.5400390625,1.15966796875,-8.23974609375,-50.9765625,-37.0184326171875
1758528003.7250164,0.802734375,-0.11328125,0.634765625,2.3193359375,4.39453125,0.732421875,-8.2232666015625,-50.9326171875,-37.0184326171875
1758528003.735167,0.802734375,-0.11328125,0.634765625,2.3193359375,4.39453125,0.732421875,-8.206787109375,-50.888671875,-37.012939453125
1758528003.7449367,0.7939453125,-0.07763671875,0.65234375,-0.54931640625,4.69970703125,1.28173828125,-8.2232666015625,-50.8447265625,-37.0074462890625
1758528003.754901,0.7939453125,-0.07763671875,0.65234375,-0.54931640625,4.69970703125,1.28173828125,-8.23974609375,-50.7952880859375,-36.9964599609375
1758528003.765354,0.77587890625,-0.0947265625,0.62646484375,-2.5634765625,4.638671875,2.0751953125,-8.28369140625,-50.7513427734375,-36.97998046875
1758528003.7748885,0.77587890625,-0.0947265625,0.62646484375,-2.5634765625,4.638671875,2.0751953125,-8.32763671875,-50.701904296875,-36.9580078125
1758528003.7849407,0.74658203125,-0.09521484375,0.609375,-2.99072265625,4.7607421875,2.5634765625,-8.382568359375,-50.6524658203125,-36.9305419921875
1758528003.7955592,0.74658203125,-0.09521484375,0.609375,-2.99072265625,4.7607421875,2.5634765625,-8.4375,-50.60302734375,-36.903076171875
1758528003.8049703,0.7490234375,-0.125,0.60009765625,-0.18310546875,5.126953125,2.62451171875,-8.4649658203125,-50.5535888671875,-36.8756103515625
1758528003.8149145,0.7490234375,-0.125,0.60009765625,-0.18310546875,5.126953125,2.62451171875,-8.492431640625,-50.4986572265625,-36.84814453125
1758528003.827706,0.76513671875,-0.12353515625,0.6142578125,2.9296875,5.55419921875,2.197265625,-8.4814453125,-50.4437255859375,-36.826171875
1758528003.8366258,0.76513671875,-0.12353515625,0.6142578125,2.9296875,5.55419921875,2.197265625,-8.4759521484375,-50.3887939453125,-36.80419921875
1758528003.8450048,0.7626953125,-0.08251953125,0.64453125,-0.30517578125,5.55419921875,2.74658203125,-8.5089111328125,-50.328369140625,-36.7767333984375
1758528003.8552659,0.7626953125,-0.08251953125,0.64453125,-0.30517578125,5.55419921875,2.74658203125,-8.5418701171875,-50.2734375,-36.749267578125
1758528003.865074,0.74658203125,-0.06201171875,0.6103515625,-7.8125,5.18798828125,3.72314453125,-8.6517333984375,-50.218505859375,-36.705322265625
1758528003.8749843,0.74658203125,-0.06201171875,0.6103515625,-7.8125,5.18798828125,3.72314453125,-8.76708984375,-50.16357421875,-36.6668701171875
1758528003.8851736,0.7509765625,-0.1552734375,0.60791015625,-2.9296875,5.2490234375,3.173828125,-8.8275146484375,-50.108642578125,-36.62841796875
1758528003.8950982,0.7509765625,-0.1552734375,0.60791015625,-2.9296875,5.2490234375,3.173828125,-8.887939453125,-50.0592041015625,-36.595458984375
1758528003.9050722,0.75537109375,-0.14501953125,0.6220703125,8.11767578125,5.06591796875,1.953125,-8.8275146484375,-50.0042724609375,-36.5789794921875
1758528003.9151418,0.75537109375,-0.14501953125,0.6220703125,8.11767578125,5.06591796875,1.953125,-8.76708984375,-49.954833984375,-36.5625
1758528003.925041,0.765625,-0.06103515625,0.62646484375,6.591796875,4.638671875,1.64794921875,-8.7176513671875,-49.910888671875,-36.5460205078125
1758528003.934965,0.765625,-0.06103515625,0.62646484375,6.591796875,4.638671875,1.64794921875,-8.668212890625,-49.866943359375,-36.529541015625
1758528003.9452877,0.7587890625,-0.07373046875,0.6416015625,-3.96728515625,4.08935546875,2.50244140625,-8.734130859375,-49.822998046875,-36.5020751953125
1758528003.955029,0.7587890625,-0.07373046875,0.6416015625,-3.96728515625,4.08935546875,2.50244140625,-8.7945556640625,-49.7845458984375,-36.474609375
1758528003.9650693,0.75732421875,-0.123046875,0.6259765625,-2.50244140625,3.41796875,2.25830078125,-8.843994140625,-49.7515869140625,-36.45263671875
1758528003.9751828,0.75732421875,-0.123046875,0.6259765625,-2.50244140625,3.41796875,2.25830078125,-8.887939453125,-49.713134765625,-36.4251708984375
1758528003.9850976,0.763671875,-0.1513671875,0.6328125,7.080078125,2.8076171875,1.15966796875,-8.8330078125,-49.691162109375,-36.4141845703125
1758528003.9950318,0.763671875,-0.1513671875,0.6328125,7.080078125,2.8076171875,1.15966796875,-8.778076171875,-49.6636962890625,-36.40869140625
1758528004.0050957,0.77734375,-0.08984375,0.64697265625,9.58251953125,2.01416015625,0.9765625,-8.6956787109375,-49.6417236328125,-36.397705078125
1758528004.015497,0.77734375,-0.08984375,0.64697265625,9.58251953125,2.01416015625,0.9765625,-8.61328125,-49.625244140625,-36.38671875
1758528004.0250552,0.78076171875,-0.0859375,0.646484375,3.47900390625,1.28173828125,1.953125,-8.6077880859375,-49.6142578125,-36.36474609375
1758528004.0351024,0.78076171875,-0.0859375,0.646484375,3.47900390625,1.28173828125,1.953125,-8.5968017578125,-49.5977783203125,-36.3372802734375
1758528004.045162,0.75732421875,-0.11474609375,0.64404296875,2.74658203125,1.0986328125,2.74658203125,-8.602294921875,-49.5867919921875,-36.298828125
1758528004.055088,0.75732421875,-0.11474609375,0.64404296875,2.74658203125,1.0986328125,2.74658203125,-8.6077880859375,-49.5758056640625,-36.2603759765625
1758528004.0651548,0.7548828125,-0.1220703125,0.6416015625,4.21142578125,0.9765625,2.8076171875,-8.602294921875,-49.5648193359375,-36.221923828125
1758528004.0752285,0.7548828125,-0.1220703125,0.6416015625,4.21142578125,0.9765625,2.8076171875,-8.5968017578125,-49.54833984375,-36.1834716796875
1758528004.0851758,0.76025390625,-0.0810546875,0.62646484375,2.01416015625,0.732421875,2.74658203125,-8.61328125,-49.5428466796875,-36.14501953125
1758528004.095171,0.76025390625,-0.0810546875,0.62646484375,2.01416015625,0.732421875,2.74658203125,-8.6297607421875,-49.5318603515625,-36.1065673828125
1758528004.105129,0.76611328125,-0.0771484375,0.6474609375,-2.01416015625,0.18310546875,2.9296875,-8.6846923828125,-49.5263671875,-36.068115234375
1758528004.1155727,0.76611328125,-0.0771484375,0.6474609375,-2.01416015625,0.18310546875,2.9296875,-8.7396240234375,-49.5208740234375,-36.024169921875
1758528004.1251876,0.76318359375,-0.1162109375,0.61767578125,-2.197265625,0.0,2.9296875,-8.7945556640625,-49.5208740234375,-35.9857177734375
1758528004.1351736,0.76318359375,-0.1162109375,0.61767578125,-2.197265625,0.0,2.9296875,-8.85498046875,-49.5208740234375,-35.9417724609375
1758528004.145268,0.7568359375,-0.10595703125,0.642578125,-2.99072265625,-0.3662109375,2.86865234375,-8.9208984375,-49.5208740234375,-35.8978271484375
1758528004.1551604,0.7568359375,-0.10595703125,0.642578125,-2.99072265625,-0.3662109375,2.86865234375,-8.98681640625,-49.5208740234375,-35.8538818359375
1758528004.1651704,0.751953125,-0.07080078125,0.642578125,-3.173828125,-1.28173828125,2.86865234375,-9.052734375,-49.5318603515625,-35.8099365234375
1758528004.1754382,0.751953125,-0.07080078125,0.642578125,-3.173828125,-1.28173828125,2.86865234375,-9.11865234375,-49.537353515625,-35.771484375
1758528004.185253,0.77978515625,-0.12646484375,0.64453125,-2.44140625,-1.708984375,2.197265625,-9.1680908203125,-49.5538330078125,-35.738525390625
1758528004.1952446,0.77978515625,-0.12646484375,0.64453125,-2.44140625,-1.708984375,2.197265625,-9.217529296875,-49.5703125,-35.70556640625
1758528004.2052548,0.77978515625,-0.1123046875,0.64794921875,-1.77001953125,-1.64794921875,1.28173828125,-9.2559814453125,-49.5867919921875,-35.68359375
1758528004.215475,0.77978515625,-0.1123046875,0.64794921875,-1.77001953125,-1.64794921875,1.28173828125,-9.2889404296875,-49.5977783203125,-35.6671142578125
1758528004.2252533,0.77880859375,-0.09033203125,0.658203125,-1.8310546875,-1.8310546875,1.0986328125,-9.3218994140625,-49.6197509765625,-35.650634765625
1758528004.2352536,0.77880859375,-0.09033203125,0.658203125,-1.8310546875,-1.8310546875,1.0986328125,-9.3548583984375,-49.63623046875,-35.6341552734375
1758528004.2453783,0.77392578125,-0.10888671875,0.63818359375,-3.47900390625,-2.197265625,1.28173828125,-9.4097900390625,-49.6527099609375,-35.6121826171875
1758528004.2552648,0.77197265625,-0.11572265625,0.63818359375,-2.13623046875,-2.44140625,1.40380859375,-9.4537353515625,-49.6746826171875,-35.5902099609375
1758528004.2653081,0.77197265625,-0.11572265625,0.63818359375,-2.13623046875,-2.44140625,1.40380859375,-9.4921875,-49.6966552734375,-35.5682373046875
1758528004.2755153,0.779296875,-0.13330078125,0.66259765625,-0.3662109375,-2.01416015625,1.15966796875,-9.525146484375,-49.7186279296875,-35.5462646484375
1758528004.285309,0.779296875,-0.13330078125,0.66259765625,-0.3662109375,-2.01416015625,1.15966796875,-9.547119140625,-49.735107421875,-35.5242919921875
1758528004.2953615,0.7744140625,-0.11865234375,0.6513671875,0.91552734375,-1.64794921875,0.9765625,-9.55810546875,-49.7515869140625,-35.5078125
1758528004.3052862,0.7744140625,-0.11865234375,0.6513671875,0.91552734375,-1.64794921875,0.9765625,-9.569091796875,-49.76806640625,-35.496826171875
1758528004.315681,0.77099609375,-0.10888671875,0.64794921875,-1.03759765625,-1.3427734375,1.220703125,-9.5855712890625,-49.779052734375,-35.4803466796875
1758528004.3253212,0.77099609375,-0.10888671875,0.64794921875,-1.03759765625,-1.3427734375,1.220703125,-9.613037109375,-49.7900390625,-35.4638671875
1758528004.335329,0.77099609375,-0.119140625,0.6357421875,-1.5869140625,-0.91552734375,1.708984375,-9.64599609375,-49.7955322265625,-35.44189453125
1758528004.3454757,0.77099609375,-0.119140625,0.6357421875,-1.5869140625,-0.91552734375,1.708984375,-9.6844482421875,-49.801025390625,-35.419921875
1758528004.355399,0.77099609375,-0.13134765625,0.650390625,1.708984375,0.0,1.52587890625,-9.7064208984375,-49.801025390625,-35.39794921875
1758528004.3653958,0.77099609375,-0.13134765625,0.650390625,1.708984375,0.0,1.52587890625,-9.7064208984375,-49.801025390625,-35.3759765625
1758528004.3755262,0.75537109375,-0.10888671875,0.6435546875,0.18310546875,0.79345703125,1.3427734375,-9.7174072265625,-49.7900390625,-35.3594970703125
1758528004.3854487,0.75537109375,-0.10888671875,0.6435546875,0.18310546875,0.79345703125,1.3427734375,-9.73388671875,-49.779052734375,-35.3485107421875
1758528004.395441,0.7646484375,-0.1123046875,0.63427734375,-2.01416015625,1.3427734375,1.953125,-9.7613525390625,-49.76806640625,-35.33203125
1758528004.4054766,0.7646484375,-0.1123046875,0.63427734375,-2.01416015625,1.3427734375,1.953125,-9.8052978515625,-49.74609375,-35.31005859375
1758528004.415767,0.74755859375,-0.123046875,0.6337890625,-3.0517578125,1.8310546875,2.0751953125,-9.8492431640625,-49.7296142578125,-35.2935791015625
1758528004.4272046,0.74755859375,-0.123046875,0.6337890625,-3.0517578125,1.8310546875,2.0751953125,-9.9041748046875,-49.7076416015625,-35.2716064453125
1758528004.4363482,0.73681640625,-0.12353515625,0.611328125,-1.40380859375,2.5634765625,2.0751953125,-9.9481201171875,-49.68017578125,-35.2496337890625
1758528004.4455898,0.73681640625,-0.12353515625,0.611328125,-1.40380859375,2.5634765625,2.0751953125,-9.9810791015625,-49.6527099609375,-35.233154296875
1758528004.4554415,0.73388671875,-0.10693359375,0.62841796875,-2.685546875,3.5400390625,2.13623046875,-10.0250244140625,-49.6142578125,-35.211181640625
1758528004.4654298,0.73388671875,-0.10693359375,0.62841796875,-2.685546875,3.5400390625,2.13623046875,-10.0689697265625,-49.5758056640625,-35.1947021484375
1758528004.4758554,0.74267578125,-0.11474609375,0.615234375,-5.31005859375,4.2724609375,2.685546875,-10.12939453125,-49.5318603515625,-35.17822265625
1758528004.4854553,0.74267578125,-0.11474609375,0.615234375,-5.31005859375,4.2724609375,2.685546875,-10.206298828125,-49.4879150390625,-35.1507568359375
1758528004.4955184,0.740234375,-0.1474609375,0.6376953125,-1.8310546875,5.4931640625,2.685546875,-10.2667236328125,-49.4329833984375,-35.13427734375
1758528004.505535,0.740234375,-0.1474609375,0.6376953125,-1.8310546875,5.4931640625,2.685546875,-10.30517578125,-49.3780517578125,-35.1123046875
1758528004.5158374,0.7470703125,-0.1142578125,0.64892578125,-3.41796875,6.591796875,2.685546875,-10.34912109375,-49.3121337890625,-35.0958251953125
1758528004.5255103,0.7470703125,-0.1142578125,0.64892578125,-3.41796875,6.591796875,2.685546875,-10.404052734375,-49.24072265625,-35.079345703125
1758528004.5356023,0.73486328125,-0.08251953125,0.62744140625,-11.962890625,7.26318359375,3.23486328125,-10.5029296875,-49.1693115234375,-35.057373046875
1758528004.5457504,0.73486328125,-0.08251953125,0.62744140625,-11.962890625,7.26318359375,3.23486328125,-10.6402587890625,-49.0924072265625,-35.035400390625
1758528004.5555964,0.7392578125,-0.1357421875,0.6396484375,-9.46044921875,7.87353515625,3.11279296875,-10.7666015625,-49.0155029296875,-35.013427734375
1758528004.565596,0.7392578125,-0.1357421875,0.6396484375,-9.46044921875,7.87353515625,3.11279296875,-10.87646484375,-48.93310546875,-34.9969482421875
1758528004.5759723,0.77783203125,-0.1787109375,0.646484375,-2.01416015625,8.30078125,1.953125,-10.9423828125,-48.8507080078125,-34.991455078125
1758528004.585593,0.77783203125,-0.1787109375,0.646484375,-2.01416015625,8.30078125,1.953125,-10.96435546875,-48.7628173828125,-34.991455078125
1758528004.5957348,0.76123046875,-0.123046875,0.671875,1.40380859375,8.23974609375,1.0986328125,-10.9698486328125,-48.6859130859375,-34.991455078125
1758528004.6057172,0.76123046875,-0.123046875,0.671875,1.40380859375,8.23974609375,1.0986328125,-10.953369140625,-48.603515625,-35.00244140625
1758528004.6159415,0.77880859375,-0.1201171875,0.67333984375,-2.13623046875,7.87353515625,1.220703125,-10.953369140625,-48.526611328125,-35.013427734375
1758528004.6255887,0.77880859375,-0.1201171875,0.67333984375,-2.13623046875,7.87353515625,1.220703125,-10.9698486328125,-48.44970703125,-35.0189208984375
1758528004.6356864,0.75927734375,-0.091796875,0.66796875,-6.04248046875,7.50732421875,1.40380859375,-11.00830078125,-48.372802734375,-35.0244140625
1758528004.6456885,0.75927734375,-0.091796875,0.66796875,-6.04248046875,7.50732421875,1.40380859375,-11.0687255859375,-48.3013916015625,-35.0299072265625
1758528004.6557236,0.75927734375,-0.091796875,0.66796875,-0.06103515625,7.38525390625,0.54931640625,-11.0906982421875,-48.2244873046875,-35.0408935546875
1758528004.6657162,0.7705078125,-0.15869140625,0.66943359375,-0.06103515625,7.38525390625,0.54931640625,-11.0797119140625,-48.1585693359375,-35.0518798828125
1758528004.6759782,0.75439453125,-0.16064453125,0.6640625,3.173828125,6.77490234375,-0.48828125,-11.0467529296875,-48.0926513671875,-35.0738525390625
1758528004.685722,0.75439453125,-0.16064453125,0.6640625,3.173828125,6.77490234375,-0.48828125,-10.997314453125,-48.0267333984375,-35.1068115234375
1758528004.6958606,0.75439453125,-0.13916015625,0.65966796875,3.90625,6.04248046875,-0.8544921875,-10.9423828125,-47.9718017578125,-35.13427734375
1758528004.7057092,0.75439453125,-0.13916015625,0.65966796875,3.90625,6.04248046875,-0.8544921875,-10.887451171875,-47.9168701171875,-35.167236328125
1758528004.7161157,0.759765625,-0.1171875,0.67919921875,0.67138671875,5.859375,-0.54931640625,-10.8489990234375,-47.8619384765625,-35.1947021484375
1758528004.7274444,0.759765625,-0.1171875,0.67919921875,0.67138671875,5.859375,-0.54931640625,-10.8270263671875,-47.8070068359375,-35.22216796875
1758528004.7364442,0.7314453125,-0.115234375,0.65625,-1.953125,6.2255859375,-0.06103515625,-10.8160400390625,-47.7520751953125,-35.244140625
1758528004.7459495,0.7314453125,-0.115234375,0.65625,-1.953125,6.2255859375,-0.06103515625,-10.8270263671875,-47.6971435546875,-35.26611328125
1758528004.7558682,0.7216796875,-0.14892578125,0.65576171875,0.8544921875,6.9580078125,0.244140625,-10.821533203125,-47.63671875,-35.2825927734375
1758528004.7658179,0.7216796875,-0.14892578125,0.65576171875,0.8544921875,6.9580078125,0.244140625,-10.799560546875,-47.57080078125,-35.3045654296875
1758528004.775863,0.72216796875,-0.1435546875,0.65673828125,1.0986328125,7.4462890625,0.79345703125,-10.78857421875,-47.4993896484375,-35.321044921875
1758528004.7860088,0.72216796875,-0.1435546875,0.65673828125,1.0986328125,7.4462890625,0.79345703125,-10.7720947265625,-47.427978515625,-35.33203125
1758528004.795864,0.72705078125,-0.1181640625,0.63671875,-4.8828125,7.8125,1.708984375,-10.7940673828125,-47.3565673828125,-35.3375244140625
1758528004.8059318,0.72705078125,-0.1181640625,0.63671875,-4.8828125,7.8125,1.708984375,-10.8489990234375,-47.2796630859375,-35.3375244140625
1758528004.8158727,0.70361328125,-0.11962890625,0.66259765625,-9.09423828125,8.1787109375,2.44140625,-10.9259033203125,-47.197265625,-35.33203125
1758528004.8259273,0.70361328125,-0.11962890625,0.66259765625,-9.09423828125,8.1787109375,2.44140625,-11.0302734375,-47.120361328125,-35.3265380859375
1758528004.8358712,0.7021484375,-0.14599609375,0.63916015625,-8.7890625,8.30078125,2.74658203125,-11.129150390625,-47.0379638671875,-35.3155517578125
1758528004.8462334,0.7021484375,-0.14599609375,0.63916015625,-8.7890625,8.30078125,2.74658203125,-11.22802734375,-46.9500732421875,-35.299072265625
1758528004.8559833,0.6982421875,-0.16162109375,0.640625,-3.173828125,8.36181640625,2.197265625,-11.2994384765625,-46.86767578125,-35.2935791015625
1758528004.8659556,0.6982421875,-0.16162109375,0.640625,-3.173828125,8.36181640625,2.197265625,-11.337890625,-46.7852783203125,-35.2880859375
1758528004.8759813,0.70654296875,-0.12646484375,0.6494140625,-3.11279296875,8.1787109375,1.8310546875,-11.3763427734375,-46.702880859375,-35.2825927734375
1758528004.8861227,0.70654296875,-0.12646484375,0.6494140625,-3.11279296875,8.1787109375,1.8310546875,-11.4093017578125,-46.6259765625,-35.2825927734375
1758528004.8960884,0.70556640625,-0.1337890625,0.650390625,-5.2490234375,8.056640625,2.0751953125,-11.458740234375,-46.5435791015625,-35.2825927734375
1758528004.905953,0.70556640625,-0.1337890625,0.650390625,-5.2490234375,8.056640625,2.0751953125,-11.5191650390625,-46.4666748046875,-35.277099609375
1758528004.9163876,0.705078125,-0.1728515625,0.66796875,-5.126953125,8.056640625,2.197265625,-11.5740966796875,-46.3897705078125,-35.277099609375
1758528004.9259872,0.705078125,-0.1728515625,0.66796875,-5.126953125,8.056640625,2.197265625,-11.634521484375,-46.307373046875,-35.2716064453125
1758528004.9359748,0.7060546875,-0.142578125,0.6533203125,-3.60107421875,7.32421875,2.44140625,-11.689453125,-46.23046875,-35.2606201171875
1758528004.946009,0.7060546875,-0.142578125,0.6533203125,-3.60107421875,7.32421875,2.44140625,-11.7388916015625,-46.1590576171875,-35.255126953125
1758528004.956233,0.71923828125,-0.11767578125,0.6650390625,-3.5400390625,5.9814453125,2.5634765625,-11.788330078125,-46.0931396484375,-35.2386474609375
1758528004.9660125,0.71923828125,-0.11767578125,0.6650390625,-3.5400390625,5.9814453125,2.5634765625,-11.8377685546875,-46.03271484375,-35.22216796875
1758528004.976012,0.72900390625,-0.16455078125,0.67236328125,-3.96728515625,4.57763671875,1.953125,-11.88720703125,-45.9832763671875,-35.211181640625
1758528004.9864333,0.72900390625,-0.16455078125,0.67236328125,-3.96728515625,4.57763671875,1.953125,-11.9366455078125,-45.9393310546875,-35.2001953125
1758528004.9960742,0.70458984375,-0.16015625,0.67626953125,-2.3193359375,3.35693359375,1.46484375,-11.9805908203125,-45.90087890625,-35.189208984375
1758528005.0061507,0.70458984375,-0.16015625,0.67626953125,-2.3193359375,3.35693359375,1.46484375,-12.0135498046875,-45.867919921875,-35.1837158203125
1758528005.0163069,0.71923828125,-0.12353515625,0.6640625,-1.28173828125,1.64794921875,1.0986328125,-12.041015625,-45.845947265625,-35.1727294921875
1758528005.026253,0.71923828125,-0.12353515625,0.6640625,-1.28173828125,1.64794921875,1.0986328125,-12.06298828125,-45.8349609375,-35.167236328125
1758528005.036133,0.74169921875,-0.1767578125,0.6796875,2.25830078125,-0.1220703125,0.30517578125,-12.06298828125,-45.8294677734375,-35.1617431640625
1758528005.0461903,0.74169921875,-0.1767578125,0.6796875,2.25830078125,-0.1220703125,0.30517578125,-12.0465087890625,-45.8349609375,-35.1617431640625
1758528005.0561721,0.73779296875,-0.14501953125,0.716796875,1.953125,-1.46484375,-0.18310546875,-12.030029296875,-45.845947265625,-35.15625
1758528005.066185,0.73779296875,-0.14501953125,0.716796875,1.953125,-1.46484375,-0.18310546875,-12.0135498046875,-45.8624267578125,-35.1617431640625
1758528005.0761766,0.74462890625,-0.12060546875,0.7060546875,-1.89208984375,-2.5634765625,-0.06103515625,-12.01904296875,-45.8843994140625,-35.15625
1758528005.0862556,0.74462890625,-0.12060546875,0.7060546875,-1.89208984375,-2.5634765625,-0.06103515625,-12.041015625,-45.911865234375,-35.15625
1758528005.0961704,0.74853515625,-0.154296875,0.68994140625,-0.91552734375,-3.90625,-0.06103515625,-12.06298828125,-45.94482421875,-35.1507568359375
1758528005.1061943,0.74853515625,-0.154296875,0.68994140625,-0.91552734375,-3.90625,-0.06103515625,-12.0794677734375,-45.98876953125,-35.1397705078125
1758528005.1164129,0.75244140625,-0.15576171875,0.68994140625,2.5634765625,-4.39453125,-0.3662109375,-12.073974609375,-46.03271484375,-35.13427734375
1758528005.126268,0.75244140625,-0.15576171875,0.68994140625,2.5634765625,-4.39453125,-0.3662109375,-12.0574951171875,-46.07666015625,-35.1287841796875
1758528005.1362534,0.763671875,-0.130859375,0.71826171875,0.3662109375,-4.7607421875,-0.79345703125,-12.0465087890625,-46.1260986328125,-35.1287841796875
1758528005.1462812,0.763671875,-0.130859375,0.71826171875,0.3662109375,-4.7607421875,-0.79345703125,-12.041015625,-46.175537109375,-35.1287841796875
1758528005.1562483,0.7470703125,-0.15283203125,0.70654296875,0.48828125,-5.859375,-0.79345703125,-12.041015625,-46.23046875,-35.1287841796875
1758528005.1662836,0.7470703125,-0.15283203125,0.70654296875,0.48828125,-5.859375,-0.79345703125,-12.041015625,-46.285400390625,-35.123291015625
1758528005.1763268,0.74169921875,-0.1787109375,0.685546875,7.14111328125,-6.65283203125,-1.3427734375,-12.0025634765625,-46.351318359375,-35.1287841796875
1758528005.186591,0.74169921875,-0.1787109375,0.685546875,7.14111328125,-6.65283203125,-1.3427734375,-11.9366455078125,-46.417236328125,-35.1287841796875
1758528005.1962752,0.74365234375,-0.150390625,0.689453125,11.16943359375,-6.53076171875,-2.01416015625,-11.84326171875,-46.483154296875,-35.1397705078125
1758528005.2062788,0.74365234375,-0.150390625,0.689453125,11.16943359375,-6.53076171875,-2.01416015625,-11.7279052734375,-46.5545654296875,-35.15625
1758528005.2163558,0.74267578125,-0.1298828125,0.69140625,4.57763671875,-6.16455078125,-1.708984375,-11.6455078125,-46.614990234375,-35.1727294921875
1758528005.2263467,0.74267578125,-0.1298828125,0.69140625,4.57763671875,-6.16455078125,-1.708984375,-11.6015625,-46.680908203125,-35.1837158203125
1758528005.2363153,0.74755859375,-0.1142578125,0.6865234375,-3.90625,-6.04248046875,-0.6103515625,-11.6015625,-46.7413330078125,-35.189208984375
1758528005.246375,0.74755859375,-0.1142578125,0.6865234375,-3.90625,-6.04248046875,-0.6103515625,-11.6455078125,-46.7962646484375,-35.1837158203125
1758528005.2566183,0.7451171875,-0.1630859375,0.68505859375,-4.57763671875,-5.55419921875,0.06103515625,-11.6949462890625,-46.8511962890625,-35.17822265625
1758528005.2663655,0.7451171875,-0.1630859375,0.68505859375,-4.57763671875,-5.55419921875,0.06103515625,-11.75537109375,-46.9061279296875,-35.167236328125
1758528005.2764204,0.73779296875,-0.16748046875,0.68603515625,3.84521484375,-4.5166015625,0.30517578125,-11.7718505859375,-46.9500732421875,-35.15625
1758528005.2865322,0.73779296875,-0.16748046875,0.68603515625,3.84521484375,-4.5166015625,0.30517578125,-11.7498779296875,-46.9940185546875,-35.1397705078125
1758528005.2966604,0.72216796875,-0.15869140625,0.6826171875,4.5166015625,-3.662109375,0.8544921875,-11.7279052734375,-47.021484375,-35.123291015625
1758528005.3063984,0.72216796875,-0.15869140625,0.6826171875,4.5166015625,-3.662109375,0.8544921875,-11.700439453125,-47.054443359375,-35.1068115234375
1758528005.316436,0.72607421875,-0.11865234375,0.66650390625,-4.5166015625,-3.47900390625,1.953125,-11.77734375,-47.076416015625,-35.0738525390625
1758528005.3296783,0.72607421875,-0.11865234375,0.66650390625,-4.5166015625,-3.47900390625,1.953125,-11.8487548828125,-47.1038818359375,-35.04638671875
1758528005.338737,0.71728515625,-0.1259765625,0.6494140625,-9.765625,-2.99072265625,3.0517578125,-11.986083984375,-47.1258544921875,-34.9969482421875
1758528005.3464248,0.71728515625,-0.1259765625,0.6494140625,-9.765625,-2.99072265625,3.0517578125,-12.1234130859375,-47.142333984375,-34.9530029296875
1758528005.356477,0.708984375,-0.17626953125,0.6572265625,-10.07080078125,-1.708984375,3.2958984375,-12.2607421875,-47.1533203125,-34.9090576171875
1758528005.3667603,0.708984375,-0.17626953125,0.6572265625,-10.07080078125,-1.708984375,3.2958984375,-12.3980712890625,-47.1588134765625,-34.859619140625
1758528005.3765633,0.70556640625,-0.16357421875,0.63671875,-6.4697265625,-0.42724609375,3.41796875,-12.50244140625,-47.1533203125,-34.815673828125
1758528005.3865328,0.70556640625,-0.16357421875,0.63671875,-6.4697265625,-0.42724609375,3.41796875,-12.601318359375,-47.142333984375,-34.7772216796875
1758528005.3966296,0.7138671875,-0.1494140625,0.66845703125,-6.591796875,0.79345703125,3.7841796875,-12.7056884765625,-47.1258544921875,-34.727783203125
1758528005.4064941,0.7138671875,-0.1494140625,0.66845703125,-6.591796875,0.79345703125,3.7841796875,-12.81005859375,-47.1038818359375,-34.683837890625
1758528005.4166002,0.6904296875,-0.1279296875,0.646484375,-14.0380859375,1.89208984375,4.8828125,-12.996826171875,-47.076416015625,-34.62890625
1758528005.426923,0.6904296875,-0.1279296875,0.646484375,-14.0380859375,1.89208984375,4.8828125,-13.1781005859375,-47.04345703125,-34.573974609375
1758528005.4366715,0.703125,-0.17822265625,0.63623046875,-12.8173828125,2.99072265625,4.94384765625,-13.3428955078125,-46.99951171875,-34.5245361328125
1758528005.446563,0.703125,-0.17822265625,0.63623046875,-12.8173828125,2.99072265625,4.94384765625,-13.51318359375,-46.95556640625,-34.4696044921875
1758528005.456966,0.712890625,-0.2099609375,0.646484375,-2.13623046875,4.21142578125,3.662109375,-13.5626220703125,-46.9061279296875,-34.442138671875
1758528005.4665449,0.712890625,-0.2099609375,0.646484375,-2.13623046875,4.21142578125,3.662109375,-13.612060546875,-46.8511962890625,-34.4091796875
1758528005.476657,0.7431640625,-0.14453125,0.69580078125,-1.15966796875,4.82177734375,2.8076171875,-13.6395263671875,-46.7962646484375,-34.3927001953125
1758528005.4870017,0.7431640625,-0.14453125,0.69580078125,-1.15966796875,4.82177734375,2.8076171875,-13.6669921875,-46.7413330078125,-34.3707275390625
1758528005.4966407,0.740234375,-0.13330078125,0.67822265625,-10.498046875,4.39453125,3.41796875,-13.798828125,-46.69189453125,-34.34326171875
1758528005.5066664,0.740234375,-0.13330078125,0.67822265625,-10.498046875,4.39453125,3.41796875,-13.919677734375,-46.636962890625,-34.3212890625
1758528005.5167544,0.7294921875,-0.15478515625,0.65283203125,-11.5966796875,3.7841796875,3.173828125,-14.051513671875,-46.593017578125,-34.2938232421875
1758528005.526675,0.7294921875,-0.15478515625,0.65283203125,-11.5966796875,3.7841796875,3.173828125,-14.183349609375,-46.549072265625,-34.266357421875
1758528005.5367603,0.7490234375,-0.22509765625,0.6748046875,-3.35693359375,3.72314453125,1.40380859375,-14.2218017578125,-46.5106201171875,-34.266357421875
1758528005.5467093,0.7490234375,-0.22509765625,0.6748046875,-3.35693359375,3.72314453125,1.40380859375,-14.2547607421875,-46.4776611328125,-34.266357421875
1758528005.556759,0.74365234375,-0.1572265625,0.703125,-0.42724609375,3.0517578125,0.18310546875,-14.2547607421875,-46.4447021484375,-34.27734375
1758528005.5667224,0.74365234375,-0.1572265625,0.703125,-0.42724609375,3.0517578125,0.18310546875,-14.249267578125,-46.417236328125,-34.2938232421875
1758528005.5767527,0.73193359375,-0.1484375,0.6640625,-5.2490234375,1.89208984375,0.244140625,-14.2987060546875,-46.4007568359375,-34.29931640625
1758528005.586737,0.73193359375,-0.1484375,0.6640625,-5.2490234375,1.89208984375,0.244140625,-14.3426513671875,-46.38427734375,-34.3048095703125
1758528005.5967147,0.736328125,-0.189453125,0.6650390625,-4.8828125,1.40380859375,0.0,-14.3865966796875,-46.3677978515625,-34.3157958984375
1758528005.60674,0.736328125,-0.189453125,0.6650390625,-4.8828125,1.40380859375,0.0,-14.425048828125,-46.3568115234375,-34.3212890625
1758528005.6170611,0.732421875,-0.181640625,0.6787109375,-1.52587890625,1.52587890625,-0.6103515625,-14.4305419921875,-46.3458251953125,-34.3377685546875
1758528005.6285412,0.732421875,-0.181640625,0.6787109375,-1.52587890625,1.52587890625,-0.6103515625,-14.43603515625,-46.3348388671875,-34.354248046875
1758528005.6368482,0.7119140625,-0.17626953125,0.6630859375,0.54931640625,1.220703125,-0.67138671875,-14.4195556640625,-46.3238525390625,-34.3707275390625
1758528005.6468203,0.7119140625,-0.17626953125,0.6630859375,0.54931640625,1.220703125,-0.67138671875,-14.403076171875,-46.318359375,-34.38720703125
1758528005.6569073,0.7119140625,-0.17626953125,0.6630859375,1.03759765625,0.3662109375,-0.3662109375,-14.3865966796875,-46.318359375,-34.3927001953125
1758528005.66686,0.701171875,-0.17919921875,0.6328125,1.03759765625,0.3662109375,-0.3662109375,-14.3701171875,-46.3128662109375,-34.4036865234375
1758528005.6768866,0.71484375,-0.19921875,0.65087890625,2.3193359375,0.0,-0.1220703125,-14.34814453125,-46.318359375,-34.4036865234375
1758528005.6869698,0.71484375,-0.19921875,0.65087890625,2.3193359375,0.0,-0.1220703125,-14.3316650390625,-46.318359375,-34.4091796875
1758528005.6968732,0.71435546875,-0.17724609375,0.6669921875,3.173828125,-0.30517578125,0.0,-14.30419921875,-46.3238525390625,-34.4091796875
1758528005.7068536,0.71435546875,-0.17724609375,0.6669921875,3.173828125,-0.30517578125,0.0,-14.2767333984375,-46.3238525390625,-34.4091796875
1758528005.7170515,0.71435546875,-0.17724609375,0.6669921875,2.99072265625,-0.732421875,0.06103515625,-14.2547607421875,-46.3348388671875,-34.4091796875
1758528005.7268627,0.70849609375,-0.17578125,0.64990234375,2.99072265625,-0.732421875,0.06103515625,-14.2327880859375,-46.34033203125,-34.4091796875
1758528005.7369866,0.71044921875,-0.17724609375,0.65673828125,2.50244140625,-1.40380859375,0.3662109375,-14.2218017578125,-46.351318359375,-34.398193359375
1758528005.7470033,0.71044921875,-0.17724609375,0.65673828125,2.50244140625,-1.40380859375,0.3662109375,-14.205322265625,-46.3677978515625,-34.3927001953125
1758528005.756978,0.70947265625,-0.1630859375,0.6474609375,-1.64794921875,-2.197265625,0.9765625,-14.2437744140625,-46.38427734375,-34.3707275390625
1758528005.7670932,0.70947265625,-0.1630859375,0.6474609375,-1.64794921875,-2.197265625,0.9765625,-14.2767333984375,-46.40625,-34.354248046875
1758528005.7770658,0.7001953125,-0.19482421875,0.65673828125,-0.8544921875,-2.8076171875,1.3427734375,-14.315185546875,-46.42822265625,-34.3267822265625
1758528005.787099,0.7001953125,-0.19482421875,0.65673828125,-0.8544921875,-2.8076171875,1.3427734375,-14.34814453125,-46.4501953125,-34.29931640625
1758528005.797081,0.6904296875,-0.17626953125,0.61572265625,1.3427734375,-3.23486328125,1.220703125,-14.359130859375,-46.4776611328125,-34.27734375
1758528005.8069947,0.6904296875,-0.17626953125,0.61572265625,1.3427734375,-3.23486328125,1.220703125,-14.3756103515625,-46.505126953125,-34.2498779296875
1758528005.817606,0.705078125,-0.177734375,0.65185546875,4.638671875,-3.11279296875,0.91552734375,-14.34814453125,-46.5325927734375,-34.2279052734375
1758528005.827069,0.705078125,-0.177734375,0.65185546875,4.638671875,-3.11279296875,0.91552734375,-14.326171875,-46.56005859375,-34.2059326171875
1758528005.837112,0.71142578125,-0.189453125,0.666015625,3.84521484375,-2.86865234375,1.3427734375,-14.315185546875,-46.5875244140625,-34.1839599609375
1758528005.847562,0.71142578125,-0.189453125,0.666015625,3.84521484375,-2.86865234375,1.3427734375,-14.30419921875,-46.6094970703125,-34.156494140625
1758528005.8570971,0.6953125,-0.17236328125,0.6552734375,1.3427734375,-2.44140625,2.5634765625,-14.3316650390625,-46.6204833984375,-34.1180419921875
1758528005.8671172,0.6953125,-0.17236328125,0.6552734375,1.3427734375,-2.44140625,2.5634765625,-14.3536376953125,-46.636962890625,-34.07958984375
1758528005.877314,0.6953125,-0.18505859375,0.640625,-0.54931640625,-1.3427734375,3.11279296875,-14.403076171875,-46.6424560546875,-34.03564453125
1758528005.8872633,0.6953125,-0.18505859375,0.640625,-0.54931640625,-1.3427734375,3.11279296875,-14.447021484375,-46.6424560546875,-33.99169921875
1758528005.8970869,0.7080078125,-0.171875,0.646484375,-1.953125,0.30517578125,3.23486328125,-14.5074462890625,-46.6314697265625,-33.9532470703125
1758528005.907181,0.7080078125,-0.171875,0.646484375,-1.953125,0.30517578125,3.23486328125,-14.5623779296875,-46.614990234375,-33.914794921875
1758528005.9173484,0.748046875,-0.193359375,0.69677734375,-0.244140625,1.03759765625,3.23486328125,-14.600830078125,-46.593017578125,-33.8763427734375
1758528005.9271588,0.748046875,-0.193359375,0.69677734375,-0.244140625,1.03759765625,3.23486328125,-14.6392822265625,-46.5765380859375,-33.8433837890625
1758528005.937241,0.75390625,-0.162109375,0.70068359375,-3.173828125,1.03759765625,3.60107421875,-14.7052001953125,-46.5545654296875,-33.7994384765625
1758528005.9475973,0.75390625,-0.162109375,0.70068359375,-3.173828125,1.03759765625,3.60107421875,-14.776611328125,-46.5325927734375,-33.760986328125
1758528005.9572418,0.7333984375,-0.1513671875,0.6806640625,-8.60595703125,0.54931640625,3.90625,-14.8974609375,-46.51611328125,-33.7115478515625
1758528005.967236,0.7333984375,-0.1513671875,0.6806640625,-8.60595703125,0.54931640625,3.90625,-15.018310546875,-46.4996337890625,-33.6676025390625
1758528005.9773595,0.73388671875,-0.21142578125,0.66748046875,-4.7607421875,0.54931640625,3.47900390625,-15.1007080078125,-46.483154296875,-33.629150390625
1758528005.9873824,0.73388671875,-0.21142578125,0.66748046875,-4.7607421875,0.54931640625,3.47900390625,-15.1776123046875,-46.4666748046875,-33.585205078125
1758528005.9973016,0.7587890625,-0.2041015625,0.6796875,5.18798828125,1.28173828125,2.197265625,-15.1446533203125,-46.4501953125,-33.563232421875
1758528006.0073247,0.7587890625,-0.2041015625,0.6796875,5.18798828125,1.28173828125,2.197265625,-15.1116943359375,-46.4337158203125,-33.541259765625
1758528006.0174425,0.7646484375,-0.15966796875,0.740234375,2.44140625,1.89208984375,1.708984375,-15.1007080078125,-46.40625,-33.5302734375
1758528006.0272756,0.7646484375,-0.15966796875,0.740234375,2.44140625,1.89208984375,1.708984375,-15.0897216796875,-46.38427734375,-33.519287109375
1758528006.0373373,0.74072265625,-0.13818359375,0.6806640625,-8.4228515625,2.01416015625,2.5634765625,-15.1885986328125,-46.3568115234375,-33.497314453125
