timestamp,acc_x,acc_y,acc_z,gyro_x,gyro_y,gyro_z,angle_x,angle_y,angle_z
1758528096.940874,0.302734375,0.0908203125,0.94140625,0.3662109375,0.48828125,0.06103515625,5.3118896484375,-17.7099609375,-37.7545166015625
1758528096.9507766,0.3046875,0.09375,0.94482421875,0.18310546875,0.42724609375,0.0,5.3173828125,-17.7044677734375,-37.7545166015625
1758528096.9607968,0.3046875,0.09375,0.94482421875,0.18310546875,0.42724609375,0.0,5.3173828125,-17.7044677734375,-37.7545166015625
1758528096.9708848,0.30419921875,0.08203125,0.95068359375,0.0,0.3662109375,0.0,5.3228759765625,-17.698974609375,-37.7545166015625
1758528096.9809186,0.30419921875,0.08203125,0.95068359375,0.0,0.3662109375,0.0,5.3228759765625,-17.6934814453125,-37.7545166015625
1758528096.9908748,0.30615234375,0.09423828125,0.9541015625,-0.06103515625,0.18310546875,0.06103515625,5.3173828125,-17.6934814453125,-37.7545166015625
1758528097.000962,0.30615234375,0.09423828125,0.9541015625,-0.06103515625,0.18310546875,0.06103515625,5.3173828125,-17.6934814453125,-37.7490234375
1758528097.010874,0.3056640625,0.0908203125,0.95556640625,-0.48828125,-0.1220703125,0.244140625,5.3173828125,-17.6934814453125,-37.7490234375
1758528097.0208614,0.3056640625,0.0908203125,0.95556640625,-0.48828125,-0.1220703125,0.244140625,5.3118896484375,-17.6934814453125,-37.7490234375
1758528097.0307968,0.30908203125,0.09130859375,0.94873046875,0.244140625,-0.42724609375,0.0,5.3118896484375,-17.698974609375,-37.7435302734375
1758528097.0407991,0.30908203125,0.09130859375,0.94873046875,0.244140625,-0.42724609375,0.0,5.3118896484375,-17.698974609375,-37.7435302734375
1758528097.0509207,0.30322265625,0.0908203125,0.93798828125,0.0,-0.30517578125,-0.1220703125,5.3173828125,-17.7044677734375,-37.7490234375
1758528097.0609362,0.30322265625,0.0908203125,0.93798828125,0.0,-0.30517578125,-0.1220703125,5.3173828125,-17.7099609375,-37.7490234375
1758528097.0721142,0.3046875,0.08154296875,0.95751953125,-0.3662109375,-0.1220703125,0.06103515625,5.3173828125,-17.7099609375,-37.7490234375
1758528097.0808737,0.3046875,0.08154296875,0.95751953125,-0.3662109375,-0.1220703125,0.06103515625,5.3118896484375,-17.7099609375,-37.7490234375
1758528097.0913634,0.30615234375,0.076171875,0.95751953125,0.0,-0.3662109375,0.30517578125,5.3118896484375,-17.7154541015625,-37.7435302734375
1758528097.1009102,0.30615234375,0.076171875,0.95751953125,0.0,-0.3662109375,0.30517578125,5.306396484375,-17.720947265625,-37.7435302734375
1758528097.1109447,0.306640625,0.08935546875,0.9462890625,0.67138671875,-0.54931640625,0.3662109375,5.3118896484375,-17.7264404296875,-37.7435302734375
1758528097.1217368,0.306640625,0.08935546875,0.9462890625,0.67138671875,-0.54931640625,0.3662109375,5.3173828125,-17.73193359375,-37.738037109375
1758528097.131013,0.3056640625,0.0927734375,0.94970703125,0.3662109375,-0.54931640625,0.42724609375,5.3173828125,-17.7374267578125,-37.738037109375
1758528097.1409314,0.3056640625,0.0927734375,0.94970703125,0.3662109375,-0.54931640625,0.42724609375,5.3228759765625,-17.742919921875,-37.7325439453125
1758528097.1510072,0.30859375,0.08740234375,0.9580078125,-0.1220703125,-0.3662109375,0.48828125,5.3173828125,-17.7484130859375,-37.72705078125
1758528097.1610136,0.30859375,0.08740234375,0.9580078125,-0.1220703125,-0.3662109375,0.48828125,5.3173828125,-17.75390625,-37.72705078125
1758528097.1709626,0.3095703125,0.08837890625,0.96044921875,-0.18310546875,-0.3662109375,0.54931640625,5.3118896484375,-17.75390625,-37.7215576171875
1758528097.1809866,0.3095703125,0.08837890625,0.96044921875,-0.18310546875,-0.3662109375,0.54931640625,5.3118896484375,-17.7593994140625,-37.716064453125
1758528097.191021,0.310546875,0.09033203125,0.96142578125,0.0,-0.67138671875,0.48828125,5.306396484375,-17.764892578125,-37.7105712890625
1758528097.201056,0.310546875,0.09033203125,0.96142578125,0.0,-0.67138671875,0.48828125,5.306396484375,-17.7703857421875,-37.7105712890625
1758528097.2110343,0.31201171875,0.09033203125,0.96484375,0.0,-1.15966796875,0.3662109375,5.306396484375,-17.7813720703125,-37.705078125
1758528097.2210157,0.31201171875,0.09033203125,0.96484375,0.0,-1.15966796875,0.3662109375,5.306396484375,-17.7923583984375,-37.705078125
1758528097.2310357,0.31982421875,0.0888671875,0.962890625,-0.06103515625,-1.953125,0.3662109375,5.3009033203125,-17.808837890625,-37.705078125
1758528097.2412221,0.31982421875,0.0888671875,0.962890625,-0.06103515625,-1.953125,0.3662109375,5.3009033203125,-17.830810546875,-37.705078125
1758528097.251072,0.31005859375,0.08203125,0.95947265625,-0.3662109375,-2.74658203125,0.30517578125,5.3009033203125,-17.852783203125,-37.6995849609375
1758528097.2610803,0.31005859375,0.08203125,0.95947265625,-0.3662109375,-2.74658203125,0.30517578125,5.29541015625,-17.8802490234375,-37.6995849609375
1758528097.2711034,0.31103515625,0.09423828125,0.9541015625,-0.9765625,-2.74658203125,0.30517578125,5.2899169921875,-17.90771484375,-37.705078125
1758528097.2811403,0.31103515625,0.09423828125,0.9541015625,-0.9765625,-2.74658203125,0.30517578125,5.2789306640625,-17.9351806640625,-37.705078125
1758528097.2910855,0.31396484375,0.08154296875,0.9619140625,-2.25830078125,-2.74658203125,0.54931640625,5.262451171875,-17.962646484375,-37.6995849609375
1758528097.3011208,0.31396484375,0.08154296875,0.9619140625,-2.25830078125,-2.74658203125,0.54931640625,5.2349853515625,-17.9901123046875,-37.6995849609375
1758528097.3111107,0.326171875,0.08740234375,0.97216796875,-3.0517578125,-3.35693359375,0.79345703125,5.20751953125,-18.0230712890625,-37.694091796875
1758528097.3211977,0.326171875,0.08740234375,0.97216796875,-3.0517578125,-3.35693359375,0.79345703125,5.1800537109375,-18.0560302734375,-37.694091796875
1758528097.3311956,0.32470703125,0.08447265625,0.9638671875,-4.2724609375,-4.5166015625,0.91552734375,5.1416015625,-18.094482421875,-37.6885986328125
1758528097.341204,0.32470703125,0.08447265625,0.9638671875,-4.2724609375,-4.5166015625,0.91552734375,5.09765625,-18.138427734375,-37.68310546875
1758528097.351204,0.31396484375,0.10107421875,0.96630859375,-8.60595703125,-5.31005859375,0.8544921875,5.03173828125,-18.1878662109375,-37.68310546875
1758528097.361212,0.31396484375,0.10107421875,0.96630859375,-8.60595703125,-5.31005859375,0.8544921875,4.94384765625,-18.2427978515625,-37.6776123046875
1758528097.371225,0.32373046875,0.0712890625,0.96923828125,-8.544921875,-5.4931640625,0.48828125,4.8614501953125,-18.2977294921875,-37.6776123046875
1758528097.381211,0.32373046875,0.0712890625,0.96923828125,-8.544921875,-5.4931640625,0.48828125,4.779052734375,-18.3526611328125,-37.6776123046875
1758528097.391229,0.322265625,0.07275390625,0.9619140625,-6.103515625,-5.43212890625,0.18310546875,4.7076416015625,-18.402099609375,-37.6776123046875
1758528097.4012654,0.322265625,0.07275390625,0.9619140625,-6.103515625,-5.43212890625,0.18310546875,4.647216796875,-18.45703125,-37.68310546875
1758528097.4112742,0.32421875,0.08447265625,0.95947265625,-4.39453125,-5.67626953125,0.30517578125,4.5977783203125,-18.511962890625,-37.6885986328125
1758528097.4212697,0.32421875,0.08447265625,0.95947265625,-4.39453125,-5.67626953125,0.30517578125,4.559326171875,-18.56689453125,-37.6885986328125
1758528097.4312642,0.31787109375,0.080078125,0.9541015625,-8.97216796875,-6.2255859375,0.6103515625,4.493408203125,-18.621826171875,-37.694091796875
1758528097.4412634,0.31787109375,0.080078125,0.9541015625,-8.97216796875,-6.2255859375,0.6103515625,4.405517578125,-18.6822509765625,-37.694091796875
1758528097.4513683,0.3193359375,0.06396484375,0.9072265625,-10.498046875,-6.04248046875,0.6103515625,4.3121337890625,-18.74267578125,-37.6885986328125
1758528097.4615989,0.3193359375,0.06396484375,0.9072265625,-10.498046875,-6.04248046875,0.6103515625,4.2132568359375,-18.8031005859375,-37.6885986328125
1758528097.471476,0.30322265625,0.0654296875,0.908203125,-6.9580078125,-4.638671875,0.30517578125,4.1473388671875,-18.8470458984375,-37.6885986328125
1758528097.4814122,0.30322265625,0.0654296875,0.908203125,-6.9580078125,-4.638671875,0.30517578125,4.0814208984375,-18.8909912109375,-37.694091796875
1758528097.491863,0.34033203125,0.06494140625,0.98486328125,-3.47900390625,-4.39453125,0.06103515625,4.0484619140625,-18.929443359375,-37.694091796875
1758528097.5019002,0.34033203125,0.06494140625,0.98486328125,-3.47900390625,-4.39453125,0.06103515625,4.0155029296875,-18.973388671875,-37.6995849609375
1758528097.5118446,0.33203125,0.0625,0.96533203125,-4.0283203125,-4.82177734375,-0.244140625,3.9825439453125,-19.017333984375,-37.705078125
1758528097.5218618,0.33203125,0.0625,0.96533203125,-4.0283203125,-4.82177734375,-0.244140625,3.944091796875,-19.061279296875,-37.7105712890625
1758528097.531835,0.349609375,0.0654296875,0.98681640625,-2.13623046875,-5.79833984375,0.0,3.9276123046875,-19.1162109375,-37.716064453125
1758528097.541822,0.349609375,0.0654296875,0.98681640625,-2.13623046875,-5.79833984375,0.0,3.9111328125,-19.171142578125,-37.7215576171875
1758528097.5524185,0.34130859375,0.04345703125,0.96826171875,-3.7841796875,-6.8359375,0.42724609375,3.8726806640625,-19.237060546875,-37.7215576171875
1758528097.5625496,0.34130859375,0.04345703125,0.96826171875,-3.7841796875,-6.8359375,0.42724609375,3.8397216796875,-19.302978515625,-37.7215576171875
1758528097.5720668,0.3359375,0.05810546875,0.921875,-1.708984375,-6.9580078125,0.1220703125,3.8232421875,-19.3743896484375,-37.72705078125
1758528097.5822341,0.3359375,0.05810546875,0.921875,-1.708984375,-6.9580078125,0.1220703125,3.8067626953125,-19.4403076171875,-37.7325439453125
1758528097.5920863,0.34130859375,0.07080078125,0.96875,-0.91552734375,-6.65283203125,-0.18310546875,3.80126953125,-19.5062255859375,-37.738037109375
1758528097.602328,0.34130859375,0.07080078125,0.96875,-0.91552734375,-6.65283203125,-0.18310546875,3.7957763671875,-19.566650390625,-37.7435302734375
1758528097.6123111,0.3681640625,0.05322265625,0.998046875,-1.15966796875,-7.75146484375,-0.06103515625,3.7847900390625,-19.6435546875,-37.7490234375
1758528097.622299,0.3681640625,0.05322265625,0.998046875,-1.15966796875,-7.75146484375,-0.06103515625,3.7738037109375,-19.7149658203125,-37.7545166015625
1758528097.6321032,0.36865234375,0.0634765625,1.00341796875,-3.23486328125,-9.70458984375,0.3662109375,3.746337890625,-19.8138427734375,-37.760009765625
1758528097.6422923,0.36865234375,0.0634765625,1.00341796875,-3.23486328125,-9.70458984375,0.3662109375,3.71337890625,-19.9072265625,-37.760009765625
1758528097.6523354,0.35888671875,0.05322265625,0.9755859375,-4.0283203125,-10.68115234375,0.48828125,3.6749267578125,-20.0115966796875,-37.7655029296875
1758528097.6630564,0.35888671875,0.05322265625,0.9755859375,-4.0283203125,-10.68115234375,0.48828125,3.636474609375,-20.115966796875,-37.7655029296875
1758528097.6721776,0.37255859375,0.03466796875,0.98974609375,1.0986328125,-11.23046875,0.244140625,3.6474609375,-20.225830078125,-37.77099609375
1758528097.6824183,0.37255859375,0.03466796875,0.98974609375,1.0986328125,-11.23046875,0.244140625,3.658447265625,-20.335693359375,-37.7764892578125
1758528097.6927621,0.3408203125,0.07080078125,0.9228515625,5.4931640625,-10.986328125,-0.67138671875,3.71337890625,-20.4400634765625,-37.79296875
1758528097.7029335,0.3408203125,0.07080078125,0.9228515625,5.4931640625,-10.986328125,-0.67138671875,3.7738037109375,-20.54443359375,-37.8094482421875
1758528097.712166,0.35546875,0.0859375,0.888671875,8.9111328125,-10.3759765625,-1.8310546875,3.8726806640625,-20.643310546875,-37.8369140625
1758528097.7221746,0.35546875,0.0859375,0.888671875,8.9111328125,-10.3759765625,-1.8310546875,3.9715576171875,-20.7421875,-37.85888671875
1758528097.7328427,0.35009765625,0.05029296875,0.947265625,5.18798828125,-10.31494140625,-1.8310546875,4.031982421875,-20.841064453125,-37.8863525390625
1758528097.7421706,0.35009765625,0.05029296875,0.947265625,5.18798828125,-10.31494140625,-1.8310546875,4.0869140625,-20.93994140625,-37.913818359375
1758528097.7521431,0.361328125,0.05419921875,0.93408203125,1.46484375,-10.31494140625,-0.9765625,4.10888671875,-21.0333251953125,-37.935791015625
1758528097.7620747,0.361328125,0.05419921875,0.93408203125,1.46484375,-10.31494140625,-0.9765625,4.1253662109375,-21.1322021484375,-37.9522705078125
1758528097.772145,0.376953125,0.0712890625,0.94287109375,0.732421875,-10.25390625,-0.67138671875,4.1363525390625,-21.2310791015625,-37.96875
1758528097.7821257,0.376953125,0.0712890625,0.94287109375,0.732421875,-10.25390625,-0.67138671875,4.1473388671875,-21.3299560546875,-37.9852294921875
1758528097.7926996,0.3671875,0.06298828125,0.93115234375,4.45556640625,-10.009765625,-1.28173828125,4.19677734375,-21.42333984375,-38.0072021484375
1758528097.8023517,0.3671875,0.06298828125,0.93115234375,4.45556640625,-10.009765625,-1.28173828125,4.2462158203125,-21.5167236328125,-38.0291748046875
1758528097.8124506,0.3671875,0.07666015625,0.92919921875,4.39453125,-10.009765625,-1.64794921875,4.295654296875,-21.610107421875,-38.056640625
1758528097.8223946,0.3671875,0.07666015625,0.92919921875,4.39453125,-10.009765625,-1.64794921875,4.3505859375,-21.7034912109375,-38.0841064453125
1758528097.8323493,0.37744140625,0.0556640625,0.9375,2.5634765625,-9.94873046875,-1.28173828125,4.3780517578125,-21.796875,-38.111572265625
1758528097.842418,0.37744140625,0.0556640625,0.9375,2.5634765625,-9.94873046875,-1.28173828125,4.4110107421875,-21.8902587890625,-38.133544921875
1758528097.8525136,0.38232421875,0.0576171875,0.95263671875,0.6103515625,-10.07080078125,-0.6103515625,4.41650390625,-21.9891357421875,-38.1500244140625
1758528097.862431,0.38232421875,0.0576171875,0.95263671875,0.6103515625,-10.07080078125,-0.6103515625,4.427490234375,-22.08251953125,-38.16650390625
1758528097.8735528,0.36669921875,0.10400390625,0.896484375,-0.42724609375,-9.8876953125,-0.6103515625,4.4219970703125,-22.1759033203125,-38.1829833984375
1758528097.8825178,0.36669921875,0.10400390625,0.896484375,-0.42724609375,-9.8876953125,-0.6103515625,4.4219970703125,-22.269287109375,-38.1939697265625
1758528097.8924415,0.35400390625,0.0888671875,0.8583984375,1.3427734375,-8.48388671875,-0.8544921875,4.4439697265625,-22.34619140625,-38.2159423828125
1758528097.9027874,0.35400390625,0.0888671875,0.8583984375,1.3427734375,-8.48388671875,-0.8544921875,4.4659423828125,-22.423095703125,-38.232421875
1758528097.9131227,0.353515625,0.05908203125,0.86962890625,2.01416015625,-6.591796875,-1.03759765625,4.4879150390625,-22.4835205078125,-38.2489013671875
1758528097.9223235,0.353515625,0.05908203125,0.86962890625,2.01416015625,-6.591796875,-1.03759765625,4.515380859375,-22.5439453125,-38.265380859375
1758528097.9324594,0.3916015625,0.0517578125,0.92626953125,2.01416015625,-6.103515625,-0.732421875,4.5428466796875,-22.598876953125,-38.2818603515625
1758528097.9428837,0.3916015625,0.0517578125,0.92626953125,2.01416015625,-6.103515625,-0.732421875,4.5648193359375,-22.65380859375,-38.29833984375
1758528097.9529305,0.39892578125,0.06298828125,0.92724609375,1.8310546875,-6.4697265625,-0.06103515625,4.581298828125,-22.7142333984375,-38.3038330078125
1758528097.9624388,0.39892578125,0.06298828125,0.92724609375,1.8310546875,-6.4697265625,-0.06103515625,4.603271484375,-22.774658203125,-38.309326171875
1758528097.972387,0.38916015625,0.06591796875,0.91455078125,1.77001953125,-6.591796875,0.30517578125,4.6142578125,-22.840576171875,-38.3148193359375
1758528097.9823623,0.38916015625,0.06591796875,0.91455078125,1.77001953125,-6.591796875,0.30517578125,4.6307373046875,-22.9010009765625,-38.3148193359375
1758528097.9923341,0.38134765625,0.07568359375,0.900390625,-0.18310546875,-5.9814453125,0.732421875,4.625244140625,-22.9559326171875,-38.3148193359375
1758528098.0021913,0.38134765625,0.07568359375,0.900390625,-0.18310546875,-5.9814453125,0.732421875,4.6197509765625,-23.0108642578125,-38.309326171875
1758528098.0121024,0.38916015625,0.0595703125,0.88818359375,-1.52587890625,-5.43212890625,1.220703125,4.603271484375,-23.0657958984375,-38.3038330078125
1758528098.0222628,0.38916015625,0.0595703125,0.88818359375,-1.52587890625,-5.43212890625,1.220703125,4.581298828125,-23.115234375,-38.2928466796875
1758528098.032489,0.40966796875,0.05126953125,0.9404296875,-2.01416015625,-5.2490234375,1.89208984375,4.54833984375,-23.170166015625,-38.2763671875
1758528098.0422788,0.40966796875,0.05126953125,0.9404296875,-2.01416015625,-5.2490234375,1.89208984375,4.5208740234375,-23.2196044921875,-38.2598876953125
1758528098.0524337,0.43359375,0.05029296875,0.96923828125,-2.86865234375,-6.2255859375,2.685546875,4.4769287109375,-23.280029296875,-38.2379150390625
1758528098.0622764,0.43359375,0.05029296875,0.96923828125,-2.86865234375,-6.2255859375,2.685546875,4.4384765625,-23.345947265625,-38.2159423828125
1758528098.072866,0.40966796875,0.0732421875,0.93994140625,-4.94384765625,-6.9580078125,3.41796875,4.37255859375,-23.411865234375,-38.1829833984375
1758528098.0823116,0.40966796875,0.0732421875,0.93994140625,-4.94384765625,-6.9580078125,3.41796875,4.306640625,-23.4832763671875,-38.1500244140625
1758528098.0928535,0.4111328125,0.0859375,0.9443359375,-6.34765625,-6.591796875,3.5400390625,4.229736328125,-23.5491943359375,-38.1170654296875
1758528098.1029193,0.4111328125,0.0859375,0.9443359375,-6.34765625,-6.591796875,3.5400390625,4.15283203125,-23.6151123046875,-38.0841064453125
1758528098.1129153,0.43017578125,0.0673828125,0.94873046875,-8.23974609375,-6.77490234375,3.7841796875,4.053955078125,-23.6810302734375,-38.0511474609375
1758528098.1248958,0.43017578125,0.0673828125,0.94873046875,-8.23974609375,-6.77490234375,3.7841796875,3.9605712890625,-23.75244140625,-38.0126953125
1758528098.13316,0.4453125,0.091796875,0.9697265625,-5.92041015625,-8.48388671875,3.35693359375,3.88916015625,-23.8348388671875,-37.9852294921875
1758528098.1430051,0.4453125,0.091796875,0.9697265625,-5.92041015625,-8.48388671875,3.35693359375,3.8232421875,-23.9227294921875,-37.9522705078125
1758528098.1524172,0.42578125,0.02734375,0.9501953125,-7.50732421875,-9.033203125,3.35693359375,3.7353515625,-24.0106201171875,-37.9248046875
1758528098.1622036,0.42578125,0.02734375,0.9501953125,-7.50732421875,-9.033203125,3.35693359375,3.6529541015625,-24.10400390625,-37.891845703125
1758528098.1728344,0.416015625,0.0517578125,0.89208984375,-10.80322265625,-9.58251953125,3.173828125,3.5321044921875,-24.1973876953125,-37.8643798828125
1758528098.1824732,0.416015625,0.0517578125,0.89208984375,-10.80322265625,-9.58251953125,3.173828125,3.416748046875,-24.290771484375,-37.8314208984375
1758528098.1924853,0.4013671875,0.0458984375,0.87353515625,-8.23974609375,-9.3994140625,3.60107421875,3.3233642578125,-24.3896484375,-37.7984619140625
1758528098.20232,0.4013671875,0.0458984375,0.87353515625,-8.23974609375,-9.3994140625,3.60107421875,3.22998046875,-24.4830322265625,-37.7655029296875
1758528098.2129323,0.400390625,0.037109375,0.8779296875,-7.26318359375,-8.9111328125,3.60107421875,3.14208984375,-24.5709228515625,-37.7325439453125
1758528098.222384,0.400390625,0.037109375,0.8779296875,-7.26318359375,-8.9111328125,3.60107421875,3.0596923828125,-24.6588134765625,-37.694091796875
1758528098.2411165,0.4267578125,0.05810546875,0.90966796875,-7.32421875,-8.48388671875,3.11279296875,2.977294921875,-24.7412109375,-37.6666259765625
1758528098.2485676,0.4267578125,0.05810546875,0.90966796875,-7.32421875,-8.48388671875,3.11279296875,2.8948974609375,-24.8236083984375,-37.6336669921875
1758528098.2555285,0.42236328125,0.05126953125,0.9208984375,-7.568359375,-8.36181640625,3.41796875,2.8070068359375,-24.906005859375,-37.6007080078125
1758528098.262278,0.42236328125,0.05126953125,0.9208984375,-7.568359375,-8.36181640625,3.41796875,2.724609375,-24.9884033203125,-37.5677490234375
1758528098.27258,0.45166015625,0.07080078125,0.90576171875,-6.8359375,-8.36181640625,3.35693359375,2.647705078125,-25.07080078125,-37.5347900390625
1758528098.2826095,0.45166015625,0.07080078125,0.90576171875,-6.8359375,-8.36181640625,3.35693359375,2.57080078125,-25.1531982421875,-37.5018310546875
1758528098.292568,0.4384765625,0.05517578125,0.9423828125,-6.4697265625,-8.1787109375,3.2958984375,2.4993896484375,-25.2301025390625,-37.4688720703125
1758528098.3023188,0.4384765625,0.05517578125,0.9423828125,-6.4697265625,-8.1787109375,3.2958984375,2.4224853515625,-25.3125,-37.44140625
1758528098.312804,0.47021484375,0.01708984375,0.97509765625,-5.2490234375,-8.9111328125,3.11279296875,2.3675537109375,-25.400390625,-37.408447265625
1758528098.322981,0.47021484375,0.01708984375,0.97509765625,-5.2490234375,-8.9111328125,3.11279296875,2.30712890625,-25.48828125,-37.3809814453125
1758528098.3325357,0.46826171875,0.01318359375,0.931640625,-0.6103515625,-10.43701171875,2.685546875,2.2906494140625,-25.587158203125,-37.353515625
1758528098.3423953,0.46826171875,0.01318359375,0.931640625,-0.6103515625,-10.43701171875,2.685546875,2.2796630859375,-25.6915283203125,-37.3260498046875
1758528098.3529224,0.45263671875,0.04541015625,0.89697265625,3.11279296875,-11.53564453125,2.0751953125,2.3016357421875,-25.806884765625,-37.3095703125
1758528098.3627317,0.45263671875,0.04541015625,0.89697265625,3.11279296875,-11.53564453125,2.0751953125,2.3291015625,-25.9222412109375,-37.2930908203125
1758528098.3725252,0.46533203125,0.02294921875,0.90576171875,6.77490234375,-13.00048828125,1.77001953125,2.3895263671875,-26.048583984375,-37.276611328125
1758528098.3825197,0.46533203125,0.02294921875,0.90576171875,6.77490234375,-13.00048828125,1.77001953125,2.4554443359375,-26.1749267578125,-37.2601318359375
1758528098.3926857,0.4541015625,0.0087890625,0.92578125,3.11279296875,-14.34326171875,2.50244140625,2.471923828125,-26.3177490234375,-37.24365234375
1758528098.4023802,0.4541015625,0.0087890625,0.92578125,3.11279296875,-14.34326171875,2.50244140625,2.493896484375,-26.4605712890625,-37.2216796875
1758528098.4123726,0.44970703125,0.0419921875,0.87353515625,0.3662109375,-14.892578125,2.86865234375,2.48291015625,-26.60888671875,-37.1942138671875
1758528098.423651,0.44970703125,0.0419921875,0.87353515625,0.3662109375,-14.892578125,2.86865234375,2.4774169921875,-26.751708984375,-37.1722412109375
1758528098.432636,0.4638671875,0.0576171875,0.90234375,-0.8544921875,-14.34326171875,2.9296875,2.4554443359375,-26.89453125,-37.144775390625
1758528098.4424963,0.4638671875,0.0576171875,0.90234375,-0.8544921875,-14.34326171875,2.9296875,2.4334716796875,-27.037353515625,-37.122802734375
1758528098.452553,0.482421875,0.04150390625,0.92041015625,-0.18310546875,-14.404296875,2.01416015625,2.427978515625,-27.1746826171875,-37.1063232421875
1758528098.46306,0.482421875,0.04150390625,0.92041015625,-0.18310546875,-14.404296875,2.01416015625,2.4169921875,-27.3175048828125,-37.08984375
1758528098.4725614,0.46826171875,0.017578125,0.8935546875,2.01416015625,-14.6484375,1.220703125,2.4334716796875,-27.4603271484375,-37.0843505859375
1758528098.4825711,0.44384765625,0.02685546875,0.84375,2.197265625,-13.7939453125,0.79345703125,2.449951171875,-27.59765625,-37.0843505859375
1758528098.4932098,0.44384765625,0.02685546875,0.84375,2.197265625,-13.7939453125,0.79345703125,2.471923828125,-27.7294921875,-37.078857421875
1758528098.5028167,0.44140625,0.0322265625,0.837890625,5.859375,-11.77978515625,0.79345703125,2.5103759765625,-27.850341796875,-37.078857421875
1758528098.5126085,0.44140625,0.0322265625,0.837890625,5.859375,-11.77978515625,0.79345703125,2.5653076171875,-27.9656982421875,-37.078857421875
1758528098.5237443,0.45166015625,0.0537109375,0.8369140625,5.06591796875,-10.3759765625,0.9765625,2.61474609375,-28.070068359375,-37.0733642578125
1758528098.5326269,0.45166015625,0.0537109375,0.8369140625,5.06591796875,-10.3759765625,0.9765625,2.65869140625,-28.1689453125,-37.0733642578125
1758528098.5425236,0.46435546875,0.05126953125,0.84326171875,0.54931640625,-9.09423828125,1.52587890625,2.6861572265625,-28.2623291015625,-37.0623779296875
1758528098.552969,0.46435546875,0.05126953125,0.84326171875,0.54931640625,-9.09423828125,1.52587890625,2.6806640625,-28.3447265625,-37.0513916015625
1758528098.5628157,0.4736328125,0.0634765625,0.86279296875,0.732421875,-8.23974609375,1.77001953125,2.6806640625,-28.4271240234375,-37.0404052734375
1758528098.5725944,0.4736328125,0.0634765625,0.86279296875,0.732421875,-8.23974609375,1.77001953125,2.6806640625,-28.509521484375,-37.02392578125
1758528098.5827103,0.48193359375,0.03173828125,0.86474609375,1.5869140625,-7.568359375,1.708984375,2.6861572265625,-28.5809326171875,-37.012939453125
1758528098.5932086,0.48193359375,0.03173828125,0.86474609375,1.5869140625,-7.568359375,1.708984375,2.6971435546875,-28.65234375,-36.9964599609375
1758528098.6026578,0.48486328125,0.03857421875,0.85888671875,-3.60107421875,-7.2021484375,1.708984375,2.6806640625,-28.7237548828125,-36.97998046875
1758528098.61301,0.48486328125,0.03857421875,0.85888671875,-3.60107421875,-7.2021484375,1.708984375,2.63671875,-28.795166015625,-36.9635009765625
1758528098.6244626,0.5029296875,0.0458984375,0.87939453125,-7.4462890625,-6.9580078125,2.25830078125,2.5762939453125,-28.861083984375,-36.947021484375
1758528098.6327748,0.5029296875,0.0458984375,0.87939453125,-7.4462890625,-6.9580078125,2.25830078125,2.493896484375,-28.9324951171875,-36.925048828125
1758528098.6426928,0.54052734375,0.08154296875,0.966796875,-6.34765625,-7.62939453125,2.44140625,2.4114990234375,-29.00390625,-36.903076171875
1758528098.653412,0.54052734375,0.08154296875,0.966796875,-6.34765625,-7.62939453125,2.44140625,2.340087890625,-29.0753173828125,-36.8756103515625
1758528098.6629055,0.54248046875,0.0283203125,0.95703125,-9.94873046875,-9.58251953125,2.38037109375,2.252197265625,-29.1632080078125,-36.8536376953125
1758528098.6727328,0.54248046875,0.0283203125,0.95703125,-9.94873046875,-9.58251953125,2.38037109375,2.1478271484375,-29.256591796875,-36.8316650390625
1758528098.6832366,0.51806640625,-0.01220703125,0.84716796875,-17.333984375,-11.3525390625,2.44140625,2.0050048828125,-29.35546875,-36.80419921875
1758528098.6932485,0.51806640625,-0.01220703125,0.84716796875,-17.333984375,-11.3525390625,2.44140625,1.82373046875,-29.4708251953125,-36.7822265625
1758528098.70272,0.4755859375,-0.00048828125,0.80224609375,-15.19775390625,-11.23046875,2.62451171875,1.6534423828125,-29.5806884765625,-36.7547607421875
1758528098.712874,0.4755859375,-0.00048828125,0.80224609375,-15.19775390625,-11.23046875,2.62451171875,1.4886474609375,-29.696044921875,-36.727294921875
1758528098.723707,0.4921875,-0.00439453125,0.8603515625,-5.4931640625,-11.1083984375,2.38037109375,1.3787841796875,-29.805908203125,-36.6998291015625
1758528098.7328577,0.4921875,-0.00439453125,0.8603515625,-5.4931640625,-11.1083984375,2.38037109375,1.3128662109375,-29.915771484375,-36.67236328125
1758528098.7427692,0.49658203125,-0.0048828125,0.8662109375,1.5869140625,-11.5966796875,1.40380859375,1.285400390625,-30.025634765625,-36.6558837890625
1758528098.753408,0.49658203125,-0.0048828125,0.8662109375,1.5869140625,-11.5966796875,1.40380859375,1.2908935546875,-30.1409912109375,-36.639404296875
1758528098.7628884,0.49658203125,-0.0048828125,0.8662109375,5.37109375,-11.90185546875,0.67138671875,1.3238525390625,-30.25634765625,-36.6339111328125
1758528098.7727757,0.50830078125,0.0185546875,0.81103515625,5.37109375,-11.90185546875,0.67138671875,1.373291015625,-30.3717041015625,-36.62841796875
1758528098.7837112,0.525390625,0.06640625,0.84423828125,4.94384765625,-12.14599609375,0.67138671875,1.417236328125,-30.487060546875,-36.6229248046875
1758528098.7932687,0.525390625,0.06640625,0.84423828125,4.94384765625,-12.14599609375,0.67138671875,1.4666748046875,-30.60791015625,-36.617431640625
1758528098.802855,0.5244140625,0.03759765625,0.892578125,1.5869140625,-12.02392578125,0.48828125,1.4996337890625,-30.728759765625,-36.6119384765625
1758528098.8129542,0.5244140625,0.03759765625,0.892578125,1.5869140625,-12.02392578125,0.48828125,1.51611328125,-30.8441162109375,-36.6064453125
1758528098.823883,0.47900390625,-0.001953125,0.826171875,-2.9296875,-11.41357421875,-0.42724609375,1.51611328125,-30.95947265625,-36.6119384765625
1758528098.8328538,0.47900390625,-0.001953125,0.826171875,-2.9296875,-11.41357421875,-0.42724609375,1.4886474609375,-31.0693359375,-36.617431640625
1758528098.8429325,0.47314453125,0.0126953125,0.74951171875,-0.1220703125,-9.70458984375,-1.708984375,1.483154296875,-31.1737060546875,-36.6339111328125
1758528098.8533766,0.47314453125,0.0126953125,0.74951171875,-0.1220703125,-9.70458984375,-1.708984375,1.494140625,-31.2615966796875,-36.6558837890625
1758528098.8629813,0.501953125,0.048828125,0.77978515625,5.92041015625,-7.99560546875,-2.50244140625,1.5380859375,-31.3494873046875,-36.683349609375
1758528098.8728817,0.501953125,0.048828125,0.77978515625,5.92041015625,-7.99560546875,-2.50244140625,1.614990234375,-31.4263916015625,-36.71630859375
1758528098.883824,0.5126953125,0.0458984375,0.826171875,2.685546875,-6.8359375,-2.685546875,1.6754150390625,-31.497802734375,-36.7437744140625
1758528098.8932385,0.5126953125,0.0458984375,0.826171875,2.685546875,-6.8359375,-2.685546875,1.7193603515625,-31.5582275390625,-36.7767333984375
1758528098.9029496,0.52978515625,0.02392578125,0.86962890625,-4.94384765625,-5.79833984375,-2.9296875,1.7303466796875,-31.61865234375,-36.8096923828125
1758528098.9134881,0.52978515625,0.02392578125,0.86962890625,-4.94384765625,-5.79833984375,-2.9296875,1.702880859375,-31.673583984375,-36.84814453125
1758528098.9235897,0.52587890625,0.01171875,0.861328125,-3.72314453125,-4.150390625,-3.2958984375,1.680908203125,-31.717529296875,-36.8865966796875
1758528098.9330285,0.52587890625,0.01171875,0.861328125,-3.72314453125,-4.150390625,-3.2958984375,1.6644287109375,-31.7559814453125,-36.925048828125
1758528098.9438646,0.53515625,0.00732421875,0.841796875,1.89208984375,-3.11279296875,-3.41796875,1.6754150390625,-31.7889404296875,-36.9635009765625
1758528098.953609,0.53515625,0.00732421875,0.841796875,1.89208984375,-3.11279296875,-3.41796875,1.7193603515625,-31.81640625,-37.001953125
1758528098.9629977,0.5400390625,0.0205078125,0.84814453125,1.77001953125,-2.8076171875,-3.2958984375,1.7578125,-31.8438720703125,-37.0404052734375
1758528098.973048,0.5400390625,0.0205078125,0.84814453125,1.77001953125,-2.8076171875,-3.2958984375,1.790771484375,-31.871337890625,-37.078857421875
1758528098.9835932,0.53564453125,0.02001953125,0.84033203125,-1.5869140625,-3.35693359375,-2.86865234375,1.812744140625,-31.8988037109375,-37.11181640625
1758528098.993132,0.53564453125,0.02001953125,0.84033203125,-1.5869140625,-3.35693359375,-2.86865234375,1.812744140625,-31.9317626953125,-37.144775390625
1758528099.0031457,0.529296875,0.0283203125,0.830078125,-5.67626953125,-3.662109375,-2.0751953125,1.790771484375,-31.9647216796875,-37.1722412109375
1758528099.0137043,0.529296875,0.0283203125,0.830078125,-5.67626953125,-3.662109375,-2.0751953125,1.746826171875,-31.9976806640625,-37.1942138671875
1758528099.0232797,0.529296875,0.0283203125,0.830078125,-3.47900390625,-3.41796875,-1.0986328125,1.7083740234375,-32.0306396484375,-37.210693359375
1758528099.0332181,0.51416015625,0.01318359375,0.80810546875,-3.47900390625,-3.41796875,-1.0986328125,1.680908203125,-32.069091796875,-37.2216796875
1758528099.043589,0.533203125,0.0224609375,0.81298828125,-1.15966796875,-3.72314453125,-0.48828125,1.658935546875,-32.10205078125,-37.2271728515625
1758528099.053868,0.533203125,0.0224609375,0.81298828125,-1.15966796875,-3.72314453125,-0.48828125,1.6534423828125,-32.1405029296875,-37.232666015625
1758528099.0632517,0.5458984375,0.02392578125,0.8525390625,-1.46484375,-4.0283203125,0.0,1.6424560546875,-32.178955078125,-37.232666015625
1758528099.0732093,0.5458984375,0.02392578125,0.8525390625,-1.46484375,-4.0283203125,0.0,1.6259765625,-32.2174072265625,-37.2271728515625
1758528099.0844734,0.5517578125,0.00537109375,0.85986328125,-3.60107421875,-4.7607421875,0.6103515625,1.5985107421875,-32.266845703125,-37.2216796875
1758528099.0937164,0.5517578125,0.00537109375,0.85986328125,-3.60107421875,-4.7607421875,0.6103515625,1.56005859375,-32.310791015625,-37.210693359375
1758528099.1031673,0.55224609375,0.01953125,0.833984375,-3.23486328125,-5.126953125,0.79345703125,1.51611328125,-32.3602294921875,-37.19970703125
1758528099.113281,0.55224609375,0.01953125,0.833984375,-3.23486328125,-5.126953125,0.79345703125,1.483154296875,-32.4151611328125,-37.1832275390625
1758528099.1240373,0.60595703125,0.013671875,0.8916015625,-0.06103515625,-5.859375,0.79345703125,1.461181640625,-32.4700927734375,-37.1722412109375
1758528099.1332982,0.60595703125,0.013671875,0.8916015625,-0.06103515625,-5.859375,0.79345703125,1.4556884765625,-32.530517578125,-37.1612548828125
1758528099.1435874,0.62158203125,0.0087890625,0.96533203125,-0.9765625,-7.2021484375,0.48828125,1.4447021484375,-32.596435546875,-37.144775390625
1758528099.154092,0.62158203125,0.0087890625,0.96533203125,-0.9765625,-7.2021484375,0.48828125,1.42822265625,-32.67333984375,-37.1392822265625
1758528099.163681,0.61669921875,0.00390625,0.95849609375,-0.79345703125,-8.85009765625,0.0,1.417236328125,-32.7557373046875,-37.1337890625
1758528099.173274,0.61669921875,0.00390625,0.95849609375,-0.79345703125,-8.85009765625,0.0,1.4117431640625,-32.8436279296875,-37.1282958984375
1758528099.1835432,0.5712890625,-0.00927734375,0.86328125,-0.3662109375,-10.7421875,-0.244140625,1.4007568359375,-32.9425048828125,-37.1337890625
1758528099.194015,0.5712890625,-0.00927734375,0.86328125,-0.3662109375,-10.7421875,-0.244140625,1.4007568359375,-33.046875,-37.1337890625
1758528099.203671,0.56884765625,0.00439453125,0.7900390625,1.52587890625,-13.18359375,-0.244140625,1.4007568359375,-33.167724609375,-37.1337890625
1758528099.2133439,0.56884765625,0.00439453125,0.7900390625,1.52587890625,-13.18359375,-0.244140625,1.417236328125,-33.299560546875,-37.1392822265625
1758528099.224053,0.6015625,0.02734375,0.84130859375,1.5869140625,-15.68603515625,0.30517578125,1.42822265625,-33.4423828125,-37.1337890625
1758528099.2336204,0.6015625,0.02734375,0.84130859375,1.5869140625,-15.68603515625,0.30517578125,1.439208984375,-33.6016845703125,-37.1282958984375
1758528099.2437925,0.5859375,0.0361328125,0.86962890625,-2.3193359375,-17.39501953125,1.28173828125,1.4337158203125,-33.7664794921875,-37.1173095703125
1758528099.2533753,0.5859375,0.0361328125,0.86962890625,-2.3193359375,-17.39501953125,1.28173828125,1.4007568359375,-33.9422607421875,-37.100830078125
1758528099.2641795,0.57861328125,0.03173828125,0.82421875,-3.173828125,-18.4326171875,1.64794921875,1.3623046875,-34.1180419921875,-37.0843505859375
1758528099.2734015,0.57861328125,0.03173828125,0.82421875,-3.173828125,-18.4326171875,1.64794921875,1.3238525390625,-34.3048095703125,-37.06787109375
1758528099.2837381,0.5517578125,0.02294921875,0.7578125,-5.2490234375,-18.310546875,1.46484375,1.2744140625,-34.486083984375,-37.0458984375
1758528099.294084,0.5517578125,0.02294921875,0.7578125,-5.2490234375,-18.310546875,1.46484375,1.2139892578125,-34.6673583984375,-37.0294189453125
1758528099.3038151,0.58935546875,0.01416015625,0.80615234375,-5.126953125,-18.12744140625,1.15966796875,1.1590576171875,-34.8486328125,-37.012939453125
1758528099.313463,0.58935546875,0.01416015625,0.80615234375,-5.126953125,-18.12744140625,1.15966796875,1.1041259765625,-35.0244140625,-37.001953125
1758528099.324187,0.58642578125,0.037109375,0.84765625,-6.53076171875,-17.4560546875,0.79345703125,1.0382080078125,-35.2001953125,-36.990966796875
1758528099.3334439,0.58642578125,0.037109375,0.84765625,-6.53076171875,-17.4560546875,0.79345703125,0.9722900390625,-35.3704833984375,-36.97998046875
1758528099.3437946,0.58740234375,0.0029296875,0.80078125,-6.16455078125,-16.845703125,0.30517578125,0.911865234375,-35.540771484375,-36.9744873046875
1758528099.3539946,0.58740234375,0.0029296875,0.80078125,-6.16455078125,-16.845703125,0.30517578125,0.8514404296875,-35.70556640625,-36.968994140625
1758528099.3639045,0.56689453125,-0.00537109375,0.74609375,0.54931640625,-15.44189453125,-0.42724609375,0.8294677734375,-35.859375,-36.968994140625
1758528099.3734922,0.56689453125,-0.00537109375,0.74609375,0.54931640625,-15.44189453125,-0.42724609375,0.8404541015625,-36.01318359375,-36.9744873046875
1758528099.3837228,0.599609375,-0.0009765625,0.79296875,6.16455078125,-14.34326171875,-0.9765625,0.8843994140625,-36.156005859375,-36.97998046875
1758528099.3941824,0.599609375,-0.0009765625,0.79296875,6.16455078125,-14.34326171875,-0.9765625,0.955810546875,-36.2933349609375,-36.990966796875
1758528099.403823,0.67822265625,0.01708984375,0.89404296875,3.84521484375,-14.404296875,-1.15966796875,1.0107421875,-36.4361572265625,-37.0074462890625
1758528099.4136271,0.67822265625,0.01708984375,0.89404296875,3.84521484375,-14.404296875,-1.15966796875,1.0601806640625,-36.573486328125,-37.0184326171875
1758528099.4238813,0.68994140625,0.03076171875,0.89794921875,1.46484375,-15.13671875,-1.03759765625,1.0931396484375,-36.71630859375,-37.0294189453125
1758528099.4342163,0.68994140625,0.03076171875,0.89794921875,1.46484375,-15.13671875,-1.03759765625,1.12060546875,-36.8646240234375,-37.0458984375
1758528099.443848,0.64306640625,0.017578125,0.86767578125,-2.01416015625,-16.17431640625,-0.91552734375,1.1260986328125,-37.0184326171875,-37.056884765625
1758528099.4535184,0.64306640625,0.017578125,0.86767578125,-2.01416015625,-16.17431640625,-0.91552734375,1.1151123046875,-37.1722412109375,-37.06787109375
1758528099.46443,0.642578125,-0.00634765625,0.79833984375,-1.5869140625,-16.66259765625,-0.9765625,1.1041259765625,-37.33154296875,-37.078857421875
1758528099.4738414,0.642578125,-0.00634765625,0.79833984375,-1.5869140625,-16.66259765625,-0.9765625,1.0986328125,-37.496337890625,-37.08984375
1758528099.4838257,0.6455078125,0.021484375,0.796875,-3.90625,-17.51708984375,-1.15966796875,1.0821533203125,-37.6611328125,-37.100830078125
1758528099.4937687,0.6455078125,0.021484375,0.796875,-3.90625,-17.51708984375,-1.15966796875,1.0546875,-37.8314208984375,-37.1173095703125
1758528099.504054,0.65673828125,0.0498046875,0.82763671875,-11.04736328125,-18.06640625,-0.54931640625,0.98876953125,-38.0072021484375,-37.1282958984375
1758528099.51385,0.65673828125,0.0498046875,0.82763671875,-11.04736328125,-18.06640625,-0.54931640625,0.8843994140625,-38.1829833984375,-37.1337890625
1758528099.5239995,0.64404296875,0.03173828125,0.8154296875,-14.2822265625,-18.5546875,0.30517578125,0.7470703125,-38.3587646484375,-37.1282958984375
1758528099.5337503,0.64404296875,0.03173828125,0.8154296875,-14.2822265625,-18.5546875,0.30517578125,0.604248046875,-38.5400390625,-37.122802734375
1758528099.544662,0.61669921875,-0.00537109375,0.72412109375,-16.54052734375,-18.4326171875,1.28173828125,0.439453125,-38.7213134765625,-37.1063232421875
1758528099.553668,0.61669921875,-0.00537109375,0.72412109375,-16.54052734375,-18.4326171875,1.28173828125,0.2691650390625,-38.8970947265625,-37.0843505859375
1758528099.5640578,0.650390625,-0.04931640625,0.732421875,-12.26806640625,-17.578125,0.732421875,0.142822265625,-39.0673828125,-37.0733642578125
1758528099.5739748,0.650390625,-0.04931640625,0.732421875,-12.26806640625,-17.578125,0.732421875,0.0164794921875,-39.2431640625,-37.056884765625
1758528099.5842457,0.65234375,-0.0263671875,0.80908203125,-0.79345703125,-17.2119140625,0.3662109375,0.0054931640625,-39.407958984375,-37.0458984375
1758528099.593763,0.65234375,-0.0263671875,0.80908203125,-0.79345703125,-17.2119140625,0.3662109375,0.0,-39.5782470703125,-37.034912109375
1758528099.604037,0.66259765625,-0.0087890625,0.75634765625,7.01904296875,-16.90673828125,0.0,0.06591796875,-39.7430419921875,-37.0294189453125
1758528099.6141334,0.66259765625,-0.0087890625,0.75634765625,7.01904296875,-16.90673828125,0.0,0.1318359375,-39.9078369140625,-37.02392578125
1758528099.6241124,0.63623046875,-0.02001953125,0.73681640625,11.962890625,-17.02880859375,-0.1220703125,0.252685546875,-40.0726318359375,-37.0184326171875
1758528099.6338983,0.63623046875,-0.02001953125,0.73681640625,11.962890625,-17.02880859375,-0.1220703125,0.3680419921875,-40.2374267578125,-37.0184326171875
1758528099.6444218,0.6240234375,-0.01806640625,0.7138671875,11.962890625,-16.66259765625,-0.42724609375,0.4888916015625,-40.4022216796875,-37.0184326171875
1758528099.654279,0.6240234375,-0.01806640625,0.7138671875,11.962890625,-16.66259765625,-0.42724609375,0.604248046875,-40.5615234375,-37.0184326171875
1758528099.664126,0.63818359375,-0.013671875,0.73876953125,9.6435546875,-15.9912109375,-0.18310546875,0.6976318359375,-40.71533203125,-37.0184326171875
1758528099.673922,0.63818359375,-0.013671875,0.73876953125,9.6435546875,-15.9912109375,-0.18310546875,0.7855224609375,-40.869140625,-37.012939453125
1758528099.6845005,0.638671875,0.03125,0.76416015625,9.27734375,-15.31982421875,0.0,0.8734130859375,-41.0174560546875,-37.012939453125
1758528099.6939385,0.638671875,0.03125,0.76416015625,9.27734375,-15.31982421875,0.0,0.9613037109375,-41.165771484375,-37.0074462890625
1758528099.7041764,0.583984375,0.048828125,0.69091796875,9.70458984375,-13.18359375,0.48828125,1.0491943359375,-41.28662109375,-37.001953125
1758528099.714503,0.583984375,0.048828125,0.69091796875,9.70458984375,-13.18359375,0.48828125,1.142578125,-41.4129638671875,-36.990966796875
1758528099.7242415,0.58349609375,0.01904296875,0.59326171875,2.9296875,-10.7421875,0.79345703125,1.16455078125,-41.5118408203125,-36.97998046875
1758528099.733909,0.58349609375,0.01904296875,0.59326171875,2.9296875,-10.7421875,0.79345703125,1.1865234375,-41.6162109375,-36.968994140625
1758528099.7445154,0.64208984375,-0.02001953125,0.7197265625,-3.41796875,-9.21630859375,0.30517578125,1.1480712890625,-41.6986083984375,-36.9635009765625
1758528099.7539363,0.64208984375,-0.02001953125,0.7197265625,-3.41796875,-9.21630859375,0.30517578125,1.1041259765625,-41.7864990234375,-36.9525146484375
1758528099.7643511,0.64208984375,-0.02001953125,0.7197265625,-3.23486328125,-7.14111328125,0.732421875,1.065673828125,-41.8524169921875,-36.9415283203125
1758528099.7745864,0.65185546875,0.0146484375,0.7509765625,-3.23486328125,-7.14111328125,0.732421875,1.021728515625,-41.9183349609375,-36.925048828125
1758528099.7843137,0.68310546875,0.02001953125,0.734375,-2.8076171875,-6.34765625,0.9765625,0.9832763671875,-41.978759765625,-36.9085693359375
1758528099.7939308,0.68310546875,0.02001953125,0.734375,-2.8076171875,-6.34765625,0.9765625,0.94482421875,-42.0391845703125,-36.89208984375
1758528099.8043294,0.70166015625,0.00537109375,0.73388671875,-6.103515625,-5.79833984375,1.3427734375,0.8734130859375,-42.0941162109375,-36.8646240234375
1758528099.814733,0.70166015625,0.00537109375,0.73388671875,-6.103515625,-5.79833984375,1.3427734375,0.7965087890625,-42.1490478515625,-36.8426513671875
1758528099.8242815,0.69873046875,-0.01171875,0.75341796875,-2.44140625,-5.2490234375,1.77001953125,0.758056640625,-42.198486328125,-36.8096923828125
1758528099.8339603,0.69873046875,-0.01171875,0.75341796875,-2.44140625,-5.2490234375,1.77001953125,0.714111328125,-42.2479248046875,-36.7822265625
1758528099.8443837,0.69091796875,0.0107421875,0.73583984375,-6.53076171875,-5.18798828125,2.38037109375,0.626220703125,-42.3028564453125,-36.7437744140625
1758528099.8541095,0.69091796875,0.0107421875,0.73583984375,-6.53076171875,-5.18798828125,2.38037109375,0.538330078125,-42.352294921875,-36.705322265625
1758528099.8643277,0.6513671875,0.01416015625,0.720703125,-8.23974609375,-5.0048828125,4.39453125,0.41748046875,-42.4017333984375,-36.639404296875
1758528099.8740702,0.6513671875,0.01416015625,0.720703125,-8.23974609375,-5.0048828125,4.39453125,0.296630859375,-42.451171875,-36.573486328125
1758528099.8844352,0.666015625,-0.02685546875,0.6875,-6.77490234375,-4.94384765625,6.2255859375,0.17578125,-42.5006103515625,-36.4801025390625
1758528099.89464,0.666015625,-0.02685546875,0.6875,-6.77490234375,-4.94384765625,6.2255859375,0.0494384765625,-42.550048828125,-36.3922119140625
1758528099.9040942,0.7236328125,-0.00634765625,0.73681640625,-4.0283203125,-4.69970703125,7.01904296875,-0.0494384765625,-42.593994140625,-36.287841796875
1758528099.914078,0.7236328125,-0.00634765625,0.73681640625,-4.0283203125,-4.69970703125,7.01904296875,-0.15380859375,-42.6434326171875,-36.1834716796875
1758528099.9250894,0.72021484375,-0.01025390625,0.767578125,-9.1552734375,-5.43212890625,7.99560546875,-0.318603515625,-42.6983642578125,-36.068115234375
1758528099.9343076,0.72021484375,-0.01025390625,0.767578125,-9.1552734375,-5.43212890625,7.99560546875,-0.4833984375,-42.7532958984375,-35.9527587890625
1758528099.9443955,0.654296875,-0.03466796875,0.67236328125,-12.14599609375,-6.2255859375,8.7890625,-0.6866455078125,-42.8192138671875,-35.8209228515625
1758528099.9540956,0.654296875,-0.03466796875,0.67236328125,-12.14599609375,-6.2255859375,8.7890625,-0.8843994140625,-42.879638671875,-35.694580078125
1758528099.9644887,0.61181640625,-0.03271484375,0.65185546875,-6.16455078125,-5.4931640625,9.1552734375,-1.03271484375,-42.9345703125,-35.562744140625
1758528099.974169,0.61181640625,-0.03271484375,0.65185546875,-6.16455078125,-5.4931640625,9.1552734375,-1.1810302734375,-42.989501953125,-35.4254150390625
1758528099.9843688,0.66357421875,-0.01416015625,0.66552734375,-1.64794921875,-5.06591796875,9.46044921875,-1.285400390625,-43.0389404296875,-35.2880859375
1758528099.9942238,0.66357421875,-0.01416015625,0.66552734375,-1.64794921875,-5.06591796875,9.46044921875,-1.3897705078125,-43.08837890625,-35.1507568359375
1758528100.005022,0.7529296875,-0.021484375,0.748046875,-3.41796875,-4.82177734375,9.1552734375,-1.505126953125,-43.1378173828125,-35.013427734375
1758528100.0142024,0.7529296875,-0.021484375,0.748046875,-3.41796875,-4.82177734375,9.1552734375,-1.6259765625,-43.187255859375,-34.8760986328125
1758528100.0245779,0.7529296875,-0.021484375,0.748046875,-8.72802734375,-4.57763671875,8.60595703125,-1.790771484375,-43.231201171875,-34.749755859375
1758528100.0348656,0.7158203125,-0.01220703125,0.7890625,-8.72802734375,-4.57763671875,8.60595703125,-1.95556640625,-43.2806396484375,-34.6234130859375
1758528100.0446649,0.65869140625,-0.0107421875,0.6796875,-6.103515625,-3.96728515625,7.75146484375,-2.08740234375,-43.319091796875,-34.508056640625
1758528100.0541866,0.65869140625,-0.0107421875,0.6796875,-6.103515625,-3.96728515625,7.75146484375,-2.2137451171875,-43.3575439453125,-34.398193359375
1758528100.0645804,0.662109375,-0.01318359375,0.6669921875,-1.46484375,-3.0517578125,6.4697265625,-2.28515625,-43.385009765625,-34.29931640625
1758528100.0747392,0.662109375,-0.01318359375,0.6669921875,-1.46484375,-3.0517578125,6.4697265625,-2.3565673828125,-43.4124755859375,-34.2059326171875
1758528100.0844731,0.69775390625,-0.00537109375,0.7119140625,-2.8076171875,-2.86865234375,5.37109375,-2.427978515625,-43.4454345703125,-34.12353515625
1758528100.09425,0.69775390625,-0.00537109375,0.7119140625,-2.8076171875,-2.86865234375,5.37109375,-2.4993896484375,-43.472900390625,-34.0411376953125
1758528100.1052895,0.701171875,-0.01806640625,0.71923828125,-6.2255859375,-3.23486328125,4.5166015625,-2.5927734375,-43.505859375,-33.9697265625
1758528100.1146061,0.701171875,-0.01806640625,0.71923828125,-6.2255859375,-3.23486328125,4.5166015625,-2.691650390625,-43.538818359375,-33.90380859375
1758528100.1246462,0.666015625,-0.03857421875,0.6904296875,-7.8125,-3.47900390625,3.7841796875,-2.7960205078125,-43.57177734375,-33.8433837890625
1758528100.134388,0.666015625,-0.03857421875,0.6904296875,-7.8125,-3.47900390625,3.7841796875,-2.9058837890625,-43.6102294921875,-33.782958984375
1758528100.1451383,0.6572265625,-0.03857421875,0.63916015625,-2.62451171875,-3.23486328125,2.62451171875,-2.9498291015625,-43.6431884765625,-33.739013671875
1758528100.1543865,0.6572265625,-0.03857421875,0.63916015625,-2.62451171875,-3.23486328125,2.62451171875,-2.9937744140625,-43.6761474609375,-33.695068359375
1758528100.1651564,0.67041015625,-0.0400390625,0.6982421875,0.48828125,-2.74658203125,1.220703125,-2.9937744140625,-43.7091064453125,-33.6676025390625
1758528100.1746047,0.67041015625,-0.0400390625,0.6982421875,0.48828125,-2.74658203125,1.220703125,-2.999267578125,-43.736572265625,-33.6456298828125
1758528100.184637,0.689453125,-0.06005859375,0.7158203125,-0.6103515625,-2.25830078125,0.54931640625,-3.0047607421875,-43.7640380859375,-33.629150390625
1758528100.1944866,0.689453125,-0.06005859375,0.7158203125,-0.6103515625,-2.25830078125,0.54931640625,-3.0157470703125,-43.7860107421875,-33.6126708984375
1758528100.2050078,0.6953125,-0.0498046875,0.6884765625,0.54931640625,-2.197265625,-0.48828125,-3.0047607421875,-43.8134765625,-33.6126708984375
1758528100.2143645,0.6953125,-0.0498046875,0.6884765625,0.54931640625,-2.197265625,-0.48828125,-2.9937744140625,-43.83544921875,-33.607177734375
1758528100.224754,0.708984375,-0.04638671875,0.697265625,3.173828125,-2.0751953125,-1.64794921875,-2.9498291015625,-43.8629150390625,-33.6181640625
1758528100.235118,0.708984375,-0.04638671875,0.697265625,3.173828125,-2.0751953125,-1.64794921875,-2.900390625,-43.8848876953125,-33.6346435546875
1758528100.2447941,0.7265625,-0.0205078125,0.74462890625,3.72314453125,-2.38037109375,-2.5634765625,-2.8399658203125,-43.9178466796875,-33.6566162109375
1758528100.254498,0.7265625,-0.0205078125,0.74462890625,3.72314453125,-2.38037109375,-2.5634765625,-2.779541015625,-43.9453125,-33.68408203125
1758528100.2649114,0.71044921875,-0.025390625,0.736328125,3.0517578125,-2.38037109375,-2.5634765625,-2.724609375,-43.9727783203125,-33.7060546875
1758528100.274583,0.71044921875,-0.025390625,0.736328125,3.0517578125,-2.38037109375,-2.5634765625,-2.669677734375,-44.000244140625,-33.7335205078125
1758528100.284714,0.6982421875,-0.02880859375,0.6875,2.5634765625,-2.5634765625,-2.74658203125,-2.6202392578125,-44.0277099609375,-33.760986328125
1758528100.295344,0.6982421875,-0.02880859375,0.6875,2.5634765625,-2.5634765625,-2.74658203125,-2.57080078125,-44.0606689453125,-33.782958984375
1758528100.3048077,0.7197265625,-0.0517578125,0.70458984375,3.35693359375,-2.8076171875,-3.23486328125,-2.5048828125,-44.0936279296875,-33.81591796875
1758528100.314489,0.7197265625,-0.0517578125,0.70458984375,3.35693359375,-2.8076171875,-3.23486328125,-2.4444580078125,-44.1265869140625,-33.848876953125
1758528100.3254414,0.72265625,-0.0400390625,0.72802734375,6.28662109375,-3.2958984375,-4.08935546875,-2.3455810546875,-44.1650390625,-33.892822265625
1758528100.3347812,0.72265625,-0.0400390625,0.72802734375,6.28662109375,-3.2958984375,-4.08935546875,-2.2467041015625,-44.2034912109375,-33.936767578125
1758528100.3447754,0.73193359375,-0.01220703125,0.7255859375,8.48388671875,-3.96728515625,-4.82177734375,-2.120361328125,-44.2474365234375,-33.99169921875
1758528100.3548732,0.73193359375,-0.01220703125,0.7255859375,8.48388671875,-3.96728515625,-4.82177734375,-1.9940185546875,-44.2913818359375,-34.046630859375
1758528100.3651206,0.7158203125,-0.0048828125,0.71533203125,4.39453125,-4.69970703125,-4.69970703125,-1.91162109375,-44.3408203125,-34.0960693359375
1758528100.3746147,0.7158203125,-0.0048828125,0.71533203125,4.39453125,-4.69970703125,-4.69970703125,-1.82373046875,-44.395751953125,-34.1510009765625
1758528100.3847616,0.7001953125,-0.03955078125,0.67626953125,1.953125,-4.82177734375,-5.0048828125,-1.7578125,-44.4451904296875,-34.2059326171875
1758528100.3952734,0.7001953125,-0.03955078125,0.67626953125,1.953125,-4.82177734375,-5.0048828125,-1.6973876953125,-44.5001220703125,-34.266357421875
1758528100.4047651,0.73583984375,-0.05615234375,0.72265625,8.11767578125,-4.94384765625,-5.67626953125,-1.5655517578125,-44.5550537109375,-34.332275390625
1758528100.4148502,0.73583984375,-0.05615234375,0.72265625,8.11767578125,-4.94384765625,-5.67626953125,-1.439208984375,-44.6099853515625,-34.398193359375
1758528100.425257,0.75,0.01318359375,0.7431640625,7.26318359375,-5.43212890625,-5.7373046875,-1.318359375,-44.67041015625,-34.464111328125
1758528100.4346797,0.75,0.01318359375,0.7431640625,7.26318359375,-5.43212890625,-5.7373046875,-1.1920166015625,-44.725341796875,-34.5355224609375
1758528100.4448078,0.76123046875,0.02392578125,0.7333984375,-0.3662109375,-6.40869140625,-4.5166015625,-1.153564453125,-44.7967529296875,-34.5849609375
1758528100.4553945,0.76123046875,0.02392578125,0.7333984375,-0.3662109375,-6.40869140625,-4.5166015625,-1.1151123046875,-44.8626708984375,-34.6343994140625
1758528100.465283,0.73828125,-0.00537109375,0.71923828125,-3.173828125,-7.080078125,-3.662109375,-1.1151123046875,-44.93408203125,-34.6728515625
1758528100.4746928,0.73828125,-0.00537109375,0.71923828125,-3.173828125,-7.080078125,-3.662109375,-1.109619140625,-45.010986328125,-34.716796875
1758528100.4847574,0.71044921875,-0.04443359375,0.68896484375,-1.708984375,-7.4462890625,-3.47900390625,-1.0986328125,-45.087890625,-34.749755859375
1758528100.4953299,0.71044921875,-0.04443359375,0.68896484375,-1.708984375,-7.4462890625,-3.47900390625,-1.0821533203125,-45.164794921875,-34.7882080078125
1758528100.504816,0.73583984375,-0.03173828125,0.68017578125,-0.3662109375,-8.72802734375,-3.5400390625,-1.0546875,-45.2581787109375,-34.82666015625
1758528100.514772,0.73583984375,-0.03173828125,0.68017578125,-0.3662109375,-8.72802734375,-3.5400390625,-1.0272216796875,-45.3460693359375,-34.859619140625
1758528100.525225,0.73486328125,0.02001953125,0.701171875,-0.732421875,-10.19287109375,-3.0517578125,-1.0107421875,-45.450439453125,-34.8870849609375
1758528100.5348418,0.73486328125,0.02001953125,0.701171875,-0.732421875,-10.19287109375,-3.0517578125,-0.98876953125,-45.5548095703125,-34.91455078125
1758528100.544782,0.68017578125,-0.044921875,0.646484375,-3.2958984375,-11.04736328125,-2.50244140625,-0.999755859375,-45.670166015625,-34.9365234375
1758528100.5553257,0.66015625,-0.08154296875,0.61474609375,0.0,-10.6201171875,-3.11279296875,-0.9942626953125,-45.780029296875,-34.9639892578125
1758528100.5647929,0.66015625,-0.08154296875,0.61474609375,0.0,-10.6201171875,-3.11279296875,-0.9722900390625,-45.889892578125,-34.991455078125
1758528100.5748386,0.6865234375,-0.03955078125,0.625,5.31005859375,-9.09423828125,-3.662109375,-0.9228515625,-45.98876953125,-35.0244140625
1758528100.5852563,0.6865234375,-0.03955078125,0.625,5.31005859375,-9.09423828125,-3.662109375,-0.845947265625,-46.0821533203125,-35.0628662109375
1758528100.5949624,0.71484375,-0.00830078125,0.71484375,5.4931640625,-7.568359375,-3.173828125,-0.7635498046875,-46.16455078125,-35.0958251953125
1758528100.604797,0.71484375,-0.00830078125,0.71484375,5.4931640625,-7.568359375,-3.173828125,-0.692138671875,-46.241455078125,-35.1287841796875
1758528100.6154945,0.70849609375,-0.0029296875,0.67919921875,3.23486328125,-5.43212890625,-2.74658203125,-0.626220703125,-46.307373046875,-35.15625
1758528100.625052,0.70849609375,-0.0029296875,0.67919921875,3.23486328125,-5.43212890625,-2.74658203125,-0.5767822265625,-46.3623046875,-35.1837158203125
1758528100.6348317,0.70263671875,-0.00537109375,0.62060546875,0.67138671875,-3.41796875,-3.35693359375,-0.5328369140625,-46.40625,-35.22216796875
1758528100.645076,0.70263671875,-0.00537109375,0.62060546875,0.67138671875,-3.41796875,-3.35693359375,-0.4998779296875,-46.439208984375,-35.255126953125
1758528100.6551356,0.72216796875,-0.00341796875,0.7099609375,1.52587890625,-0.54931640625,-4.21142578125,-0.4559326171875,-46.461181640625,-35.299072265625
1758528100.6648915,0.72216796875,-0.00341796875,0.7099609375,1.52587890625,-0.54931640625,-4.21142578125,-0.4010009765625,-46.4666748046875,-35.3485107421875
1758528100.674972,0.7412109375,0.0234375,0.7421875,1.220703125,2.13623046875,-4.57763671875,-0.3460693359375,-46.4556884765625,-35.4034423828125
1758528100.6854281,0.7412109375,0.0234375,0.7421875,1.220703125,2.13623046875,-4.57763671875,-0.2911376953125,-46.4337158203125,-35.4638671875
1758528100.6949613,0.7412109375,0.01220703125,0.68896484375,-0.244140625,4.150390625,-4.39453125,-0.24169921875,-46.4007568359375,-35.5242919921875
1758528100.7049348,0.7412109375,0.01220703125,0.68896484375,-0.244140625,4.150390625,-4.39453125,-0.19775390625,-46.3568115234375,-35.5792236328125
1758528100.7165763,0.72607421875,-0.04248046875,0.6767578125,1.708984375,5.79833984375,-5.0048828125,-0.142822265625,-46.307373046875,-35.6396484375
1758528100.725374,0.72607421875,-0.04248046875,0.6767578125,1.708984375,5.79833984375,-5.0048828125,-0.076904296875,-46.25244140625,-35.7000732421875
1758528100.7349772,0.71728515625,-0.005859375,0.681640625,3.96728515625,6.8359375,-5.4931640625,0.0,-46.1920166015625,-35.7659912109375
1758528100.7450879,0.71728515625,-0.005859375,0.681640625,3.96728515625,6.8359375,-5.4931640625,0.0823974609375,-46.1260986328125,-35.8319091796875
1758528100.755467,0.728515625,0.0068359375,0.697265625,4.150390625,7.32421875,-5.18798828125,0.1702880859375,-46.0546875,-35.8978271484375
1758528100.7649806,0.728515625,0.0068359375,0.697265625,4.150390625,7.32421875,-5.18798828125,0.263671875,-45.9832763671875,-35.9637451171875
1758528100.7750833,0.71875,-0.0048828125,0.68359375,5.43212890625,7.32421875,-4.5166015625,0.3515625,-45.911865234375,-36.0186767578125
1758528100.7856863,0.71875,-0.0048828125,0.68359375,5.43212890625,7.32421875,-4.5166015625,0.450439453125,-45.845947265625,-36.0736083984375
1758528100.7952435,0.70263671875,-0.01904296875,0.64697265625,7.9345703125,6.16455078125,-4.69970703125,0.5548095703125,-45.780029296875,-36.123046875
1758528100.8051016,0.70263671875,-0.01904296875,0.64697265625,7.9345703125,6.16455078125,-4.69970703125,0.6756591796875,-45.7196044921875,-36.177978515625
1758528100.8151662,0.7080078125,-0.00439453125,0.654296875,9.09423828125,5.18798828125,-4.8828125,0.7965087890625,-45.670166015625,-36.23291015625
1758528100.825762,0.7080078125,-0.00439453125,0.654296875,9.09423828125,5.18798828125,-4.8828125,0.9283447265625,-45.626220703125,-36.2823486328125
1758528100.835083,0.72607421875,0.0234375,0.6962890625,10.07080078125,4.5166015625,-4.08935546875,1.0601806640625,-45.582275390625,-36.331787109375
1758528100.8451564,0.72607421875,0.0234375,0.6962890625,10.07080078125,4.5166015625,-4.08935546875,1.1920166015625,-45.5438232421875,-36.375732421875
1758528100.856068,0.7353515625,0.0439453125,0.697265625,5.79833984375,3.35693359375,-2.197265625,1.29638671875,-45.5108642578125,-36.4031982421875
1758528100.8651984,0.7353515625,0.0439453125,0.697265625,5.79833984375,3.35693359375,-2.197265625,1.3677978515625,-45.4833984375,-36.419677734375
1758528100.8751352,0.7197265625,0.0,0.68115234375,0.6103515625,2.5634765625,-0.67138671875,1.40625,-45.4559326171875,-36.419677734375
1758528100.8857024,0.7197265625,0.0,0.68115234375,0.6103515625,2.5634765625,-0.67138671875,1.417236328125,-45.439453125,-36.4141845703125
1758528100.8953195,0.708984375,-0.0478515625,0.65966796875,-0.30517578125,2.13623046875,-0.1220703125,1.4117431640625,-45.4229736328125,-36.4031982421875
1758528100.905208,0.708984375,-0.0478515625,0.65966796875,-0.30517578125,2.13623046875,-0.1220703125,1.4007568359375,-45.4119873046875,-36.3922119140625
1758528100.9152493,0.73876953125,0.01904296875,0.7197265625,4.0283203125,1.8310546875,-0.06103515625,1.4117431640625,-45.3955078125,-36.375732421875
1758528100.9258223,0.73876953125,0.01904296875,0.7197265625,4.0283203125,1.8310546875,-0.06103515625,1.4447021484375,-45.384521484375,-36.3592529296875
1758528100.9352293,0.7626953125,0.0576171875,0.736328125,0.1220703125,1.5869140625,0.54931640625,1.4501953125,-45.37353515625,-36.3427734375
1758528100.945794,0.7626953125,0.0576171875,0.736328125,0.1220703125,1.5869140625,0.54931640625,1.4447021484375,-45.3680419921875,-36.3153076171875
1758528100.9552197,0.73828125,0.009765625,0.7158203125,-5.79833984375,1.15966796875,1.5869140625,1.4007568359375,-45.3570556640625,-36.287841796875
1758528100.9652035,0.73828125,0.009765625,0.7158203125,-5.79833984375,1.15966796875,1.5869140625,1.3238525390625,-45.3515625,-36.2548828125
1758528100.976245,0.72021484375,-0.04150390625,0.70849609375,-3.35693359375,1.46484375,1.0986328125,1.2579345703125,-45.3460693359375,-36.221923828125
1758528100.985621,0.72021484375,-0.04150390625,0.70849609375,-3.35693359375,1.46484375,1.0986328125,1.20849609375,-45.3350830078125,-36.1944580078125
1758528100.9952462,0.7373046875,0.0224609375,0.70068359375,1.708984375,1.52587890625,0.3662109375,1.1865234375,-45.32958984375,-36.1669921875
1758528101.0052927,0.7373046875,0.0224609375,0.70068359375,1.708984375,1.52587890625,0.3662109375,1.197509765625,-45.318603515625,-36.1505126953125
1758528101.016259,0.7470703125,0.048828125,0.72802734375,3.35693359375,1.03759765625,0.18310546875,1.2139892578125,-45.3131103515625,-36.134033203125
1758528101.0253599,0.7470703125,0.048828125,0.72802734375,3.35693359375,1.03759765625,0.18310546875,1.241455078125,-45.3076171875,-36.123046875
1758528101.0353398,0.7529296875,0.04638671875,0.72119140625,-1.708984375,-0.06103515625,0.42724609375,1.2469482421875,-45.3076171875,-36.1065673828125
1758528101.046196,0.7529296875,0.04638671875,0.72119140625,-1.708984375,-0.06103515625,0.42724609375,1.2249755859375,-45.3131103515625,-36.090087890625
1758528101.0553765,0.7275390625,0.01611328125,0.68359375,-7.99560546875,-1.708984375,1.03759765625,1.1700439453125,-45.3240966796875,-36.068115234375
1758528101.0653281,0.7275390625,0.01611328125,0.68359375,-7.99560546875,-1.708984375,1.03759765625,1.0821533203125,-45.3460693359375,-36.046142578125
1758528101.0754435,0.728515625,-0.03125,0.67919921875,-2.62451171875,-3.173828125,0.18310546875,1.0272216796875,-45.3790283203125,-36.024169921875
1758528101.085999,0.728515625,-0.03125,0.67919921875,-2.62451171875,-3.173828125,0.18310546875,0.999755859375,-45.4119873046875,-36.01318359375
1758528101.095394,0.7431640625,0.013671875,0.70703125,6.8359375,-4.39453125,-1.0986328125,1.0272216796875,-45.4559326171875,-36.0076904296875
1758528101.1054075,0.7431640625,0.013671875,0.70703125,6.8359375,-4.39453125,-1.0986328125,1.1041259765625,-45.50537109375,-36.01318359375
1758528101.1163971,0.75341796875,0.0341796875,0.7177734375,5.79833984375,-5.859375,-1.953125,1.1810302734375,-45.5657958984375,-36.024169921875
1758528101.126189,0.75341796875,0.0341796875,0.7177734375,5.79833984375,-5.859375,-1.953125,1.263427734375,-45.626220703125,-36.0406494140625
1758528101.1354518,0.7529296875,0.02783203125,0.7109375,1.8310546875,-7.50732421875,-2.25830078125,1.3238525390625,-45.6976318359375,-36.0626220703125
1758528101.1455972,0.7529296875,0.02783203125,0.7109375,1.8310546875,-7.50732421875,-2.25830078125,1.3677978515625,-45.7745361328125,-36.090087890625
1758528101.1555562,0.734375,0.0048828125,0.68310546875,2.197265625,-8.36181640625,-2.62451171875,1.4117431640625,-45.85693359375,-36.1175537109375
1758528101.1655674,0.734375,0.0048828125,0.68310546875,2.197265625,-8.36181640625,-2.62451171875,1.461181640625,-45.94482421875,-36.14501953125
1758528101.1755376,0.71826171875,0.0,0.69873046875,3.41796875,-8.36181640625,-2.9296875,1.5216064453125,-46.03271484375,-36.177978515625
1758528101.185698,0.71826171875,0.0,0.69873046875,3.41796875,-8.36181640625,-2.9296875,1.58203125,-46.1151123046875,-36.2109375
1758528101.1964524,0.72705078125,0.01953125,0.68115234375,5.55419921875,-8.23974609375,-3.173828125,1.658935546875,-46.197509765625,-36.2493896484375
1758528101.205464,0.72705078125,0.01953125,0.68115234375,5.55419921875,-8.23974609375,-3.173828125,1.746826171875,-46.2799072265625,-36.287841796875
1758528101.215539,0.7431640625,0.0498046875,0.662109375,1.40380859375,-8.4228515625,-2.44140625,1.8072509765625,-46.3623046875,-36.32080078125
1758528101.2260785,0.7431640625,0.0498046875,0.662109375,1.40380859375,-8.4228515625,-2.44140625,1.8511962890625,-46.4501953125,-36.3482666015625
1758528101.2354867,0.71630859375,0.03271484375,0.67626953125,0.732421875,-8.72802734375,-2.13623046875,1.8841552734375,-46.5380859375,-36.375732421875
1758528101.2456105,0.71630859375,0.03271484375,0.67626953125,0.732421875,-8.72802734375,-2.13623046875,1.9171142578125,-46.6259765625,-36.4031982421875
1758528101.2555578,0.71435546875,0.01025390625,0.64794921875,2.25830078125,-8.11767578125,-2.74658203125,1.9610595703125,-46.7083740234375,-36.4306640625
1758528101.2661166,0.71435546875,0.01025390625,0.64794921875,2.25830078125,-8.11767578125,-2.74658203125,2.0159912109375,-46.790771484375,-36.4691162109375
1758528101.2759385,0.7236328125,0.021484375,0.6826171875,3.96728515625,-7.080078125,-3.35693359375,2.0819091796875,-46.86767578125,-36.507568359375
1758528101.2856038,0.7236328125,0.021484375,0.6826171875,3.96728515625,-7.080078125,-3.35693359375,2.1533203125,-46.93359375,-36.551513671875
1758528101.2965426,0.720703125,0.03955078125,0.67138671875,2.5634765625,-6.16455078125,-2.9296875,2.21923828125,-46.99951171875,-36.5899658203125
1758528101.3056962,0.720703125,0.03955078125,0.67138671875,2.5634765625,-6.16455078125,-2.9296875,2.2796630859375,-47.0599365234375,-36.62841796875
1758528101.3163142,0.728515625,0.0546875,0.6611328125,-2.86865234375,-5.31005859375,-1.89208984375,2.30712890625,-47.1148681640625,-36.6558837890625
1758528101.3257227,0.728515625,0.0546875,0.6611328125,-2.86865234375,-5.31005859375,-1.89208984375,2.3016357421875,-47.164306640625,-36.6778564453125
1758528101.3363438,0.724609375,0.02880859375,0.65283203125,-5.0048828125,-4.33349609375,-0.79345703125,2.2796630859375,-47.2137451171875,-36.6943359375
1758528101.345744,0.724609375,0.02880859375,0.65283203125,-5.0048828125,-4.33349609375,-0.79345703125,2.2412109375,-47.2576904296875,-36.6998291015625
1758528101.3563502,0.73681640625,-0.01171875,0.68505859375,-2.44140625,-2.62451171875,-0.42724609375,2.2137451171875,-47.2906494140625,-36.705322265625
1758528101.3658857,0.73681640625,-0.01171875,0.68505859375,-2.44140625,-2.62451171875,-0.42724609375,2.1917724609375,-47.3126220703125,-36.705322265625
1758528101.3760629,0.78466796875,0.02880859375,0.70166015625,-0.30517578125,-1.5869140625,0.18310546875,2.1807861328125,-47.3345947265625,-36.6998291015625
1758528101.3857508,0.78466796875,0.02880859375,0.70166015625,-0.30517578125,-1.5869140625,0.18310546875,2.17529296875,-47.35107421875,-36.6888427734375
1758528101.3969038,0.79931640625,0.02099609375,0.72314453125,-4.69970703125,-1.708984375,1.52587890625,2.1368408203125,-47.3675537109375,-36.6668701171875
1758528101.4057403,0.79931640625,0.02099609375,0.72314453125,-4.69970703125,-1.708984375,1.52587890625,2.076416015625,-47.384033203125,-36.6339111328125
1758528101.416058,0.79052734375,-0.00341796875,0.7060546875,-5.55419921875,-2.01416015625,3.0517578125,1.99951171875,-47.406005859375,-36.595458984375
1758528101.42653,0.79052734375,-0.00341796875,0.7060546875,-5.55419921875,-2.01416015625,3.0517578125,1.9061279296875,-47.427978515625,-36.54052734375
1758528101.4361305,0.7802734375,0.00244140625,0.71142578125,-1.77001953125,-1.89208984375,3.23486328125,1.834716796875,-47.449951171875,-36.485595703125
1758528101.4458091,0.7802734375,0.00244140625,0.71142578125,-1.77001953125,-1.89208984375,3.23486328125,1.77978515625,-47.471923828125,-36.4306640625
1758528101.4561276,0.7900390625,0.0185546875,0.6787109375,-2.685546875,-2.5634765625,3.2958984375,1.7193603515625,-47.493896484375,-36.375732421875
1758528101.4665089,0.7900390625,0.0185546875,0.6787109375,-2.685546875,-2.5634765625,3.2958984375,1.6534423828125,-47.5213623046875,-36.3153076171875
1758528101.4761195,0.78662109375,0.0244140625,0.701171875,-3.84521484375,-3.47900390625,4.33349609375,1.58203125,-47.559814453125,-36.2493896484375
1758528101.485831,0.78662109375,0.0244140625,0.701171875,-3.84521484375,-3.47900390625,4.33349609375,1.494140625,-47.5982666015625,-36.1724853515625
1758528101.496886,0.76806640625,0.05810546875,0.6708984375,-9.09423828125,-4.0283203125,5.79833984375,1.3787841796875,-47.63671875,-36.090087890625
1758528101.5060704,0.76806640625,0.05810546875,0.6708984375,-9.09423828125,-4.0283203125,5.79833984375,1.2249755859375,-47.6806640625,-35.9967041015625
1758528101.5162623,0.7509765625,0.015625,0.685546875,-10.19287109375,-3.60107421875,6.53076171875,1.0711669921875,-47.724609375,-35.8978271484375
1758528101.525907,0.7509765625,0.015625,0.685546875,-10.19287109375,-3.60107421875,6.53076171875,0.90087890625,-47.7630615234375,-35.79345703125
1758528101.53637,0.7509765625,0.015625,0.685546875,-7.8125,-2.86865234375,6.34765625,0.7470703125,-47.7960205078125,-35.694580078125
1758528101.5460997,0.755859375,-0.02490234375,0.6572265625,-7.8125,-2.86865234375,6.34765625,0.604248046875,-47.8289794921875,-35.5902099609375
1758528101.5562634,0.7294921875,-0.00048828125,0.69384765625,-4.638671875,-2.01416015625,5.4931640625,0.4833984375,-47.8564453125,-35.4913330078125
1758528101.5660005,0.7294921875,-0.00048828125,0.69384765625,-4.638671875,-2.01416015625,5.4931640625,0.3790283203125,-47.87841796875,-35.4034423828125
1758528101.576603,0.73193359375,0.05029296875,0.63232421875,-9.58251953125,-1.28173828125,5.615234375,0.2252197265625,-47.889404296875,-35.3155517578125
1758528101.5859168,0.73193359375,0.05029296875,0.63232421875,-9.58251953125,-1.28173828125,5.615234375,0.076904296875,-47.9058837890625,-35.22216796875
1758528101.596299,0.7314453125,0.0224609375,0.6396484375,-17.88330078125,-0.3662109375,5.92041015625,-0.15380859375,-47.911376953125,-35.1287841796875
1758528101.6065834,0.7314453125,0.0224609375,0.6396484375,-17.88330078125,-0.3662109375,5.92041015625,-0.384521484375,-47.9168701171875,-35.035400390625
1758528101.616783,0.7138671875,-0.03515625,0.65673828125,-14.892578125,0.54931640625,5.67626953125,-0.582275390625,-47.911376953125,-34.947509765625
1758528101.6259549,0.7138671875,-0.03515625,0.65673828125,-14.892578125,0.54931640625,5.67626953125,-0.7855224609375,-47.9058837890625,-34.8541259765625
1758528101.6363983,0.72900390625,-0.0205078125,0.654296875,-10.8642578125,1.28173828125,5.43212890625,-0.94482421875,-47.8948974609375,-34.771728515625
1758528101.6465397,0.72900390625,-0.0205078125,0.654296875,-10.8642578125,1.28173828125,5.43212890625,-1.1041259765625,-47.8839111328125,-34.683837890625
1758528101.6564271,0.73095703125,-0.0322265625,0.623046875,-9.09423828125,2.01416015625,5.31005859375,-1.2469482421875,-47.8619384765625,-34.6014404296875
1758528101.666096,0.73095703125,-0.0322265625,0.623046875,-9.09423828125,2.01416015625,5.31005859375,-1.3897705078125,-47.845458984375,-34.5135498046875
1758528101.6764798,0.72119140625,-0.02685546875,0.666015625,-9.1552734375,2.8076171875,5.0048828125,-1.527099609375,-47.8179931640625,-34.4366455078125
1758528101.6861424,0.72119140625,-0.02685546875,0.666015625,-9.1552734375,2.8076171875,5.0048828125,-1.6644287109375,-47.79052734375,-34.354248046875
1758528101.6964056,0.7451171875,-0.0283203125,0.6611328125,-4.2724609375,3.2958984375,4.21142578125,-1.746826171875,-47.7630615234375,-34.288330078125
1758528101.7067077,0.7451171875,-0.0283203125,0.6611328125,-4.2724609375,3.2958984375,4.21142578125,-1.8292236328125,-47.7301025390625,-34.222412109375
1758528101.7165318,0.74462890625,-0.0166015625,0.662109375,-4.21142578125,2.99072265625,3.96728515625,-1.91162109375,-47.70263671875,-34.156494140625
1758528101.7261443,0.74462890625,-0.0166015625,0.662109375,-4.21142578125,2.99072265625,3.96728515625,-1.988525390625,-47.6751708984375,-34.090576171875
1758528101.7365525,0.73046875,-0.03125,0.65380859375,-4.2724609375,2.5634765625,3.84521484375,-2.0654296875,-47.647705078125,-34.0301513671875
1758528101.7469368,0.73046875,-0.03125,0.65380859375,-4.2724609375,2.5634765625,3.84521484375,-2.1478271484375,-47.625732421875,-33.9642333984375
1758528101.7564807,0.734375,-0.02099609375,0.646484375,-1.77001953125,2.8076171875,3.11279296875,-2.1917724609375,-47.5982666015625,-33.914794921875
1758528101.7667668,0.734375,-0.02099609375,0.646484375,-1.77001953125,2.8076171875,3.11279296875,-2.2412109375,-47.5762939453125,-33.85986328125
1758528101.7767925,0.7333984375,-0.02734375,0.65869140625,1.220703125,3.0517578125,2.3193359375,-2.2467041015625,-47.548828125,-33.8214111328125
1758528101.786209,0.7333984375,-0.02734375,0.65869140625,1.220703125,3.0517578125,2.3193359375,-2.252197265625,-47.5213623046875,-33.782958984375
1758528101.796537,0.72705078125,-0.03173828125,0.66015625,1.40380859375,3.0517578125,2.197265625,-2.2576904296875,-47.493896484375,-33.7445068359375
1758528101.8068647,0.72705078125,-0.03173828125,0.66015625,1.40380859375,3.0517578125,2.197265625,-2.26318359375,-47.4664306640625,-33.7060546875
1758528101.8165247,0.7177734375,-0.03271484375,0.646484375,-0.06103515625,3.11279296875,2.3193359375,-2.28515625,-47.43896484375,-33.662109375
1758528101.8263054,0.7177734375,-0.03271484375,0.646484375,-0.06103515625,3.11279296875,2.3193359375,-2.3126220703125,-47.4114990234375,-33.6236572265625
1758528101.8368917,0.7314453125,-0.029296875,0.669921875,0.91552734375,3.35693359375,2.01416015625,-2.318115234375,-47.384033203125,-33.5906982421875
1758528101.8466487,0.7314453125,-0.029296875,0.669921875,0.91552734375,3.35693359375,2.01416015625,-2.3291015625,-47.35107421875,-33.5577392578125
1758528101.8566043,0.73291015625,-0.0263671875,0.66552734375,2.50244140625,3.662109375,1.8310546875,-2.3236083984375,-47.318115234375,-33.5247802734375
1758528101.8664274,0.73291015625,-0.0263671875,0.66552734375,2.50244140625,3.662109375,1.8310546875,-2.3126220703125,-47.28515625,-33.4918212890625
1758528101.876877,0.72900390625,-0.01025390625,0.6611328125,1.5869140625,3.60107421875,1.708984375,-2.3126220703125,-47.252197265625,-33.46435546875
1758528101.8863177,0.72900390625,-0.01025390625,0.6611328125,1.5869140625,3.60107421875,1.708984375,-2.3126220703125,-47.21923828125,-33.431396484375
1758528101.8966672,0.72216796875,-0.029296875,0.66162109375,-0.3662109375,3.41796875,2.01416015625,-2.3345947265625,-47.186279296875,-33.3984375
1758528101.9068716,0.72216796875,-0.029296875,0.66162109375,-0.3662109375,3.41796875,2.01416015625,-2.3565673828125,-47.1588134765625,-33.365478515625
1758528101.9166672,0.724609375,-0.05126953125,0.6484375,-2.86865234375,3.0517578125,2.01416015625,-2.4005126953125,-47.13134765625,-33.33251953125
1758528101.9263725,0.724609375,-0.05126953125,0.6484375,-2.86865234375,3.0517578125,2.01416015625,-2.449951171875,-47.1038818359375,-33.299560546875
1758528101.9367144,0.7255859375,-0.04150390625,0.67529296875,0.48828125,2.99072265625,1.220703125,-2.4609375,-47.076416015625,-33.2720947265625
1758528101.9470794,0.7255859375,-0.04150390625,0.67529296875,0.48828125,2.99072265625,1.220703125,-2.4664306640625,-47.0489501953125,-33.2501220703125
1758528101.9567597,0.72802734375,-0.0126953125,0.66064453125,2.86865234375,2.44140625,0.79345703125,-2.4444580078125,-47.032470703125,-33.233642578125
1758528101.9664533,0.72802734375,-0.0126953125,0.66064453125,2.86865234375,2.44140625,0.79345703125,-2.4224853515625,-47.010498046875,-33.2171630859375
1758528101.9771616,0.7099609375,-0.02099609375,0.64697265625,0.06103515625,1.8310546875,1.28173828125,-2.43896484375,-46.9940185546875,-33.1951904296875
1758528101.9865744,0.7099609375,-0.02099609375,0.64697265625,0.06103515625,1.8310546875,1.28173828125,-2.449951171875,-46.9830322265625,-33.167724609375
1758528101.9968069,0.71142578125,-0.044921875,0.642578125,-1.3427734375,1.5869140625,1.52587890625,-2.4774169921875,-46.9720458984375,-33.1402587890625
1758528102.0066257,0.71142578125,-0.044921875,0.642578125,-1.3427734375,1.5869140625,1.52587890625,-2.5048828125,-46.95556640625,-33.1072998046875
1758528102.0172443,0.70556640625,-0.02685546875,0.671875,2.38037109375,1.89208984375,0.79345703125,-2.4884033203125,-46.944580078125,-33.0908203125
1758528102.0265448,0.70556640625,-0.02685546875,0.671875,2.38037109375,1.89208984375,0.79345703125,-2.471923828125,-46.9281005859375,-33.0743408203125
1758528102.0367649,0.72119140625,-0.0107421875,0.65380859375,0.67138671875,1.89208984375,0.54931640625,-2.471923828125,-46.91162109375,-33.0633544921875
1758528102.0465722,0.72119140625,-0.0107421875,0.65380859375,0.67138671875,1.89208984375,0.54931640625,-2.471923828125,-46.8951416015625,-33.046875
1758528102.0572946,0.6962890625,-0.04833984375,0.63818359375,-1.5869140625,1.77001953125,0.6103515625,-2.4884033203125,-46.8841552734375,-33.035888671875
1758528102.0667133,0.6962890625,-0.04833984375,0.63818359375,-1.5869140625,1.77001953125,0.6103515625,-2.5103759765625,-46.86767578125,-33.0194091796875
1758528102.0768986,0.7373046875,-0.04541015625,0.677734375,1.220703125,1.77001953125,0.06103515625,-2.4993896484375,-46.856689453125,-33.0084228515625
1758528102.0874119,0.7373046875,-0.04541015625,0.677734375,1.220703125,1.77001953125,0.06103515625,-2.4884033203125,-46.8402099609375,-33.0029296875
1758528102.097079,0.7607421875,0.0,0.70068359375,1.3427734375,1.28173828125,-0.1220703125,-2.4774169921875,-46.8292236328125,-32.9974365234375
1758528102.1066048,0.7607421875,0.0,0.70068359375,1.3427734375,1.28173828125,-0.1220703125,-2.4609375,-46.82373046875,-32.9974365234375
1758528102.1169527,0.7587890625,-0.02685546875,0.7119140625,-1.64794921875,0.54931640625,-0.244140625,-2.471923828125,-46.82373046875,-32.991943359375
1758528102.1268322,0.7587890625,-0.02685546875,0.7119140625,-1.64794921875,0.54931640625,-0.244140625,-2.48291015625,-46.8182373046875,-32.991943359375
1758528102.136662,0.75439453125,-0.0390625,0.6865234375,-1.708984375,0.0,-0.42724609375,-2.4993896484375,-46.82373046875,-32.991943359375
1758528102.1470916,0.75439453125,-0.0390625,0.6865234375,-1.708984375,0.0,-0.42724609375,-2.5103759765625,-46.82373046875,-32.991943359375
1758528102.156669,0.75732421875,-0.0322265625,0.6787109375,-2.3193359375,-0.732421875,-0.48828125,-2.52685546875,-46.834716796875,-32.991943359375
1758528102.1673226,0.75732421875,-0.0322265625,0.6787109375,-2.3193359375,-0.732421875,-0.48828125,-2.5433349609375,-46.8511962890625,-32.9864501953125
1758528102.1770403,0.7646484375,-0.0341796875,0.7109375,-0.9765625,-1.15966796875,-0.48828125,-2.548828125,-46.8621826171875,-32.9864501953125
1758528102.187301,0.7646484375,-0.0341796875,0.7109375,-0.9765625,-1.15966796875,-0.48828125,-2.5543212890625,-46.878662109375,-32.9864501953125
1758528102.1971214,0.77392578125,-0.0302734375,0.71484375,-1.15966796875,-1.52587890625,-0.244140625,-2.5653076171875,-46.900634765625,-32.98095703125
1758528102.2067392,0.77392578125,-0.0302734375,0.71484375,-1.15966796875,-1.52587890625,-0.244140625,-2.5762939453125,-46.9171142578125,-32.98095703125
1758528102.2175562,0.77294921875,-0.0439453125,0.7041015625,-3.60107421875,-1.77001953125,0.48828125,-2.61474609375,-46.9390869140625,-32.9644775390625
1758528102.2274153,0.77294921875,-0.0439453125,0.7041015625,-3.60107421875,-1.77001953125,0.48828125,-2.65869140625,-46.95556640625,-32.947998046875
1758528102.237106,0.78173828125,-0.0458984375,0.7119140625,-5.18798828125,-2.25830078125,1.5869140625,-2.7301025390625,-46.9830322265625,-32.9205322265625
1758528102.2469766,0.78173828125,-0.0458984375,0.7119140625,-5.18798828125,-2.25830078125,1.5869140625,-2.801513671875,-47.0050048828125,-32.8875732421875
1758528102.2609499,0.8056640625,-0.033203125,0.7275390625,-3.7841796875,-2.50244140625,2.13623046875,-2.8619384765625,-47.032470703125,-32.84912109375
1758528102.268411,0.8056640625,-0.033203125,0.7275390625,-3.7841796875,-2.50244140625,2.13623046875,-2.92236328125,-47.0599365234375,-32.8106689453125
1758528102.277037,0.783203125,-0.04638671875,0.7470703125,-4.21142578125,-2.74658203125,2.25830078125,-2.98828125,-47.08740234375,-32.772216796875
1758528102.2868183,0.783203125,-0.04638671875,0.7470703125,-4.21142578125,-2.74658203125,2.25830078125,-3.0596923828125,-47.1148681640625,-32.7337646484375
1758528102.2970788,0.78125,-0.05078125,0.67724609375,-3.0517578125,-3.23486328125,2.38037109375,-3.1146240234375,-47.1478271484375,-32.6898193359375
1758528102.3074925,0.78125,-0.05078125,0.67724609375,-3.0517578125,-3.23486328125,2.38037109375,-3.175048828125,-47.1807861328125,-32.6458740234375
1758528102.31707,0.76806640625,-0.0302734375,0.6982421875,-1.8310546875,-4.2724609375,2.685546875,-3.2244873046875,-47.2247314453125,-32.596435546875
1758528102.3269033,0.76806640625,-0.0302734375,0.6982421875,-1.8310546875,-4.2724609375,2.685546875,-3.27392578125,-47.2686767578125,-32.552490234375
1758528102.3372278,0.77392578125,-0.02880859375,0.69384765625,-3.0517578125,-5.2490234375,2.8076171875,-3.3343505859375,-47.3236083984375,-32.5030517578125
1758528102.3504746,0.77392578125,-0.02880859375,0.69384765625,-3.0517578125,-5.2490234375,2.8076171875,-3.394775390625,-47.373046875,-32.4481201171875
1758528102.3568985,0.74169921875,-0.044921875,0.6953125,-2.3193359375,-5.9814453125,2.685546875,-3.44970703125,-47.4334716796875,-32.4041748046875
1758528102.366915,0.74169921875,-0.044921875,0.6953125,-2.3193359375,-5.9814453125,2.685546875,-3.504638671875,-47.493896484375,-32.354736328125
1758528102.3806748,0.748046875,-0.0234375,0.63671875,-2.5634765625,-6.591796875,1.953125,-3.5540771484375,-47.559814453125,-32.3162841796875
1758528102.3870873,0.748046875,-0.0234375,0.63671875,-2.5634765625,-6.591796875,1.953125,-3.5980224609375,-47.625732421875,-32.27783203125
1758528102.3970623,0.72412109375,-0.04248046875,0.63671875,-3.7841796875,-7.9345703125,1.64794921875,-3.658447265625,-47.70263671875,-32.2393798828125
1758528102.4070497,0.72412109375,-0.04248046875,0.63671875,-3.7841796875,-7.9345703125,1.64794921875,-3.71337890625,-47.7850341796875,-32.200927734375
1758528102.4176068,0.7265625,-0.060546875,0.64404296875,-0.6103515625,-8.60595703125,1.0986328125,-3.7353515625,-47.8729248046875,-32.1734619140625
1758528102.4270473,0.7265625,-0.060546875,0.64404296875,-0.6103515625,-8.60595703125,1.0986328125,-3.75732421875,-47.955322265625,-32.14599609375
1758528102.437141,0.7265625,-0.05078125,0.63427734375,3.2958984375,-9.3994140625,0.3662109375,-3.7353515625,-48.05419921875,-32.1240234375
1758528102.4477112,0.7265625,-0.05078125,0.63427734375,3.2958984375,-9.3994140625,0.3662109375,-3.71337890625,-48.1475830078125,-32.10205078125
1758528102.4574633,0.70458984375,-0.06689453125,0.6064453125,4.69970703125,-10.31494140625,0.0,-3.6749267578125,-48.2464599609375,-32.091064453125
1758528102.4670572,0.70458984375,-0.06689453125,0.6064453125,4.69970703125,-10.31494140625,0.0,-3.636474609375,-48.350830078125,-32.0745849609375
1758528102.4770622,0.71435546875,-0.041015625,0.615234375,6.65283203125,-10.55908203125,-0.06103515625,-3.58154296875,-48.4552001953125,-32.05810546875
1758528102.4880927,0.71435546875,-0.041015625,0.615234375,6.65283203125,-10.55908203125,-0.06103515625,-3.526611328125,-48.5650634765625,-32.0416259765625
1758528102.4972546,0.744140625,-0.0224609375,0.6435546875,9.6435546875,-10.498046875,-0.3662109375,-3.4332275390625,-48.66943359375,-32.0306396484375
1758528102.5074315,0.744140625,-0.0224609375,0.6435546875,9.6435546875,-10.498046875,-0.3662109375,-3.3453369140625,-48.7738037109375,-32.0196533203125
1758528102.5181556,0.7412109375,-0.03857421875,0.638671875,6.7138671875,-11.1083984375,0.244140625,-3.2904052734375,-48.8836669921875,-32.003173828125
1758528102.5273697,0.7412109375,-0.03857421875,0.638671875,6.7138671875,-11.1083984375,0.244140625,-3.2354736328125,-48.988037109375,-31.9866943359375
1758528102.5375268,0.75390625,-0.04296875,0.63330078125,2.99072265625,-11.474609375,0.91552734375,-3.2244873046875,-49.1033935546875,-31.9537353515625
1758528102.547322,0.75390625,-0.04296875,0.63330078125,2.99072265625,-11.474609375,0.91552734375,-3.2135009765625,-49.2132568359375,-31.92626953125
1758528102.5583956,0.75341796875,-0.0302734375,0.66015625,1.0986328125,-10.80322265625,0.732421875,-3.2244873046875,-49.3231201171875,-31.8988037109375
1758528102.5671892,0.78369140625,-0.04345703125,0.6630859375,2.25830078125,-10.19287109375,0.0,-3.218994140625,-49.4219970703125,-31.88232421875
1758528102.5774553,0.78369140625,-0.04345703125,0.6630859375,2.25830078125,-10.19287109375,0.0,-3.2025146484375,-49.5208740234375,-31.871337890625
1758528102.587556,0.8076171875,-0.04345703125,0.68212890625,3.11279296875,-9.8876953125,-0.79345703125,-3.1805419921875,-49.6197509765625,-31.8603515625
1758528102.5981767,0.8076171875,-0.04345703125,0.68212890625,3.11279296875,-9.8876953125,-0.79345703125,-3.153076171875,-49.713134765625,-31.8603515625
1758528102.6071954,0.8115234375,-0.0361328125,0.67333984375,4.21142578125,-9.3994140625,-1.28173828125,-3.109130859375,-49.8065185546875,-31.8658447265625
1758528102.6180053,0.8115234375,-0.0361328125,0.67333984375,4.21142578125,-9.3994140625,-1.28173828125,-3.065185546875,-49.89990234375,-31.871337890625
1758528102.627267,0.81103515625,-0.05126953125,0.67578125,5.31005859375,-8.9111328125,-1.953125,-3.0047607421875,-49.98779296875,-31.8878173828125
1758528102.6378376,0.81103515625,-0.05126953125,0.67578125,5.31005859375,-8.9111328125,-1.953125,-2.9388427734375,-50.07568359375,-31.904296875
1758528102.6476028,0.818359375,-0.03564453125,0.67529296875,8.11767578125,-8.6669921875,-2.25830078125,-2.8564453125,-50.16357421875,-31.92626953125
1758528102.6585753,0.818359375,-0.03564453125,0.67529296875,8.11767578125,-8.6669921875,-2.25830078125,-2.757568359375,-50.2459716796875,-31.9537353515625
1758528102.6673386,0.798828125,-0.01708984375,0.66064453125,7.99560546875,-8.9111328125,-2.0751953125,-2.65869140625,-50.3338623046875,-31.9757080078125
1758528102.6773438,0.798828125,-0.01708984375,0.66064453125,7.99560546875,-8.9111328125,-2.0751953125,-2.5653076171875,-50.416259765625,-31.9976806640625
1758528102.6881394,0.78271484375,-0.01708984375,0.626953125,3.72314453125,-8.9111328125,-1.5869140625,-2.493896484375,-50.504150390625,-32.01416015625
1758528102.6973002,0.78271484375,-0.01708984375,0.626953125,3.72314453125,-8.9111328125,-1.5869140625,-2.4444580078125,-50.592041015625,-32.0306396484375
1758528102.7073333,0.779296875,-0.0361328125,0.61181640625,3.5400390625,-8.6669921875,-1.15966796875,-2.39501953125,-50.6744384765625,-32.0416259765625
1758528102.7175753,0.779296875,-0.0361328125,0.61181640625,3.5400390625,-8.6669921875,-1.15966796875,-2.3565673828125,-50.7623291015625,-32.047119140625
1758528102.7277,0.73291015625,-0.04833984375,0.619140625,4.69970703125,-8.6669921875,-0.6103515625,-2.3126220703125,-50.8447265625,-32.0526123046875
1758528102.7376683,0.73291015625,-0.04833984375,0.619140625,4.69970703125,-8.6669921875,-0.6103515625,-2.2686767578125,-50.9271240234375,-32.0526123046875
1758528102.747412,0.74462890625,-0.01806640625,0.5703125,0.42724609375,-8.23974609375,0.0,-2.2467041015625,-51.009521484375,-32.047119140625
1758528102.7576885,0.74462890625,-0.01806640625,0.5703125,0.42724609375,-8.23974609375,0.0,-2.252197265625,-51.08642578125,-32.0361328125
1758528102.767487,0.74462890625,-0.01806640625,0.5703125,-2.25830078125,-7.38525390625,0.18310546875,-2.2686767578125,-51.163330078125,-32.0196533203125
1758528102.77743,0.7451171875,0.00146484375,0.61083984375,-2.25830078125,-7.38525390625,0.18310546875,-2.3016357421875,-51.2347412109375,-32.0086669921875
1758528102.787664,0.7783203125,-0.02099609375,0.59521484375,-3.47900390625,-6.65283203125,0.0,-2.3345947265625,-51.3006591796875,-31.9976806640625
1758528102.7975795,0.7783203125,-0.02099609375,0.59521484375,-3.47900390625,-6.65283203125,0.0,-2.373046875,-51.3665771484375,-31.9866943359375
1758528102.8074737,0.78662109375,-0.00537109375,0.619140625,-5.06591796875,-6.34765625,0.244140625,-2.4224853515625,-51.427001953125,-31.9757080078125
1758528102.8174696,0.78662109375,-0.00537109375,0.619140625,-5.06591796875,-6.34765625,0.244140625,-2.4774169921875,-51.4874267578125,-31.9647216796875
1758528102.827494,0.775390625,-0.033203125,0.61328125,-5.2490234375,-6.103515625,0.6103515625,-2.5323486328125,-51.5478515625,-31.9482421875
1758528102.8387244,0.775390625,-0.033203125,0.61328125,-5.2490234375,-6.103515625,0.6103515625,-2.5927734375,-51.6082763671875,-31.9317626953125
1758528102.8475628,0.78271484375,-0.03125,0.6015625,-2.685546875,-5.55419921875,0.30517578125,-2.6422119140625,-51.6632080078125,-31.915283203125
1758528102.8575609,0.78271484375,-0.03125,0.6015625,-2.685546875,-5.55419921875,0.30517578125,-2.669677734375,-51.7181396484375,-31.8988037109375
1758528102.8679829,0.80224609375,-0.05859375,0.5966796875,-1.953125,-5.43212890625,-0.244140625,-2.6971435546875,-51.767578125,-31.8878173828125
1758528102.8778305,0.80224609375,-0.05859375,0.5966796875,-1.953125,-5.43212890625,-0.244140625,-2.7191162109375,-51.822509765625,-31.88232421875
1758528102.8879678,0.8212890625,-0.05126953125,0.65185546875,-1.15966796875,-5.79833984375,-0.79345703125,-2.7301025390625,-51.87744140625,-31.8768310546875
1758528102.8975823,0.8212890625,-0.05126953125,0.65185546875,-1.15966796875,-5.79833984375,-0.79345703125,-2.7410888671875,-51.9378662109375,-31.8768310546875
1758528102.9078417,0.8388671875,-0.02685546875,0.6376953125,4.2724609375,-5.615234375,-1.40380859375,-2.713623046875,-51.9927978515625,-31.88232421875
1758528102.917733,0.8388671875,-0.02685546875,0.6376953125,4.2724609375,-5.615234375,-1.40380859375,-2.65869140625,-52.0477294921875,-31.893310546875
1758528102.9276016,0.85986328125,-0.015625,0.65283203125,6.53076171875,-5.37109375,-2.197265625,-2.5872802734375,-52.1026611328125,-31.9097900390625
1758528102.93808,0.85986328125,-0.015625,0.65283203125,6.53076171875,-5.37109375,-2.197265625,-2.4993896484375,-52.1575927734375,-31.937255859375
1758528102.9487433,0.83984375,-0.025390625,0.63818359375,3.7841796875,-5.67626953125,-2.25830078125,-2.427978515625,-52.2125244140625,-31.959228515625
1758528102.9576175,0.83984375,-0.025390625,0.63818359375,3.7841796875,-5.67626953125,-2.25830078125,-2.362060546875,-52.27294921875,-31.9866943359375
1758528102.9679403,0.80615234375,-0.0390625,0.6123046875,4.94384765625,-6.4697265625,-2.13623046875,-2.296142578125,-52.3333740234375,-32.0086669921875
1758528102.9780867,0.80615234375,-0.0390625,0.6123046875,4.94384765625,-6.4697265625,-2.13623046875,-2.2247314453125,-52.3992919921875,-32.0306396484375
1758528102.98881,0.79052734375,-0.03369140625,0.57177734375,3.0517578125,-7.38525390625,-1.77001953125,-2.1697998046875,-52.4652099609375,-32.0526123046875
1758528102.9976912,0.79052734375,-0.03369140625,0.57177734375,3.0517578125,-7.38525390625,-1.77001953125,-2.1258544921875,-52.5421142578125,-32.0635986328125
1758528103.0080466,0.80908203125,-0.0224609375,0.60302734375,4.94384765625,-7.38525390625,-2.25830078125,-2.0654296875,-52.613525390625,-32.0855712890625
1758528103.018262,0.80908203125,-0.0224609375,0.60302734375,4.94384765625,-7.38525390625,-2.25830078125,-1.9940185546875,-52.6904296875,-32.1075439453125
1758528103.0281677,0.8173828125,0.0,0.60791015625,5.7373046875,-7.4462890625,-2.38037109375,-1.9171142578125,-52.767333984375,-32.1295166015625
1758528103.0377314,0.8173828125,0.0,0.60791015625,5.7373046875,-7.4462890625,-2.38037109375,-1.8402099609375,-52.8387451171875,-32.1514892578125
1758528103.0490973,0.78271484375,0.00048828125,0.58935546875,-0.48828125,-7.8125,-1.5869140625,-1.790771484375,-52.9156494140625,-32.1734619140625
1758528103.057739,0.78271484375,0.00048828125,0.58935546875,-0.48828125,-7.8125,-1.5869140625,-1.77978515625,-52.998046875,-32.1844482421875
1758528103.0683467,0.77099609375,-0.04296875,0.55712890625,-4.94384765625,-7.87353515625,-1.3427734375,-1.790771484375,-53.074951171875,-32.1954345703125
1758528103.078093,0.77099609375,-0.04296875,0.55712890625,-4.94384765625,-7.87353515625,-1.3427734375,-1.8292236328125,-53.15185546875,-32.2064208984375
1758528103.0885034,0.78955078125,-0.02685546875,0.5703125,-2.62451171875,-7.99560546875,-1.220703125,-1.856689453125,-53.2342529296875,-32.2119140625
1758528103.0978403,0.78955078125,-0.02685546875,0.5703125,-2.62451171875,-7.99560546875,-1.220703125,-1.8731689453125,-53.3111572265625,-32.2174072265625
1758528103.1086116,0.78955078125,0.00146484375,0.60009765625,-2.99072265625,-7.87353515625,-1.28173828125,-1.8896484375,-53.3880615234375,-32.222900390625
1758528103.1187878,0.78955078125,0.00146484375,0.60009765625,-2.99072265625,-7.87353515625,-1.28173828125,-1.9061279296875,-53.470458984375,-32.23388671875
1758528103.1279922,0.77880859375,-0.0419921875,0.55908203125,-3.2958984375,-7.99560546875,-0.3662109375,-1.9281005859375,-53.54736328125,-32.23388671875
1758528103.1378589,0.77880859375,-0.0419921875,0.55908203125,-3.2958984375,-7.99560546875,-0.3662109375,-1.9610595703125,-53.624267578125,-32.2283935546875
1758528103.1481411,0.77587890625,-0.05859375,0.5517578125,-5.4931640625,-8.60595703125,0.732421875,-2.0159912109375,-53.7066650390625,-32.2119140625
1758528103.1582355,0.77587890625,-0.05859375,0.5517578125,-5.4931640625,-8.60595703125,0.732421875,-2.08740234375,-53.7890625,-32.1844482421875
1758528103.167976,0.783203125,-0.0380859375,0.5361328125,-2.0751953125,-8.056640625,1.0986328125,-2.1478271484375,-53.8714599609375,-32.1514892578125
1758528103.1779675,0.783203125,-0.0380859375,0.5361328125,-2.0751953125,-8.056640625,1.0986328125,-2.1917724609375,-53.953857421875,-32.1185302734375
1758528103.1881468,0.80712890625,-0.00927734375,0.5908203125,5.06591796875,-7.2021484375,0.3662109375,-2.197265625,-54.0252685546875,-32.091064453125
1758528103.1980512,0.80712890625,-0.00927734375,0.5908203125,5.06591796875,-7.2021484375,0.3662109375,-2.1588134765625,-54.0966796875,-32.069091796875
1758528103.2079668,0.82421875,0.0302734375,0.61083984375,3.5400390625,-6.591796875,0.9765625,-2.13134765625,-54.16259765625,-32.0416259765625
1758528103.2180061,0.82421875,0.0302734375,0.61083984375,3.5400390625,-6.591796875,0.9765625,-2.1148681640625,-54.228515625,-32.01416015625
1758528103.2282674,0.81201171875,-0.01220703125,0.5693359375,-8.36181640625,-6.53076171875,3.0517578125,-2.1697998046875,-54.2889404296875,-31.9757080078125
1758528103.238038,0.81201171875,-0.01220703125,0.5693359375,-8.36181640625,-6.53076171875,3.0517578125,-2.2906494140625,-54.3548583984375,-31.9097900390625
1758528103.2481768,0.8095703125,-0.07958984375,0.55126953125,-7.01904296875,-6.2255859375,3.23486328125,-2.4114990234375,-54.415283203125,-31.849365234375
1758528103.2582133,0.8095703125,-0.07958984375,0.55126953125,-7.01904296875,-6.2255859375,3.23486328125,-2.5323486328125,-54.47021484375,-31.783447265625
1758528103.268518,0.818359375,-0.02978515625,0.59130859375,1.40380859375,-5.18798828125,1.77001953125,-2.5982666015625,-54.525146484375,-31.7230224609375
1758528103.2780216,0.818359375,-0.02978515625,0.59130859375,1.40380859375,-5.18798828125,1.77001953125,-2.61474609375,-54.5745849609375,-31.6790771484375
1758528103.2880924,0.849609375,0.00048828125,0.60205078125,1.3427734375,-4.5166015625,0.8544921875,-2.625732421875,-54.6240234375,-31.6461181640625
1758528103.2981122,0.849609375,0.00048828125,0.60205078125,1.3427734375,-4.5166015625,0.8544921875,-2.625732421875,-54.66796875,-31.61865234375
1758528103.3084283,0.82666015625,0.00634765625,0.57470703125,-4.638671875,-5.06591796875,1.953125,-2.65869140625,-54.7119140625,-31.585693359375
1758528103.3181055,0.82666015625,0.00634765625,0.57470703125,-4.638671875,-5.06591796875,1.953125,-2.735595703125,-54.7613525390625,-31.541748046875
1758528103.3281596,0.810546875,-0.04736328125,0.52880859375,-4.82177734375,-5.31005859375,2.38037109375,-2.8070068359375,-54.810791015625,-31.4923095703125
1758528103.3385746,0.810546875,-0.04736328125,0.52880859375,-4.82177734375,-5.31005859375,2.38037109375,-2.889404296875,-54.8602294921875,-31.44287109375
1758528103.34835,0.82373046875,-0.041015625,0.54736328125,-4.08935546875,-5.2490234375,1.953125,-2.96630859375,-54.90966796875,-31.387939453125
1758528103.3581612,0.82373046875,-0.041015625,0.54736328125,-4.08935546875,-5.2490234375,1.953125,-3.0322265625,-54.964599609375,-31.3385009765625
1758528103.3681955,0.82958984375,-0.01318359375,0.60302734375,-2.197265625,-4.82177734375,1.03759765625,-3.087158203125,-55.0140380859375,-31.300048828125
1758528103.3792853,0.82958984375,-0.01318359375,0.60302734375,-2.197265625,-4.82177734375,1.03759765625,-3.1256103515625,-55.0634765625,-31.26708984375
1758528103.38819,0.81298828125,-0.01025390625,0.5546875,-4.39453125,-4.94384765625,1.03759765625,-3.1695556640625,-55.107421875,-31.2396240234375
1758528103.398159,0.81298828125,-0.01025390625,0.5546875,-4.39453125,-4.94384765625,1.03759765625,-3.22998046875,-55.1568603515625,-31.2066650390625
1758528103.408426,0.8408203125,-0.03759765625,0.55908203125,-6.7138671875,-5.18798828125,0.79345703125,-3.2958984375,-55.206298828125,-31.17919921875
1758528103.4213934,0.8408203125,-0.03759765625,0.55908203125,-6.7138671875,-5.18798828125,0.79345703125,-3.372802734375,-55.26123046875,-31.1517333984375
1758528103.4282124,0.84228515625,-0.03173828125,0.5517578125,-5.37109375,-5.37109375,0.0,-3.438720703125,-55.3106689453125,-31.1297607421875
1758528103.4384766,0.84228515625,-0.03173828125,0.5517578125,-5.37109375,-5.37109375,0.0,-3.4881591796875,-55.3656005859375,-31.11328125
1758528103.448436,0.8427734375,-0.0341796875,0.564453125,-4.0283203125,-5.615234375,-0.732421875,-3.5321044921875,-55.4205322265625,-31.102294921875
1758528103.4590547,0.8427734375,-0.0341796875,0.564453125,-4.0283203125,-5.615234375,-0.732421875,-3.5595703125,-55.48095703125,-31.0968017578125
1758528103.4682868,0.8583984375,-0.04736328125,0.57373046875,-1.3427734375,-6.16455078125,-1.5869140625,-3.570556640625,-55.5413818359375,-31.102294921875
1758528103.4791858,0.8583984375,-0.04736328125,0.57373046875,-1.3427734375,-6.16455078125,-1.5869140625,-3.5650634765625,-55.601806640625,-31.11328125
1758528103.4883516,0.8642578125,-0.04345703125,0.5830078125,0.9765625,-6.53076171875,-2.685546875,-3.53759765625,-55.667724609375,-31.13525390625
1758528103.4986718,0.8642578125,-0.04345703125,0.5830078125,0.9765625,-6.53076171875,-2.685546875,-3.49365234375,-55.7391357421875,-31.168212890625
1758528103.5084052,0.849609375,-0.03076171875,0.5625,0.79345703125,-6.40869140625,-3.173828125,-3.4442138671875,-55.8050537109375,-31.201171875
1758528103.5194511,0.849609375,-0.03076171875,0.5625,0.79345703125,-6.40869140625,-3.173828125,-3.394775390625,-55.8709716796875,-31.2396240234375
1758528103.5283961,0.85546875,-0.03857421875,0.54248046875,-0.06103515625,-6.28662109375,-3.11279296875,-3.350830078125,-55.9368896484375,-31.2725830078125
1758528103.5389302,0.85546875,-0.03857421875,0.54248046875,-0.06103515625,-6.28662109375,-3.11279296875,-3.3123779296875,-56.0028076171875,-31.31103515625
1758528103.5484252,0.8515625,-0.05029296875,0.564453125,2.38037109375,-5.92041015625,-3.173828125,-3.262939453125,-56.063232421875,-31.343994140625
1758528103.5594103,0.8515625,-0.05029296875,0.564453125,2.38037109375,-5.92041015625,-3.173828125,-3.197021484375,-56.1236572265625,-31.3824462890625
1758528103.56844,0.84814453125,-0.02392578125,0.57275390625,4.94384765625,-6.16455078125,-2.50244140625,-3.1201171875,-56.1895751953125,-31.409912109375
1758528103.5784163,0.84814453125,-0.02392578125,0.57275390625,4.94384765625,-6.16455078125,-2.50244140625,-3.0377197265625,-56.25,-31.4373779296875
1758528103.5885909,0.83203125,-0.0126953125,0.53564453125,1.708984375,-6.591796875,-1.46484375,-3.0047607421875,-56.31591796875,-31.44287109375
1758528103.59885,0.83203125,-0.0126953125,0.53564453125,1.708984375,-6.591796875,-1.46484375,-2.9718017578125,-56.3873291015625,-31.453857421875
1758528103.6084394,0.81982421875,-0.0458984375,0.53857421875,-1.708984375,-6.53076171875,-0.54931640625,-2.98828125,-56.44775390625,-31.44287109375
1758528103.6184556,0.81982421875,-0.0458984375,0.53857421875,-1.708984375,-6.53076171875,-0.54931640625,-3.0047607421875,-56.513671875,-31.4373779296875
1758528103.6287372,0.8330078125,-0.02880859375,0.5068359375,-6.28662109375,-6.4697265625,0.30517578125,-3.0816650390625,-56.57958984375,-31.409912109375
1758528103.6385376,0.8330078125,-0.02880859375,0.5068359375,-6.28662109375,-6.4697265625,0.30517578125,-3.153076171875,-56.6455078125,-31.387939453125
1758528103.6485386,0.81494140625,-0.0029296875,0.55712890625,-8.7890625,-6.40869140625,1.220703125,-3.262939453125,-56.71142578125,-31.343994140625
1758528103.6585464,0.81494140625,-0.0029296875,0.55712890625,-8.7890625,-6.40869140625,1.220703125,-3.372802734375,-56.7718505859375,-31.31103515625
1758528103.6686099,0.810546875,-0.0498046875,0.5009765625,-9.09423828125,-6.591796875,2.25830078125,-3.504638671875,-56.8377685546875,-31.2506103515625
1758528103.6785908,0.810546875,-0.0498046875,0.5009765625,-9.09423828125,-6.591796875,2.25830078125,-3.6309814453125,-56.898193359375,-31.1956787109375
1758528103.6885502,0.8125,-0.05078125,0.50927734375,-5.4931640625,-6.34765625,2.197265625,-3.724365234375,-56.964111328125,-31.13525390625
1758528103.6985734,0.8125,-0.05078125,0.50927734375,-5.4931640625,-6.34765625,2.197265625,-3.8177490234375,-57.0245361328125,-31.0748291015625
1758528103.7089596,0.82470703125,-0.0107421875,0.53271484375,-2.99072265625,-6.04248046875,2.0751953125,-3.8836669921875,-57.0849609375,-31.0198974609375
1758528103.7185836,0.82470703125,-0.0107421875,0.53271484375,-2.99072265625,-6.04248046875,2.0751953125,-3.9495849609375,-57.139892578125,-30.9649658203125
1758528103.728662,0.82373046875,-0.015625,0.50634765625,-10.31494140625,-5.859375,2.44140625,-4.0924072265625,-57.2003173828125,-30.904541015625
1758528103.7390504,0.82373046875,-0.015625,0.50634765625,-10.31494140625,-5.859375,2.44140625,-4.2352294921875,-57.2552490234375,-30.8441162109375
1758528103.7489154,0.8251953125,-0.08544921875,0.52197265625,-10.8642578125,-5.859375,2.25830078125,-4.3780517578125,-57.3101806640625,-30.78369140625
1758528103.7586753,0.8251953125,-0.08544921875,0.52197265625,-10.8642578125,-5.859375,2.25830078125,-4.5263671875,-57.37060546875,-30.7232666015625
1758528103.7687347,0.8251953125,-0.08544921875,0.52197265625,-2.44140625,-5.55419921875,1.40380859375,-4.5758056640625,-57.4200439453125,-30.6793212890625
1758528103.779153,0.81689453125,-0.0654296875,0.51708984375,-2.44140625,-5.55419921875,1.40380859375,-4.6307373046875,-57.4749755859375,-30.6353759765625
1758528103.7887733,0.81982421875,-0.0263671875,0.50634765625,2.8076171875,-4.94384765625,0.732421875,-4.6197509765625,-57.5244140625,-30.6024169921875
1758528103.7987218,0.81982421875,-0.0263671875,0.50634765625,2.8076171875,-4.94384765625,0.732421875,-4.6087646484375,-57.5738525390625,-30.5694580078125
1758528103.8087513,0.8564453125,-0.03271484375,0.52099609375,-0.732421875,-4.33349609375,0.18310546875,-4.625244140625,-57.6177978515625,-30.552978515625
1758528103.819157,0.8564453125,-0.03271484375,0.52099609375,-0.732421875,-4.33349609375,0.18310546875,-4.63623046875,-57.65625,-30.531005859375
1758528103.8287532,0.8583984375,-0.072265625,0.5185546875,-3.0517578125,-4.39453125,0.244140625,-4.6746826171875,-57.7056884765625,-30.509033203125
1758528103.838749,0.8583984375,-0.072265625,0.5185546875,-3.0517578125,-4.39453125,0.244140625,-4.7186279296875,-57.7496337890625,-30.487060546875
1758528103.8497558,0.8583984375,-0.072265625,0.5185546875,1.5869140625,-4.33349609375,0.30517578125,-4.713134765625,-57.7935791015625,-30.4595947265625
1758528103.8588881,0.8349609375,-0.0703125,0.54052734375,1.5869140625,-4.33349609375,0.30517578125,-4.713134765625,-57.83203125,-30.43212890625
1758528103.8690698,0.8564453125,-0.04638671875,0.51708984375,4.638671875,-3.60107421875,0.1220703125,-4.6746826171875,-57.8704833984375,-30.4156494140625
1758528103.8789635,0.8564453125,-0.04638671875,0.51708984375,4.638671875,-3.60107421875,0.1220703125,-4.6417236328125,-57.9034423828125,-30.3936767578125
1758528103.8893273,0.869140625,-0.05224609375,0.5341796875,7.38525390625,-2.9296875,0.0,-4.5758056640625,-57.9364013671875,-30.377197265625
1758528103.8988175,0.869140625,-0.05224609375,0.5341796875,7.38525390625,-2.9296875,0.0,-4.5098876953125,-57.9638671875,-30.355224609375
1758528103.9097679,0.9189453125,-0.01513671875,0.54052734375,3.72314453125,-2.44140625,0.244140625,-4.482421875,-57.9913330078125,-30.333251953125
1758528103.9188678,0.9189453125,-0.01513671875,0.54052734375,3.72314453125,-2.44140625,0.244140625,-4.4549560546875,-58.0133056640625,-30.311279296875
1758528103.929127,0.8876953125,-0.02783203125,0.583984375,-2.25830078125,-2.685546875,1.953125,-4.515380859375,-58.040771484375,-30.2618408203125
1758528103.9391437,0.8876953125,-0.02783203125,0.583984375,-2.25830078125,-2.685546875,1.953125,-4.5703125,-58.0682373046875,-30.2069091796875
1758528103.9502587,0.841796875,-0.10595703125,0.498046875,-1.3427734375,-2.50244140625,2.62451171875,-4.6307373046875,-58.0902099609375,-30.146484375
1758528103.9588492,0.841796875,-0.10595703125,0.498046875,-1.3427734375,-2.50244140625,2.62451171875,-4.691162109375,-58.1121826171875,-30.0750732421875
1758528103.9694853,0.8125,-0.07763671875,0.5146484375,7.01904296875,-1.3427734375,1.708984375,-4.658203125,-58.1231689453125,-30.0311279296875
1758528103.9792123,0.8125,-0.07763671875,0.5146484375,7.01904296875,-1.3427734375,1.708984375,-4.625244140625,-58.1341552734375,-29.981689453125
1758528103.9895225,0.86376953125,-0.01513671875,0.4931640625,11.29150390625,-1.220703125,0.9765625,-4.537353515625,-58.1451416015625,-29.9432373046875
1758528103.9990706,0.86376953125,-0.01513671875,0.4931640625,11.29150390625,-1.220703125,0.9765625,-4.449462890625,-58.16162109375,-29.9102783203125
1758528104.0100863,0.81884765625,-0.0009765625,0.52099609375,2.197265625,-1.0986328125,1.64794921875,-4.46044921875,-58.172607421875,-29.8663330078125
1758528104.0193014,0.81884765625,-0.0009765625,0.52099609375,2.197265625,-1.0986328125,1.64794921875,-4.4659423828125,-58.18359375,-29.8223876953125
1758528104.0291233,0.86279296875,-0.07080078125,0.484375,-1.708984375,-2.01416015625,2.25830078125,-4.5208740234375,-58.2000732421875,-29.7674560546875
1758528104.039074,0.86279296875,-0.07080078125,0.484375,-1.708984375,-2.01416015625,2.25830078125,-4.581298828125,-58.2220458984375,-29.70703125
1758528104.0492535,0.79296875,-0.0595703125,0.517578125,4.2724609375,-1.89208984375,2.0751953125,-4.5758056640625,-58.2440185546875,-29.652099609375
1758528104.0591512,0.79296875,-0.0595703125,0.517578125,4.2724609375,-1.89208984375,2.0751953125,-4.5758056640625,-58.260498046875,-29.59716796875
1758528104.0690808,0.79931640625,-0.0341796875,0.47998046875,8.72802734375,-2.38037109375,2.01416015625,-4.5263671875,-58.282470703125,-29.542236328125
1758528104.0790794,0.79931640625,-0.0341796875,0.47998046875,8.72802734375,-2.38037109375,2.01416015625,-4.482421875,-58.304443359375,-29.4927978515625
1758528104.0891185,0.82666015625,-0.01220703125,0.46728515625,2.9296875,-2.99072265625,2.01416015625,-4.4879150390625,-58.33740234375,-29.4378662109375
1758528104.0999932,0.82666015625,-0.01220703125,0.46728515625,2.9296875,-2.99072265625,2.01416015625,-4.4989013671875,-58.3648681640625,-29.3829345703125
1758528104.109077,0.86328125,-0.0029296875,0.54150390625,0.67138671875,-3.0517578125,1.40380859375,-4.515380859375,-58.3978271484375,-29.344482421875
1758528104.1191075,0.86328125,-0.0029296875,0.54150390625,0.67138671875,-3.0517578125,1.40380859375,-4.5318603515625,-58.4307861328125,-29.3060302734375
1758528104.129362,0.861328125,0.0,0.541015625,-2.0751953125,-2.86865234375,0.9765625,-4.5648193359375,-58.458251953125,-29.2730712890625
1758528104.140589,0.861328125,0.0,0.541015625,-2.0751953125,-2.86865234375,0.9765625,-4.5977783203125,-58.4857177734375,-29.24560546875
1758528104.1493213,0.8330078125,-0.06884765625,0.41845703125,-6.40869140625,-3.35693359375,0.06103515625,-4.658203125,-58.5186767578125,-29.234619140625
1758528104.1591911,0.8330078125,-0.06884765625,0.41845703125,-6.40869140625,-3.35693359375,0.06103515625,-4.72412109375,-58.55712890625,-29.212646484375
1758528104.1694913,0.810546875,-0.07177734375,0.55859375,0.48828125,-3.173828125,-1.220703125,-4.6966552734375,-58.5955810546875,-29.2181396484375
1758528104.179289,0.810546875,-0.07177734375,0.55859375,0.48828125,-3.173828125,-1.220703125,-4.6746826171875,-58.6285400390625,-29.2291259765625
1758528104.1891315,0.8955078125,-0.00927734375,0.478515625,2.44140625,-3.7841796875,-2.44140625,-4.6142578125,-58.6669921875,-29.256591796875
1758528104.199497,0.8955078125,-0.00927734375,0.478515625,2.44140625,-3.7841796875,-2.44140625,-4.5538330078125,-58.7109375,-29.28955078125
1758528104.2092724,0.91162109375,0.00537109375,0.57958984375,-0.91552734375,-4.21142578125,-3.23486328125,-4.5098876953125,-58.7548828125,-29.33349609375
1758528104.2192342,0.91162109375,0.00537109375,0.57958984375,-0.91552734375,-4.21142578125,-3.23486328125,-4.4659423828125,-58.798828125,-29.3829345703125
1758528104.2292163,0.9072265625,-0.0400390625,0.48681640625,-4.69970703125,-3.7841796875,-4.39453125,-4.4384765625,-58.8427734375,-29.4488525390625
1758528104.239507,0.9072265625,-0.0400390625,0.48681640625,-4.69970703125,-3.7841796875,-4.39453125,-4.4110107421875,-58.88671875,-29.520263671875
1758528104.2502053,0.89990234375,-0.04296875,0.58203125,0.48828125,-2.197265625,-6.2255859375,-4.3011474609375,-58.9141845703125,-29.6246337890625
1758528104.2592845,0.89990234375,-0.04296875,0.58203125,0.48828125,-2.197265625,-6.2255859375,-4.1912841796875,-58.941650390625,-29.7344970703125
1758528104.2692716,0.89111328125,-0.02587890625,0.50146484375,1.89208984375,-2.74658203125,-6.89697265625,-4.053955078125,-58.974609375,-29.8553466796875
1758528104.2800663,0.89111328125,-0.02587890625,0.50146484375,1.89208984375,-2.74658203125,-6.89697265625,-3.922119140625,-59.007568359375,-29.9761962890625
1758528104.2893257,0.908203125,-0.07080078125,0.51171875,0.9765625,-5.0048828125,-5.55419921875,-3.8232421875,-59.0679931640625,-30.0640869140625
1758528104.2999806,0.908203125,-0.07080078125,0.51171875,0.9765625,-5.0048828125,-5.55419921875,-3.7298583984375,-59.1229248046875,-30.146484375
1758528104.3095136,0.9208984375,-0.0234375,0.52490234375,0.30517578125,-6.16455078125,-4.7607421875,-3.658447265625,-59.1888427734375,-30.2178955078125
1758528104.32271,0.9208984375,-0.0234375,0.52490234375,0.30517578125,-6.16455078125,-4.7607421875,-3.58154296875,-59.2547607421875,-30.289306640625
1758528104.3293753,0.9033203125,-0.03662109375,0.52294921875,-0.244140625,-5.615234375,-4.45556640625,-3.5211181640625,-59.315185546875,-30.355224609375
1758528104.3404546,0.9033203125,-0.03662109375,0.52294921875,-0.244140625,-5.615234375,-4.45556640625,-3.4552001953125,-59.3756103515625,-30.4156494140625
1758528104.3504403,0.84033203125,-0.046875,0.5126953125,3.96728515625,-5.9814453125,-3.35693359375,-3.3673095703125,-59.4415283203125,-30.4595947265625
1758528104.3598156,0.84033203125,-0.046875,0.5126953125,3.96728515625,-5.9814453125,-3.35693359375,-3.284912109375,-59.501953125,-30.5035400390625
1758528104.3693867,0.85400390625,-0.0751953125,0.43115234375,4.5166015625,-6.77490234375,-2.3193359375,-3.2135009765625,-59.5733642578125,-30.5255126953125
1758528104.380271,0.85400390625,-0.0751953125,0.43115234375,4.5166015625,-6.77490234375,-2.3193359375,-3.1475830078125,-59.644775390625,-30.5419921875
1758528104.3897388,0.88916015625,-0.03759765625,0.54931640625,5.0048828125,-6.40869140625,-1.64794921875,-3.087158203125,-59.710693359375,-30.5474853515625
1758528104.400206,0.88916015625,-0.03759765625,0.54931640625,5.0048828125,-6.40869140625,-1.64794921875,-3.021240234375,-59.776611328125,-30.5584716796875
1758528104.4094138,0.8642578125,0.0,0.5009765625,2.38037109375,-5.79833984375,0.0,-3.0157470703125,-59.83154296875,-30.531005859375
1758528104.4204338,0.8642578125,0.0,0.5009765625,2.38037109375,-5.79833984375,0.0,-3.0047607421875,-59.8919677734375,-30.5145263671875
1758528104.4294333,0.8544921875,-0.04443359375,0.48291015625,0.0,-4.94384765625,1.220703125,-3.0322265625,-59.9359130859375,-30.465087890625
1758528104.4395022,0.8544921875,-0.04443359375,0.48291015625,0.0,-4.94384765625,1.220703125,-3.065185546875,-59.9853515625,-30.421142578125
1758528104.4500706,0.8681640625,-0.05078125,0.5,0.79345703125,-3.173828125,1.220703125,-3.0926513671875,-60.018310546875,-30.377197265625
1758528104.4605706,0.8681640625,-0.05078125,0.5,0.79345703125,-3.173828125,1.220703125,-3.1146240234375,-60.0457763671875,-30.333251953125
1758528104.4695187,0.87890625,-0.02392578125,0.48291015625,1.708984375,-2.99072265625,1.46484375,-3.131103515625,-60.0732421875,-30.2838134765625
1758528104.4795718,0.87890625,-0.02392578125,0.48291015625,1.708984375,-2.99072265625,1.46484375,-3.153076171875,-60.106201171875,-30.234375
1758528104.4898515,0.87646484375,-0.00390625,0.50732421875,-0.6103515625,-2.44140625,1.5869140625,-3.1915283203125,-60.128173828125,-30.1849365234375
1758528104.5001018,0.87646484375,-0.00390625,0.50732421875,-0.6103515625,-2.44140625,1.5869140625,-3.22998046875,-60.150146484375,-30.1409912109375
1758528104.5095315,0.8916015625,-0.0380859375,0.517578125,-1.3427734375,-1.77001953125,1.5869140625,-3.27392578125,-60.1666259765625,-30.091552734375
1758528104.5195727,0.8916015625,-0.0380859375,0.517578125,-1.3427734375,-1.77001953125,1.5869140625,-3.31787109375,-60.18310546875,-30.047607421875
1758528104.5300372,0.87744140625,-0.05029296875,0.482421875,1.28173828125,-1.64794921875,1.220703125,-3.3343505859375,-60.1995849609375,-30.0091552734375
1758528104.5395951,0.87744140625,-0.05029296875,0.482421875,1.28173828125,-1.64794921875,1.220703125,-3.3453369140625,-60.216064453125,-29.970703125
1758528104.550178,0.8837890625,-0.01220703125,0.48193359375,3.47900390625,-1.0986328125,0.6103515625,-3.3233642578125,-60.22705078125,-29.9432373046875
1758528104.5600684,0.8837890625,-0.01220703125,0.48193359375,3.47900390625,-1.0986328125,0.6103515625,-3.306884765625,-60.238037109375,-29.915771484375
1758528104.569659,0.8671875,-0.00244140625,0.50048828125,2.01416015625,-0.48828125,0.54931640625,-3.2958984375,-60.2435302734375,-29.893798828125
1758528104.5796578,0.8671875,-0.04443359375,0.46484375,-1.708984375,-0.244140625,0.9765625,-3.306884765625,-60.2490234375,-29.8663330078125
1758528104.5897205,0.8671875,-0.04443359375,0.46484375,-1.708984375,-0.244140625,0.9765625,-3.33984375,-60.2490234375,-29.8333740234375
1758528104.6007123,0.8623046875,-0.056640625,0.49658203125,3.90625,0.0,0.67138671875,-3.3453369140625,-60.2545166015625,-29.8004150390625
1758528104.6096804,0.8623046875,-0.056640625,0.49658203125,3.90625,0.0,0.67138671875,-3.3233642578125,-60.2545166015625,-29.77294921875
1758528104.6197345,0.86083984375,-0.01171875,0.4853515625,5.126953125,0.42724609375,0.54931640625,-3.2904052734375,-60.2545166015625,-29.7454833984375
1758528104.6301956,0.86083984375,-0.01171875,0.4853515625,5.126953125,0.42724609375,0.54931640625,-3.251953125,-60.2545166015625,-29.7235107421875
1758528104.6397183,0.8720703125,-0.0087890625,0.474609375,-0.67138671875,0.1220703125,1.15966796875,-3.2464599609375,-60.2490234375,-29.696044921875
1758528104.6496892,0.8720703125,-0.0087890625,0.474609375,-0.67138671875,0.1220703125,1.15966796875,-3.27392578125,-60.2490234375,-29.6575927734375
1758528104.6599915,0.87646484375,-0.0263671875,0.47998046875,-3.2958984375,0.18310546875,1.46484375,-3.3123779296875,-60.2490234375,-29.619140625
1758528104.6701458,0.87646484375,-0.0263671875,0.47998046875,-3.2958984375,0.18310546875,1.46484375,-3.372802734375,-60.2545166015625,-29.5751953125
1758528104.6798103,0.85302734375,-0.037109375,0.494140625,-0.1220703125,0.54931640625,0.732421875,-3.40576171875,-60.2490234375,-29.542236328125
1758528104.6898096,0.85302734375,-0.037109375,0.494140625,-0.1220703125,0.54931640625,0.732421875,-3.416748046875,-60.2490234375,-29.520263671875
1758528104.7003415,0.8583984375,-0.02880859375,0.4990234375,2.50244140625,1.03759765625,0.06103515625,-3.4112548828125,-60.2435302734375,-29.498291015625
1758528104.7098324,0.8583984375,-0.02880859375,0.4990234375,2.50244140625,1.03759765625,0.06103515625,-3.3892822265625,-60.2325439453125,-29.4873046875
1758528104.7198784,0.8701171875,-0.041015625,0.4814453125,3.173828125,1.15966796875,-0.42724609375,-3.3563232421875,-60.2215576171875,-29.4818115234375
1758528104.7303998,0.8701171875,-0.041015625,0.4814453125,3.173828125,1.15966796875,-0.42724609375,-3.3123779296875,-60.216064453125,-29.4818115234375
1758528104.7398155,0.8798828125,-0.0224609375,0.4931640625,4.82177734375,0.91552734375,-1.28173828125,-3.262939453125,-60.205078125,-29.4873046875
1758528104.750476,0.8798828125,-0.0224609375,0.4931640625,4.82177734375,0.91552734375,-1.28173828125,-3.1915283203125,-60.1995849609375,-29.5037841796875
1758528104.760281,0.88525390625,-0.01025390625,0.478515625,3.5400390625,0.48828125,-1.40380859375,-3.1256103515625,-60.194091796875,-29.520263671875
1758528104.7702203,0.88525390625,-0.01025390625,0.478515625,3.5400390625,0.48828125,-1.40380859375,-3.065185546875,-60.194091796875,-29.5367431640625
1758528104.779895,0.85205078125,-0.013671875,0.4921875,1.953125,0.30517578125,-0.9765625,-3.0157470703125,-60.194091796875,-29.55322265625
1758528104.7910228,0.85205078125,-0.013671875,0.4921875,1.953125,0.30517578125,-0.9765625,-2.977294921875,-60.194091796875,-29.564208984375
1758528104.7999704,0.859375,-0.04296875,0.482421875,4.82177734375,0.67138671875,-1.77001953125,-2.92236328125,-60.194091796875,-29.5806884765625
1758528104.8102946,0.859375,-0.04296875,0.482421875,4.82177734375,0.67138671875,-1.77001953125,-2.8399658203125,-60.1885986328125,-29.608154296875
1758528104.8202407,0.88232421875,-0.0224609375,0.50634765625,6.04248046875,0.91552734375,-2.38037109375,-2.7520751953125,-60.1885986328125,-29.6356201171875
1758528104.830511,0.88232421875,-0.0224609375,0.50634765625,6.04248046875,0.91552734375,-2.38037109375,-2.6531982421875,-60.18310546875,-29.674072265625
1758528104.8399746,0.89111328125,0.0,0.50341796875,7.080078125,1.40380859375,-2.9296875,-2.5433349609375,-60.172119140625,-29.718017578125
1758528104.8507578,0.89111328125,0.0,0.50341796875,7.080078125,1.40380859375,-2.9296875,-2.4224853515625,-60.1611328125,-29.7674560546875
1758528104.8602273,0.8642578125,-0.0087890625,0.478515625,3.84521484375,1.52587890625,-2.9296875,-2.3126220703125,-60.150146484375,-29.81689453125
1758528104.8705328,0.8642578125,-0.0087890625,0.478515625,3.84521484375,1.52587890625,-2.9296875,-2.2247314453125,-60.13916015625,-29.8663330078125
1758528104.8800716,0.83154296875,-0.02880859375,0.44970703125,0.732421875,1.0986328125,-2.50244140625,-2.1533203125,-60.1336669921875,-29.9102783203125
1758528104.8911102,0.83154296875,-0.02880859375,0.44970703125,0.732421875,1.0986328125,-2.50244140625,-2.1038818359375,-60.1226806640625,-29.9432373046875
1758528104.9000456,0.8564453125,-0.04638671875,0.50732421875,0.1220703125,1.3427734375,-2.38037109375,-2.0599365234375,-60.1171875,-29.981689453125
1758528104.9113479,0.8564453125,-0.04638671875,0.50732421875,0.1220703125,1.3427734375,-2.38037109375,-2.021484375,-60.106201171875,-30.0146484375
1758528104.9221475,0.91064453125,-0.021484375,0.51123046875,3.11279296875,2.13623046875,-2.50244140625,-1.966552734375,-60.09521484375,-30.0531005859375
1758528104.9304485,0.91064453125,-0.021484375,0.51123046875,3.11279296875,2.13623046875,-2.50244140625,-1.8951416015625,-60.0787353515625,-30.091552734375
1758528104.9401863,0.9189453125,0.017578125,0.54052734375,0.06103515625,2.685546875,-1.52587890625,-1.8511962890625,-60.0567626953125,-30.1190185546875
1758528104.9501526,0.9189453125,0.017578125,0.54052734375,0.06103515625,2.685546875,-1.52587890625,-1.82373046875,-60.029296875,-30.1409912109375
1758528104.96023,0.9130859375,0.0322265625,0.52783203125,-5.126953125,3.47900390625,-0.244140625,-1.8292236328125,-60.0018310546875,-30.1519775390625
