timestamp,acc_x,acc_y,acc_z,gyro_x,gyro_y,gyro_z,angle_x,angle_y,angle_z
1760966175.706827,-0.72021484375,0.0,0.69970703125,0.1220703125,-0.18310546875,-0.1220703125,0.06591796875,45.3350830078125,-13.4307861328125
1760966175.7186973,-0.7177734375,0.00048828125,0.69580078125,0.18310546875,-0.244140625,-0.18310546875,0.06591796875,45.3350830078125,-13.4307861328125
1760966175.7295783,-0.7177734375,0.00048828125,0.69580078125,0.18310546875,-0.244140625,-0.18310546875,0.06591796875,45.3350830078125,-13.4307861328125
1760966175.7394814,-0.716796875,0.0029296875,0.70166015625,0.1220703125,-0.244140625,-0.18310546875,0.06591796875,45.3350830078125,-13.4307861328125
1760966175.7494354,-0.716796875,0.0029296875,0.70166015625,0.1220703125,-0.244140625,-0.18310546875,0.06591796875,45.3350830078125,-13.4307861328125
1760966175.7587073,-0.71728515625,0.0009765625,0.703125,0.0,-0.18310546875,-0.30517578125,0.0604248046875,45.3350830078125,-13.4307861328125
1760966175.7664804,-0.71728515625,0.0009765625,0.703125,0.0,-0.18310546875,-0.30517578125,0.054931640625,45.3350830078125,-13.436279296875
1760966175.7728267,-0.716796875,0.00341796875,0.70068359375,0.18310546875,-0.18310546875,-0.42724609375,0.054931640625,45.340576171875,-13.436279296875
1760966175.7796426,-0.716796875,0.00341796875,0.70068359375,0.18310546875,-0.18310546875,-0.42724609375,0.054931640625,45.340576171875,-13.4417724609375
1760966175.786065,-0.71875,0.001953125,0.70068359375,0.0,-0.244140625,-0.48828125,0.0494384765625,45.340576171875,-13.447265625
1760966175.7932065,-0.71875,0.001953125,0.70068359375,0.0,-0.244140625,-0.48828125,0.0439453125,45.340576171875,-13.4527587890625
1760966175.8031893,-0.71875,0.00048828125,0.6943359375,-0.18310546875,-0.3662109375,-0.48828125,0.0384521484375,45.3350830078125,-13.4527587890625
1760966175.813237,-0.71875,0.00048828125,0.6943359375,-0.18310546875,-0.3662109375,-0.48828125,0.032958984375,45.3350830078125,-13.458251953125
1760966175.8234715,-0.71826171875,-0.00146484375,0.70166015625,0.0,-0.3662109375,-0.48828125,0.0274658203125,45.3350830078125,-13.4637451171875
1760966175.833327,-0.71826171875,-0.00146484375,0.70166015625,0.0,-0.3662109375,-0.48828125,0.02197265625,45.3350830078125,-13.46923828125
1760966175.8432376,-0.71875,-0.00146484375,0.69970703125,-0.06103515625,-0.42724609375,-0.3662109375,0.0164794921875,45.32958984375,-13.4747314453125
1760966175.8532774,-0.71875,-0.00146484375,0.69970703125,-0.06103515625,-0.42724609375,-0.3662109375,0.0164794921875,45.32958984375,-13.4747314453125
1760966175.8633523,-0.7177734375,0.0,0.701171875,0.3662109375,-0.3662109375,-0.42724609375,0.0164794921875,45.32958984375,-13.480224609375
1760966175.8737123,-0.7177734375,0.0,0.701171875,0.3662109375,-0.3662109375,-0.42724609375,0.0164794921875,45.32958984375,-13.4857177734375
1760966175.8832378,-0.71826171875,0.001953125,0.703125,0.06103515625,-0.3662109375,-0.42724609375,0.010986328125,45.3240966796875,-13.4857177734375
1760966175.8932505,-0.71826171875,0.001953125,0.703125,0.06103515625,-0.3662109375,-0.42724609375,0.0054931640625,45.3240966796875,-13.4912109375
1760966175.9032388,-0.71923828125,0.0009765625,0.69775390625,0.0,-0.3662109375,-0.48828125,0.0,45.3240966796875,-13.4967041015625
1760966175.913245,-0.71923828125,0.0009765625,0.69775390625,0.0,-0.3662109375,-0.48828125,0.0,45.3240966796875,-13.502197265625
1760966175.923241,-0.7197265625,-0.00048828125,0.69775390625,0.0,-0.30517578125,-0.48828125,0.0,45.3240966796875,-13.502197265625
1760966175.933257,-0.7197265625,-0.00048828125,0.69775390625,0.0,-0.30517578125,-0.48828125,-0.0054931640625,45.3240966796875,-13.5076904296875
1760966175.943281,-0.7197265625,-0.00048828125,0.69775390625,0.0,-0.30517578125,-0.3662109375,-0.010986328125,45.318603515625,-13.51318359375
1760966175.9532826,-0.716796875,-0.00146484375,0.7041015625,0.0,-0.30517578125,-0.3662109375,-0.010986328125,45.318603515625,-13.51318359375
1760966175.963312,-0.71435546875,-0.001953125,0.70361328125,0.0,-0.42724609375,-0.244140625,-0.0164794921875,45.318603515625,-13.5186767578125
1760966175.9733264,-0.71435546875,-0.001953125,0.70361328125,0.0,-0.42724609375,-0.244140625,-0.0164794921875,45.318603515625,-13.5186767578125
1760966175.9833248,-0.71533203125,0.0,0.70166015625,-0.06103515625,-0.48828125,-0.18310546875,-0.02197265625,45.3131103515625,-13.5186767578125
1760966175.9933264,-0.71533203125,0.0,0.70166015625,-0.06103515625,-0.48828125,-0.18310546875,-0.02197265625,45.3131103515625,-13.5186767578125
1760966176.0033417,-0.71728515625,0.0009765625,0.7001953125,-0.3662109375,-0.67138671875,-0.244140625,-0.0274658203125,45.3076171875,-13.5186767578125
1760966176.0133505,-0.71728515625,0.0009765625,0.7001953125,-0.3662109375,-0.67138671875,-0.244140625,-0.032958984375,45.3021240234375,-13.5186767578125
1760966176.0233555,-0.72216796875,0.001953125,0.6962890625,-0.48828125,-0.67138671875,-0.3662109375,-0.0439453125,45.296630859375,-13.524169921875
1760966176.033373,-0.72216796875,0.001953125,0.6962890625,-0.48828125,-0.67138671875,-0.3662109375,-0.0494384765625,45.2911376953125,-13.524169921875
1760966176.0433621,-0.7216796875,0.0,0.693359375,-0.06103515625,-0.6103515625,-0.48828125,-0.054931640625,45.2911376953125,-13.5296630859375
1760966176.053386,-0.7216796875,0.0,0.693359375,-0.06103515625,-0.6103515625,-0.48828125,-0.0604248046875,45.28564453125,-13.5296630859375
1760966176.0633907,-0.71728515625,0.00146484375,0.70068359375,-0.18310546875,-0.48828125,-0.6103515625,-0.06591796875,45.28564453125,-13.5406494140625
1760966176.0735934,-0.71728515625,0.00146484375,0.70068359375,-0.18310546875,-0.48828125,-0.6103515625,-0.076904296875,45.2801513671875,-13.546142578125
1760966176.0834136,-0.7119140625,-0.00146484375,0.7119140625,-0.48828125,-0.42724609375,-0.42724609375,-0.0823974609375,45.2801513671875,-13.546142578125
1760966176.0934331,-0.7119140625,-0.00146484375,0.7119140625,-0.48828125,-0.42724609375,-0.42724609375,-0.0933837890625,45.2801513671875,-13.5516357421875
1760966176.1034417,-0.708984375,-0.0068359375,0.708984375,-0.91552734375,-0.3662109375,-0.18310546875,-0.1043701171875,45.274658203125,-13.546142578125
1760966176.113445,-0.708984375,-0.0068359375,0.708984375,-0.91552734375,-0.3662109375,-0.18310546875,-0.1153564453125,45.274658203125,-13.546142578125
1760966176.1234148,-0.71533203125,-0.00732421875,0.705078125,-1.28173828125,-0.30517578125,0.0,-0.1263427734375,45.274658203125,-13.546142578125
1760966176.1334271,-0.71533203125,-0.00732421875,0.705078125,-1.28173828125,-0.30517578125,0.0,-0.1373291015625,45.2691650390625,-13.5406494140625
1760966176.143466,-0.71533203125,-0.00732421875,0.705078125,-0.48828125,-0.244140625,0.06103515625,-0.142822265625,45.2691650390625,-13.53515625
1760966176.1534636,-0.71484375,-0.00146484375,0.69970703125,-0.48828125,-0.244140625,0.06103515625,-0.1483154296875,45.2691650390625,-13.53515625
1760966176.1634603,-0.7119140625,-0.00146484375,0.70849609375,-0.42724609375,-0.1220703125,0.18310546875,-0.15380859375,45.2691650390625,-13.5296630859375
1760966176.173491,-0.7119140625,-0.00146484375,0.70849609375,-0.42724609375,-0.1220703125,0.18310546875,-0.15380859375,45.2691650390625,-13.524169921875
1760966176.1834922,-0.701171875,-0.00537109375,0.71630859375,-1.220703125,-0.1220703125,0.48828125,-0.1593017578125,45.2691650390625,-13.51318359375
1760966176.1935296,-0.701171875,-0.00537109375,0.71630859375,-1.220703125,-0.1220703125,0.48828125,-0.1702880859375,45.2691650390625,-13.502197265625
1760966176.2036262,-0.701171875,-0.00927734375,0.7177734375,-1.3427734375,-0.54931640625,0.67138671875,-0.17578125,45.263671875,-13.4912109375
1760966176.2135463,-0.701171875,-0.00927734375,0.7177734375,-1.3427734375,-0.54931640625,0.67138671875,-0.1812744140625,45.252685546875,-13.4747314453125
1760966176.223704,-0.7080078125,-0.00341796875,0.70458984375,-0.06103515625,-1.28173828125,0.42724609375,-0.1812744140625,45.24169921875,-13.46923828125
1760966176.2336276,-0.7080078125,-0.00341796875,0.70458984375,-0.06103515625,-1.28173828125,0.42724609375,-0.17578125,45.2252197265625,-13.458251953125
1760966176.2439182,-0.7158203125,0.00244140625,0.69873046875,0.6103515625,-1.953125,0.0,-0.1702880859375,45.208740234375,-13.4527587890625
1760966176.2538757,-0.7158203125,0.00244140625,0.69873046875,0.6103515625,-1.953125,0.0,-0.164794921875,45.186767578125,-13.4527587890625
1760966176.2637072,-0.72705078125,0.01025390625,0.68505859375,0.54931640625,-2.38037109375,-0.42724609375,-0.164794921875,45.164794921875,-13.4527587890625
1760966176.2737904,-0.72705078125,0.01025390625,0.68505859375,0.54931640625,-2.38037109375,-0.42724609375,-0.164794921875,45.142822265625,-13.458251953125
1760966176.28409,-0.72412109375,0.00732421875,0.68359375,-0.6103515625,-2.62451171875,-0.732421875,-0.17578125,45.120849609375,-13.4637451171875
1760966176.294024,-0.72412109375,0.00732421875,0.68359375,-0.6103515625,-2.62451171875,-0.732421875,-0.186767578125,45.098876953125,-13.46923828125
1760966176.3066423,-0.72802734375,-0.00146484375,0.7080078125,-2.50244140625,-2.62451171875,-0.3662109375,-0.2142333984375,45.076904296875,-13.4747314453125
1760966176.3140655,-0.72802734375,-0.00146484375,0.7080078125,-2.50244140625,-2.62451171875,-0.3662109375,-0.24169921875,45.0494384765625,-13.480224609375
1760966176.3237727,-0.68896484375,-0.0146484375,0.69140625,-5.06591796875,-2.9296875,-0.54931640625,-0.296630859375,45.0274658203125,-13.4857177734375
1760966176.3340497,-0.68896484375,-0.0146484375,0.69140625,-5.06591796875,-2.9296875,-0.54931640625,-0.3515625,45.0,-13.4912109375
1760966176.3444593,-0.7099609375,0.01220703125,0.7373046875,-0.6103515625,-2.8076171875,-1.3427734375,-0.3680419921875,44.9725341796875,-13.5076904296875
1760966176.353821,-0.7099609375,0.01220703125,0.7373046875,-0.6103515625,-2.8076171875,-1.3427734375,-0.384521484375,44.9505615234375,-13.524169921875
1760966176.364272,-0.71484375,-0.005859375,0.73388671875,1.953125,-1.40380859375,-1.89208984375,-0.3790283203125,44.93408203125,-13.546142578125
1760966176.3740969,-0.71484375,-0.005859375,0.73388671875,1.953125,-1.40380859375,-1.89208984375,-0.3790283203125,44.923095703125,-13.5736083984375
1760966176.3839705,-0.69189453125,0.00146484375,0.69580078125,1.0986328125,-0.18310546875,-2.01416015625,-0.384521484375,44.923095703125,-13.5955810546875
1760966176.3941422,-0.69189453125,0.00146484375,0.69580078125,1.0986328125,-0.18310546875,-2.01416015625,-0.3900146484375,44.923095703125,-13.6175537109375
1760966176.404304,-0.68408203125,-0.00439453125,0.74462890625,-4.33349609375,0.732421875,-1.220703125,-0.4449462890625,44.9285888671875,-13.634033203125
1760966176.414169,-0.68408203125,-0.00439453125,0.74462890625,-4.33349609375,0.732421875,-1.220703125,-0.4998779296875,44.93408203125,-13.64501953125
1760966176.4240537,-0.6796875,-0.02001953125,0.78173828125,-6.40869140625,2.25830078125,-0.54931640625,-0.5657958984375,44.9505615234375,-13.64501953125
1760966176.4343743,-0.6796875,-0.02001953125,0.78173828125,-6.40869140625,2.25830078125,-0.54931640625,-0.6317138671875,44.967041015625,-13.64501953125
1760966176.4441547,-0.6787109375,-0.0244140625,0.75146484375,-1.0986328125,3.47900390625,-1.03759765625,-0.6536865234375,44.9945068359375,-13.6505126953125
1760966176.4540029,-0.671875,-0.0107421875,0.7373046875,5.0048828125,4.150390625,-2.13623046875,-0.648193359375,45.02197265625,-13.6614990234375
1760966176.465093,-0.671875,-0.0107421875,0.7373046875,5.0048828125,4.150390625,-2.13623046875,-0.6207275390625,45.054931640625,-13.6834716796875
1760966176.4739883,-0.673828125,0.00830078125,0.74072265625,2.99072265625,4.33349609375,-2.62451171875,-0.604248046875,45.087890625,-13.7054443359375
1760966176.4847176,-0.673828125,0.00830078125,0.74072265625,2.99072265625,4.33349609375,-2.62451171875,-0.604248046875,45.120849609375,-13.73291015625
1760966176.4945917,-0.66943359375,0.01416015625,0.767578125,-3.90625,4.08935546875,-2.8076171875,-0.6317138671875,45.1483154296875,-13.7603759765625
1760966176.5046048,-0.66943359375,0.01416015625,0.767578125,-3.90625,4.08935546875,-2.8076171875,-0.6976318359375,45.17578125,-13.7823486328125
1760966176.5143137,-0.69287109375,-0.0078125,0.74072265625,-3.35693359375,4.2724609375,-3.35693359375,-0.758056640625,45.2032470703125,-13.809814453125
1760966176.5252812,-0.69287109375,-0.0078125,0.74072265625,-3.35693359375,4.2724609375,-3.35693359375,-0.823974609375,45.230712890625,-13.8372802734375
1760966176.5367486,-0.6875,-0.0244140625,0.69921875,3.23486328125,3.84521484375,-3.7841796875,-0.85693359375,45.2581787109375,-13.8702392578125
1760966176.5493586,-0.6875,-0.0244140625,0.69921875,3.23486328125,3.84521484375,-3.7841796875,-0.8624267578125,45.2801513671875,-13.90869140625
1760966176.5573738,-0.68994140625,-0.0234375,0.7294921875,5.4931640625,3.173828125,-3.84521484375,-0.8514404296875,45.3021240234375,-13.95263671875
1760966176.5657222,-0.68994140625,-0.0234375,0.7294921875,5.4931640625,3.173828125,-3.84521484375,-0.8349609375,45.3240966796875,-13.9910888671875
1760966176.5760367,-0.70458984375,-0.02099609375,0.7451171875,6.2255859375,2.62451171875,-3.60107421875,-0.81298828125,45.340576171875,-14.029541015625
1760966176.5841048,-0.70458984375,-0.02099609375,0.7451171875,6.2255859375,2.62451171875,-3.60107421875,-0.791015625,45.3515625,-14.0679931640625
1760966176.594686,-0.7265625,-0.02685546875,0.68310546875,13.85498046875,2.5634765625,-3.23486328125,-0.72509765625,45.362548828125,-14.1009521484375
1760966176.604168,-0.7265625,-0.02685546875,0.68310546875,13.85498046875,2.5634765625,-3.23486328125,-0.6207275390625,45.3790283203125,-14.139404296875
1760966176.6144342,-0.74072265625,-0.033203125,0.66650390625,20.01953125,2.13623046875,-3.5400390625,-0.4888916015625,45.3955078125,-14.1778564453125
1760966176.6245728,-0.74072265625,-0.033203125,0.66650390625,20.01953125,2.13623046875,-3.5400390625,-0.3350830078125,45.406494140625,-14.2218017578125
1760966176.6359987,-0.75634765625,0.0,0.6611328125,15.13671875,2.44140625,-3.47900390625,-0.19775390625,45.428466796875,-14.271240234375
1760966176.644163,-0.75634765625,0.0,0.6611328125,15.13671875,2.44140625,-3.47900390625,-0.0933837890625,45.450439453125,-14.315185546875
1760966176.6552386,-0.75341796875,0.0146484375,0.64794921875,7.8125,2.0751953125,-3.23486328125,-0.0164794921875,45.472412109375,-14.3646240234375
1760966176.6641216,-0.75341796875,0.0146484375,0.64794921875,7.8125,2.0751953125,-3.23486328125,0.0164794921875,45.494384765625,-14.4085693359375
1760966176.6770294,-0.76708984375,0.02099609375,0.66357421875,2.62451171875,1.8310546875,-3.60107421875,0.0274658203125,45.516357421875,-14.4580078125
1760966176.715917,-0.76708984375,0.02099609375,0.66357421875,2.62451171875,1.8310546875,-3.60107421875,0.0164794921875,45.5438232421875,-14.5074462890625
1760966176.7262626,-0.7705078125,0.01220703125,0.646484375,2.50244140625,1.64794921875,-4.0283203125,0.0,45.5657958984375,-14.5623779296875
1760966176.7648659,-0.7705078125,0.01220703125,0.646484375,2.50244140625,1.64794921875,-4.0283203125,-0.010986328125,45.59326171875,-14.622802734375
1760966176.7747195,-0.7685546875,0.0146484375,0.626953125,-2.3193359375,1.46484375,-4.21142578125,-0.0494384765625,45.6207275390625,-14.6832275390625
1760966176.7861795,-0.7685546875,0.0146484375,0.626953125,-2.3193359375,1.46484375,-4.21142578125,-0.1153564453125,45.648193359375,-14.74365234375
1760966176.8019762,-0.77294921875,0.00146484375,0.65283203125,0.3662109375,1.52587890625,-4.57763671875,-0.1702880859375,45.6756591796875,-14.8095703125
1760966176.8091905,-0.77294921875,0.00146484375,0.65283203125,0.3662109375,1.52587890625,-4.57763671875,-0.208740234375,45.703125,-14.8809814453125
1760966176.816785,-0.775390625,-0.021484375,0.642578125,4.82177734375,1.708984375,-4.94384765625,-0.230712890625,45.736083984375,-14.952392578125
1760966176.8262825,-0.775390625,-0.021484375,0.642578125,4.82177734375,1.708984375,-4.94384765625,-0.230712890625,45.76904296875,-15.029296875
1760966176.8350325,-0.7822265625,-0.02001953125,0.61669921875,5.0048828125,2.01416015625,-4.8828125,-0.230712890625,45.8074951171875,-15.106201171875
1760966176.8434272,-0.7822265625,-0.02001953125,0.61669921875,5.0048828125,2.01416015625,-4.8828125,-0.2362060546875,45.845947265625,-15.18310546875
1760966176.8514218,-0.771484375,0.00146484375,0.64501953125,4.69970703125,2.3193359375,-4.7607421875,-0.2362060546875,45.889892578125,-15.260009765625
1760966176.8615463,-0.771484375,0.00146484375,0.64501953125,4.69970703125,2.3193359375,-4.7607421875,-0.2362060546875,45.933837890625,-15.3424072265625
1760966176.870145,-0.755859375,0.0,0.66845703125,6.53076171875,2.685546875,-4.57763671875,-0.230712890625,45.977783203125,-15.413818359375
1760966176.879634,-0.755859375,0.0,0.66845703125,6.53076171875,2.685546875,-4.57763671875,-0.2142333984375,46.021728515625,-15.49072265625
1760966176.8903918,-0.72998046875,-0.0205078125,0.6796875,8.97216796875,2.8076171875,-4.08935546875,-0.1812744140625,46.0711669921875,-15.556640625
1760966176.899445,-0.72998046875,-0.0205078125,0.6796875,8.97216796875,2.8076171875,-4.08935546875,-0.1373291015625,46.1151123046875,-15.62255859375
1760966176.906032,-0.72265625,-0.02099609375,0.70947265625,4.69970703125,2.74658203125,-2.9296875,-0.10986328125,46.1590576171875,-15.677490234375
1760966176.9128807,-0.72265625,-0.02099609375,0.70947265625,4.69970703125,2.74658203125,-2.9296875,-0.0933837890625,46.197509765625,-15.7269287109375
1760966176.9194741,-0.7177734375,0.0048828125,0.705078125,-0.244140625,2.9296875,-2.0751953125,-0.1043701171875,46.241455078125,-15.765380859375
1760966176.927272,-0.7177734375,0.0048828125,0.705078125,-0.244140625,2.9296875,-2.0751953125,-0.1318359375,46.2799072265625,-15.79833984375
1760966176.9346962,-0.720703125,0.00537109375,0.69873046875,-1.220703125,3.0517578125,-1.8310546875,-0.1593017578125,46.318359375,-15.8258056640625
1760966176.9482625,-0.720703125,0.00537109375,0.69873046875,-1.220703125,3.0517578125,-1.8310546875,-0.1922607421875,46.351318359375,-15.8477783203125
1760966176.9555142,-0.728515625,-0.00830078125,0.697265625,-0.79345703125,3.23486328125,-1.77001953125,-0.2252197265625,46.3897705078125,-15.875244140625
1760966176.9683836,-0.728515625,-0.00830078125,0.697265625,-0.79345703125,3.23486328125,-1.77001953125,-0.252685546875,46.42822265625,-15.897216796875
1760966176.9755232,-0.72998046875,-0.01416015625,0.68505859375,0.244140625,3.23486328125,-1.64794921875,-0.274658203125,46.4666748046875,-15.919189453125
1760966176.9834263,-0.72998046875,-0.01416015625,0.68505859375,0.244140625,3.23486328125,-1.64794921875,-0.2911376953125,46.4996337890625,-15.941162109375
1760966176.992005,-0.73486328125,-0.00244140625,0.68701171875,-0.91552734375,3.173828125,-1.52587890625,-0.3131103515625,46.5380859375,-15.963134765625
1760966176.9993446,-0.73486328125,-0.00244140625,0.68701171875,-0.91552734375,3.173828125,-1.52587890625,-0.3350830078125,46.571044921875,-15.9796142578125
1760966177.0103927,-0.7275390625,0.0,0.67919921875,-3.72314453125,2.74658203125,-1.15966796875,-0.37353515625,46.60400390625,-15.99609375
1760966177.0239975,-0.7275390625,0.0,0.67919921875,-3.72314453125,2.74658203125,-1.15966796875,-0.428466796875,46.6314697265625,-16.007080078125
1760966177.0328593,-0.72802734375,-0.0009765625,0.6875,-6.65283203125,2.3193359375,-1.03759765625,-0.4888916015625,46.658935546875,-16.01806640625
1760966177.042437,-0.72802734375,-0.0009765625,0.6875,-6.65283203125,2.3193359375,-1.03759765625,-0.5657958984375,46.6864013671875,-16.029052734375
1760966177.0522966,-0.73095703125,-0.01123046875,0.69677734375,-8.23974609375,2.25830078125,-1.03759765625,-0.648193359375,46.7083740234375,-16.0345458984375
1760966177.059288,-0.73095703125,-0.01123046875,0.69677734375,-8.23974609375,2.25830078125,-1.03759765625,-0.7415771484375,46.73583984375,-16.0455322265625
1760966177.0684752,-0.73095703125,-0.01611328125,0.68017578125,-7.50732421875,2.197265625,-1.15966796875,-0.8294677734375,46.7578125,-16.051025390625
1760966177.077202,-0.73095703125,-0.01611328125,0.68017578125,-7.50732421875,2.197265625,-1.15966796875,-0.9173583984375,46.77978515625,-16.06201171875
1760966177.0857234,-0.740234375,-0.015625,0.66943359375,-3.84521484375,1.708984375,-1.708984375,-0.98876953125,46.7962646484375,-16.072998046875
1760966177.0964112,-0.740234375,-0.015625,0.66943359375,-3.84521484375,1.708984375,-1.708984375,-1.043701171875,46.8182373046875,-16.0894775390625
1760966177.1097915,-0.7314453125,-0.015625,0.66796875,-4.08935546875,1.28173828125,-1.64794921875,-1.0986328125,46.834716796875,-16.1114501953125
1760966177.119496,-0.7314453125,-0.015625,0.66796875,-4.08935546875,1.28173828125,-1.64794921875,-1.153564453125,46.845703125,-16.1279296875
1760966177.129635,-0.72412109375,-0.01513671875,0.69677734375,-3.96728515625,1.03759765625,-1.40380859375,-1.20849609375,46.8621826171875,-16.1444091796875
1760966177.1420646,-0.72412109375,-0.01513671875,0.69677734375,-3.96728515625,1.03759765625,-1.40380859375,-1.263427734375,46.8731689453125,-16.1553955078125
1760966177.1538777,-0.72607421875,-0.0224609375,0.71240234375,-3.47900390625,1.15966796875,-1.46484375,-1.3128662109375,46.8841552734375,-16.1663818359375
1760966177.1669881,-0.72607421875,-0.0224609375,0.71240234375,-3.47900390625,1.15966796875,-1.46484375,-1.3623046875,46.8951416015625,-16.1773681640625
1760966177.1880114,-0.72509765625,-0.0166015625,0.6923828125,0.18310546875,1.46484375,-1.953125,-1.395263671875,46.9061279296875,-16.19384765625
1760966177.1997402,-0.72509765625,-0.0166015625,0.6923828125,0.18310546875,1.46484375,-1.953125,-1.4117431640625,46.9171142578125,-16.2103271484375
1760966177.2074304,-0.72216796875,-0.01025390625,0.65869140625,3.72314453125,1.28173828125,-2.685546875,-1.417236328125,46.9281005859375,-16.23779296875
1760966177.2160275,-0.72216796875,-0.01025390625,0.65869140625,3.72314453125,1.28173828125,-2.685546875,-1.40625,46.9390869140625,-16.2652587890625
1760966177.23135,-0.7275390625,-0.0166015625,0.67919921875,2.0751953125,0.30517578125,-3.0517578125,-1.40625,46.944580078125,-16.2982177734375
1760966177.240702,-0.7275390625,-0.0166015625,0.67919921875,2.0751953125,0.30517578125,-3.0517578125,-1.417236328125,46.9500732421875,-16.3311767578125
1760966177.2506921,-0.7333984375,-0.0078125,0.716796875,-1.28173828125,-0.3662109375,-3.173828125,-1.4447021484375,46.944580078125,-16.36962890625
1760966177.2713714,-0.7333984375,-0.0078125,0.716796875,-1.28173828125,-0.3662109375,-3.173828125,-1.4886474609375,46.9390869140625,-16.402587890625
1760966177.281702,-0.7236328125,-0.015625,0.68798828125,-1.953125,-0.732421875,-3.41796875,-1.5380859375,46.93359375,-16.4410400390625
1760966177.289979,-0.7236328125,-0.015625,0.68798828125,-1.953125,-0.732421875,-3.41796875,-1.593017578125,46.922607421875,-16.4739990234375
1760966177.311169,-0.71923828125,-0.02587890625,0.69091796875,0.8544921875,-0.8544921875,-3.96728515625,-1.6314697265625,46.91162109375,-16.5179443359375
1760966177.3253875,-0.71923828125,-0.02587890625,0.69091796875,0.8544921875,-0.8544921875,-3.96728515625,-1.6644287109375,46.900634765625,-16.5618896484375
1760966177.3349679,-0.72021484375,-0.02880859375,0.70361328125,2.0751953125,-0.79345703125,-4.150390625,-1.69189453125,46.8841552734375,-16.611328125
1760966177.3512743,-0.72021484375,-0.02880859375,0.70361328125,2.0751953125,-0.79345703125,-4.150390625,-1.7083740234375,46.8731689453125,-16.6552734375
1760966177.357891,-0.71630859375,-0.021484375,0.70556640625,2.25830078125,-0.732421875,-4.0283203125,-1.7303466796875,46.8621826171875,-16.7047119140625
1760966177.3669345,-0.71630859375,-0.021484375,0.70556640625,2.25830078125,-0.732421875,-4.0283203125,-1.7523193359375,46.8511962890625,-16.7486572265625
1760966177.3741896,-0.7197265625,-0.021484375,0.70458984375,1.28173828125,-0.6103515625,-3.84521484375,-1.7742919921875,46.8402099609375,-16.7926025390625
1760966177.3938143,-0.7197265625,-0.021484375,0.70458984375,1.28173828125,-0.6103515625,-3.84521484375,-1.8017578125,46.82373046875,-16.8365478515625
1760966177.4014096,-0.72705078125,-0.02392578125,0.68603515625,0.42724609375,-0.732421875,-3.72314453125,-1.8292236328125,46.812744140625,-16.875
1760966177.414042,-0.72705078125,-0.02392578125,0.68603515625,0.42724609375,-0.732421875,-3.72314453125,-1.8621826171875,46.8017578125,-16.9189453125
1760966177.4349124,-0.7333984375,-0.0322265625,0.68701171875,1.8310546875,-0.8544921875,-3.72314453125,-1.8896484375,46.790771484375,-16.9573974609375
1760966177.4446454,-0.7333984375,-0.0322265625,0.68701171875,1.8310546875,-0.8544921875,-3.72314453125,-1.91162109375,46.7742919921875,-17.0013427734375
1760966177.4556205,-0.7294921875,-0.0361328125,0.67919921875,3.90625,-0.8544921875,-3.60107421875,-1.9171142578125,46.7633056640625,-17.039794921875
1760966177.4739776,-0.7294921875,-0.0361328125,0.67919921875,3.90625,-0.8544921875,-3.60107421875,-1.9171142578125,46.7523193359375,-17.083740234375
1760966177.4840043,-0.724609375,-0.0322265625,0.6787109375,4.69970703125,-1.03759765625,-3.60107421875,-1.91162109375,46.73583984375,-17.1221923828125
1760966177.498264,-0.724609375,-0.0322265625,0.6787109375,4.69970703125,-1.03759765625,-3.60107421875,-1.9061279296875,46.724853515625,-17.1661376953125
1760966177.5063853,-0.7275390625,-0.03173828125,0.701171875,5.7373046875,-1.0986328125,-3.662109375,-1.8951416015625,46.7138671875,-17.2100830078125
1760966177.515367,-0.7275390625,-0.03173828125,0.701171875,5.7373046875,-1.0986328125,-3.662109375,-1.878662109375,46.6973876953125,-17.2540283203125
1760966177.5240352,-0.72998046875,-0.017578125,0.68505859375,8.97216796875,-1.3427734375,-3.84521484375,-1.845703125,46.680908203125,-17.303466796875
1760966177.541627,-0.72998046875,-0.017578125,0.68505859375,8.97216796875,-1.3427734375,-3.84521484375,-1.7962646484375,46.669921875,-17.347412109375
1760966177.5492687,-0.72998046875,-0.017578125,0.68505859375,8.056640625,-1.5869140625,-3.84521484375,-1.7578125,46.64794921875,-17.3968505859375
1760966177.5595374,-0.73828125,-0.021484375,0.677734375,8.056640625,-1.5869140625,-3.84521484375,-1.7193603515625,46.6314697265625,-17.4462890625
1760966177.569906,-0.73779296875,-0.02197265625,0.6826171875,5.615234375,-1.77001953125,-3.72314453125,-1.69189453125,46.614990234375,-17.490234375
1760966177.5903103,-0.73779296875,-0.02197265625,0.6826171875,5.615234375,-1.77001953125,-3.72314453125,-1.6754150390625,46.5985107421875,-17.5396728515625
1760966177.6042905,-0.75048828125,-0.02587890625,0.66357421875,5.615234375,-1.77001953125,-3.60107421875,-1.658935546875,46.58203125,-17.5836181640625
1760966177.6295412,-0.75048828125,-0.02587890625,0.66357421875,5.615234375,-1.77001953125,-3.60107421875,-1.6424560546875,46.5655517578125,-17.6275634765625
1760966177.6458364,-0.7490234375,-0.02783203125,0.66650390625,5.92041015625,-1.46484375,-3.5400390625,-1.6204833984375,46.5545654296875,-17.6715087890625
1760966177.6528146,-0.7490234375,-0.02783203125,0.66650390625,5.92041015625,-1.46484375,-3.5400390625,-1.60400390625,46.5435791015625,-17.720947265625
1760966177.667647,-0.74462890625,-0.0205078125,0.671875,6.4697265625,-1.15966796875,-3.41796875,-1.5765380859375,46.5325927734375,-17.764892578125
1760966177.6841521,-0.74462890625,-0.0205078125,0.671875,6.4697265625,-1.15966796875,-3.41796875,-1.5545654296875,46.527099609375,-17.808837890625
1760966177.7167847,-0.74365234375,-0.025390625,0.68212890625,5.43212890625,-0.91552734375,-3.173828125,-1.5325927734375,46.5216064453125,-17.852783203125
1760966177.7279713,-0.74365234375,-0.025390625,0.68212890625,5.43212890625,-0.91552734375,-3.173828125,-1.51611328125,46.51611328125,-17.896728515625
1760966177.7385802,-0.73974609375,-0.01904296875,0.68017578125,4.8828125,-1.03759765625,-2.9296875,-1.4996337890625,46.5106201171875,-17.9351806640625
1760966177.7557805,-0.73974609375,-0.01904296875,0.68017578125,4.8828125,-1.03759765625,-2.9296875,-1.4886474609375,46.505126953125,-17.9791259765625
1760966177.7639115,-0.75244140625,-0.0244140625,0.66357421875,3.41796875,-1.03759765625,-2.685546875,-1.483154296875,46.4996337890625,-18.0120849609375
1760966177.7710483,-0.75244140625,-0.0244140625,0.66357421875,3.41796875,-1.03759765625,-2.685546875,-1.4776611328125,46.494140625,-18.050537109375
1760966177.7797937,-0.75146484375,-0.02685546875,0.66748046875,2.38037109375,-1.0986328125,-2.38037109375,-1.483154296875,46.494140625,-18.08349609375
1760966177.7933438,-0.75146484375,-0.02685546875,0.66748046875,2.38037109375,-1.0986328125,-2.38037109375,-1.4886474609375,46.4886474609375,-18.116455078125
1760966177.8011525,-0.76123046875,-0.02294921875,0.65234375,2.5634765625,-0.79345703125,-2.13623046875,-1.4886474609375,46.4886474609375,-18.1494140625
1760966177.8115954,-0.76123046875,-0.02294921875,0.65234375,2.5634765625,-0.79345703125,-2.13623046875,-1.4886474609375,46.4886474609375,-18.182373046875
1760966177.8323686,-0.77099609375,-0.01904296875,0.64697265625,0.18310546875,-0.6103515625,-1.5869140625,-1.505126953125,46.494140625,-18.204345703125
1760966177.840368,-0.77099609375,-0.01904296875,0.64697265625,0.18310546875,-0.6103515625,-1.5869140625,-1.5216064453125,46.4996337890625,-18.2318115234375
1760966177.850703,-0.775390625,-0.0146484375,0.634765625,-0.42724609375,-0.42724609375,-1.40380859375,-1.5435791015625,46.505126953125,-18.2537841796875
1760966177.8578076,-0.775390625,-0.0146484375,0.634765625,-0.42724609375,-0.42724609375,-1.40380859375,-1.5655517578125,46.51611328125,-18.28125
1760966177.8683228,-0.76171875,-0.02392578125,0.64013671875,0.3662109375,-0.48828125,-1.46484375,-1.5765380859375,46.5216064453125,-18.30322265625
1760966177.8835733,-0.76171875,-0.02392578125,0.64013671875,0.3662109375,-0.48828125,-1.46484375,-1.593017578125,46.5325927734375,-18.3306884765625
1760966177.8930225,-0.7451171875,-0.02490234375,0.67431640625,0.06103515625,-0.54931640625,-1.52587890625,-1.6094970703125,46.5435791015625,-18.3526611328125
1760966177.9000452,-0.7451171875,-0.02490234375,0.67431640625,0.06103515625,-0.54931640625,-1.52587890625,-1.6259765625,46.549072265625,-18.380126953125
1760966177.9165087,-0.73486328125,-0.02197265625,0.6845703125,0.1220703125,-0.42724609375,-1.5869140625,-1.6424560546875,46.56005859375,-18.402099609375
1760966177.926058,-0.73486328125,-0.02197265625,0.6845703125,0.1220703125,-0.42724609375,-1.5869140625,-1.658935546875,46.5655517578125,-18.4295654296875
1760966177.933841,-0.73193359375,-0.017578125,0.68896484375,-0.3662109375,-0.244140625,-1.5869140625,-1.680908203125,46.571044921875,-18.4515380859375
1760966177.9424353,-0.73193359375,-0.017578125,0.68896484375,-0.3662109375,-0.244140625,-1.5869140625,-1.702880859375,46.5765380859375,-18.4735107421875
1760966177.96154,-0.7314453125,-0.01953125,0.69384765625,-0.79345703125,-0.18310546875,-1.64794921875,-1.7303466796875,46.5875244140625,-18.4954833984375
1760966177.9768379,-0.7314453125,-0.01953125,0.69384765625,-0.79345703125,-0.18310546875,-1.64794921875,-1.7523193359375,46.593017578125,-18.5174560546875
1760966177.9905481,-0.72998046875,-0.03076171875,0.68408203125,-0.42724609375,-0.244140625,-1.708984375,-1.77978515625,46.593017578125,-18.544921875
1760966177.9984183,-0.72998046875,-0.03076171875,0.68408203125,-0.42724609375,-0.244140625,-1.708984375,-1.8017578125,46.5985107421875,-18.56689453125
1760966178.005789,-0.7294921875,-0.02685546875,0.6748046875,0.79345703125,-0.3662109375,-1.8310546875,-1.812744140625,46.5985107421875,-18.5888671875
1760966178.0133977,-0.7294921875,-0.02685546875,0.6748046875,0.79345703125,-0.3662109375,-1.8310546875,-1.82373046875,46.60400390625,-18.61083984375
1760966178.0221565,-0.7265625,-0.0283203125,0.69482421875,0.42724609375,-0.244140625,-2.01416015625,-1.845703125,46.60400390625,-18.6383056640625
1760966178.0366259,-0.7265625,-0.0283203125,0.69482421875,0.42724609375,-0.244140625,-2.01416015625,-1.8621826171875,46.60400390625,-18.665771484375
1760966178.044634,-0.72265625,-0.02099609375,0.7138671875,0.8544921875,-0.18310546875,-1.8310546875,-1.8731689453125,46.6094970703125,-18.687744140625
1760966178.0519772,-0.72265625,-0.02099609375,0.7138671875,0.8544921875,-0.18310546875,-1.8310546875,-1.8841552734375,46.60400390625,-18.709716796875
1760966178.0623193,-0.72265625,-0.02001953125,0.68896484375,0.54931640625,-0.30517578125,-1.64794921875,-1.8951416015625,46.60400390625,-18.7261962890625
1760966178.077646,-0.72265625,-0.02001953125,0.68896484375,0.54931640625,-0.30517578125,-1.64794921875,-1.91162109375,46.60400390625,-18.74267578125
1760966178.08808,-0.7333984375,-0.02490234375,0.68603515625,-1.46484375,-0.48828125,-1.46484375,-1.9390869140625,46.5985107421875,-18.7591552734375
1760966178.095475,-0.7333984375,-0.02490234375,0.68603515625,-1.46484375,-0.48828125,-1.46484375,-1.966552734375,46.593017578125,-18.775634765625
1760966178.1036289,-0.74365234375,-0.02685546875,0.6748046875,-1.953125,-0.3662109375,-1.52587890625,-2.0050048828125,46.593017578125,-18.7921142578125
1760966178.1181548,-0.74365234375,-0.02685546875,0.6748046875,-1.953125,-0.3662109375,-1.52587890625,-2.0379638671875,46.593017578125,-18.80859375
1760966178.1258645,-0.74658203125,-0.02490234375,0.66796875,-1.3427734375,-0.30517578125,-1.64794921875,-2.0709228515625,46.593017578125,-18.8250732421875
1760966178.1355276,-0.74658203125,-0.02490234375,0.66796875,-1.3427734375,-0.30517578125,-1.64794921875,-2.098388671875,46.593017578125,-18.841552734375
1760966178.1421857,-0.74658203125,-0.02978515625,0.67333984375,-0.79345703125,-0.18310546875,-1.77001953125,-2.1258544921875,46.593017578125,-18.863525390625
1760966178.1508849,-0.74658203125,-0.02978515625,0.67333984375,-0.79345703125,-0.18310546875,-1.77001953125,-2.1533203125,46.593017578125,-18.885498046875
1760966178.1657743,-0.7373046875,-0.0341796875,0.6640625,0.54931640625,-0.42724609375,-1.77001953125,-2.164306640625,46.593017578125,-18.907470703125
1760966178.1731107,-0.7373046875,-0.0341796875,0.6640625,0.54931640625,-0.42724609375,-1.77001953125,-2.1807861328125,46.593017578125,-18.929443359375
1760966178.182901,-0.732421875,-0.04296875,0.68408203125,1.220703125,-0.48828125,-1.52587890625,-2.186279296875,46.593017578125,-18.9459228515625
1760966178.1902657,-0.732421875,-0.04296875,0.68408203125,1.220703125,-0.48828125,-1.52587890625,-2.1917724609375,46.593017578125,-18.9678955078125
1760966178.1991227,-0.72412109375,-0.03564453125,0.70751953125,2.01416015625,-0.3662109375,-1.220703125,-2.186279296875,46.593017578125,-18.9788818359375
1760966178.218338,-0.72412109375,-0.03564453125,0.70751953125,2.01416015625,-0.3662109375,-1.220703125,-2.1807861328125,46.593017578125,-18.995361328125
1760966178.2291505,-0.72265625,-0.02685546875,0.6943359375,2.62451171875,-0.42724609375,-1.220703125,-2.1697998046875,46.5875244140625,-19.00634765625
1760966178.2400467,-0.72265625,-0.02685546875,0.6943359375,2.62451171875,-0.42724609375,-1.220703125,-2.1588134765625,46.5875244140625,-19.0228271484375
1760966178.2579298,-0.72705078125,-0.0166015625,0.68603515625,1.220703125,-0.42724609375,-1.28173828125,-2.1588134765625,46.58203125,-19.0338134765625
1760966178.2657633,-0.72705078125,-0.0166015625,0.68603515625,1.220703125,-0.42724609375,-1.28173828125,-2.164306640625,46.58203125,-19.0447998046875
1760966178.272413,-0.73046875,-0.02734375,0.69482421875,1.46484375,-0.30517578125,-1.40380859375,-2.164306640625,46.5765380859375,-19.0557861328125
1760966178.2800438,-0.73046875,-0.02734375,0.69482421875,1.46484375,-0.30517578125,-1.40380859375,-2.164306640625,46.5765380859375,-19.072265625
1760966178.2867408,-0.72900390625,-0.03466796875,0.685546875,1.708984375,-0.3662109375,-1.40380859375,-2.164306640625,46.571044921875,-19.083251953125
1760966178.3013406,-0.72900390625,-0.03466796875,0.685546875,1.708984375,-0.3662109375,-1.40380859375,-2.164306640625,46.571044921875,-19.0997314453125
1760966178.3084114,-0.7265625,-0.025390625,0.68115234375,2.25830078125,-0.67138671875,-1.52587890625,-2.1588134765625,46.5655517578125,-19.1107177734375
1760966178.3153956,-0.7265625,-0.025390625,0.68115234375,2.25830078125,-0.67138671875,-1.52587890625,-2.1533203125,46.5545654296875,-19.127197265625
1760966178.3226867,-0.72705078125,-0.02734375,0.6953125,2.38037109375,-0.79345703125,-1.5869140625,-2.1478271484375,46.549072265625,-19.1436767578125
1760966178.3378925,-0.72705078125,-0.02734375,0.6953125,2.38037109375,-0.79345703125,-1.5869140625,-2.142333984375,46.5435791015625,-19.16015625
1760966178.3450565,-0.72998046875,-0.0322265625,0.69287109375,2.01416015625,-0.79345703125,-1.52587890625,-2.1368408203125,46.5325927734375,-19.1766357421875
1760966178.3532717,-0.72998046875,-0.0322265625,0.69287109375,2.01416015625,-0.79345703125,-1.52587890625,-2.13134765625,46.527099609375,-19.1876220703125
1760966178.3604002,-0.7333984375,-0.02978515625,0.681640625,2.50244140625,-0.79345703125,-1.40380859375,-2.1258544921875,46.51611328125,-19.2041015625
1760966178.366849,-0.7333984375,-0.02978515625,0.681640625,2.50244140625,-0.79345703125,-1.40380859375,-2.1148681640625,46.5106201171875,-19.215087890625
1760966178.381706,-0.73583984375,-0.0283203125,0.673828125,2.99072265625,-0.79345703125,-1.46484375,-2.1038818359375,46.505126953125,-19.2315673828125
1760966178.3888896,-0.73583984375,-0.0283203125,0.673828125,2.99072265625,-0.79345703125,-1.46484375,-2.0928955078125,46.4996337890625,-19.248046875
1760966178.3957152,-0.72998046875,-0.02978515625,0.6904296875,2.50244140625,-0.732421875,-1.40380859375,-2.0819091796875,46.494140625,-19.2645263671875
1760966178.4032683,-0.72998046875,-0.02978515625,0.6904296875,2.50244140625,-0.732421875,-1.40380859375,-2.076416015625,46.483154296875,-19.281005859375
1760966178.41132,-0.72900390625,-0.03271484375,0.701171875,2.0751953125,-0.48828125,-1.220703125,-2.0654296875,46.483154296875,-19.2919921875
1760966178.4266608,-0.72900390625,-0.03271484375,0.701171875,2.0751953125,-0.48828125,-1.220703125,-2.0599365234375,46.4776611328125,-19.3084716796875
1760966178.4340837,-0.728515625,-0.0283203125,0.68994140625,1.46484375,-0.48828125,-1.0986328125,-2.0599365234375,46.47216796875,-19.3194580078125
1760966178.4405937,-0.728515625,-0.0283203125,0.68994140625,1.46484375,-0.48828125,-1.0986328125,-2.0599365234375,46.47216796875,-19.3304443359375
1760966178.4470944,-0.734375,-0.02294921875,0.67724609375,1.77001953125,-0.48828125,-0.91552734375,-2.054443359375,46.4666748046875,-19.3359375
1760966178.4653563,-0.734375,-0.02294921875,0.67724609375,1.77001953125,-0.48828125,-0.91552734375,-2.0489501953125,46.461181640625,-19.346923828125
1760966178.4717777,-0.73681640625,-0.02685546875,0.67919921875,2.62451171875,-0.48828125,-0.91552734375,-2.032470703125,46.461181640625,-19.3524169921875
1760966178.4790807,-0.73681640625,-0.02685546875,0.67919921875,2.62451171875,-0.48828125,-0.91552734375,-2.0159912109375,46.4556884765625,-19.3634033203125
1760966178.4866903,-0.73291015625,-0.02734375,0.6826171875,2.25830078125,-0.48828125,-0.9765625,-2.0050048828125,46.4556884765625,-19.3743896484375
1760966178.4946668,-0.73291015625,-0.02734375,0.6826171875,2.25830078125,-0.48828125,-0.9765625,-1.99951171875,46.4501953125,-19.3853759765625
1760966178.5151868,-0.73486328125,-0.02197265625,0.68359375,1.40380859375,-0.6103515625,-1.03759765625,-1.9940185546875,46.4447021484375,-19.3963623046875
1760966178.5230126,-0.73486328125,-0.02197265625,0.68359375,1.40380859375,-0.6103515625,-1.03759765625,-1.9940185546875,46.4447021484375,-19.4073486328125
1760966178.529599,-0.7373046875,-0.02001953125,0.67626953125,0.732421875,-0.732421875,-1.03759765625,-1.99951171875,46.439208984375,-19.4183349609375
1760966178.5365856,-0.7373046875,-0.02001953125,0.67626953125,0.732421875,-0.732421875,-1.03759765625,-2.0050048828125,46.4337158203125,-19.4293212890625
1760966178.550515,-0.73388671875,-0.03125,0.68505859375,0.244140625,-0.67138671875,-0.9765625,-2.010498046875,46.4337158203125,-19.4403076171875
1760966178.5584996,-0.73388671875,-0.03125,0.68505859375,0.244140625,-0.67138671875,-0.9765625,-2.021484375,46.42822265625,-19.4512939453125
1760966178.5668128,-0.72802734375,-0.0341796875,0.68701171875,0.6103515625,-0.6103515625,-0.8544921875,-2.021484375,46.4227294921875,-19.456787109375
1760966178.5740232,-0.72802734375,-0.0341796875,0.68701171875,0.6103515625,-0.6103515625,-0.8544921875,-2.0269775390625,46.4227294921875,-19.4677734375
1760966178.5805519,-0.72705078125,-0.0283203125,0.6904296875,1.03759765625,-0.67138671875,-0.8544921875,-2.0269775390625,46.417236328125,-19.4732666015625
1760966178.5943553,-0.72705078125,-0.0283203125,0.6904296875,1.03759765625,-0.67138671875,-0.8544921875,-2.0269775390625,46.4117431640625,-19.4842529296875
1760966178.6016138,-0.7255859375,-0.02392578125,0.6953125,0.54931640625,-0.67138671875,-0.8544921875,-2.032470703125,46.40625,-19.48974609375
1760966178.6082954,-0.7255859375,-0.02392578125,0.6953125,0.54931640625,-0.67138671875,-0.8544921875,-2.0379638671875,46.4007568359375,-19.500732421875
1760966178.6144063,-0.72412109375,-0.02587890625,0.69140625,0.48828125,-0.8544921875,-0.79345703125,-2.04345703125,46.395263671875,-19.5062255859375
1760966178.6210463,-0.72509765625,-0.025390625,0.68603515625,0.67138671875,-1.0986328125,-0.732421875,-2.0489501953125,46.3897705078125,-19.51171875
1760966178.6279998,-0.72509765625,-0.025390625,0.68603515625,0.67138671875,-1.0986328125,-0.732421875,-2.0489501953125,46.3787841796875,-19.5172119140625
1760966178.635805,-0.71826171875,-0.03271484375,0.70361328125,0.9765625,-1.3427734375,-0.6103515625,-2.0489501953125,46.3677978515625,-19.5172119140625
1760966178.6426826,-0.71826171875,-0.03271484375,0.70361328125,0.9765625,-1.3427734375,-0.6103515625,-2.04345703125,46.3568115234375,-19.522705078125
1760966178.649202,-0.71728515625,-0.0283203125,0.701171875,0.0,-1.220703125,-0.6103515625,-2.0489501953125,46.34033203125,-19.522705078125
1760966178.6557064,-0.71728515625,-0.0283203125,0.701171875,0.0,-1.220703125,-0.6103515625,-2.054443359375,46.329345703125,-19.522705078125
1760966178.663862,-0.7197265625,-0.017578125,0.7080078125,-0.18310546875,-1.15966796875,-0.67138671875,-2.0654296875,46.318359375,-19.5281982421875
1760966178.6713738,-0.7197265625,-0.017578125,0.7080078125,-0.18310546875,-1.15966796875,-0.67138671875,-2.0709228515625,46.3018798828125,-19.5281982421875
1760966178.6793764,-0.71923828125,-0.0224609375,0.697265625,-1.28173828125,-1.0986328125,-0.67138671875,-2.08740234375,46.2908935546875,-19.5281982421875
1760966178.6861444,-0.71923828125,-0.0224609375,0.697265625,-1.28173828125,-1.0986328125,-0.67138671875,-2.1038818359375,46.2799072265625,-19.53369140625
1760966178.6933525,-0.71728515625,-0.0302734375,0.70458984375,-0.67138671875,-1.220703125,-0.79345703125,-2.1258544921875,46.2689208984375,-19.53369140625
1760966178.7019386,-0.71728515625,-0.0302734375,0.70458984375,-0.67138671875,-1.220703125,-0.79345703125,-2.1368408203125,46.25244140625,-19.5391845703125
1760966178.7194629,-0.71923828125,-0.033203125,0.6943359375,-0.1220703125,-1.220703125,-0.91552734375,-2.1478271484375,46.2359619140625,-19.544677734375
1760966178.7411067,-0.71923828125,-0.033203125,0.6943359375,-0.1220703125,-1.220703125,-0.91552734375,-2.1588134765625,46.2249755859375,-19.5501708984375
1760966178.7493553,-0.7177734375,-0.0263671875,0.70166015625,0.67138671875,-1.40380859375,-0.9765625,-2.1697998046875,46.20849609375,-19.5556640625
1760966178.7746754,-0.7177734375,-0.0263671875,0.70166015625,0.67138671875,-1.40380859375,-0.9765625,-2.1697998046875,46.1920166015625,-19.5611572265625
1760966178.7825253,-0.728515625,-0.03173828125,0.689453125,0.732421875,-1.28173828125,-0.91552734375,-2.17529296875,46.175537109375,-19.5611572265625
1760966178.7909572,-0.728515625,-0.03173828125,0.689453125,0.732421875,-1.28173828125,-0.91552734375,-2.17529296875,46.16455078125,-19.566650390625
1760966178.7974575,-0.72607421875,-0.025390625,0.68896484375,0.0,-1.40380859375,-0.91552734375,-2.1807861328125,46.1480712890625,-19.5721435546875
1760966178.8042347,-0.72607421875,-0.025390625,0.68896484375,0.0,-1.40380859375,-0.91552734375,-2.1917724609375,46.1370849609375,-19.57763671875
1760966178.8167892,-0.73486328125,-0.025390625,0.68701171875,-0.06103515625,-1.28173828125,-0.8544921875,-2.2027587890625,46.12060546875,-19.5831298828125
1760966178.8235743,-0.73486328125,-0.025390625,0.68701171875,-0.06103515625,-1.28173828125,-0.8544921875,-2.208251953125,46.109619140625,-19.588623046875
1760966178.8304315,-0.73291015625,-0.02783203125,0.67822265625,-0.54931640625,-1.28173828125,-0.732421875,-2.21923828125,46.0986328125,-19.5941162109375
1760966178.8369203,-0.73291015625,-0.02783203125,0.67822265625,-0.54931640625,-1.28173828125,-0.732421875,-2.2357177734375,46.087646484375,-19.599609375
1760966178.8433752,-0.73486328125,-0.03662109375,0.681640625,0.48828125,-1.15966796875,-0.54931640625,-2.2412109375,46.07666015625,-19.599609375
1760966178.8497725,-0.73486328125,-0.03662109375,0.681640625,0.48828125,-1.15966796875,-0.54931640625,-2.2412109375,46.065673828125,-19.6051025390625
1760966178.8625872,-0.7265625,-0.04052734375,0.6875,1.28173828125,-1.220703125,-0.48828125,-2.2412109375,46.0546875,-19.610595703125
1760966178.8691635,-0.7265625,-0.04052734375,0.6875,1.28173828125,-1.220703125,-0.48828125,-2.2357177734375,46.0491943359375,-19.610595703125
1760966178.8753352,-0.73095703125,-0.03662109375,0.68310546875,2.25830078125,-1.03759765625,-0.48828125,-2.2247314453125,46.0382080078125,-19.6160888671875
1760966178.8818133,-0.73095703125,-0.03662109375,0.68310546875,2.25830078125,-1.03759765625,-0.48828125,-2.208251953125,46.03271484375,-19.62158203125
1760966178.888372,-0.72412109375,-0.025390625,0.70068359375,2.62451171875,-1.03759765625,-0.48828125,-2.1917724609375,46.0272216796875,-19.6270751953125
1760966178.8957303,-0.72412109375,-0.025390625,0.70068359375,2.62451171875,-1.03759765625,-0.48828125,-2.1697998046875,46.0162353515625,-19.632568359375
1760966178.9075556,-0.7265625,-0.02099609375,0.69189453125,0.79345703125,-0.9765625,-0.30517578125,-2.1588134765625,46.0107421875,-19.632568359375
1760966178.914185,-0.7265625,-0.02099609375,0.69189453125,0.79345703125,-0.9765625,-0.30517578125,-2.1588134765625,46.0052490234375,-19.632568359375
1760966178.9202821,-0.72509765625,-0.0205078125,0.6923828125,0.0,-1.03759765625,-0.30517578125,-2.1588134765625,45.9942626953125,-19.6380615234375
1760966178.926477,-0.72509765625,-0.0205078125,0.6923828125,0.0,-1.03759765625,-0.30517578125,-2.1588134765625,45.98876953125,-19.6380615234375
1760966178.940119,-0.72607421875,-0.03662109375,0.69482421875,0.6103515625,-1.15966796875,-0.42724609375,-2.164306640625,45.977783203125,-19.6380615234375
1760966178.9465945,-0.72607421875,-0.03662109375,0.69482421875,0.6103515625,-1.15966796875,-0.42724609375,-2.1588134765625,45.9722900390625,-19.6435546875
1760966178.9527638,-0.72607421875,-0.03466796875,0.68701171875,0.3662109375,-1.0986328125,-0.42724609375,-2.164306640625,45.9613037109375,-19.6435546875
1760966178.9589858,-0.72607421875,-0.03466796875,0.68701171875,0.3662109375,-1.0986328125,-0.42724609375,-2.164306640625,45.9503173828125,-19.6490478515625
1760966178.9730463,-0.72265625,-0.03076171875,0.69384765625,0.732421875,-0.9765625,-0.42724609375,-2.164306640625,45.94482421875,-19.654541015625
1760966178.9805737,-0.72265625,-0.03076171875,0.69384765625,0.732421875,-0.9765625,-0.42724609375,-2.164306640625,45.9393310546875,-19.654541015625
1760966178.9870262,-0.72021484375,-0.02490234375,0.69775390625,0.54931640625,-0.91552734375,-0.3662109375,-2.164306640625,45.9283447265625,-19.6600341796875
1760966178.993191,-0.72021484375,-0.02490234375,0.69775390625,0.54931640625,-0.91552734375,-0.3662109375,-2.164306640625,45.9228515625,-19.6600341796875
1760966179.0075002,-0.71728515625,-0.02001953125,0.70556640625,0.1220703125,-1.0986328125,-0.6103515625,-2.164306640625,45.9173583984375,-19.66552734375
1760966179.0147216,-0.71728515625,-0.02001953125,0.70556640625,0.1220703125,-1.0986328125,-0.6103515625,-2.1697998046875,45.9063720703125,-19.6710205078125
1760966179.0213745,-0.71484375,-0.021484375,0.6982421875,0.0,-1.15966796875,-0.8544921875,-2.17529296875,45.8953857421875,-19.676513671875
1760966179.0277,-0.71484375,-0.021484375,0.6982421875,0.0,-1.15966796875,-0.8544921875,-2.186279296875,45.8843994140625,-19.6820068359375
1760966179.0343292,-0.70947265625,-0.0302734375,0.70751953125,1.3427734375,-1.3427734375,-1.0986328125,-2.186279296875,45.8734130859375,-19.6929931640625
1760966179.0492444,-0.70947265625,-0.0302734375,0.70751953125,1.3427734375,-1.3427734375,-1.0986328125,-2.186279296875,45.8624267578125,-19.7039794921875
1760966179.0559359,-0.71484375,-0.033203125,0.71142578125,0.91552734375,-1.28173828125,-1.0986328125,-2.186279296875,45.845947265625,-19.70947265625
1760966179.0623553,-0.71484375,-0.033203125,0.71142578125,0.91552734375,-1.28173828125,-1.0986328125,-2.186279296875,45.8349609375,-19.720458984375
1760966179.0696561,-0.7138671875,-0.025390625,0.703125,1.0986328125,-1.46484375,-1.15966796875,-2.1917724609375,45.8184814453125,-19.7314453125
1760966179.0758407,-0.7138671875,-0.025390625,0.703125,1.0986328125,-1.46484375,-1.15966796875,-2.1917724609375,45.802001953125,-19.7369384765625
1760966179.0895317,-0.7177734375,-0.033203125,0.7001953125,1.52587890625,-1.46484375,-1.0986328125,-2.1917724609375,45.7855224609375,-19.7479248046875
1760966179.0959365,-0.7177734375,-0.033203125,0.7001953125,1.52587890625,-1.46484375,-1.0986328125,-2.186279296875,45.76904296875,-19.7589111328125
1760966179.102069,-0.7158203125,-0.02880859375,0.69775390625,1.220703125,-1.64794921875,-1.0986328125,-2.1807861328125,45.7525634765625,-19.764404296875
1760966179.108496,-0.7158203125,-0.02880859375,0.69775390625,1.220703125,-1.64794921875,-1.0986328125,-2.1807861328125,45.736083984375,-19.775390625
1760966179.123028,-0.72412109375,-0.02880859375,0.697265625,1.77001953125,-1.708984375,-1.15966796875,-2.1807861328125,45.7196044921875,-19.786376953125
1760966179.129476,-0.72412109375,-0.02880859375,0.697265625,1.77001953125,-1.708984375,-1.15966796875,-2.17529296875,45.703125,-19.79736328125
1760966179.1364489,-0.7275390625,-0.0224609375,0.69482421875,0.9765625,-1.708984375,-1.0986328125,-2.17529296875,45.6866455078125,-19.808349609375
1760966179.142702,-0.7275390625,-0.0224609375,0.69482421875,0.9765625,-1.708984375,-1.0986328125,-2.17529296875,45.670166015625,-19.8193359375
1760966179.1496263,-0.72998046875,-0.01904296875,0.69677734375,-0.48828125,-1.708984375,-1.0986328125,-2.1807861328125,45.6536865234375,-19.830322265625
1760966179.1635723,-0.72998046875,-0.01904296875,0.69677734375,-0.48828125,-1.708984375,-1.0986328125,-2.197265625,45.63720703125,-19.84130859375
1760966179.169954,-0.748046875,-0.02587890625,0.66015625,-4.08935546875,-1.28173828125,-0.79345703125,-2.230224609375,45.6207275390625,-19.8468017578125
1760966179.1777296,-0.748046875,-0.02587890625,0.66015625,-4.08935546875,-1.28173828125,-0.79345703125,-2.2796630859375,45.615234375,-19.8577880859375
1760966179.1943405,-0.73486328125,-0.0302734375,0.67626953125,-2.197265625,-1.40380859375,-1.03759765625,-2.318115234375,45.604248046875,-19.8687744140625
1760966179.212893,-0.73486328125,-0.0302734375,0.67626953125,-2.197265625,-1.40380859375,-1.03759765625,-2.3455810546875,45.59326171875,-19.8797607421875
1760966179.2192576,-0.7392578125,-0.0478515625,0.68359375,-1.0986328125,-0.9765625,-0.9765625,-2.373046875,45.5877685546875,-19.8907470703125
1760966179.243561,-0.7392578125,-0.0478515625,0.68359375,-1.0986328125,-0.9765625,-0.9765625,-2.39501953125,45.5877685546875,-19.9072265625
1760966179.2501652,-0.7392578125,-0.0478515625,0.68359375,-0.30517578125,-0.8544921875,-1.03759765625,-2.4114990234375,45.582275390625,-19.918212890625
1760966179.256396,-0.732421875,-0.03271484375,0.68310546875,-0.30517578125,-0.8544921875,-1.03759765625,-2.427978515625,45.582275390625,-19.9346923828125
1760966179.2647529,-0.7333984375,-0.03271484375,0.68359375,0.18310546875,-0.79345703125,-1.03759765625,-2.43896484375,45.5767822265625,-19.951171875
1760966179.2709732,-0.7333984375,-0.03271484375,0.68359375,0.18310546875,-0.79345703125,-1.03759765625,-2.449951171875,45.5767822265625,-19.9676513671875
1760966179.2777853,-0.7294921875,-0.02490234375,0.681640625,0.18310546875,-0.79345703125,-0.91552734375,-2.4554443359375,45.5767822265625,-19.984130859375
1760966179.2839627,-0.7294921875,-0.02490234375,0.681640625,0.18310546875,-0.79345703125,-0.91552734375,-2.4609375,45.5767822265625,-19.9951171875
1760966179.2912061,-0.73193359375,-0.03369140625,0.7001953125,0.18310546875,-0.67138671875,-0.91552734375,-2.471923828125,45.5767822265625,-20.006103515625
1760966179.2980745,-0.73193359375,-0.03369140625,0.7001953125,0.18310546875,-0.67138671875,-0.91552734375,-2.4774169921875,45.5767822265625,-20.0225830078125
1760966179.3042235,-0.72216796875,-0.03759765625,0.68798828125,-0.3662109375,-0.67138671875,-0.79345703125,-2.4884033203125,45.5767822265625,-20.0335693359375
1760966179.3106248,-0.72216796875,-0.03759765625,0.68798828125,-0.3662109375,-0.67138671875,-0.79345703125,-2.4993896484375,45.5767822265625,-20.0445556640625
1760966179.317933,-0.7255859375,-0.03515625,0.69677734375,-0.06103515625,-0.42724609375,-0.6103515625,-2.5103759765625,45.5767822265625,-20.050048828125
1760966179.3244088,-0.7255859375,-0.03515625,0.69677734375,-0.06103515625,-0.42724609375,-0.6103515625,-2.515869140625,45.5767822265625,-20.06103515625
1760966179.332138,-0.72216796875,-0.03662109375,0.70458984375,-0.30517578125,-0.30517578125,-0.42724609375,-2.52685546875,45.5767822265625,-20.0665283203125
1760966179.3384683,-0.72216796875,-0.03662109375,0.70458984375,-0.30517578125,-0.30517578125,-0.42724609375,-2.537841796875,45.582275390625,-20.072021484375
1760966179.344736,-0.72216796875,-0.03564453125,0.6943359375,-0.42724609375,-0.18310546875,-0.244140625,-2.5433349609375,45.582275390625,-20.0775146484375
1760966179.3511276,-0.72216796875,-0.03564453125,0.6943359375,-0.42724609375,-0.18310546875,-0.244140625,-2.548828125,45.5877685546875,-20.0775146484375
1760966179.358083,-0.72802734375,-0.033203125,0.68603515625,-0.9765625,-0.1220703125,-0.06103515625,-2.559814453125,45.5877685546875,-20.0830078125
1760966179.364925,-0.72802734375,-0.033203125,0.68603515625,-0.9765625,-0.1220703125,-0.06103515625,-2.57080078125,45.59326171875,-20.0830078125
1760966179.3715336,-0.7236328125,-0.029296875,0.69189453125,-0.732421875,-0.244140625,-0.1220703125,-2.581787109375,45.59326171875,-20.0830078125
1760966179.3778923,-0.7236328125,-0.029296875,0.69189453125,-0.732421875,-0.244140625,-0.1220703125,-2.5927734375,45.5987548828125,-20.0830078125
1760966179.3842762,-0.724609375,-0.03369140625,0.69287109375,-0.79345703125,-0.30517578125,-0.1220703125,-2.603759765625,45.5987548828125,-20.0830078125
1760966179.3907979,-0.724609375,-0.03369140625,0.69287109375,-0.79345703125,-0.30517578125,-0.1220703125,-2.61474609375,45.5987548828125,-20.0830078125
1760966179.3977273,-0.71728515625,-0.0302734375,0.70166015625,-0.30517578125,-0.3662109375,-0.244140625,-2.6202392578125,45.5987548828125,-20.0830078125
1760966179.40793,-0.71728515625,-0.0302734375,0.70166015625,-0.30517578125,-0.3662109375,-0.244140625,-2.625732421875,45.5987548828125,-20.0830078125
1760966179.4154973,-0.71923828125,-0.037109375,0.703125,-0.79345703125,-0.3662109375,-0.18310546875,-2.6312255859375,45.5987548828125,-20.0830078125
1760966179.4219291,-0.71923828125,-0.037109375,0.703125,-0.79345703125,-0.3662109375,-0.18310546875,-2.6422119140625,45.5987548828125,-20.0830078125
1760966179.4284887,-0.7158203125,-0.03955078125,0.697265625,-0.67138671875,-0.3662109375,-0.18310546875,-2.6531982421875,45.5987548828125,-20.0830078125
1760966179.435438,-0.7158203125,-0.03955078125,0.697265625,-0.67138671875,-0.3662109375,-0.18310546875,-2.6641845703125,45.5987548828125,-20.0830078125
1760966179.4426906,-0.720703125,-0.03466796875,0.6943359375,-0.42724609375,-0.42724609375,-0.18310546875,-2.669677734375,45.5987548828125,-20.0885009765625
1760966179.4493906,-0.720703125,-0.03466796875,0.6943359375,-0.42724609375,-0.42724609375,-0.18310546875,-2.6806640625,45.59326171875,-20.0885009765625
1760966179.456009,-0.72265625,-0.03515625,0.69970703125,-0.244140625,-0.42724609375,-0.1220703125,-2.6806640625,45.59326171875,-20.0830078125
1760966179.4623528,-0.72265625,-0.03515625,0.69970703125,-0.244140625,-0.42724609375,-0.1220703125,-2.6861572265625,45.59326171875,-20.0830078125
1760966179.468772,-0.72998046875,-0.03955078125,0.68994140625,-0.732421875,-0.3662109375,-0.06103515625,-2.6971435546875,45.5877685546875,-20.0830078125
1760966179.47708,-0.72998046875,-0.03955078125,0.68994140625,-0.732421875,-0.3662109375,-0.06103515625,-2.70263671875,45.5877685546875,-20.0830078125
1760966179.4870627,-0.72314453125,-0.02978515625,0.67431640625,-0.67138671875,-0.30517578125,-0.1220703125,-2.713623046875,45.5877685546875,-20.0830078125
1760966179.4971137,-0.72314453125,-0.02978515625,0.67431640625,-0.67138671875,-0.30517578125,-0.1220703125,-2.724609375,45.59326171875,-20.0830078125
1760966179.50694,-0.72509765625,-0.03564453125,0.71923828125,-0.244140625,-0.1220703125,-0.1220703125,-2.724609375,45.59326171875,-20.0830078125
1760966179.5195386,-0.72509765625,-0.03564453125,0.71923828125,-0.244140625,-0.1220703125,-0.1220703125,-2.7301025390625,45.59326171875,-20.0830078125
1760966179.5286045,-0.71875,-0.0361328125,0.69873046875,-2.0751953125,-0.18310546875,-0.06103515625,-2.7520751953125,45.59326171875,-20.0830078125
1760966179.5369196,-0.71875,-0.0361328125,0.69873046875,-2.0751953125,-0.18310546875,-0.06103515625,-2.7740478515625,45.5987548828125,-20.0830078125
1760966179.5546114,-0.7216796875,-0.03955078125,0.685546875,-1.3427734375,-0.1220703125,-0.06103515625,-2.79052734375,45.5987548828125,-20.0830078125
1760966179.568403,-0.7216796875,-0.03955078125,0.685546875,-1.3427734375,-0.1220703125,-0.06103515625,-2.8070068359375,45.5987548828125,-20.0830078125
1760966179.5751996,-0.72265625,-0.041015625,0.70166015625,-1.28173828125,-0.18310546875,-0.06103515625,-2.8179931640625,45.5987548828125,-20.0830078125
1760966179.5817478,-0.72265625,-0.041015625,0.70166015625,-1.28173828125,-0.18310546875,-0.06103515625,-2.83447265625,45.5987548828125,-20.0830078125
1760966179.588932,-0.72412109375,-0.03662109375,0.697265625,-0.6103515625,-0.1220703125,-0.18310546875,-2.8399658203125,45.604248046875,-20.0885009765625
1760966179.6037164,-0.72412109375,-0.03662109375,0.697265625,-0.6103515625,-0.1220703125,-0.18310546875,-2.8509521484375,45.604248046875,-20.0885009765625
1760966179.6113718,-0.72607421875,-0.03564453125,0.68505859375,-0.79345703125,-0.06103515625,-0.18310546875,-2.8619384765625,45.604248046875,-20.0885009765625
1760966179.6179714,-0.72607421875,-0.03564453125,0.68505859375,-0.79345703125,-0.06103515625,-0.18310546875,-2.8729248046875,45.6097412109375,-20.0885009765625
1760966179.6279097,-0.724609375,-0.03662109375,0.6923828125,-0.54931640625,-0.18310546875,-0.244140625,-2.8839111328125,45.6097412109375,-20.093994140625
1760966179.641713,-0.724609375,-0.03662109375,0.6923828125,-0.54931640625,-0.18310546875,-0.244140625,-2.889404296875,45.6097412109375,-20.093994140625
1760966179.6491475,-0.72119140625,-0.03662109375,0.69873046875,-0.244140625,-0.30517578125,-0.30517578125,-2.8948974609375,45.6097412109375,-20.0994873046875
1760966179.6575565,-0.72119140625,-0.03662109375,0.69873046875,-0.244140625,-0.30517578125,-0.30517578125,-2.900390625,45.6097412109375,-20.0994873046875
1760966179.6739016,-0.7265625,-0.0400390625,0.69384765625,-0.67138671875,-0.244140625,-0.18310546875,-2.911376953125,45.6097412109375,-20.0994873046875
1760966179.681,-0.7265625,-0.0400390625,0.69384765625,-0.67138671875,-0.244140625,-0.18310546875,-2.92236328125,45.6097412109375,-20.0994873046875
1760966179.6887352,-0.7294921875,-0.03857421875,0.68359375,-0.732421875,-0.18310546875,-0.06103515625,-2.9278564453125,45.615234375,-20.0994873046875
1760966179.697399,-0.7294921875,-0.03857421875,0.68359375,-0.732421875,-0.18310546875,-0.06103515625,-2.9388427734375,45.615234375,-20.0994873046875
1760966179.7131763,-0.728515625,-0.04052734375,0.681640625,0.06103515625,-0.18310546875,-0.1220703125,-2.9388427734375,45.615234375,-20.0994873046875
1760966179.719966,-0.728515625,-0.04052734375,0.681640625,0.06103515625,-0.18310546875,-0.1220703125,-2.9443359375,45.6207275390625,-20.10498046875
1760966179.7279294,-0.7216796875,-0.0400390625,0.69921875,0.67138671875,-0.244140625,-0.18310546875,-2.9388427734375,45.6207275390625,-20.10498046875
1760966179.7540054,-0.7216796875,-0.0400390625,0.69921875,0.67138671875,-0.244140625,-0.18310546875,-2.933349609375,45.6207275390625,-20.10498046875
1760966179.7605414,-0.71728515625,-0.0419921875,0.69921875,0.1220703125,-0.244140625,-0.1220703125,-2.933349609375,45.626220703125,-20.1104736328125
1760966179.7835636,-0.71728515625,-0.0419921875,0.69921875,0.1220703125,-0.244140625,-0.1220703125,-2.9388427734375,45.626220703125,-20.1104736328125
1760966179.7897568,-0.71435546875,-0.0380859375,0.7041015625,0.30517578125,-0.244140625,-0.1220703125,-2.9388427734375,45.626220703125,-20.1104736328125
1760966179.7965622,-0.71435546875,-0.0380859375,0.7041015625,0.30517578125,-0.244140625,-0.1220703125,-2.9388427734375,45.626220703125,-20.1104736328125
1760966179.8047478,-0.71484375,-0.03955078125,0.71044921875,-0.244140625,-0.244140625,-0.06103515625,-2.9388427734375,45.626220703125,-20.1104736328125
1760966179.8128393,-0.71484375,-0.03955078125,0.71044921875,-0.244140625,-0.244140625,-0.06103515625,-2.9443359375,45.626220703125,-20.1104736328125
1760966179.8191113,-0.7138671875,-0.0361328125,0.7021484375,0.1220703125,-0.244140625,-0.1220703125,-2.9443359375,45.6207275390625,-20.1104736328125
1760966179.8252614,-0.7138671875,-0.0361328125,0.7021484375,0.1220703125,-0.244140625,-0.1220703125,-2.9498291015625,45.6207275390625,-20.1104736328125
1760966179.831643,-0.71044921875,-0.03662109375,0.7001953125,0.0,-0.244140625,-0.30517578125,-2.9498291015625,45.6207275390625,-20.1104736328125
1760966179.8383074,-0.71044921875,-0.03662109375,0.7001953125,0.0,-0.244140625,-0.30517578125,-2.955322265625,45.615234375,-20.1104736328125
1760966179.847421,-0.70703125,-0.0390625,0.712890625,0.06103515625,-0.42724609375,-0.3662109375,-2.9608154296875,45.615234375,-20.115966796875
1760966179.8575866,-0.70703125,-0.0390625,0.712890625,0.06103515625,-0.42724609375,-0.3662109375,-2.96630859375,45.6097412109375,-20.115966796875
1760966179.8674521,-0.70849609375,-0.0390625,0.712890625,0.18310546875,-0.48828125,-0.42724609375,-2.96630859375,45.604248046875,-20.115966796875
1760966179.8793638,-0.70849609375,-0.0390625,0.712890625,0.18310546875,-0.48828125,-0.42724609375,-2.9718017578125,45.59326171875,-20.115966796875
1760966179.9005961,-0.70947265625,-0.03466796875,0.71240234375,-0.06103515625,-0.6103515625,-0.42724609375,-2.977294921875,45.5877685546875,-20.115966796875
1760966179.9078841,-0.70947265625,-0.03466796875,0.71240234375,-0.06103515625,-0.6103515625,-0.42724609375,-2.9827880859375,45.582275390625,-20.115966796875
1760966179.9155717,-0.71484375,-0.03662109375,0.70068359375,-0.6103515625,-0.6103515625,-0.54931640625,-2.9937744140625,45.5712890625,-20.1214599609375
1760966179.921745,-0.71484375,-0.03662109375,0.70068359375,-0.6103515625,-0.6103515625,-0.54931640625,-3.0047607421875,45.5657958984375,-20.1214599609375
1760966179.9288168,-0.71728515625,-0.04248046875,0.6962890625,0.06103515625,-0.732421875,-0.6103515625,-3.01025390625,45.5548095703125,-20.126953125
1760966179.9475715,-0.71728515625,-0.04248046875,0.6962890625,0.06103515625,-0.732421875,-0.6103515625,-3.0157470703125,45.54931640625,-20.1324462890625
1760966179.954522,-0.72705078125,-0.03955078125,0.69482421875,0.42724609375,-0.732421875,-0.48828125,-3.0157470703125,45.538330078125,-20.1324462890625
1760966179.9612458,-0.72705078125,-0.03955078125,0.69482421875,0.42724609375,-0.732421875,-0.48828125,-3.0157470703125,45.5328369140625,-20.137939453125
1760966179.9755392,-0.72998046875,-0.03125,0.6806640625,-0.48828125,-0.67138671875,-0.48828125,-3.0267333984375,45.52734375,-20.1434326171875
1760966179.988177,-0.72998046875,-0.03125,0.6806640625,-0.48828125,-0.67138671875,-0.48828125,-3.0377197265625,45.5218505859375,-20.1434326171875
1760966179.994338,-0.7353515625,-0.0478515625,0.685546875,-0.244140625,-0.54931640625,-0.42724609375,-3.043212890625,45.516357421875,-20.14892578125
1760966180.0013318,-0.7353515625,-0.0478515625,0.685546875,-0.244140625,-0.54931640625,-0.42724609375,-3.05419921875,45.516357421875,-20.1544189453125
1760966180.019317,-0.73095703125,-0.044921875,0.68701171875,-0.18310546875,-0.3662109375,-0.244140625,-3.0596923828125,45.5108642578125,-20.1544189453125
1760966180.025588,-0.73095703125,-0.044921875,0.68701171875,-0.18310546875,-0.3662109375,-0.244140625,-3.065185546875,45.5108642578125,-20.159912109375
1760966180.036821,-0.7255859375,-0.0380859375,0.6865234375,-0.06103515625,-0.3662109375,-0.18310546875,-3.065185546875,45.516357421875,-20.1654052734375
1760966180.057003,-0.7255859375,-0.0380859375,0.6865234375,-0.06103515625,-0.3662109375,-0.18310546875,-3.0706787109375,45.516357421875,-20.1654052734375
1760966180.064604,-0.720703125,-0.04296875,0.69287109375,-0.732421875,-0.3662109375,-0.06103515625,-3.0816650390625,45.516357421875,-20.1654052734375
1760966180.071149,-0.720703125,-0.04296875,0.69287109375,-0.732421875,-0.3662109375,-0.06103515625,-3.087158203125,45.516357421875,-20.1708984375
1760966180.0778723,-0.71630859375,-0.04150390625,0.70458984375,-0.06103515625,-0.3662109375,0.0,-3.0926513671875,45.516357421875,-20.1708984375
1760966180.0968401,-0.71630859375,-0.04150390625,0.70458984375,-0.06103515625,-0.3662109375,0.0,-3.0926513671875,45.516357421875,-20.1708984375
1760966180.1031542,-0.705078125,-0.04541015625,0.71142578125,-0.30517578125,-0.42724609375,0.06103515625,-3.09814453125,45.5108642578125,-20.1708984375
1760966180.1104202,-0.705078125,-0.04541015625,0.71142578125,-0.30517578125,-0.42724609375,0.06103515625,-3.09814453125,45.5108642578125,-20.1654052734375
1760966180.1174028,-0.705078125,-0.04150390625,0.71826171875,0.06103515625,-0.48828125,0.18310546875,-3.09814453125,45.50537109375,-20.159912109375
1760966180.1312451,-0.705078125,-0.04150390625,0.71826171875,0.06103515625,-0.48828125,0.18310546875,-3.09814453125,45.50537109375,-20.1544189453125
1760966180.1436992,-0.69775390625,-0.03564453125,0.7177734375,-0.42724609375,-0.732421875,0.06103515625,-3.1036376953125,45.494384765625,-20.1544189453125
1760966180.1502244,-0.69775390625,-0.03564453125,0.7177734375,-0.42724609375,-0.732421875,0.06103515625,-3.109130859375,45.4888916015625,-20.14892578125
1760966180.1569312,-0.70166015625,-0.0419921875,0.72021484375,-0.48828125,-0.91552734375,0.06103515625,-3.1146240234375,45.4779052734375,-20.137939453125
1760966180.1784222,-0.70166015625,-0.0419921875,0.72021484375,-0.48828125,-0.91552734375,0.06103515625,-3.1146240234375,45.4669189453125,-20.1324462890625
1760966180.1849594,-0.70556640625,-0.03857421875,0.705078125,-0.6103515625,-0.8544921875,0.0,-3.1256103515625,45.4559326171875,-20.126953125
1760966180.1917875,-0.70556640625,-0.03857421875,0.705078125,-0.6103515625,-0.8544921875,0.0,-3.131103515625,45.4449462890625,-20.1214599609375
1760966180.2126815,-0.70458984375,-0.037109375,0.71142578125,-0.06103515625,-0.9765625,-0.244140625,-3.131103515625,45.4339599609375,-20.1214599609375
1760966180.2200308,-0.70458984375,-0.037109375,0.71142578125,-0.06103515625,-0.9765625,-0.244140625,-3.1365966796875,45.41748046875,-20.115966796875
1760966180.2266138,-0.7099609375,-0.04345703125,0.7177734375,-0.30517578125,-0.91552734375,-0.18310546875,-3.14208984375,45.406494140625,-20.115966796875
1760966180.2333934,-0.7099609375,-0.04345703125,0.7177734375,-0.30517578125,-0.91552734375,-0.18310546875,-3.1475830078125,45.3955078125,-20.1104736328125
1760966180.2528644,-0.72021484375,-0.0419921875,0.7021484375,-1.0986328125,-0.8544921875,-0.06103515625,-3.1585693359375,45.384521484375,-20.10498046875
1760966180.2590528,-0.72021484375,-0.0419921875,0.7021484375,-1.0986328125,-0.8544921875,-0.06103515625,-3.1695556640625,45.37353515625,-20.0994873046875
1760966180.266134,-0.724609375,-0.03857421875,0.68359375,0.732421875,-0.8544921875,-0.30517578125,-3.1640625,45.362548828125,-20.0994873046875
1760966180.272981,-0.724609375,-0.03857421875,0.68359375,0.732421875,-0.8544921875,-0.30517578125,-3.1640625,45.3570556640625,-20.0994873046875
1760966180.2932363,-0.72314453125,-0.041015625,0.69091796875,1.77001953125,-0.91552734375,-0.3662109375,-3.1475830078125,45.3460693359375,-20.10498046875
1760966180.299453,-0.72314453125,-0.041015625,0.69091796875,1.77001953125,-0.91552734375,-0.3662109375,-3.1365966796875,45.3350830078125,-20.10498046875
1760966180.3061929,-0.72802734375,-0.0439453125,0.6943359375,0.6103515625,-0.732421875,-0.30517578125,-3.131103515625,45.32958984375,-20.1104736328125
1760966180.312845,-0.72802734375,-0.0439453125,0.6943359375,0.6103515625,-0.732421875,-0.30517578125,-3.131103515625,45.3240966796875,-20.1104736328125
1760966180.3284028,-0.728515625,-0.0390625,0.681640625,0.54931640625,-0.54931640625,-0.06103515625,-3.1256103515625,45.3240966796875,-20.1104736328125
1760966180.335419,-0.728515625,-0.0390625,0.681640625,0.54931640625,-0.54931640625,-0.06103515625,-3.1201171875,45.318603515625,-20.1104736328125
1760966180.3416457,-0.70703125,-0.04541015625,0.70556640625,1.77001953125,-0.8544921875,-0.244140625,-3.109130859375,45.3131103515625,-20.115966796875
1760966180.3527002,-0.70703125,-0.04541015625,0.70556640625,1.77001953125,-0.8544921875,-0.244140625,-3.0926513671875,45.3076171875,-20.115966796875
1760966180.3727534,-0.70947265625,-0.0439453125,0.72412109375,0.244140625,-0.67138671875,0.0,-3.0926513671875,45.3021240234375,-20.115966796875
1760966180.3793905,-0.70947265625,-0.0439453125,0.72412109375,0.244140625,-0.67138671875,0.0,-3.0926513671875,45.296630859375,-20.1104736328125
1760966180.3865533,-0.70751953125,-0.033203125,0.701171875,-0.3662109375,-0.79345703125,0.0,-3.09814453125,45.2911376953125,-20.1104736328125
1760966180.3930607,-0.70751953125,-0.033203125,0.701171875,-0.3662109375,-0.79345703125,0.0,-3.1036376953125,45.28564453125,-20.10498046875
1760966180.4063022,-0.7158203125,-0.03759765625,0.703125,-1.3427734375,-0.79345703125,0.18310546875,-3.1146240234375,45.274658203125,-20.0994873046875
1760966180.4182591,-0.7158203125,-0.03759765625,0.703125,-1.3427734375,-0.79345703125,0.18310546875,-3.1256103515625,45.2691650390625,-20.093994140625
1760966180.4244473,-0.7197265625,-0.0419921875,0.70263671875,-1.64794921875,-0.732421875,0.18310546875,-3.14208984375,45.263671875,-20.093994140625
1760966180.4314585,-0.7197265625,-0.0419921875,0.70263671875,-1.64794921875,-0.732421875,0.18310546875,-3.1585693359375,45.2581787109375,-20.0885009765625
1760966180.452942,-0.71923828125,-0.0458984375,0.701171875,-1.77001953125,-0.67138671875,0.18310546875,-3.1695556640625,45.252685546875,-20.0830078125
1760966180.4600842,-0.7275390625,-0.03564453125,0.6875,-2.25830078125,-0.54931640625,0.18310546875,-3.1915283203125,45.2471923828125,-20.0775146484375
1760966180.4662957,-0.7275390625,-0.03564453125,0.6875,-2.25830078125,-0.54931640625,0.18310546875,-3.2135009765625,45.2471923828125,-20.072021484375
1760966180.4729013,-0.72509765625,-0.04052734375,0.6943359375,-1.8310546875,-0.6103515625,0.0,-3.22998046875,45.24169921875,-20.072021484375
1760966180.4958992,-0.72509765625,-0.04052734375,0.6943359375,-1.8310546875,-0.6103515625,0.0,-3.251953125,45.24169921875,-20.0665283203125
1760966180.5059302,-0.74267578125,-0.04931640625,0.6923828125,-2.38037109375,-0.30517578125,0.244140625,-3.2684326171875,45.2362060546875,-20.0665283203125
1760966180.5245595,-0.74267578125,-0.04931640625,0.6923828125,-2.38037109375,-0.30517578125,0.244140625,-3.2904052734375,45.24169921875,-20.06103515625
1760966180.5522928,-0.7490234375,-0.03662109375,0.65478515625,-2.74658203125,-0.244140625,0.1220703125,-3.31787109375,45.24169921875,-20.06103515625
1760966180.5588264,-0.7490234375,-0.03662109375,0.65478515625,-2.74658203125,-0.244140625,0.1220703125,-3.33984375,45.2471923828125,-20.06103515625
1760966180.5658135,-0.744140625,-0.0498046875,0.650390625,-1.40380859375,-0.18310546875,0.0,-3.36181640625,45.252685546875,-20.06103515625
1760966180.5725656,-0.744140625,-0.0498046875,0.650390625,-1.40380859375,-0.18310546875,0.0,-3.3782958984375,45.2581787109375,-20.0665283203125
1760966180.579651,-0.73193359375,-0.056640625,0.69482421875,0.54931640625,-0.244140625,-0.1220703125,-3.3837890625,45.2691650390625,-20.072021484375
1760966180.598449,-0.73193359375,-0.056640625,0.69482421875,0.54931640625,-0.244140625,-0.1220703125,-3.3782958984375,45.274658203125,-20.0775146484375
1760966180.604664,-0.720703125,-0.041015625,0.6982421875,1.15966796875,-0.18310546875,-0.18310546875,-3.372802734375,45.2801513671875,-20.0830078125
1760966180.6115706,-0.720703125,-0.041015625,0.6982421875,1.15966796875,-0.18310546875,-0.18310546875,-3.3673095703125,45.28564453125,-20.093994140625
1760966180.6182244,-0.7177734375,-0.0361328125,0.701171875,0.3662109375,-0.18310546875,-0.18310546875,-3.36181640625,45.296630859375,-20.0994873046875
1760966180.6257997,-0.7177734375,-0.0361328125,0.701171875,0.3662109375,-0.18310546875,-0.18310546875,-3.36181640625,45.3021240234375,-20.10498046875
1760966180.634278,-0.71484375,-0.04541015625,0.703125,-0.67138671875,-0.1220703125,-0.06103515625,-3.3673095703125,45.3076171875,-20.1104736328125
1760966180.6454892,-0.71484375,-0.04541015625,0.703125,-0.67138671875,-0.1220703125,-0.06103515625,-3.372802734375,45.3076171875,-20.1104736328125
1760966180.6518688,-0.7119140625,-0.04931640625,0.70703125,-0.67138671875,-0.06103515625,0.0,-3.3837890625,45.3131103515625,-20.1104736328125
1760966180.658884,-0.7119140625,-0.04931640625,0.70703125,-0.67138671875,-0.06103515625,0.0,-3.3892822265625,45.318603515625,-20.115966796875
1760966180.6661956,-0.71240234375,-0.04345703125,0.708984375,0.0,-0.18310546875,0.0,-3.394775390625,45.3240966796875,-20.115966796875
1760966180.6730375,-0.71240234375,-0.04345703125,0.708984375,0.0,-0.18310546875,0.0,-3.394775390625,45.3240966796875,-20.115966796875
1760966180.6845632,-0.71533203125,-0.03955078125,0.69775390625,-0.06103515625,-0.1220703125,-0.1220703125,-3.4002685546875,45.3240966796875,-20.115966796875
1760966180.6971185,-0.71533203125,-0.03955078125,0.69775390625,-0.06103515625,-0.1220703125,-0.1220703125,-3.4002685546875,45.32958984375,-20.1214599609375
1760966180.7036583,-0.71484375,-0.0458984375,0.70263671875,0.1220703125,-0.244140625,-0.18310546875,-3.40576171875,45.32958984375,-20.1214599609375
1760966180.7112832,-0.71484375,-0.0458984375,0.70263671875,0.1220703125,-0.244140625,-0.18310546875,-3.40576171875,45.32958984375,-20.1214599609375
1760966180.717708,-0.71826171875,-0.04345703125,0.69873046875,0.244140625,-0.3662109375,-0.244140625,-3.40576171875,45.32958984375,-20.126953125
1760966180.7297971,-0.71826171875,-0.04345703125,0.69873046875,0.244140625,-0.3662109375,-0.244140625,-3.40576171875,45.3240966796875,-20.126953125
1760966180.7359927,-0.7236328125,-0.04248046875,0.69580078125,0.42724609375,-0.30517578125,-0.3662109375,-3.4112548828125,45.3240966796875,-20.1324462890625
1760966180.743005,-0.7236328125,-0.04248046875,0.69580078125,0.42724609375,-0.30517578125,-0.3662109375,-3.4112548828125,45.3240966796875,-20.137939453125
1760966180.7506964,-0.72265625,-0.04345703125,0.6884765625,0.8544921875,-0.30517578125,-0.6103515625,-3.40576171875,45.3240966796875,-20.1434326171875
1760966180.7577796,-0.72265625,-0.04345703125,0.6884765625,0.8544921875,-0.30517578125,-0.6103515625,-3.40576171875,45.3240966796875,-20.1544189453125
1760966180.7696044,-0.71923828125,-0.04150390625,0.70068359375,1.28173828125,-0.3662109375,-0.91552734375,-3.40576171875,45.3240966796875,-20.1654052734375
1760966180.7758708,-0.71923828125,-0.04150390625,0.70068359375,1.28173828125,-0.3662109375,-0.91552734375,-3.4002685546875,45.3240966796875,-20.1763916015625
1760966180.782821,-0.71728515625,-0.0400390625,0.69921875,1.3427734375,-0.42724609375,-1.0986328125,-3.4002685546875,45.3240966796875,-20.19287109375
1760966180.789707,-0.71728515625,-0.0400390625,0.69921875,1.3427734375,-0.42724609375,-1.0986328125,-3.394775390625,45.318603515625,-20.203857421875
1760966180.8044713,-0.7158203125,-0.0439453125,0.70068359375,0.91552734375,-0.42724609375,-1.15966796875,-3.4002685546875,45.318603515625,-20.2203369140625
1760966180.8156989,-0.7158203125,-0.0439453125,0.70068359375,0.91552734375,-0.42724609375,-1.15966796875,-3.4002685546875,45.318603515625,-20.23681640625
1760966180.824327,-0.716796875,-0.0517578125,0.703125,1.15966796875,-0.30517578125,-1.0986328125,-3.4002685546875,45.3131103515625,-20.2532958984375
1760966180.8313813,-0.716796875,-0.0517578125,0.703125,1.15966796875,-0.30517578125,-1.0986328125,-3.4002685546875,45.3131103515625,-20.2642822265625
1760966180.8429658,-0.71630859375,-0.04541015625,0.7060546875,1.0986328125,-0.1220703125,-0.91552734375,-3.4002685546875,45.3131103515625,-20.28076171875
1760966180.849745,-0.71630859375,-0.04541015625,0.7060546875,1.0986328125,-0.1220703125,-0.91552734375,-3.4002685546875,45.3131103515625,-20.291748046875
1760966180.887718,-0.71630859375,-0.0390625,0.70263671875,0.54931640625,0.0,-0.91552734375,-3.40576171875,45.3131103515625,-20.302734375
1760966180.9176643,-0.71630859375,-0.0390625,0.70263671875,0.54931640625,0.0,-0.91552734375,-3.4112548828125,45.318603515625,-20.3192138671875
1760966180.925845,-0.71435546875,-0.04443359375,0.69580078125,0.18310546875,-0.1220703125,-1.03759765625,-3.416748046875,45.318603515625,-20.3302001953125
1760966180.9328668,-0.71435546875,-0.04443359375,0.69580078125,0.18310546875,-0.1220703125,-1.03759765625,-3.427734375,45.318603515625,-20.3466796875
1760966180.9420333,-0.71484375,-0.048828125,0.7080078125,0.42724609375,-0.18310546875,-0.9765625,-3.4332275390625,45.318603515625,-20.357666015625
1760966180.9612386,-0.71484375,-0.048828125,0.7080078125,0.42724609375,-0.18310546875,-0.9765625,-3.438720703125,45.318603515625,-20.36865234375
1760966180.970192,-0.7158203125,-0.04638671875,0.70068359375,0.67138671875,-0.18310546875,-0.91552734375,-3.4442138671875,45.3131103515625,-20.379638671875
1760966180.9794214,-0.7158203125,-0.04638671875,0.70068359375,0.67138671875,-0.18310546875,-0.91552734375,-3.44970703125,45.3131103515625,-20.390625
1760966180.9962194,-0.71533203125,-0.037109375,0.69970703125,0.6103515625,-0.06103515625,-0.9765625,-3.4552001953125,45.3131103515625,-20.401611328125
1760966181.005127,-0.71533203125,-0.037109375,0.69970703125,0.6103515625,-0.06103515625,-0.9765625,-3.460693359375,45.3131103515625,-20.4180908203125
1760966181.0190523,-0.71533203125,-0.04345703125,0.7080078125,0.0,-0.1220703125,-1.03759765625,-3.4661865234375,45.3131103515625,-20.4290771484375
1760966181.039866,-0.71533203125,-0.04345703125,0.7080078125,0.0,-0.1220703125,-1.03759765625,-3.4771728515625,45.3131103515625,-20.4400634765625
1760966181.0572531,-0.71435546875,-0.0458984375,0.69921875,-0.30517578125,-0.244140625,-1.15966796875,-3.4881591796875,45.3131103515625,-20.4510498046875
1760966181.0753608,-0.71435546875,-0.0458984375,0.69921875,-0.30517578125,-0.244140625,-1.15966796875,-3.504638671875,45.3076171875,-20.4620361328125
1760966181.0842202,-0.7138671875,-0.04248046875,0.697265625,0.1220703125,-0.3662109375,-1.40380859375,-3.5211181640625,45.3076171875,-20.478515625
1760966181.112592,-0.7138671875,-0.04248046875,0.697265625,0.1220703125,-0.3662109375,-1.40380859375,-3.5321044921875,45.3021240234375,-20.4949951171875
1760966181.1200073,-0.71484375,-0.04443359375,0.71142578125,0.18310546875,-0.42724609375,-1.46484375,-3.5430908203125,45.3021240234375,-20.511474609375
1760966181.126703,-0.71484375,-0.04443359375,0.71142578125,0.18310546875,-0.42724609375,-1.46484375,-3.5595703125,45.296630859375,-20.5279541015625
1760966181.141007,-0.7158203125,-0.04736328125,0.701171875,-0.3662109375,-0.3662109375,-1.40380859375,-3.570556640625,45.2911376953125,-20.54443359375
1760966181.1487825,-0.7158203125,-0.04736328125,0.701171875,-0.3662109375,-0.3662109375,-1.40380859375,-3.592529296875,45.2911376953125,-20.5609130859375
1760966181.1553288,-0.71728515625,-0.04638671875,0.6953125,-0.244140625,-0.42724609375,-1.40380859375,-3.6090087890625,45.28564453125,-20.577392578125
1760966181.1632113,-0.71728515625,-0.04638671875,0.6953125,-0.244140625,-0.42724609375,-1.40380859375,-3.62548828125,45.2801513671875,-20.5938720703125
1760966181.1791482,-0.71875,-0.04833984375,0.69921875,-0.54931640625,-0.54931640625,-1.3427734375,-3.6419677734375,45.2801513671875,-20.6103515625
1760966181.1866214,-0.71875,-0.04833984375,0.69921875,-0.54931640625,-0.54931640625,-1.3427734375,-3.658447265625,45.274658203125,-20.6268310546875
1760966181.1935108,-0.71337890625,-0.05078125,0.69873046875,-0.42724609375,-0.48828125,-1.3427734375,-3.680419921875,45.2691650390625,-20.643310546875
1760966181.2007027,-0.71337890625,-0.05078125,0.69873046875,-0.42724609375,-0.48828125,-1.3427734375,-3.6968994140625,45.263671875,-20.6597900390625
1760966181.209101,-0.70654296875,-0.04931640625,0.7109375,-0.3662109375,-0.54931640625,-1.3427734375,-3.71337890625,45.2581787109375,-20.67626953125
1760966181.2247586,-0.70654296875,-0.04931640625,0.7109375,-0.3662109375,-0.54931640625,-1.3427734375,-3.7298583984375,45.252685546875,-20.6927490234375
1760966181.2319012,-0.7060546875,-0.044921875,0.7177734375,-1.03759765625,-0.6103515625,-1.220703125,-3.7518310546875,45.2471923828125,-20.7037353515625
1760966181.2384567,-0.7060546875,-0.044921875,0.7177734375,-1.03759765625,-0.6103515625,-1.220703125,-3.7738037109375,45.24169921875,-20.72021484375
1760966181.2460158,-0.70849609375,-0.03857421875,0.70556640625,-1.953125,-0.54931640625,-1.0986328125,-3.80126953125,45.2362060546875,-20.731201171875
1760966181.2620525,-0.70849609375,-0.03857421875,0.70556640625,-1.953125,-0.54931640625,-1.0986328125,-3.8287353515625,45.230712890625,-20.7421875
1760966181.269871,-0.708984375,-0.0546875,0.7109375,-2.197265625,-0.48828125,-1.28173828125,-3.8616943359375,45.2252197265625,-20.753173828125
1760966181.2773035,-0.708984375,-0.0546875,0.7109375,-2.197265625,-0.48828125,-1.28173828125,-3.8946533203125,45.2197265625,-20.76416015625
1760966181.2932167,-0.708984375,-0.0546875,0.7109375,-1.8310546875,-0.42724609375,-1.15966796875,-3.9276123046875,45.2142333984375,-20.775146484375
1760966181.3008082,-0.71142578125,-0.06201171875,0.7119140625,-1.8310546875,-0.42724609375,-1.15966796875,-3.955078125,45.2032470703125,-20.7916259765625
1760966181.307505,-0.7138671875,-0.0517578125,0.6962890625,0.0,-0.48828125,-1.40380859375,-3.97705078125,45.19775390625,-20.8026123046875
1760966181.3154304,-0.7138671875,-0.0517578125,0.6962890625,0.0,-0.48828125,-1.40380859375,-3.9935302734375,45.1922607421875,-20.819091796875
1760966181.3234076,-0.7138671875,-0.046875,0.69775390625,0.244140625,-0.67138671875,-1.5869140625,-4.0045166015625,45.186767578125,-20.8355712890625
1760966181.3373241,-0.7138671875,-0.046875,0.69775390625,0.244140625,-0.67138671875,-1.5869140625,-4.02099609375,45.1812744140625,-20.8575439453125
1760966181.3455765,-0.716796875,-0.0556640625,0.69580078125,0.8544921875,-0.67138671875,-1.77001953125,-4.031982421875,45.1702880859375,-20.8740234375
1760966181.352426,-0.716796875,-0.0556640625,0.69580078125,0.8544921875,-0.67138671875,-1.77001953125,-4.0374755859375,45.164794921875,-20.89599609375
1760966181.359284,-0.7197265625,-0.0546875,0.7021484375,1.52587890625,-0.79345703125,-1.77001953125,-4.04296875,45.1593017578125,-20.91796875
1760966181.3671596,-0.7197265625,-0.0546875,0.7021484375,1.52587890625,-0.79345703125,-1.77001953125,-4.0484619140625,45.1483154296875,-20.93994140625
1760966181.3781238,-0.7236328125,-0.05224609375,0.68994140625,1.15966796875,-0.732421875,-1.64794921875,-4.0484619140625,45.142822265625,-20.9619140625
1760966181.3858929,-0.7236328125,-0.05224609375,0.68994140625,1.15966796875,-0.732421875,-1.64794921875,-4.053955078125,45.1373291015625,-20.9783935546875
1760966181.3931,-0.7236328125,-0.05029296875,0.69287109375,0.30517578125,-0.67138671875,-1.46484375,-4.06494140625,45.1318359375,-21.0003662109375
1760966181.4013636,-0.7236328125,-0.05029296875,0.69287109375,0.30517578125,-0.67138671875,-1.46484375,-4.075927734375,45.1263427734375,-21.016845703125
1760966181.4090328,-0.7216796875,-0.0478515625,0.69873046875,0.3662109375,-0.54931640625,-1.3427734375,-4.0869140625,45.120849609375,-21.038818359375
1760966181.4170053,-0.7216796875,-0.0478515625,0.69873046875,0.3662109375,-0.54931640625,-1.3427734375,-4.097900390625,45.120849609375,-21.0552978515625
1760966181.4253035,-0.72119140625,-0.05810546875,0.69482421875,0.0,-0.48828125,-1.28173828125,-4.10888671875,45.1153564453125,-21.07177734375
1760966181.4332647,-0.72119140625,-0.05810546875,0.69482421875,0.0,-0.48828125,-1.28173828125,-4.119873046875,45.1153564453125,-21.0882568359375
1760966181.4417048,-0.71484375,-0.06396484375,0.70068359375,-0.30517578125,-0.42724609375,-1.03759765625,-4.1363525390625,45.1153564453125,-21.104736328125
1760966181.4485795,-0.71484375,-0.06396484375,0.70068359375,-0.30517578125,-0.42724609375,-1.03759765625,-4.15283203125,45.10986328125,-21.11572265625
1760966181.4557424,-0.71435546875,-0.0595703125,0.70361328125,0.8544921875,-0.18310546875,-0.9765625,-4.1583251953125,45.10986328125,-21.1322021484375
1760966181.463197,-0.71435546875,-0.0595703125,0.70361328125,0.8544921875,-0.18310546875,-0.9765625,-4.163818359375,45.1153564453125,-21.1431884765625
1760966181.4703987,-0.7080078125,-0.0517578125,0.70947265625,0.67138671875,-0.18310546875,-0.91552734375,-4.163818359375,45.1153564453125,-21.15966796875
1760966181.476637,-0.7080078125,-0.0517578125,0.70947265625,0.67138671875,-0.18310546875,-0.91552734375,-4.1693115234375,45.1153564453125,-21.170654296875
1760966181.4832995,-0.70654296875,-0.05224609375,0.71728515625,-0.18310546875,-0.1220703125,-0.8544921875,-4.1802978515625,45.1153564453125,-21.181640625
1760966181.4907646,-0.70654296875,-0.05224609375,0.71728515625,-0.18310546875,-0.1220703125,-0.8544921875,-4.1912841796875,45.1153564453125,-21.192626953125
1760966181.4988966,-0.70703125,-0.05029296875,0.7080078125,0.0,-0.06103515625,-0.9765625,-4.2022705078125,45.10986328125,-21.20361328125
1760966181.5071843,-0.70703125,-0.05029296875,0.7080078125,0.0,-0.06103515625,-0.9765625,-4.2132568359375,45.10986328125,-21.214599609375
1760966181.5146716,-0.7080078125,-0.0537109375,0.7080078125,0.42724609375,-0.06103515625,-1.15966796875,-4.2242431640625,45.10986328125,-21.2255859375
1760966181.5224068,-0.7080078125,-0.0537109375,0.7080078125,0.42724609375,-0.06103515625,-1.15966796875,-4.229736328125,45.10986328125,-21.2420654296875
1760966181.5299048,-0.701171875,-0.05712890625,0.7099609375,0.30517578125,-0.18310546875,-1.28173828125,-4.24072265625,45.10986328125,-21.2530517578125
1760966181.5506487,-0.701171875,-0.05712890625,0.7099609375,0.30517578125,-0.18310546875,-1.28173828125,-4.251708984375,45.1043701171875,-21.26953125
1760966181.5579858,-0.7060546875,-0.05126953125,0.71484375,0.42724609375,-0.30517578125,-1.28173828125,-4.2626953125,45.098876953125,-21.280517578125
1760966181.5655577,-0.7060546875,-0.05126953125,0.71484375,0.42724609375,-0.30517578125,-1.28173828125,-4.2681884765625,45.0933837890625,-21.29150390625
1760966181.5718486,-0.71142578125,-0.0556640625,0.697265625,0.244140625,-0.42724609375,-1.5869140625,-4.28466796875,45.087890625,-21.3079833984375
1760966181.5793047,-0.71142578125,-0.0556640625,0.697265625,0.244140625,-0.42724609375,-1.5869140625,-4.295654296875,45.0823974609375,-21.3299560546875
1760966181.5932457,-0.7119140625,-0.06201171875,0.70166015625,1.03759765625,-0.48828125,-1.708984375,-4.3011474609375,45.076904296875,-21.346435546875
1760966181.6010966,-0.7119140625,-0.06201171875,0.70166015625,1.03759765625,-0.48828125,-1.708984375,-4.3121337890625,45.0714111328125,-21.368408203125
1760966181.607504,-0.71044921875,-0.06103515625,0.7099609375,2.13623046875,-0.42724609375,-1.77001953125,-4.306640625,45.06591796875,-21.390380859375
1760966181.614171,-0.71044921875,-0.06103515625,0.7099609375,2.13623046875,-0.42724609375,-1.77001953125,-4.306640625,45.0604248046875,-21.412353515625
1760966181.622081,-0.705078125,-0.05419921875,0.70263671875,2.99072265625,-0.3662109375,-1.8310546875,-4.295654296875,45.054931640625,-21.434326171875
1760966181.6366212,-0.705078125,-0.05419921875,0.70263671875,2.99072265625,-0.3662109375,-1.8310546875,-4.28466796875,45.0494384765625,-21.456298828125
1760966181.644657,-0.7119140625,-0.06298828125,0.7119140625,3.11279296875,-0.3662109375,-1.5869140625,-4.2681884765625,45.0439453125,-21.4727783203125
1760966181.6512518,-0.7119140625,-0.06298828125,0.7119140625,3.11279296875,-0.3662109375,-1.5869140625,-4.2572021484375,45.0384521484375,-21.4947509765625
1760966181.6575131,-0.71044921875,-0.05810546875,0.705078125,2.3193359375,-0.30517578125,-1.3427734375,-4.251708984375,45.0384521484375,-21.51123046875
1760966181.6717339,-0.71044921875,-0.05810546875,0.705078125,2.3193359375,-0.30517578125,-1.3427734375,-4.24072265625,45.032958984375,-21.5277099609375
1760966181.6801035,-0.7080078125,-0.0546875,0.70556640625,2.62451171875,-0.3662109375,-1.28173828125,-4.229736328125,45.0274658203125,-21.544189453125
1760966181.68687,-0.7080078125,-0.0546875,0.70556640625,2.62451171875,-0.3662109375,-1.28173828125,-4.21875,45.02197265625,-21.5606689453125
1760966181.6936858,-0.71337890625,-0.05322265625,0.71240234375,3.41796875,-0.3662109375,-1.0986328125,-4.19677734375,45.02197265625,-21.5771484375
1760966181.7006085,-0.71337890625,-0.05322265625,0.71240234375,3.41796875,-0.3662109375,-1.0986328125,-4.1748046875,45.0164794921875,-21.588134765625
1760966181.7162714,-0.716796875,-0.0576171875,0.6943359375,3.47900390625,-0.3662109375,-1.15966796875,-4.1583251953125,45.010986328125,-21.59912109375
1760966181.724186,-0.716796875,-0.0576171875,0.6943359375,3.47900390625,-0.3662109375,-1.15966796875,-4.1363525390625,45.0054931640625,-21.6156005859375
1760966181.7378194,-0.71630859375,-0.0537109375,0.70263671875,3.0517578125,-0.42724609375,-1.03759765625,-4.119873046875,45.0054931640625,-21.6265869140625
1760966181.7449243,-0.71630859375,-0.0537109375,0.70263671875,3.0517578125,-0.42724609375,-1.03759765625,-4.097900390625,45.0,-21.64306640625
1760966181.7768588,-0.72216796875,-0.05029296875,0.701171875,2.685546875,-0.3662109375,-0.91552734375,-4.0814208984375,44.9945068359375,-21.654052734375
1760966181.7851112,-0.72216796875,-0.05029296875,0.701171875,2.685546875,-0.3662109375,-0.91552734375,-4.0704345703125,44.9945068359375,-21.6650390625
1760966181.791869,-0.716796875,-0.05224609375,0.69580078125,2.44140625,-0.48828125,-1.03759765625,-4.053955078125,44.989013671875,-21.676025390625
1760966181.7991993,-0.716796875,-0.05224609375,0.69580078125,2.44140625,-0.48828125,-1.03759765625,-4.04296875,44.989013671875,-21.68701171875
1760966181.8170493,-0.71875,-0.0517578125,0.69970703125,2.9296875,-0.42724609375,-1.0986328125,-4.0264892578125,44.9835205078125,-21.7034912109375
1760966181.8232746,-0.71875,-0.0517578125,0.69970703125,2.9296875,-0.42724609375,-1.0986328125,-4.010009765625,44.9835205078125,-21.719970703125
1760966181.8305972,-0.72314453125,-0.0537109375,0.69775390625,2.38037109375,-0.244140625,-0.9765625,-3.9990234375,44.9835205078125,-21.73095703125
1760966181.8376164,-0.72314453125,-0.0537109375,0.69775390625,2.38037109375,-0.244140625,-0.9765625,-3.988037109375,44.9835205078125,-21.741943359375
1760966181.8448718,-0.72119140625,-0.0517578125,0.6904296875,1.953125,-0.244140625,-0.91552734375,-3.97705078125,44.9835205078125,-21.7584228515625
1760966181.8631506,-0.72119140625,-0.0517578125,0.6904296875,1.953125,-0.244140625,-0.91552734375,-3.9715576171875,44.9835205078125,-21.7694091796875
1760966181.8700092,-0.71923828125,-0.0498046875,0.701171875,2.50244140625,-0.244140625,-0.9765625,-3.9605712890625,44.989013671875,-21.785888671875
1760966181.8770816,-0.71923828125,-0.0498046875,0.701171875,2.50244140625,-0.244140625,-0.9765625,-3.944091796875,44.989013671875,-21.796875
1760966181.885246,-0.71826171875,-0.05078125,0.69677734375,1.953125,-0.244140625,-0.91552734375,-3.9385986328125,44.989013671875,-21.8133544921875
1760966181.892647,-0.71826171875,-0.05078125,0.69677734375,1.953125,-0.244140625,-0.91552734375,-3.9276123046875,44.989013671875,-21.8243408203125
1760966181.9107873,-0.71728515625,-0.0556640625,0.705078125,2.01416015625,-0.18310546875,-0.8544921875,-3.9166259765625,44.989013671875,-21.8353271484375
1760966181.9174645,-0.71728515625,-0.0556640625,0.705078125,2.01416015625,-0.18310546875,-0.8544921875,-3.9111328125,44.9945068359375,-21.8463134765625
1760966181.9246395,-0.71484375,-0.0498046875,0.7041015625,2.0751953125,-0.06103515625,-0.79345703125,-3.900146484375,44.9945068359375,-21.86279296875
1760966181.9340415,-0.71484375,-0.0498046875,0.7041015625,2.0751953125,-0.06103515625,-0.79345703125,-3.88916015625,45.0,-21.873779296875
1760966181.952537,-0.7109375,-0.04736328125,0.70166015625,2.0751953125,0.0,-0.8544921875,-3.878173828125,45.0,-21.884765625
1760966181.9588275,-0.7109375,-0.04736328125,0.70166015625,2.0751953125,0.0,-0.8544921875,-3.8671875,45.0054931640625,-21.895751953125
1760966181.9658911,-0.70703125,-0.0498046875,0.712890625,1.64794921875,-0.1220703125,-0.8544921875,-3.8616943359375,45.0054931640625,-21.90673828125
1760966181.9746642,-0.70703125,-0.0498046875,0.712890625,1.64794921875,-0.1220703125,-0.8544921875,-3.856201171875,45.0054931640625,-21.917724609375
1760966181.9818046,-0.70703125,-0.05078125,0.70458984375,1.77001953125,-0.1220703125,-0.91552734375,-3.8507080078125,45.0054931640625,-21.9287109375
1760966181.9997272,-0.70703125,-0.05078125,0.70458984375,1.77001953125,-0.1220703125,-0.91552734375,-3.84521484375,45.0054931640625,-21.939697265625
1760966182.006585,-0.70458984375,-0.0478515625,0.7109375,2.38037109375,-0.30517578125,-1.03759765625,-3.8287353515625,45.0,-21.9561767578125
1760966182.014295,-0.70458984375,-0.0478515625,0.7109375,2.38037109375,-0.30517578125,-1.03759765625,-3.8177490234375,45.0,-21.9671630859375
1760966182.0223215,-0.7021484375,-0.04638671875,0.71923828125,2.3193359375,-0.3662109375,-1.220703125,-3.8067626953125,44.9945068359375,-21.9781494140625
1760966182.029264,-0.7021484375,-0.04638671875,0.71923828125,2.3193359375,-0.3662109375,-1.220703125,-3.80126953125,44.9945068359375,-21.99462890625
1760966182.0478513,-0.70263671875,-0.044921875,0.71826171875,1.953125,-0.48828125,-1.28173828125,-3.7957763671875,44.989013671875,-22.005615234375
1760966182.0554895,-0.70263671875,-0.044921875,0.71826171875,1.953125,-0.48828125,-1.28173828125,-3.7847900390625,44.97802734375,-22.0220947265625
1760966182.0617537,-0.697265625,-0.04833984375,0.70703125,2.13623046875,-0.732421875,-1.3427734375,-3.779296875,44.9725341796875,-22.0330810546875
1760966182.0684628,-0.697265625,-0.04833984375,0.70703125,2.13623046875,-0.732421875,-1.3427734375,-3.7738037109375,44.9615478515625,-22.049560546875
1760966182.0751247,-0.70654296875,-0.05224609375,0.7216796875,2.685546875,-0.8544921875,-1.28173828125,-3.75732421875,44.9505615234375,-22.060546875
1760966182.0924268,-0.70654296875,-0.05224609375,0.7216796875,2.685546875,-0.8544921875,-1.28173828125,-3.746337890625,44.9395751953125,-22.071533203125
1760966182.1003096,-0.7060546875,-0.0498046875,0.70458984375,2.50244140625,-0.79345703125,-1.3427734375,-3.7353515625,44.9285888671875,-22.0880126953125
1760966182.1073802,-0.7060546875,-0.0498046875,0.70458984375,2.50244140625,-0.79345703125,-1.3427734375,-3.724365234375,44.923095703125,-22.0989990234375
1760966182.1140242,-0.71044921875,-0.046875,0.70849609375,2.13623046875,-0.732421875,-1.28173828125,-3.7188720703125,44.912109375,-22.115478515625
1760966182.1277978,-0.71044921875,-0.046875,0.70849609375,2.13623046875,-0.732421875,-1.28173828125,-3.7078857421875,44.9066162109375,-22.12646484375
1760966182.13688,-0.70654296875,-0.0498046875,0.69970703125,1.77001953125,-0.91552734375,-1.3427734375,-3.702392578125,44.8956298828125,-22.137451171875
1760966182.1447024,-0.70654296875,-0.0498046875,0.69970703125,1.77001953125,-0.91552734375,-1.3427734375,-3.702392578125,44.8846435546875,-22.1539306640625
1760966182.1521046,-0.705078125,-0.0517578125,0.720703125,2.01416015625,-1.0986328125,-1.15966796875,-3.69140625,44.8736572265625,-22.1649169921875
1760966182.1594586,-0.705078125,-0.0517578125,0.720703125,2.01416015625,-1.0986328125,-1.15966796875,-3.6859130859375,44.857177734375,-22.1759033203125
1760966182.1736867,-0.70166015625,-0.04345703125,0.720703125,2.197265625,-1.15966796875,-0.9765625,-3.6749267578125,44.84619140625,-22.1868896484375
1760966182.1806757,-0.70166015625,-0.04345703125,0.720703125,2.197265625,-1.15966796875,-0.9765625,-3.6639404296875,44.835205078125,-22.1923828125
1760966182.1898088,-0.705078125,-0.0478515625,0.703125,2.13623046875,-1.0986328125,-1.03759765625,-3.6529541015625,44.8187255859375,-22.203369140625
1760966182.2058413,-0.705078125,-0.0478515625,0.703125,2.13623046875,-1.0986328125,-1.03759765625,-3.6419677734375,44.8077392578125,-22.21435546875
1760966182.2161171,-0.705078125,-0.0478515625,0.703125,2.62451171875,-1.0986328125,-0.91552734375,-3.62548828125,44.7967529296875,-22.225341796875
1760966182.2241755,-0.7060546875,-0.04931640625,0.720703125,2.62451171875,-1.0986328125,-0.91552734375,-3.6090087890625,44.7857666015625,-22.2308349609375
1760966182.2321365,-0.705078125,-0.04638671875,0.71484375,1.77001953125,-1.03759765625,-0.8544921875,-3.603515625,44.7747802734375,-22.2418212890625
1760966182.2469597,-0.705078125,-0.04638671875,0.71484375,1.77001953125,-1.03759765625,-0.8544921875,-3.592529296875,44.7637939453125,-22.247314453125
1760966182.2541957,-0.70947265625,-0.04541015625,0.70849609375,1.953125,-0.9765625,-0.8544921875,-3.58154296875,44.7528076171875,-22.2528076171875
1760966182.2674012,-0.70947265625,-0.04541015625,0.70849609375,1.953125,-0.9765625,-0.8544921875,-3.5760498046875,44.7418212890625,-22.2637939453125
1760966182.282298,-0.71533203125,-0.04736328125,0.701171875,2.62451171875,-0.9765625,-0.9765625,-3.5595703125,44.7308349609375,-22.2747802734375
1760966182.29328,-0.71533203125,-0.04736328125,0.701171875,2.62451171875,-0.9765625,-0.9765625,-3.5430908203125,44.7198486328125,-22.2857666015625
1760966182.3003557,-0.7177734375,-0.04638671875,0.7099609375,2.86865234375,-0.9765625,-1.0986328125,-3.526611328125,44.7088623046875,-22.2967529296875
1760966182.3213794,-0.7177734375,-0.04638671875,0.7099609375,2.86865234375,-0.9765625,-1.0986328125,-3.5101318359375,44.703369140625,-22.3077392578125
1760966182.328154,-0.71875,-0.04296875,0.689453125,2.86865234375,-0.9765625,-1.220703125,-3.49365234375,44.6923828125,-22.32421875
1760966182.3344448,-0.71875,-0.04296875,0.689453125,2.86865234375,-0.9765625,-1.220703125,-3.4771728515625,44.6868896484375,-22.335205078125
1760966182.3559282,-0.72265625,-0.04248046875,0.69384765625,2.13623046875,-0.91552734375,-1.15966796875,-3.4716796875,44.6759033203125,-22.3516845703125
1760966182.3792286,-0.72265625,-0.04248046875,0.69384765625,2.13623046875,-0.91552734375,-1.15966796875,-3.460693359375,44.67041015625,-22.3681640625
1760966182.3856356,-0.7216796875,-0.04638671875,0.69921875,1.40380859375,-0.91552734375,-1.03759765625,-3.460693359375,44.6649169921875,-22.379150390625
1760966182.39322,-0.7216796875,-0.04638671875,0.69921875,1.40380859375,-0.91552734375,-1.03759765625,-3.4552001953125,44.659423828125,-22.3956298828125
1760966182.401641,-0.72314453125,-0.04541015625,0.69580078125,1.28173828125,-0.79345703125,-1.03759765625,-3.4552001953125,44.659423828125,-22.4066162109375
1760966182.4091005,-0.72314453125,-0.04541015625,0.69580078125,1.28173828125,-0.79345703125,-1.03759765625,-3.4552001953125,44.6539306640625,-22.423095703125
1760966182.4153097,-0.72412109375,-0.0458984375,0.68896484375,1.40380859375,-0.732421875,-0.9765625,-3.44970703125,44.6539306640625,-22.4395751953125
1760966182.4330208,-0.72412109375,-0.0458984375,0.68896484375,1.40380859375,-0.732421875,-0.9765625,-3.4442138671875,44.6484375,-22.4560546875
1760966182.441852,-0.72607421875,-0.04541015625,0.6962890625,1.40380859375,-0.6103515625,-0.91552734375,-3.4442138671875,44.6484375,-22.467041015625
1760966182.4620092,-0.72265625,-0.0400390625,0.68798828125,0.79345703125,-0.54931640625,-0.91552734375,-3.4442138671875,44.6484375,-22.4835205078125
1760966182.4691467,-0.72265625,-0.0400390625,0.68798828125,0.79345703125,-0.54931640625,-0.91552734375,-3.4442138671875,44.6539306640625,-22.5
1760966182.4777398,-0.71923828125,-0.04296875,0.70166015625,-0.06103515625,-0.42724609375,-0.732421875,-3.44970703125,44.6539306640625,-22.510986328125
1760966182.4892285,-0.71923828125,-0.04296875,0.70166015625,-0.06103515625,-0.42724609375,-0.732421875,-3.460693359375,44.6539306640625,-22.52197265625
1760966182.4965382,-0.71728515625,-0.0478515625,0.70556640625,-0.54931640625,-0.30517578125,-0.54931640625,-3.4661865234375,44.659423828125,-22.532958984375
1760966182.5027978,-0.71728515625,-0.0478515625,0.70556640625,-0.54931640625,-0.30517578125,-0.54931640625,-3.482666015625,44.6649169921875,-22.5439453125
1760966182.5158143,-0.7158203125,-0.05224609375,0.69921875,0.30517578125,-0.18310546875,-0.48828125,-3.4881591796875,44.6649169921875,-22.554931640625
1760966182.522745,-0.7158203125,-0.05224609375,0.69921875,0.30517578125,-0.18310546875,-0.48828125,-3.49365234375,44.67041015625,-22.5604248046875
1760966182.5294013,-0.712890625,-0.052734375,0.70263671875,0.91552734375,-0.18310546875,-0.42724609375,-3.49365234375,44.6759033203125,-22.56591796875
1760966182.5359023,-0.712890625,-0.052734375,0.70263671875,0.91552734375,-0.18310546875,-0.42724609375,-3.4881591796875,44.6759033203125,-22.576904296875
1760966182.5425644,-0.708984375,-0.0419921875,0.7099609375,0.79345703125,-0.18310546875,-0.3662109375,-3.4881591796875,44.681396484375,-22.5823974609375
1760966182.5570974,-0.708984375,-0.0419921875,0.7099609375,0.79345703125,-0.18310546875,-0.3662109375,-3.482666015625,44.6868896484375,-22.587890625
1760966182.563851,-0.7099609375,-0.04150390625,0.7119140625,0.0,-0.06103515625,-0.30517578125,-3.482666015625,44.6868896484375,-22.5933837890625
1760966182.570664,-0.7099609375,-0.04150390625,0.7119140625,0.0,-0.06103515625,-0.30517578125,-3.4881591796875,44.6923828125,-22.598876953125
1760966182.5769808,-0.7060546875,-0.04541015625,0.7109375,-0.6103515625,0.0,-0.18310546875,-3.49365234375,44.6978759765625,-22.6043701171875
1760966182.5832896,-0.7060546875,-0.04541015625,0.7109375,-0.6103515625,0.0,-0.18310546875,-3.504638671875,44.6978759765625,-22.6043701171875
1760966182.5984297,-0.7001953125,-0.0478515625,0.7158203125,-0.18310546875,0.0,-0.244140625,-3.5101318359375,44.703369140625,-22.60986328125
1760966182.6054153,-0.7001953125,-0.0478515625,0.7158203125,-0.18310546875,0.0,-0.244140625,-3.515625,44.703369140625,-22.60986328125
1760966182.6115804,-0.69970703125,-0.04443359375,0.72314453125,0.1220703125,0.0,-0.30517578125,-3.5211181640625,44.7088623046875,-22.6153564453125
1760966182.618465,-0.69970703125,-0.04443359375,0.72314453125,0.1220703125,0.0,-0.30517578125,-3.526611328125,44.7088623046875,-22.6153564453125
1760966182.6253083,-0.69580078125,-0.0439453125,0.7119140625,-0.1220703125,-0.06103515625,-0.30517578125,-3.526611328125,44.7088623046875,-22.620849609375
1760966182.633507,-0.69580078125,-0.0439453125,0.7119140625,-0.1220703125,-0.06103515625,-0.30517578125,-3.5321044921875,44.7088623046875,-22.620849609375
1760966182.6481092,-0.6953125,-0.044921875,0.73291015625,-0.1220703125,-0.18310546875,-0.3662109375,-3.53759765625,44.7088623046875,-22.620849609375
1760966182.655686,-0.6953125,-0.044921875,0.73291015625,-0.1220703125,-0.18310546875,-0.3662109375,-3.5430908203125,44.703369140625,-22.620849609375
1760966182.6618056,-0.69775390625,-0.046875,0.724609375,0.8544921875,-0.18310546875,-0.48828125,-3.5430908203125,44.703369140625,-22.6263427734375
1760966182.6684492,-0.69775390625,-0.046875,0.724609375,0.8544921875,-0.18310546875,-0.48828125,-3.5430908203125,44.6978759765625,-22.6263427734375
1760966182.6821141,-0.703125,-0.0419921875,0.70556640625,1.0986328125,-0.18310546875,-0.42724609375,-3.53759765625,44.6923828125,-22.6263427734375
1760966182.6889675,-0.703125,-0.0419921875,0.70556640625,1.0986328125,-0.18310546875,-0.42724609375,-3.5321044921875,44.6923828125,-22.6318359375
1760966182.6954696,-0.703125,-0.0419921875,0.70556640625,0.42724609375,-0.18310546875,-0.67138671875,-3.526611328125,44.6868896484375,-22.6318359375
1760966182.702001,-0.70703125,-0.044921875,0.70556640625,0.42724609375,-0.18310546875,-0.67138671875,-3.5321044921875,44.6868896484375,-22.6373291015625
1760966182.7165477,-0.7041015625,-0.0458984375,0.71923828125,-0.1220703125,-0.18310546875,-0.67138671875,-3.53759765625,44.681396484375,-22.642822265625
1760966182.7234309,-0.7041015625,-0.0458984375,0.71923828125,-0.1220703125,-0.18310546875,-0.67138671875,-3.5430908203125,44.6759033203125,-22.6483154296875
1760966182.7302,-0.70458984375,-0.0458984375,0.7158203125,0.0,-0.244140625,-0.6103515625,-3.5540771484375,44.6759033203125,-22.6483154296875
1760966182.747679,-0.70458984375,-0.0458984375,0.7158203125,0.0,-0.244140625,-0.6103515625,-3.5595703125,44.67041015625,-22.65380859375
1760966182.7620785,-0.7109375,-0.04443359375,0.70751953125,0.79345703125,-0.18310546875,-0.732421875,-3.5595703125,44.67041015625,-22.6593017578125
1760966182.7691712,-0.7109375,-0.04443359375,0.70751953125,0.79345703125,-0.18310546875,-0.732421875,-3.5595703125,44.6649169921875,-22.664794921875
1760966182.7761168,-0.71875,-0.04638671875,0.68603515625,0.8544921875,-0.18310546875,-0.732421875,-3.5595703125,44.6649169921875,-22.6702880859375
1760966182.783182,-0.71875,-0.04638671875,0.68603515625,0.8544921875,-0.18310546875,-0.732421875,-3.5595703125,44.659423828125,-22.6812744140625
1760966182.7962499,-0.71533203125,-0.04541015625,0.7001953125,0.732421875,-0.30517578125,-0.67138671875,-3.5595703125,44.659423828125,-22.686767578125
1760966182.8034356,-0.71533203125,-0.04541015625,0.7001953125,0.732421875,-0.30517578125,-0.67138671875,-3.5595703125,44.659423828125,-22.6922607421875
1760966182.8104181,-0.71337890625,-0.04248046875,0.7216796875,-0.30517578125,-0.18310546875,-0.6103515625,-3.5650634765625,44.659423828125,-22.69775390625
1760966182.8207364,-0.71337890625,-0.04248046875,0.7216796875,-0.30517578125,-0.18310546875,-0.6103515625,-3.570556640625,44.659423828125,-22.7032470703125
1760966182.8357627,-0.712890625,-0.044921875,0.69384765625,-0.79345703125,-0.1220703125,-0.48828125,-3.58154296875,44.659423828125,-22.708740234375
1760966182.8432684,-0.712890625,-0.044921875,0.69384765625,-0.79345703125,-0.1220703125,-0.48828125,-3.5980224609375,44.659423828125,-22.7142333984375
1760966182.8503888,-0.70849609375,-0.0517578125,0.70849609375,-0.48828125,-0.244140625,-0.48828125,-3.6090087890625,44.659423828125,-22.7197265625
1760966182.8669167,-0.70849609375,-0.0517578125,0.70849609375,-0.48828125,-0.244140625,-0.48828125,-3.614501953125,44.659423828125,-22.7252197265625
1760966182.8748171,-0.70556640625,-0.04833984375,0.70849609375,-0.1220703125,-0.244140625,-0.48828125,-3.62548828125,44.659423828125,-22.730712890625
1760966182.8813846,-0.70556640625,-0.04833984375,0.70849609375,-0.1220703125,-0.244140625,-0.48828125,-3.6309814453125,44.659423828125,-22.7362060546875
1760966182.890342,-0.701171875,-0.04345703125,0.7255859375,-0.18310546875,-0.3662109375,-0.48828125,-3.636474609375,44.659423828125,-22.74169921875
1760966182.9067044,-0.701171875,-0.04345703125,0.7255859375,-0.18310546875,-0.3662109375,-0.48828125,-3.6474609375,44.6539306640625,-22.74169921875
1760966182.9143448,-0.70263671875,-0.046875,0.7080078125,-1.03759765625,-0.3662109375,-0.3662109375,-3.658447265625,44.6539306640625,-22.7471923828125
1760966182.9208531,-0.70263671875,-0.046875,0.7080078125,-1.03759765625,-0.3662109375,-0.3662109375,-3.66943359375,44.6484375,-22.7471923828125
1760966182.9322937,-0.7021484375,-0.0517578125,0.70849609375,0.0,-0.48828125,-0.42724609375,-3.680419921875,44.6429443359375,-22.7471923828125
1760966182.9468813,-0.7021484375,-0.0517578125,0.70849609375,0.0,-0.48828125,-0.42724609375,-3.6859130859375,44.6429443359375,-22.752685546875
1760966182.9549265,-0.70068359375,-0.05322265625,0.71728515625,0.244140625,-0.48828125,-0.3662109375,-3.6859130859375,44.637451171875,-22.752685546875
1760966182.9628828,-0.70068359375,-0.05322265625,0.71728515625,0.244140625,-0.48828125,-0.3662109375,-3.69140625,44.6319580078125,-22.7581787109375
1760966182.970403,-0.70458984375,-0.04443359375,0.7158203125,-0.67138671875,-0.48828125,-0.244140625,-3.6968994140625,44.62646484375,-22.7581787109375
1760966182.9815257,-0.70458984375,-0.04443359375,0.7158203125,-0.67138671875,-0.48828125,-0.244140625,-3.702392578125,44.6209716796875,-22.7581787109375
1760966182.9993594,-0.708984375,-0.04638671875,0.7109375,-1.03759765625,-0.42724609375,-0.244140625,-3.71337890625,44.615478515625,-22.7581787109375
1760966183.0083659,-0.708984375,-0.04638671875,0.7109375,-1.03759765625,-0.42724609375,-0.244140625,-3.7298583984375,44.615478515625,-22.7581787109375
1760966183.0158963,-0.7119140625,-0.052734375,0.7060546875,-0.3662109375,-0.42724609375,-0.1220703125,-3.7353515625,44.6099853515625,-22.7581787109375
1760966183.0235298,-0.7119140625,-0.052734375,0.7060546875,-0.3662109375,-0.42724609375,-0.1220703125,-3.7408447265625,44.6044921875,-22.7581787109375
1760966183.039736,-0.7158203125,-0.05078125,0.6982421875,1.15966796875,-0.42724609375,-0.30517578125,-3.7408447265625,44.6044921875,-22.7581787109375
1760966183.04731,-0.7158203125,-0.05078125,0.6982421875,1.15966796875,-0.42724609375,-0.30517578125,-3.7353515625,44.5989990234375,-22.7581787109375
1760966183.0544944,-0.7158203125,-0.05224609375,0.69970703125,1.8310546875,-0.48828125,-0.42724609375,-3.724365234375,44.5989990234375,-22.763671875
1760966183.0615628,-0.7158203125,-0.05224609375,0.69970703125,1.8310546875,-0.48828125,-0.42724609375,-3.71337890625,44.593505859375,-22.7691650390625
1760966183.0788653,-0.7197265625,-0.04736328125,0.697265625,1.89208984375,-0.3662109375,-0.42724609375,-3.6968994140625,44.593505859375,-22.774658203125
1760966183.0903516,-0.7197265625,-0.04736328125,0.697265625,1.89208984375,-0.3662109375,-0.42724609375,-3.6859130859375,44.593505859375,-22.7801513671875
1760966183.0980449,-0.71923828125,-0.041015625,0.7021484375,1.40380859375,-0.30517578125,-0.54931640625,-3.6749267578125,44.593505859375,-22.78564453125
1760966183.1066754,-0.71923828125,-0.041015625,0.7021484375,1.40380859375,-0.30517578125,-0.54931640625,-3.66943359375,44.593505859375,-22.7911376953125
1760966183.12231,-0.7138671875,-0.04248046875,0.69873046875,1.220703125,-0.244140625,-0.732421875,-3.6639404296875,44.593505859375,-22.8021240234375
1760966183.1313686,-0.7138671875,-0.04248046875,0.69873046875,1.220703125,-0.244140625,-0.732421875,-3.658447265625,44.593505859375,-22.8131103515625
1760966183.1383286,-0.71240234375,-0.0537109375,0.7099609375,1.64794921875,-0.244140625,-0.8544921875,-3.6529541015625,44.5989990234375,-22.8240966796875
1760966183.1466572,-0.71240234375,-0.0537109375,0.7099609375,1.64794921875,-0.244140625,-0.8544921875,-3.6419677734375,44.5989990234375,-22.8350830078125
1760966183.1635423,-0.71240234375,-0.0537109375,0.7099609375,2.25830078125,-0.18310546875,-0.8544921875,-3.636474609375,44.5989990234375,-22.8460693359375
1760966183.1721199,-0.71484375,-0.0498046875,0.69677734375,2.25830078125,-0.18310546875,-0.8544921875,-3.6199951171875,44.6044921875,-22.8570556640625
1760966183.1816685,-0.71484375,-0.046875,0.7041015625,2.38037109375,-0.06103515625,-0.8544921875,-3.6090087890625,44.6044921875,-22.8680419921875
1760966183.1889746,-0.71484375,-0.046875,0.7041015625,2.38037109375,-0.06103515625,-0.8544921875,-3.5980224609375,44.6099853515625,-22.884521484375
1760966183.2031882,-0.708984375,-0.04443359375,0.71533203125,1.953125,0.06103515625,-0.8544921875,-3.58154296875,44.6099853515625,-22.8955078125
1760966183.210702,-0.708984375,-0.04443359375,0.71533203125,1.953125,0.06103515625,-0.8544921875,-3.5760498046875,44.615478515625,-22.906494140625
1760966183.2174695,-0.705078125,-0.0400390625,0.71240234375,1.52587890625,0.244140625,-0.9765625,-3.570556640625,44.6209716796875,-22.91748046875
1760966183.2246861,-0.705078125,-0.0400390625,0.71240234375,1.52587890625,0.244140625,-0.9765625,-3.5650634765625,44.62646484375,-22.928466796875
1760966183.2329557,-0.70703125,-0.04541015625,0.7109375,1.5869140625,0.244140625,-1.03759765625,-3.5595703125,44.6319580078125,-22.939453125
1760966183.250219,-0.70703125,-0.04541015625,0.7109375,1.5869140625,0.244140625,-1.03759765625,-3.5540771484375,44.6319580078125,-22.9559326171875
1760966183.258072,-0.7080078125,-0.0537109375,0.70703125,1.8310546875,0.244140625,-0.9765625,-3.548583984375,44.637451171875,-22.9669189453125
1760966183.266978,-0.7080078125,-0.0537109375,0.70703125,1.8310546875,0.244140625,-0.9765625,-3.5430908203125,44.6429443359375,-22.9779052734375
1760966183.2823322,-0.70947265625,-0.0478515625,0.71337890625,2.50244140625,0.18310546875,-0.91552734375,-3.5321044921875,44.6484375,-22.994384765625
1760966183.2912536,-0.70947265625,-0.0478515625,0.71337890625,2.50244140625,0.18310546875,-0.91552734375,-3.515625,44.6484375,-23.00537109375
1760966183.2991097,-0.70947265625,-0.04541015625,0.70654296875,2.74658203125,0.30517578125,-0.8544921875,-3.4991455078125,44.6539306640625,-23.016357421875
1760966183.306593,-0.70947265625,-0.04541015625,0.70654296875,2.74658203125,0.30517578125,-0.8544921875,-3.482666015625,44.659423828125,-23.02734375
1760966183.3292131,-0.70458984375,-0.044921875,0.720703125,3.41796875,0.18310546875,-0.91552734375,-3.4661865234375,44.6649169921875,-23.038330078125
1760966183.3368957,-0.70458984375,-0.044921875,0.720703125,3.41796875,0.18310546875,-0.91552734375,-3.4442138671875,44.6649169921875,-23.04931640625
1760966183.3445835,-0.71923828125,-0.04638671875,0.70654296875,3.60107421875,0.6103515625,-0.8544921875,-3.416748046875,44.67041015625,-23.060302734375
1760966183.3515282,-0.71923828125,-0.04638671875,0.70654296875,3.60107421875,0.6103515625,-0.8544921875,-3.394775390625,44.6759033203125,-23.0657958984375
1760966183.3647099,-0.732421875,-0.0380859375,0.67626953125,3.662109375,0.8544921875,-1.03759765625,-3.3673095703125,44.6868896484375,-23.0767822265625
1760966183.3733547,-0.732421875,-0.0380859375,0.67626953125,3.662109375,0.8544921875,-1.03759765625,-3.3453369140625,44.6978759765625,-23.09326171875
1760966183.3816714,-0.7314453125,-0.04443359375,0.6845703125,3.7841796875,1.220703125,-1.15966796875,-3.31787109375,44.7088623046875,-23.1097412109375
1760966183.3909004,-0.7314453125,-0.04443359375,0.6845703125,3.7841796875,1.220703125,-1.15966796875,-3.2958984375,44.7308349609375,-23.126220703125
1760966183.4061205,-0.72314453125,-0.044921875,0.69970703125,4.2724609375,1.40380859375,-1.220703125,-3.27392578125,44.747314453125,-23.1427001953125
1760966183.414363,-0.72314453125,-0.044921875,0.69970703125,4.2724609375,1.40380859375,-1.220703125,-3.2464599609375,44.7637939453125,-23.1646728515625
1760966183.4223084,-0.71484375,-0.03955078125,0.693359375,4.0283203125,1.3427734375,-1.15966796875,-3.218994140625,44.7857666015625,-23.18115234375
1760966183.4324434,-0.71484375,-0.03955078125,0.693359375,4.0283203125,1.3427734375,-1.15966796875,-3.1915283203125,44.80224609375,-23.1976318359375
1760966183.4494197,-0.70947265625,-0.0419921875,0.70751953125,3.11279296875,1.03759765625,-0.9765625,-3.175048828125,44.8187255859375,-23.214111328125
1760966183.4583511,-0.70947265625,-0.0419921875,0.70751953125,3.11279296875,1.03759765625,-0.9765625,-3.153076171875,44.8297119140625,-23.2305908203125
1760966183.4659824,-0.7021484375,-0.0380859375,0.7197265625,1.953125,0.9765625,-0.8544921875,-3.1475830078125,44.84619140625,-23.2415771484375
1760966183.4743044,-0.7021484375,-0.0380859375,0.7197265625,1.953125,0.9765625,-0.8544921875,-3.1365966796875,44.857177734375,-23.2525634765625
1760966183.4902399,-0.70166015625,-0.037109375,0.716796875,0.732421875,0.9765625,-0.732421875,-3.14208984375,44.8681640625,-23.2635498046875
1760966183.4984167,-0.70166015625,-0.037109375,0.716796875,0.732421875,0.9765625,-0.732421875,-3.14208984375,44.879150390625,-23.2745361328125
1760966183.5053031,-0.70263671875,-0.041015625,0.71630859375,-0.30517578125,0.9765625,-0.6103515625,-3.153076171875,44.89013671875,-23.280029296875
1760966183.5121198,-0.70263671875,-0.041015625,0.71630859375,-0.30517578125,0.9765625,-0.6103515625,-3.1640625,44.901123046875,-23.2855224609375
1760966183.5190933,-0.70361328125,-0.04541015625,0.71533203125,0.0,0.9765625,-0.67138671875,-3.175048828125,44.912109375,-23.291015625
1760966183.5384426,-0.70361328125,-0.04541015625,0.71533203125,0.0,0.9765625,-0.67138671875,-3.1805419921875,44.9176025390625,-23.2965087890625
1760966183.545898,-0.7041015625,-0.04296875,0.70751953125,0.91552734375,0.91552734375,-0.732421875,-3.1805419921875,44.9285888671875,-23.3074951171875
1760966183.5540335,-0.7041015625,-0.04296875,0.70751953125,0.91552734375,0.91552734375,-0.732421875,-3.1805419921875,44.9395751953125,-23.31298828125
1760966183.5639303,-0.7060546875,-0.03955078125,0.71484375,1.5869140625,0.732421875,-0.8544921875,-3.175048828125,44.945068359375,-23.323974609375
1760966183.5795264,-0.7060546875,-0.03955078125,0.71484375,1.5869140625,0.732421875,-0.8544921875,-3.1695556640625,44.9505615234375,-23.3294677734375
1760966183.5879767,-0.70751953125,-0.0380859375,0.70947265625,0.8544921875,0.54931640625,-0.9765625,-3.175048828125,44.9560546875,-23.3404541015625
1760966183.5947113,-0.70751953125,-0.0380859375,0.70947265625,0.8544921875,0.54931640625,-0.9765625,-3.175048828125,44.9560546875,-23.3514404296875
1760966183.6135182,-0.7138671875,-0.03369140625,0.70751953125,0.3662109375,0.3662109375,-1.0986328125,-3.18603515625,44.9615478515625,-23.3624267578125
1760966183.6222644,-0.7138671875,-0.03369140625,0.70751953125,0.3662109375,0.3662109375,-1.0986328125,-3.1915283203125,44.9615478515625,-23.3734130859375
1760966183.6310647,-0.71630859375,-0.0361328125,0.693359375,1.03759765625,0.3662109375,-1.5869140625,-3.197021484375,44.967041015625,-23.3953857421875
1760966183.638813,-0.71630859375,-0.0361328125,0.693359375,1.03759765625,0.3662109375,-1.5869140625,-3.2025146484375,44.9725341796875,-23.411865234375
1760966183.653251,-0.7216796875,-0.04248046875,0.69287109375,2.74658203125,0.3662109375,-2.0751953125,-3.197021484375,44.9725341796875,-23.4393310546875
1760966183.6614778,-0.7216796875,-0.04248046875,0.69287109375,2.74658203125,0.3662109375,-2.0751953125,-3.1915283203125,44.97802734375,-23.4613037109375
1760966183.6680279,-0.7275390625,-0.03759765625,0.6875,3.7841796875,0.48828125,-2.44140625,-3.175048828125,44.9835205078125,-23.4942626953125
1760966183.6755958,-0.7275390625,-0.03759765625,0.6875,3.7841796875,0.48828125,-2.44140625,-3.1640625,44.989013671875,-23.5272216796875
1760966183.6936443,-0.7265625,-0.037109375,0.685546875,3.11279296875,0.42724609375,-2.50244140625,-3.1585693359375,44.9945068359375,-23.5601806640625
