timestamp,acc_x,acc_y,acc_z,gyro_x,gyro_y,gyro_z,angle_x,angle_y,angle_z
1760967370.045898,-0.6630859375,-0.00341796875,0.76513671875,3.41796875,-1.15966796875,-1.15966796875,-0.9613037109375,41.495361328125,-174.6771240234375
1760967370.058126,-0.6630859375,-0.00341796875,0.76513671875,3.41796875,-1.15966796875,-1.15966796875,-0.9393310546875,41.4898681640625,-174.6881103515625
1760967370.069752,-0.65673828125,-0.00537109375,0.75390625,2.0751953125,-1.15966796875,-0.9765625,-0.9283447265625,41.4788818359375,-174.6990966796875
1760967370.0798542,-0.65673828125,-0.00537109375,0.75390625,2.0751953125,-1.15966796875,-0.9765625,-0.9173583984375,41.4678955078125,-174.715576171875
1760967370.0875754,-0.65283203125,-0.009765625,0.77197265625,1.3427734375,-1.220703125,-0.8544921875,-0.9173583984375,41.46240234375,-174.7265625
1760967370.0944123,-0.65283203125,-0.009765625,0.77197265625,1.3427734375,-1.220703125,-0.8544921875,-0.911865234375,41.4459228515625,-174.737548828125
1760967370.1044185,-0.64404296875,-0.0087890625,0.76220703125,1.0986328125,-1.3427734375,-0.8544921875,-0.9063720703125,41.4349365234375,-174.7540283203125
1760967370.1149044,-0.64404296875,-0.0087890625,0.76220703125,1.0986328125,-1.3427734375,-0.8544921875,-0.9063720703125,41.41845703125,-174.7650146484375
1760967370.1246393,-0.6376953125,-0.00732421875,0.78369140625,1.64794921875,-1.46484375,-0.9765625,-0.8953857421875,41.4019775390625,-174.781494140625
1760967370.1345687,-0.6376953125,-0.00732421875,0.78369140625,1.64794921875,-1.46484375,-0.9765625,-0.889892578125,41.385498046875,-174.803466796875
1760967370.1445873,-0.6396484375,-0.0107421875,0.77783203125,2.13623046875,-1.3427734375,-1.0986328125,-0.87890625,41.3690185546875,-174.8199462890625
1760967370.1546195,-0.6396484375,-0.0107421875,0.77783203125,2.13623046875,-1.3427734375,-1.0986328125,-0.867919921875,41.3525390625,-174.8419189453125
1760967370.1643443,-0.64892578125,-0.00830078125,0.7685546875,0.79345703125,-1.15966796875,-0.9765625,-0.867919921875,41.3360595703125,-174.8638916015625
1760967370.1743531,-0.64892578125,-0.00830078125,0.7685546875,0.79345703125,-1.15966796875,-0.9765625,-0.867919921875,41.319580078125,-174.88037109375
1760967370.1844006,-0.6552734375,-0.009765625,0.76025390625,0.54931640625,-0.91552734375,-0.79345703125,-0.867919921875,41.3031005859375,-174.8968505859375
1760967370.1943796,-0.6552734375,-0.009765625,0.76025390625,0.54931640625,-0.91552734375,-0.79345703125,-0.8734130859375,41.2921142578125,-174.9188232421875
1760967370.2044604,-0.65771484375,-0.01318359375,0.76513671875,0.30517578125,-0.732421875,-0.67138671875,-0.8734130859375,41.2811279296875,-174.935302734375
1760967370.2144365,-0.65771484375,-0.01318359375,0.76513671875,0.30517578125,-0.732421875,-0.67138671875,-0.87890625,41.2701416015625,-174.9517822265625
1760967370.2244344,-0.658203125,-0.0078125,0.76025390625,0.3662109375,-0.67138671875,-0.42724609375,-0.87890625,41.2591552734375,-174.9627685546875
1760967370.2344394,-0.658203125,-0.0078125,0.76025390625,0.3662109375,-0.67138671875,-0.42724609375,-0.87890625,41.2481689453125,-174.9737548828125
1760967370.244502,-0.6640625,-0.00927734375,0.7490234375,1.0986328125,-0.732421875,-0.6103515625,-0.867919921875,41.2371826171875,-174.990234375
1760967370.2544525,-0.6640625,-0.00927734375,0.7490234375,1.0986328125,-0.732421875,-0.6103515625,-0.8624267578125,41.2261962890625,-175.001220703125
1760967370.2644684,-0.669921875,-0.01123046875,0.7451171875,0.30517578125,-0.67138671875,-0.54931640625,-0.867919921875,41.2152099609375,-175.01220703125
1760967370.2744853,-0.669921875,-0.01123046875,0.7451171875,0.30517578125,-0.67138671875,-0.54931640625,-0.867919921875,41.209716796875,-175.023193359375
1760967370.2844956,-0.671875,-0.01318359375,0.75732421875,-1.15966796875,-0.54931640625,-0.3662109375,-0.87890625,41.2042236328125,-175.0341796875
1760967370.2944999,-0.671875,-0.01318359375,0.75732421875,-1.15966796875,-0.54931640625,-0.3662109375,-0.8953857421875,41.19873046875,-175.0396728515625
1760967370.3045273,-0.67529296875,-0.0107421875,0.73974609375,-1.52587890625,-0.3662109375,-0.3662109375,-0.911865234375,41.1932373046875,-175.045166015625
1760967370.314507,-0.67529296875,-0.0107421875,0.73974609375,-1.52587890625,-0.3662109375,-0.3662109375,-0.933837890625,41.1932373046875,-175.05615234375
1760967370.3245425,-0.6943359375,-0.01171875,0.7138671875,-0.9765625,-0.18310546875,-0.48828125,-0.94482421875,41.1932373046875,-175.05615234375
1760967370.3345323,-0.6943359375,-0.01171875,0.7138671875,-0.9765625,-0.18310546875,-0.48828125,-0.9613037109375,41.1932373046875,-175.0616455078125
1760967370.3445604,-0.69970703125,-0.015625,0.720703125,0.0,0.06103515625,-0.54931640625,-0.9613037109375,41.19873046875,-175.067138671875
1760967370.3545573,-0.69970703125,-0.015625,0.720703125,0.0,0.06103515625,-0.54931640625,-0.966796875,41.2042236328125,-175.067138671875
1760967370.3645856,-0.69140625,-0.01220703125,0.72265625,-1.89208984375,0.30517578125,-0.30517578125,-0.98876953125,41.2152099609375,-175.0616455078125
1760967370.3745868,-0.69140625,-0.01220703125,0.72265625,-1.89208984375,0.30517578125,-0.30517578125,-1.0107421875,41.2261962890625,-175.05615234375
1760967370.3845918,-0.6787109375,-0.0185546875,0.7373046875,-2.44140625,0.42724609375,-0.244140625,-1.0382080078125,41.2371826171875,-175.0506591796875
1760967370.394601,-0.6787109375,-0.0185546875,0.7373046875,-2.44140625,0.42724609375,-0.244140625,-1.065673828125,41.253662109375,-175.045166015625
1760967370.404619,-0.66064453125,-0.01318359375,0.7509765625,-0.91552734375,0.3662109375,-0.3662109375,-1.07666015625,41.2646484375,-175.045166015625
1760967370.4146194,-0.66064453125,-0.01318359375,0.7509765625,-0.91552734375,0.3662109375,-0.3662109375,-1.087646484375,41.2701416015625,-175.045166015625
1760967370.4246576,-0.64208984375,-0.00390625,0.77783203125,-1.15966796875,0.244140625,-0.48828125,-1.1041259765625,41.2811279296875,-175.045166015625
1760967370.4346516,-0.64208984375,-0.00390625,0.77783203125,-1.15966796875,0.244140625,-0.48828125,-1.1151123046875,41.28662109375,-175.045166015625
1760967370.4446528,-0.6318359375,-0.01171875,0.79345703125,-0.42724609375,0.0,-0.6103515625,-1.1260986328125,41.28662109375,-175.0506591796875
1760967370.4546695,-0.6318359375,-0.01171875,0.79345703125,-0.42724609375,0.0,-0.6103515625,-1.131591796875,41.28662109375,-175.0616455078125
1760967370.4646938,-0.62841796875,-0.01611328125,0.78662109375,0.54931640625,-0.18310546875,-0.9765625,-1.1370849609375,41.2811279296875,-175.078125
1760967370.4746988,-0.62841796875,-0.01611328125,0.78662109375,0.54931640625,-0.18310546875,-0.9765625,-1.1370849609375,41.2811279296875,-175.0946044921875
1760967370.4846973,-0.63916015625,-0.00390625,0.77294921875,2.685546875,-0.30517578125,-1.52587890625,-1.12060546875,41.2701416015625,-175.1220703125
1760967370.4947069,-0.63916015625,-0.00390625,0.77294921875,2.685546875,-0.30517578125,-1.52587890625,-1.109619140625,41.2646484375,-175.14404296875
1760967370.5047216,-0.6455078125,-0.009765625,0.78369140625,2.86865234375,-0.6103515625,-1.708984375,-1.0931396484375,41.253662109375,-175.1715087890625
1760967370.5147238,-0.6455078125,-0.009765625,0.78369140625,2.86865234375,-0.6103515625,-1.708984375,-1.07666015625,41.24267578125,-175.198974609375
1760967370.524745,-0.66796875,-0.02197265625,0.734375,3.35693359375,-0.67138671875,-1.5869140625,-1.0546875,41.2261962890625,-175.2264404296875
1760967370.5348635,-0.66796875,-0.02197265625,0.734375,3.35693359375,-0.67138671875,-1.5869140625,-1.03271484375,41.220703125,-175.25390625
1760967370.5447888,-0.6845703125,-0.0166015625,0.72998046875,3.0517578125,-0.79345703125,-1.46484375,-1.0162353515625,41.209716796875,-175.27587890625
1760967370.555219,-0.6845703125,-0.0166015625,0.72998046875,3.0517578125,-0.79345703125,-1.46484375,-0.999755859375,41.19873046875,-175.2978515625
1760967370.5650663,-0.68994140625,-0.009765625,0.7373046875,1.8310546875,-0.8544921875,-1.220703125,-0.98876953125,41.1932373046875,-175.3143310546875
1760967370.5749621,-0.6953125,-0.02490234375,0.7119140625,1.953125,-0.79345703125,-0.91552734375,-0.9832763671875,41.1822509765625,-175.330810546875
1760967370.58517,-0.6953125,-0.02490234375,0.7119140625,1.953125,-0.79345703125,-0.91552734375,-0.9722900390625,41.1822509765625,-175.341796875
1760967370.5949745,-0.6962890625,-0.02099609375,0.72119140625,2.197265625,-0.67138671875,-0.732421875,-0.9613037109375,41.1767578125,-175.3472900390625
1760967370.6051738,-0.6962890625,-0.02099609375,0.72119140625,2.197265625,-0.67138671875,-0.732421875,-0.94482421875,41.1767578125,-175.352783203125
1760967370.6150022,-0.68212890625,-0.00244140625,0.73828125,-0.06103515625,-0.244140625,-0.42724609375,-0.9393310546875,41.1767578125,-175.352783203125
1760967370.6248932,-0.68212890625,-0.00244140625,0.73828125,-0.06103515625,-0.244140625,-0.42724609375,-0.94482421875,41.1822509765625,-175.352783203125
1760967370.6358483,-0.669921875,0.0,0.744140625,0.0,0.0,-0.67138671875,-0.9503173828125,41.187744140625,-175.352783203125
1760967370.6450975,-0.669921875,0.0,0.744140625,0.0,0.0,-0.67138671875,-0.955810546875,41.19873046875,-175.352783203125
1760967370.655036,-0.6611328125,-0.01171875,0.759765625,0.6103515625,0.1220703125,-1.03759765625,-0.9613037109375,41.2042236328125,-175.3582763671875
1760967370.6651058,-0.6611328125,-0.01171875,0.759765625,0.6103515625,0.1220703125,-1.03759765625,-0.966796875,41.209716796875,-175.36376953125
1760967370.6750379,-0.63525390625,-0.0107421875,0.76953125,0.0,0.244140625,-1.15966796875,-0.9722900390625,41.2152099609375,-175.374755859375
1760967370.6854868,-0.63525390625,-0.0107421875,0.76953125,0.0,0.244140625,-1.15966796875,-0.977783203125,41.220703125,-175.3857421875
1760967370.6956072,-0.61376953125,-0.00732421875,0.81640625,-0.18310546875,0.1220703125,-1.28173828125,-0.98876953125,41.2261962890625,-175.4022216796875
1760967370.7050202,-0.61376953125,-0.00732421875,0.81640625,-0.18310546875,0.1220703125,-1.28173828125,-0.999755859375,41.2261962890625,-175.418701171875
1760967370.7155285,-0.61474609375,-0.01953125,0.80078125,0.91552734375,0.1220703125,-1.3427734375,-1.0107421875,41.220703125,-175.440673828125
1760967370.7253387,-0.61474609375,-0.01953125,0.80078125,0.91552734375,0.1220703125,-1.3427734375,-1.0107421875,41.220703125,-175.4681396484375
1760967370.735049,-0.62255859375,-0.0205078125,0.79052734375,2.13623046875,0.0,-1.40380859375,-1.0052490234375,41.209716796875,-175.49560546875
1760967370.7450712,-0.62255859375,-0.0205078125,0.79052734375,2.13623046875,0.0,-1.40380859375,-0.999755859375,41.2042236328125,-175.5230712890625
1760967370.7554195,-0.63671875,-0.01318359375,0.78466796875,1.8310546875,0.0,-1.15966796875,-0.98876953125,41.1932373046875,-175.550537109375
1760967370.7652771,-0.63671875,-0.01318359375,0.78466796875,1.8310546875,0.0,-1.15966796875,-0.9832763671875,41.187744140625,-175.5780029296875
1760967370.775159,-0.65234375,-0.01611328125,0.7646484375,1.77001953125,-0.244140625,-0.9765625,-0.9722900390625,41.1767578125,-175.60546875
1760967370.785435,-0.65234375,-0.01611328125,0.7646484375,1.77001953125,-0.244140625,-0.9765625,-0.966796875,41.165771484375,-175.6329345703125
1760967370.7955868,-0.66064453125,-0.00927734375,0.736328125,2.50244140625,-0.54931640625,-1.03759765625,-0.9503173828125,41.15478515625,-175.6549072265625
1760967370.8051684,-0.66064453125,-0.00927734375,0.736328125,2.50244140625,-0.54931640625,-1.03759765625,-0.9393310546875,41.1383056640625,-175.6768798828125
1760967370.8152957,-0.6708984375,0.0009765625,0.75537109375,2.685546875,-0.54931640625,-1.220703125,-0.9228515625,41.1273193359375,-175.6988525390625
1760967370.8253977,-0.6708984375,0.0009765625,0.75537109375,2.685546875,-0.54931640625,-1.220703125,-0.9063720703125,41.1163330078125,-175.7208251953125
1760967370.8351846,-0.67138671875,-0.01171875,0.7548828125,1.40380859375,-0.18310546875,-1.0986328125,-0.8953857421875,41.11083984375,-175.7427978515625
1760967370.8452864,-0.67138671875,-0.01171875,0.7548828125,1.40380859375,-0.18310546875,-1.0986328125,-0.889892578125,41.1053466796875,-175.75927734375
1760967370.8559475,-0.67236328125,-0.01513671875,0.73828125,0.79345703125,0.0,-0.9765625,-0.8843994140625,41.099853515625,-175.7757568359375
1760967370.8672802,-0.67236328125,-0.01513671875,0.73828125,0.79345703125,0.0,-0.9765625,-0.8843994140625,41.099853515625,-175.792236328125
1760967370.8762593,-0.6787109375,-0.01513671875,0.736328125,1.0986328125,0.1220703125,-0.9765625,-0.8843994140625,41.099853515625,-175.80322265625
1760967370.8852897,-0.6787109375,-0.01513671875,0.736328125,1.0986328125,0.1220703125,-0.9765625,-0.8843994140625,41.099853515625,-175.8197021484375
1760967370.8953903,-0.6689453125,-0.01806640625,0.74365234375,0.91552734375,0.3662109375,-1.0986328125,-0.8843994140625,41.1053466796875,-175.8306884765625
1760967370.9054356,-0.6689453125,-0.01806640625,0.74365234375,0.91552734375,0.3662109375,-1.0986328125,-0.8843994140625,41.11083984375,-175.8416748046875
1760967370.9152348,-0.66259765625,-0.00048828125,0.75390625,0.1220703125,0.48828125,-0.9765625,-0.889892578125,41.1163330078125,-175.858154296875
1760967370.9252334,-0.66259765625,-0.00048828125,0.75390625,0.1220703125,0.48828125,-0.9765625,-0.8953857421875,41.121826171875,-175.8636474609375
1760967370.935651,-0.65087890625,-0.01708984375,0.77294921875,-0.9765625,0.54931640625,-0.6103515625,-0.9063720703125,41.1273193359375,-175.8746337890625
1760967370.9453409,-0.65087890625,-0.01708984375,0.77294921875,-0.9765625,0.54931640625,-0.6103515625,-0.9228515625,41.1328125,-175.880126953125
1760967370.9553876,-0.64697265625,-0.0107421875,0.77880859375,-2.25830078125,0.67138671875,-0.42724609375,-0.94482421875,41.143798828125,-175.89111328125
1760967370.9661093,-0.64697265625,-0.0107421875,0.77880859375,-2.25830078125,0.67138671875,-0.42724609375,-0.966796875,41.1492919921875,-175.8966064453125
1760967370.9755695,-0.64208984375,-0.0009765625,0.767578125,-2.62451171875,0.6103515625,-0.48828125,-0.9942626953125,41.1492919921875,-175.902099609375
1760967370.9857662,-0.64208984375,-0.0009765625,0.767578125,-2.62451171875,0.6103515625,-0.48828125,-1.0272216796875,41.15478515625,-175.9130859375
1760967370.9953914,-0.64892578125,-0.0048828125,0.7705078125,-3.5400390625,0.30517578125,-0.48828125,-1.0601806640625,41.15478515625,-175.924072265625
1760967371.0055919,-0.64892578125,-0.0048828125,0.7705078125,-3.5400390625,0.30517578125,-0.48828125,-1.0986328125,41.15478515625,-175.93505859375
1760967371.0163794,-0.6591796875,-0.0205078125,0.75048828125,-3.35693359375,-0.1220703125,-0.54931640625,-1.131591796875,41.15478515625,-175.946044921875
1760967371.0266066,-0.6591796875,-0.0205078125,0.75048828125,-3.35693359375,-0.1220703125,-0.54931640625,-1.1700439453125,41.1492919921875,-175.95703125
1760967371.035609,-0.6650390625,-0.02685546875,0.7578125,-2.9296875,-0.732421875,-0.48828125,-1.2030029296875,41.143798828125,-175.968017578125
1760967371.0499187,-0.6650390625,-0.02685546875,0.7578125,-2.9296875,-0.732421875,-0.48828125,-1.2359619140625,41.1328125,-175.97900390625
1760967371.0652957,-0.65966796875,-0.0234375,0.7666015625,-0.9765625,-0.9765625,-0.54931640625,-1.2579345703125,41.121826171875,-175.989990234375
1760967371.0783365,-0.65966796875,-0.0234375,0.7666015625,-0.9765625,-0.9765625,-0.54931640625,-1.2689208984375,41.11083984375,-176.0009765625
1760967371.0847692,-0.65478515625,-0.02099609375,0.77587890625,-0.48828125,-0.91552734375,-0.6103515625,-1.2799072265625,41.099853515625,-176.011962890625
1760967371.0950062,-0.65478515625,-0.02099609375,0.77587890625,-0.48828125,-0.91552734375,-0.6103515625,-1.2908935546875,41.0888671875,-176.02294921875
1760967371.1020432,-0.6494140625,-0.0146484375,0.7783203125,-0.91552734375,-0.6103515625,-0.30517578125,-1.3018798828125,41.077880859375,-176.033935546875
1760967371.118486,-0.6494140625,-0.0146484375,0.7783203125,-0.91552734375,-0.6103515625,-0.30517578125,-1.3128662109375,41.06689453125,-176.044921875
1760967371.1303601,-0.65966796875,-0.01611328125,0.75,1.77001953125,-0.244140625,-0.244140625,-1.3128662109375,41.0614013671875,-176.0504150390625
1760967371.1459055,-0.65966796875,-0.01611328125,0.75,1.77001953125,-0.244140625,-0.244140625,-1.29638671875,41.055908203125,-176.0614013671875
1760967371.1568592,-0.67333984375,-0.0166015625,0.73095703125,2.01416015625,-0.06103515625,-0.244140625,-1.2799072265625,41.0504150390625,-176.06689453125
1760967371.1640415,-0.67333984375,-0.0166015625,0.73095703125,2.01416015625,-0.06103515625,-0.244140625,-1.2579345703125,41.0504150390625,-176.0723876953125
1760967371.171259,-0.68994140625,-0.0166015625,0.72705078125,4.82177734375,0.0,-0.732421875,-1.23046875,41.0504150390625,-176.077880859375
1760967371.1784225,-0.68994140625,-0.0166015625,0.72705078125,4.82177734375,0.0,-0.732421875,-1.1865234375,41.0504150390625,-176.0888671875
1760967371.19329,-0.68701171875,-0.03125,0.71484375,8.85009765625,0.244140625,-1.0986328125,-1.1260986328125,41.055908203125,-176.0943603515625
1760967371.1998758,-0.68701171875,-0.03125,0.71484375,8.85009765625,0.244140625,-1.0986328125,-1.0491943359375,41.0614013671875,-176.1053466796875
1760967371.206299,-0.66748046875,-0.02783203125,0.7451171875,8.23974609375,0.54931640625,-0.67138671875,-0.977783203125,41.0723876953125,-176.1163330078125
1760967371.212537,-0.66748046875,-0.02783203125,0.7451171875,8.23974609375,0.54931640625,-0.67138671875,-0.9063720703125,41.0833740234375,-176.121826171875
1760967371.2257605,-0.62841796875,-0.0185546875,0.74658203125,8.056640625,0.42724609375,-0.18310546875,-0.8294677734375,41.0888671875,-176.121826171875
1760967371.2325995,-0.62841796875,-0.0185546875,0.74658203125,8.056640625,0.42724609375,-0.18310546875,-0.758056640625,41.099853515625,-176.121826171875
1760967371.238836,-0.6298828125,0.00244140625,0.8115234375,5.4931640625,0.18310546875,0.0,-0.6976318359375,41.1053466796875,-176.1273193359375
1760967371.2456279,-0.6298828125,0.00244140625,0.8115234375,5.4931640625,0.18310546875,0.0,-0.6427001953125,41.1053466796875,-176.1273193359375
1760967371.290027,-0.63037109375,0.0107421875,0.77490234375,6.16455078125,0.06103515625,-0.1220703125,-0.5877685546875,41.1053466796875,-176.1328125
1760967371.3061814,-0.63037109375,0.0107421875,0.77490234375,6.16455078125,0.06103515625,-0.1220703125,-0.5328369140625,41.1053466796875,-176.1383056640625
1760967371.3253589,-0.6396484375,-0.00732421875,0.75,5.615234375,-0.244140625,-0.18310546875,-0.4779052734375,41.099853515625,-176.143798828125
1760967371.3319032,-0.6396484375,-0.00732421875,0.75,5.615234375,-0.244140625,-0.18310546875,-0.4229736328125,41.0943603515625,-176.15478515625
1760967371.3486848,-0.64453125,-0.0146484375,0.77978515625,3.35693359375,-0.30517578125,0.1220703125,-0.384521484375,41.0888671875,-176.1602783203125
1760967371.3550487,-0.64453125,-0.0146484375,0.77978515625,3.35693359375,-0.30517578125,0.1220703125,-0.3515625,41.077880859375,-176.1712646484375
1760967371.3775325,-0.62890625,-0.00244140625,0.765625,-2.74658203125,-0.48828125,0.91552734375,-0.3460693359375,41.0723876953125,-176.1712646484375
1760967371.3846297,-0.62890625,-0.00244140625,0.765625,-2.74658203125,-0.48828125,0.91552734375,-0.3680419921875,41.0614013671875,-176.1712646484375
1760967371.3929548,-0.63818359375,-0.00341796875,0.78857421875,-4.33349609375,-0.6103515625,1.15966796875,-0.3955078125,41.0504150390625,-176.165771484375
1760967371.399291,-0.63818359375,-0.00341796875,0.78857421875,-4.33349609375,-0.6103515625,1.15966796875,-0.428466796875,41.0394287109375,-176.1602783203125
1760967371.4175608,-0.63818359375,-0.00341796875,0.78857421875,0.0,-0.67138671875,0.67138671875,-0.4449462890625,41.0284423828125,-176.1602783203125
1760967371.4242597,-0.646484375,-0.001953125,0.77587890625,0.0,-0.67138671875,0.67138671875,-0.439453125,41.011962890625,-176.165771484375
1760967371.4304652,-0.64892578125,0.01318359375,0.7431640625,-3.2958984375,-0.42724609375,0.54931640625,-0.450439453125,41.0009765625,-176.165771484375
1760967371.437884,-0.64892578125,0.01318359375,0.7431640625,-3.2958984375,-0.42724609375,0.54931640625,-0.4779052734375,40.989990234375,-176.1712646484375
1760967371.4452944,-0.666015625,0.0146484375,0.748046875,-7.50732421875,-0.244140625,0.6103515625,-0.52734375,40.9844970703125,-176.165771484375
1760967371.4594417,-0.666015625,0.0146484375,0.748046875,-7.50732421875,-0.244140625,0.6103515625,-0.59326171875,40.97900390625,-176.165771484375
1760967371.4671636,-0.67724609375,-0.00390625,0.76123046875,-12.87841796875,0.30517578125,1.220703125,-0.68115234375,40.9735107421875,-176.1602783203125
1760967371.479172,-0.67724609375,-0.00390625,0.76123046875,-12.87841796875,0.30517578125,1.220703125,-0.7965087890625,40.9735107421875,-176.143798828125
1760967371.4869235,-0.6865234375,-0.00927734375,0.736328125,-13.671875,0.732421875,1.46484375,-0.911865234375,40.97900390625,-176.1328125
1760967371.5013137,-0.6865234375,-0.00927734375,0.736328125,-13.671875,0.732421875,1.46484375,-1.03271484375,40.9844970703125,-176.11083984375
1760967371.5087752,-0.69189453125,-0.033203125,0.71728515625,-9.27734375,0.54931640625,1.28173828125,-1.131591796875,40.9954833984375,-176.0888671875
1760967371.5156806,-0.69189453125,-0.033203125,0.71728515625,-9.27734375,0.54931640625,1.28173828125,-1.20849609375,41.0009765625,-176.0723876953125
1760967371.5222108,-0.71142578125,-0.0166015625,0.71435546875,-3.5400390625,0.42724609375,0.79345703125,-1.2579345703125,41.011962890625,-176.0504150390625
1760967371.5296383,-0.71142578125,-0.0166015625,0.71435546875,-3.5400390625,0.42724609375,0.79345703125,-1.285400390625,41.02294921875,-176.033935546875
1760967371.5369723,-0.71630859375,-0.01708984375,0.71875,-1.5869140625,1.03759765625,0.67138671875,-1.3018798828125,41.0394287109375,-176.0174560546875
1760967371.5438144,-0.71630859375,-0.01708984375,0.71875,-1.5869140625,1.03759765625,0.67138671875,-1.307373046875,41.055908203125,-175.9954833984375
1760967371.551613,-0.705078125,-0.01416015625,0.71875,-5.4931640625,1.708984375,1.0986328125,-1.3348388671875,41.077880859375,-175.9735107421875
1760967371.5583513,-0.705078125,-0.01416015625,0.71875,-5.4931640625,1.708984375,1.0986328125,-1.3787841796875,41.11083984375,-175.946044921875
1760967371.56661,-0.69287109375,-0.02099609375,0.72216796875,-6.65283203125,1.89208984375,1.220703125,-1.42822265625,41.1383056640625,-175.9130859375
1760967371.574393,-0.69287109375,-0.02099609375,0.72216796875,-6.65283203125,1.89208984375,1.220703125,-1.4776611328125,41.1712646484375,-175.880126953125
1760967371.5835562,-0.68701171875,-0.02587890625,0.73095703125,-2.38037109375,1.8310546875,0.54931640625,-1.494140625,41.19873046875,-175.858154296875
1760967371.5949545,-0.68701171875,-0.02587890625,0.73095703125,-2.38037109375,1.8310546875,0.54931640625,-1.51611328125,41.231689453125,-175.836181640625
1760967371.601846,-0.68115234375,-0.0224609375,0.73681640625,1.708984375,1.708984375,0.0,-1.494140625,41.2591552734375,-175.8251953125
1760967371.6119125,-0.68115234375,-0.0224609375,0.73681640625,1.708984375,1.708984375,0.0,-1.4776611328125,41.28662109375,-175.814208984375
1760967371.6204832,-0.671875,-0.02978515625,0.7509765625,8.11767578125,1.708984375,-0.48828125,-1.4007568359375,41.3140869140625,-175.8087158203125
1760967371.6287267,-0.671875,-0.02978515625,0.7509765625,8.11767578125,1.708984375,-0.48828125,-1.329345703125,41.341552734375,-175.80322265625
1760967371.6364532,-0.6640625,-0.015625,0.76025390625,-1.52587890625,1.89208984375,0.30517578125,-1.34033203125,41.3690185546875,-175.792236328125
1760967371.6463137,-0.6640625,-0.015625,0.76025390625,-1.52587890625,1.89208984375,0.30517578125,-1.3568115234375,41.3909912109375,-175.7757568359375
1760967371.6576252,-0.6572265625,-0.00341796875,0.74658203125,-3.35693359375,1.708984375,0.3662109375,-1.38427734375,41.41845703125,-175.7647705078125
1760967371.6698773,-0.6572265625,-0.00341796875,0.74658203125,-3.35693359375,1.708984375,0.3662109375,-1.417236328125,41.4404296875,-175.7537841796875
1760967371.6771765,-0.654296875,-0.01708984375,0.7646484375,-0.06103515625,1.40380859375,0.0,-1.4117431640625,41.4569091796875,-175.748291015625
1760967371.6855626,-0.654296875,-0.01708984375,0.7646484375,-0.06103515625,1.40380859375,0.0,-1.4117431640625,41.473388671875,-175.7427978515625
1760967371.6931646,-0.66015625,-0.0361328125,0.77001953125,4.8828125,1.28173828125,-0.3662109375,-1.3677978515625,41.4898681640625,-175.7427978515625
1760967371.7008574,-0.66015625,-0.0361328125,0.77001953125,4.8828125,1.28173828125,-0.3662109375,-1.3238525390625,41.50634765625,-175.748291015625
1760967371.709796,-0.66259765625,-0.025390625,0.74560546875,5.4931640625,0.9765625,-0.244140625,-1.2744140625,41.517333984375,-175.7537841796875
1760967371.718349,-0.66259765625,-0.025390625,0.74560546875,5.4931640625,0.9765625,-0.244140625,-1.2249755859375,41.5283203125,-175.7537841796875
1760967371.7265782,-0.66796875,-0.00146484375,0.73681640625,0.67138671875,0.6103515625,-0.06103515625,-1.219482421875,41.5338134765625,-175.7537841796875
1760967371.7356477,-0.66796875,-0.00146484375,0.73681640625,0.67138671875,0.6103515625,-0.06103515625,-1.2139892578125,41.539306640625,-175.75927734375
1760967371.7443998,-0.66845703125,-0.005859375,0.7392578125,0.9765625,0.3662109375,-0.18310546875,-1.2030029296875,41.5447998046875,-175.75927734375
1760967371.7517736,-0.66845703125,-0.005859375,0.7392578125,0.9765625,0.3662109375,-0.18310546875,-1.197509765625,41.55029296875,-175.75927734375
1760967371.7590322,-0.669921875,-0.01953125,0.76171875,2.99072265625,0.54931640625,-0.6103515625,-1.1700439453125,41.561279296875,-175.7647705078125
1760967371.7686248,-0.669921875,-0.01953125,0.76171875,2.99072265625,0.54931640625,-0.6103515625,-1.1480712890625,41.5667724609375,-175.7757568359375
1760967371.786991,-0.66552734375,-0.02490234375,0.75634765625,5.79833984375,0.67138671875,-0.732421875,-1.0986328125,41.572265625,-175.7867431640625
1760967371.7960997,-0.66552734375,-0.02490234375,0.75634765625,5.79833984375,0.67138671875,-0.732421875,-1.0491943359375,41.5777587890625,-175.7977294921875
1760967371.812176,-0.66357421875,-0.03369140625,0.748046875,5.67626953125,0.732421875,-0.6103515625,-0.999755859375,41.5887451171875,-175.8087158203125
1760967371.8235,-0.66357421875,-0.03369140625,0.748046875,5.67626953125,0.732421875,-0.6103515625,-0.9503173828125,41.59423828125,-175.8197021484375
1760967371.8303883,-0.66552734375,0.00732421875,0.75,1.03759765625,0.67138671875,-0.1220703125,-0.94482421875,41.5997314453125,-175.8251953125
1760967371.839332,-0.66552734375,0.00732421875,0.75,1.03759765625,0.67138671875,-0.1220703125,-0.9393310546875,41.6107177734375,-175.8306884765625
1760967371.853396,-0.66162109375,0.0166015625,0.7568359375,-1.8310546875,0.6103515625,-0.18310546875,-0.955810546875,41.6162109375,-175.836181640625
1760967371.8622103,-0.66162109375,0.0166015625,0.7568359375,-1.8310546875,0.6103515625,-0.18310546875,-0.977783203125,41.6217041015625,-175.8416748046875
1760967371.8690972,-0.66357421875,-0.01708984375,0.7626953125,-0.79345703125,0.6103515625,-0.48828125,-0.98876953125,41.627197265625,-175.84716796875
1760967371.8762941,-0.66357421875,-0.01708984375,0.7626953125,-0.79345703125,0.6103515625,-0.48828125,-0.999755859375,41.6326904296875,-175.858154296875
1760967371.8842518,-0.66943359375,-0.0380859375,0.75341796875,3.41796875,0.79345703125,-0.732421875,-0.9722900390625,41.63818359375,-175.8746337890625
1760967371.8938076,-0.66943359375,-0.0380859375,0.75341796875,3.41796875,0.79345703125,-0.732421875,-0.94482421875,41.6436767578125,-175.8856201171875
1760967371.9006343,-0.6728515625,-0.0224609375,0.73486328125,4.33349609375,0.67138671875,-0.6103515625,-0.911865234375,41.649169921875,-175.8966064453125
1760967371.9076514,-0.6728515625,-0.0224609375,0.73486328125,4.33349609375,0.67138671875,-0.6103515625,-0.8734130859375,41.6546630859375,-175.9130859375
1760967371.9190757,-0.6767578125,0.0068359375,0.7353515625,1.46484375,0.42724609375,-0.42724609375,-0.8624267578125,41.66015625,-175.9185791015625
1760967371.9288712,-0.6767578125,0.0068359375,0.7353515625,1.46484375,0.42724609375,-0.42724609375,-0.85693359375,41.6656494140625,-175.924072265625
1760967371.9424453,-0.69140625,-0.01416015625,0.74072265625,-2.44140625,0.42724609375,0.06103515625,-0.87890625,41.671142578125,-175.924072265625
1760967371.9749641,-0.69140625,-0.01416015625,0.74072265625,-2.44140625,0.42724609375,0.06103515625,-0.9063720703125,41.68212890625,-175.924072265625
1760967371.9822612,-0.68701171875,-0.0126953125,0.7060546875,1.28173828125,0.3662109375,-0.244140625,-0.8953857421875,41.6876220703125,-175.924072265625
1760967371.9927154,-0.68701171875,-0.0126953125,0.7060546875,1.28173828125,0.3662109375,-0.244140625,-0.8843994140625,41.693115234375,-175.924072265625
1760967372.0091982,-0.6845703125,-0.01220703125,0.736328125,2.8076171875,0.42724609375,-0.54931640625,-0.8624267578125,41.7041015625,-175.924072265625
1760967372.016448,-0.6845703125,-0.01220703125,0.736328125,2.8076171875,0.42724609375,-0.54931640625,-0.8404541015625,41.7095947265625,-175.9295654296875
1760967372.0234122,-0.6796875,-0.0048828125,0.76025390625,1.5869140625,0.732421875,-0.48828125,-0.8294677734375,41.72607421875,-175.93505859375
1760967372.0305135,-0.6796875,-0.0048828125,0.76025390625,1.5869140625,0.732421875,-0.48828125,-0.8184814453125,41.737060546875,-175.9405517578125
1760967372.039559,-0.67236328125,-0.00830078125,0.73681640625,-0.06103515625,0.732421875,-0.3662109375,-0.823974609375,41.748046875,-175.9405517578125
1760967372.0476959,-0.67236328125,-0.00830078125,0.73681640625,-0.06103515625,0.732421875,-0.3662109375,-0.823974609375,41.759033203125,-175.946044921875
1760967372.0635614,-0.67333984375,-0.009765625,0.73291015625,1.64794921875,0.48828125,-0.67138671875,-0.81298828125,41.7645263671875,-175.9515380859375
1760967372.0743623,-0.67333984375,-0.009765625,0.73291015625,1.64794921875,0.48828125,-0.67138671875,-0.8074951171875,41.7755126953125,-175.95703125
1760967372.084033,-0.67431640625,-0.01123046875,0.75341796875,1.28173828125,0.48828125,-0.67138671875,-0.7965087890625,41.781005859375,-175.9625244140625
1760967372.0917087,-0.67431640625,-0.01123046875,0.75341796875,1.28173828125,0.48828125,-0.67138671875,-0.791015625,41.7919921875,-175.9735107421875
1760967372.102212,-0.669921875,-0.00732421875,0.7470703125,-0.30517578125,0.48828125,-0.67138671875,-0.802001953125,41.7974853515625,-175.97900390625
1760967372.1113043,-0.669921875,-0.00732421875,0.7470703125,-0.30517578125,0.48828125,-0.67138671875,-0.81298828125,41.8084716796875,-175.9844970703125
1760967372.1302164,-0.66845703125,-0.009765625,0.74658203125,-0.91552734375,0.42724609375,-0.54931640625,-0.823974609375,41.81396484375,-175.9954833984375
1760967372.1369236,-0.66845703125,-0.009765625,0.74658203125,-0.91552734375,0.42724609375,-0.54931640625,-0.8404541015625,41.8194580078125,-176.0009765625
1760967372.14514,-0.67578125,-0.0087890625,0.73828125,-0.244140625,0.18310546875,-0.6103515625,-0.845947265625,41.824951171875,-176.0064697265625
1760967372.1530006,-0.67578125,-0.0087890625,0.73828125,-0.244140625,0.18310546875,-0.6103515625,-0.8514404296875,41.824951171875,-176.011962890625
1760967372.1608384,-0.67626953125,-0.01123046875,0.73583984375,0.67138671875,0.0,-0.67138671875,-0.8514404296875,41.8304443359375,-176.02294921875
1760967372.1745965,-0.67626953125,-0.01123046875,0.73583984375,0.67138671875,0.0,-0.67138671875,-0.8514404296875,41.8304443359375,-176.0284423828125
1760967372.182016,-0.673828125,-0.0166015625,0.74267578125,2.74658203125,-0.1220703125,-0.79345703125,-0.8294677734375,41.8359375,-176.0394287109375
1760967372.1894863,-0.673828125,-0.0166015625,0.74267578125,2.74658203125,-0.1220703125,-0.79345703125,-0.8074951171875,41.8359375,-176.044921875
1760967372.199271,-0.67529296875,-0.01708984375,0.7451171875,2.01416015625,-0.18310546875,-0.6103515625,-0.7965087890625,41.8359375,-176.055908203125
1760967372.2073743,-0.67529296875,-0.01708984375,0.7451171875,2.01416015625,-0.18310546875,-0.6103515625,-0.780029296875,41.8359375,-176.0614013671875
1760967372.2160048,-0.67138671875,-0.00732421875,0.73388671875,-0.18310546875,-0.3662109375,-0.30517578125,-0.7855224609375,41.8359375,-176.06689453125
1760967372.2279577,-0.67138671875,-0.00732421875,0.73388671875,-0.18310546875,-0.3662109375,-0.30517578125,-0.791015625,41.8359375,-176.06689453125
1760967372.23752,-0.666015625,-0.01318359375,0.74755859375,0.67138671875,-0.48828125,-0.244140625,-0.7855224609375,41.8304443359375,-176.0723876953125
1760967372.2469404,-0.666015625,-0.01318359375,0.74755859375,0.67138671875,-0.48828125,-0.244140625,-0.7855224609375,41.8304443359375,-176.0723876953125
1760967372.2558832,-0.66015625,-0.0146484375,0.77099609375,1.15966796875,-0.3662109375,-0.1220703125,-0.7745361328125,41.824951171875,-176.077880859375
1760967372.2636902,-0.66015625,-0.0146484375,0.77099609375,1.15966796875,-0.3662109375,-0.1220703125,-0.7635498046875,41.824951171875,-176.0833740234375
1760967372.273064,-0.6572265625,-0.0146484375,0.7568359375,1.28173828125,-0.42724609375,0.0,-0.7525634765625,41.8194580078125,-176.0888671875
1760967372.2850356,-0.6572265625,-0.0146484375,0.7568359375,1.28173828125,-0.42724609375,0.0,-0.7415771484375,41.81396484375,-176.0943603515625
1760967372.2926981,-0.66162109375,-0.01953125,0.740234375,0.0,-0.8544921875,0.42724609375,-0.7415771484375,41.802978515625,-176.0943603515625
1760967372.3072793,-0.66162109375,-0.01953125,0.740234375,0.0,-0.8544921875,0.42724609375,-0.736083984375,41.7974853515625,-176.0943603515625
1760967372.3185751,-0.658203125,-0.01171875,0.7421875,-0.06103515625,-1.3427734375,0.67138671875,-0.736083984375,41.781005859375,-176.0888671875
1760967372.3397381,-0.658203125,-0.01171875,0.7421875,-0.06103515625,-1.3427734375,0.67138671875,-0.7305908203125,41.77001953125,-176.0888671875
1760967372.3469589,-0.65283203125,0.00048828125,0.7685546875,0.06103515625,-1.52587890625,0.3662109375,-0.72509765625,41.7535400390625,-176.0888671875
1760967372.3676038,-0.65283203125,0.00048828125,0.7685546875,0.06103515625,-1.52587890625,0.3662109375,-0.72509765625,41.737060546875,-176.0888671875
1760967372.3851693,-0.6484375,0.0,0.7861328125,-0.06103515625,-1.28173828125,0.18310546875,-0.72509765625,41.7205810546875,-176.0888671875
1760967372.3926466,-0.6484375,0.0,0.7861328125,-0.06103515625,-1.28173828125,0.18310546875,-0.7196044921875,41.7041015625,-176.0943603515625
1760967372.4136457,-0.6484375,0.0,0.7861328125,-0.9765625,-1.03759765625,0.30517578125,-0.7305908203125,41.6876220703125,-176.0943603515625
1760967372.4203563,-0.6494140625,-0.01318359375,0.7666015625,-0.9765625,-1.03759765625,0.30517578125,-0.736083984375,41.6766357421875,-176.099853515625
1760967372.437573,-0.64501953125,-0.01806640625,0.76123046875,-0.244140625,-1.220703125,0.42724609375,-0.736083984375,41.66015625,-176.099853515625
1760967372.4469955,-0.64501953125,-0.01806640625,0.76123046875,-0.244140625,-1.220703125,0.42724609375,-0.736083984375,41.6436767578125,-176.1053466796875
1760967372.454413,-0.64501953125,-0.01806640625,0.76123046875,0.732421875,-1.5869140625,0.06103515625,-0.72509765625,41.6217041015625,-176.11083984375
1760967372.4614787,-0.6435546875,-0.00537109375,0.76708984375,0.732421875,-1.5869140625,0.06103515625,-0.7196044921875,41.5997314453125,-176.121826171875
1760967372.4688213,-0.6484375,-0.00537109375,0.7744140625,1.64794921875,-1.89208984375,-0.1220703125,-0.703125,41.572265625,-176.1328125
1760967372.475714,-0.6484375,-0.00537109375,0.7744140625,1.64794921875,-1.89208984375,-0.1220703125,-0.6866455078125,41.55029296875,-176.143798828125
1760967372.4826105,-0.65234375,-0.009765625,0.76513671875,1.15966796875,-1.953125,0.0,-0.6756591796875,41.5228271484375,-176.15478515625
1760967372.4890509,-0.65234375,-0.009765625,0.76513671875,1.15966796875,-1.953125,0.0,-0.6646728515625,41.495361328125,-176.1602783203125
1760967372.4968903,-0.65576171875,-0.0185546875,0.75244140625,1.64794921875,-1.953125,0.18310546875,-0.648193359375,41.473388671875,-176.1712646484375
1760967372.504116,-0.65576171875,-0.0185546875,0.75244140625,1.64794921875,-1.953125,0.18310546875,-0.6317138671875,41.4459228515625,-176.1767578125
1760967372.5113435,-0.654296875,-0.01123046875,0.76416015625,0.9765625,-1.89208984375,0.48828125,-0.615234375,41.4239501953125,-176.1767578125
1760967372.5184586,-0.65380859375,-0.0068359375,0.76708984375,0.732421875,-1.64794921875,0.6103515625,-0.604248046875,41.4019775390625,-176.1767578125
1760967372.5273256,-0.65380859375,-0.0068359375,0.76708984375,0.732421875,-1.64794921875,0.6103515625,-0.59326171875,41.3800048828125,-176.1767578125
1760967372.5346725,-0.65673828125,-0.01171875,0.7666015625,1.220703125,-1.28173828125,0.67138671875,-0.5767822265625,41.3580322265625,-176.1767578125
1760967372.54179,-0.65673828125,-0.01171875,0.7666015625,1.220703125,-1.28173828125,0.67138671875,-0.560302734375,41.341552734375,-176.1767578125
1760967372.5504038,-0.65673828125,-0.0078125,0.751953125,0.48828125,-1.15966796875,0.732421875,-0.54931640625,41.3250732421875,-176.1712646484375
1760967372.5593798,-0.65673828125,-0.0078125,0.751953125,0.48828125,-1.15966796875,0.732421875,-0.538330078125,41.30859375,-176.1712646484375
1760967372.5662904,-0.654296875,-0.00341796875,0.7548828125,0.48828125,-1.15966796875,0.6103515625,-0.52734375,41.297607421875,-176.1712646484375
1760967372.5733156,-0.654296875,-0.00341796875,0.7548828125,0.48828125,-1.15966796875,0.6103515625,-0.5218505859375,41.2811279296875,-176.1712646484375
1760967372.5812726,-0.6611328125,-0.005859375,0.77392578125,-0.67138671875,-0.79345703125,0.67138671875,-0.516357421875,41.2701416015625,-176.165771484375
1760967372.5881565,-0.6611328125,-0.005859375,0.77392578125,-0.67138671875,-0.79345703125,0.67138671875,-0.516357421875,41.2591552734375,-176.165771484375
1760967372.5957735,-0.65087890625,-0.00439453125,0.75341796875,-0.3662109375,-0.732421875,0.67138671875,-0.516357421875,41.2481689453125,-176.1602783203125
1760967372.6030009,-0.65087890625,-0.00439453125,0.75341796875,-0.3662109375,-0.732421875,0.67138671875,-0.516357421875,41.2371826171875,-176.1602783203125
1760967372.6114264,-0.6435546875,-0.005859375,0.767578125,-0.18310546875,-0.9765625,0.54931640625,-0.516357421875,41.220703125,-176.15478515625
1760967372.6179535,-0.6435546875,-0.005859375,0.767578125,-0.18310546875,-0.9765625,0.54931640625,-0.5108642578125,41.209716796875,-176.15478515625
1760967372.6279755,-0.642578125,-0.00634765625,0.779296875,0.1220703125,-1.0986328125,0.42724609375,-0.50537109375,41.1932373046875,-176.15478515625
1760967372.6391034,-0.642578125,-0.00634765625,0.779296875,0.1220703125,-1.0986328125,0.42724609375,-0.4998779296875,41.1822509765625,-176.15478515625
1760967372.6475558,-0.640625,-0.00390625,0.77001953125,2.01416015625,-1.15966796875,0.42724609375,-0.4888916015625,41.165771484375,-176.15478515625
1760967372.6582139,-0.640625,-0.00390625,0.77001953125,2.01416015625,-1.15966796875,0.42724609375,-0.4669189453125,41.1492919921875,-176.15478515625
1760967372.6676898,-0.6513671875,-0.00390625,0.76708984375,1.15966796875,-1.220703125,0.30517578125,-0.4449462890625,41.1328125,-176.15478515625
1760967372.677704,-0.6513671875,-0.00390625,0.76708984375,1.15966796875,-1.220703125,0.30517578125,-0.428466796875,41.11083984375,-176.15478515625
1760967372.68854,-0.66796875,-0.0048828125,0.76806640625,1.03759765625,-1.220703125,0.48828125,-0.41748046875,41.0943603515625,-176.1602783203125
1760967372.6975775,-0.66796875,-0.0048828125,0.76806640625,1.03759765625,-1.220703125,0.48828125,-0.4010009765625,41.077880859375,-176.15478515625
1760967372.7086093,-0.66943359375,-0.00634765625,0.734375,2.0751953125,-1.220703125,0.48828125,-0.384521484375,41.0614013671875,-176.15478515625
1760967372.719266,-0.66943359375,-0.00634765625,0.734375,2.0751953125,-1.220703125,0.48828125,-0.3570556640625,41.0504150390625,-176.15478515625
1760967372.7279713,-0.6708984375,-0.0048828125,0.7294921875,2.74658203125,-1.0986328125,0.48828125,-0.32958984375,41.033935546875,-176.1492919921875
1760967372.738779,-0.6708984375,-0.0048828125,0.7294921875,2.74658203125,-1.0986328125,0.48828125,-0.296630859375,41.02294921875,-176.143798828125
1760967372.7476149,-0.662109375,0.001953125,0.75927734375,3.47900390625,-1.220703125,0.48828125,-0.263671875,41.011962890625,-176.1383056640625
1760967372.7586958,-0.662109375,0.001953125,0.75927734375,3.47900390625,-1.220703125,0.48828125,-0.2252197265625,41.0009765625,-176.1328125
1760967372.7716665,-0.662109375,-0.00244140625,0.77783203125,-0.79345703125,-1.03759765625,0.8544921875,-0.208740234375,40.989990234375,-176.121826171875
1760967372.7810848,-0.662109375,-0.00244140625,0.77783203125,-0.79345703125,-1.03759765625,0.8544921875,-0.208740234375,40.97900390625,-176.11083984375
1760967372.7903152,-0.65771484375,0.00341796875,0.74365234375,-2.62451171875,-1.15966796875,0.9765625,-0.2197265625,40.968017578125,-176.099853515625
1760967372.7994425,-0.65771484375,0.00341796875,0.74365234375,-2.62451171875,-1.15966796875,0.9765625,-0.2362060546875,40.95703125,-176.0888671875
1760967372.8077607,-0.669921875,-0.00341796875,0.74365234375,-0.732421875,-1.3427734375,0.79345703125,-0.2471923828125,40.946044921875,-176.077880859375
1760967372.8193698,-0.669921875,-0.00341796875,0.74365234375,-0.732421875,-1.3427734375,0.79345703125,-0.2471923828125,40.93505859375,-176.0614013671875
1760967372.8277261,-0.68359375,-0.01171875,0.7490234375,-0.732421875,-1.3427734375,0.732421875,-0.2471923828125,40.924072265625,-176.0504150390625
1760967372.8385522,-0.68359375,-0.01171875,0.7490234375,-0.732421875,-1.3427734375,0.732421875,-0.2471923828125,40.9130859375,-176.0394287109375
1760967372.8539915,-0.69921875,-0.00439453125,0.732421875,-0.67138671875,-0.91552734375,0.732421875,-0.2471923828125,40.9075927734375,-176.0284423828125
1760967372.863473,-0.69921875,-0.00439453125,0.732421875,-0.67138671875,-0.91552734375,0.732421875,-0.2471923828125,40.902099609375,-176.011962890625
1760967372.8754888,-0.6982421875,0.01025390625,0.70654296875,-1.708984375,-0.3662109375,0.79345703125,-0.252685546875,40.902099609375,-175.9954833984375
1760967372.8908458,-0.6982421875,0.01025390625,0.70654296875,-1.708984375,-0.3662109375,0.79345703125,-0.263671875,40.9075927734375,-175.97900390625
1760967372.900499,-0.6982421875,0.01025390625,0.70654296875,-1.220703125,-0.1220703125,0.732421875,-0.2691650390625,40.9130859375,-175.95703125
1760967372.907875,-0.68896484375,0.00341796875,0.7314453125,-1.220703125,-0.1220703125,0.732421875,-0.274658203125,40.9185791015625,-175.93505859375
1760967372.914629,-0.685546875,-0.005859375,0.73828125,-2.5634765625,0.18310546875,0.79345703125,-0.28564453125,40.9295654296875,-175.9130859375
1760967372.942106,-0.685546875,-0.005859375,0.73828125,-2.5634765625,0.18310546875,0.79345703125,-0.3076171875,40.9405517578125,-175.89111328125
1760967372.949456,-0.67236328125,-0.0048828125,0.7421875,-1.46484375,0.30517578125,0.6103515625,-0.318603515625,40.95703125,-175.8746337890625
1760967372.9576988,-0.67236328125,-0.0048828125,0.7421875,-1.46484375,0.30517578125,0.6103515625,-0.32958984375,40.968017578125,-175.8526611328125
1760967372.9726,-0.66357421875,-0.00439453125,0.7509765625,-0.67138671875,0.18310546875,0.6103515625,-0.32958984375,40.97900390625,-175.836181640625
1760967372.982729,-0.66357421875,-0.00439453125,0.7509765625,-0.67138671875,0.18310546875,0.6103515625,-0.3350830078125,40.989990234375,-175.8197021484375
1760967372.990485,-0.658203125,-0.00390625,0.76171875,-0.732421875,0.0,0.6103515625,-0.3350830078125,41.0009765625,-175.80322265625
1760967373.015889,-0.658203125,-0.00390625,0.76171875,-0.732421875,0.0,0.6103515625,-0.3350830078125,41.0064697265625,-175.7867431640625
1760967373.025065,-0.6591796875,-0.00146484375,0.759765625,-2.5634765625,0.0,0.8544921875,-0.3460693359375,41.011962890625,-175.770263671875
1760967373.048317,-0.6591796875,-0.00146484375,0.759765625,-2.5634765625,0.0,0.8544921875,-0.362548828125,41.0174560546875,-175.7537841796875
1760967373.058732,-0.65771484375,-0.001953125,0.76171875,-2.5634765625,0.0,0.8544921875,-0.3790283203125,41.02294921875,-175.7373046875
1760967373.0663583,-0.65771484375,-0.001953125,0.76171875,-2.5634765625,0.0,0.8544921875,-0.3955078125,41.0284423828125,-175.7208251953125
1760967373.0816243,-0.65869140625,-0.01025390625,0.75244140625,-0.67138671875,0.06103515625,0.732421875,-0.406494140625,41.0284423828125,-175.704345703125
1760967373.094303,-0.65869140625,-0.01025390625,0.75244140625,-0.67138671875,0.06103515625,0.732421875,-0.406494140625,41.033935546875,-175.6878662109375
1760967373.1007986,-0.65625,-0.015625,0.765625,1.46484375,0.244140625,0.732421875,-0.3955078125,41.0394287109375,-175.6768798828125
1760967373.1088398,-0.65625,-0.015625,0.765625,1.46484375,0.244140625,0.732421875,-0.37353515625,41.044921875,-175.6658935546875
1760967373.1257994,-0.6484375,-0.01806640625,0.78466796875,2.25830078125,0.54931640625,0.9765625,-0.3460693359375,41.0504150390625,-175.6549072265625
1760967373.1342955,-0.6484375,-0.01806640625,0.78466796875,2.25830078125,0.54931640625,0.9765625,-0.318603515625,41.055908203125,-175.638427734375
1760967373.1459298,-0.6484375,0.005859375,0.75,1.46484375,0.42724609375,1.03759765625,-0.2911376953125,41.0614013671875,-175.62744140625
1760967373.1534247,-0.6484375,0.005859375,0.75,1.46484375,0.42724609375,1.03759765625,-0.2691650390625,41.06689453125,-175.616455078125
1760967373.1703951,-0.6572265625,0.0107421875,0.7607421875,-1.03759765625,0.1220703125,1.03759765625,-0.2581787109375,41.06689453125,-175.60546875
1760967373.178652,-0.6572265625,0.0107421875,0.7607421875,-1.03759765625,0.1220703125,1.03759765625,-0.2581787109375,41.06689453125,-175.5889892578125
1760967373.1887763,-0.6533203125,0.0,0.7607421875,-0.79345703125,0.1220703125,0.91552734375,-0.2581787109375,41.06689453125,-175.5780029296875
1760967373.1951916,-0.6533203125,0.0,0.7607421875,-0.79345703125,0.1220703125,0.91552734375,-0.2581787109375,41.06689453125,-175.5670166015625
1760967373.2146215,-0.650390625,-0.009765625,0.76708984375,0.06103515625,0.0,0.732421875,-0.2581787109375,41.06689453125,-175.5560302734375
1760967373.2228172,-0.650390625,-0.009765625,0.76708984375,0.06103515625,0.0,0.732421875,-0.2471923828125,41.06689453125,-175.550537109375
1760967373.2322962,-0.650390625,-0.0087890625,0.78662109375,2.13623046875,0.1220703125,0.42724609375,-0.230712890625,41.06689453125,-175.5450439453125
1760967373.2452924,-0.650390625,-0.0087890625,0.78662109375,2.13623046875,0.1220703125,0.42724609375,-0.208740234375,41.06689453125,-175.53955078125
1760967373.261887,-0.6591796875,0.0,0.74365234375,0.6103515625,0.18310546875,0.54931640625,-0.1922607421875,41.0614013671875,-175.53955078125
1760967373.270522,-0.6591796875,0.0,0.74365234375,0.6103515625,0.18310546875,0.54931640625,-0.1812744140625,41.0614013671875,-175.5340576171875
1760967373.2788298,-0.66748046875,0.01025390625,0.73583984375,0.732421875,-0.1220703125,0.1220703125,-0.1702880859375,41.0614013671875,-175.5340576171875
1760967373.3159194,-0.66748046875,0.01025390625,0.73583984375,0.732421875,-0.1220703125,0.1220703125,-0.164794921875,41.0614013671875,-175.528564453125
1760967373.3222547,-0.67333984375,0.005859375,0.759765625,-0.67138671875,-0.06103515625,0.0,-0.164794921875,41.0614013671875,-175.528564453125
1760967373.3366032,-0.67333984375,0.005859375,0.759765625,-0.67138671875,-0.06103515625,0.0,-0.1702880859375,41.055908203125,-175.528564453125
1760967373.3459845,-0.66162109375,-0.00390625,0.7529296875,-1.03759765625,0.1220703125,0.30517578125,-0.17578125,41.0614013671875,-175.5230712890625
1760967373.3535903,-0.66162109375,-0.00390625,0.7529296875,-1.03759765625,0.1220703125,0.30517578125,-0.1812744140625,41.0614013671875,-175.517578125
1760967373.3609338,-0.66357421875,-0.00830078125,0.76171875,-0.54931640625,0.3662109375,0.3662109375,-0.186767578125,41.0614013671875,-175.5120849609375
1760967373.3791692,-0.66357421875,-0.00830078125,0.76171875,-0.54931640625,0.3662109375,0.3662109375,-0.186767578125,41.06689453125,-175.506591796875
1760967373.3858802,-0.6640625,-0.0009765625,0.75,-0.42724609375,0.42724609375,0.1220703125,-0.1922607421875,41.0723876953125,-175.5010986328125
1760967373.3942883,-0.6640625,-0.0009765625,0.75,-0.42724609375,0.42724609375,0.1220703125,-0.1922607421875,41.077880859375,-175.5010986328125
1760967373.4096363,-0.6640625,0.00341796875,0.75048828125,0.0,0.18310546875,-0.1220703125,-0.1922607421875,41.0833740234375,-175.49560546875
1760967373.4184535,-0.6640625,0.00341796875,0.75048828125,0.0,0.18310546875,-0.1220703125,-0.1922607421875,41.0833740234375,-175.49560546875
1760967373.4263585,-0.6630859375,0.0009765625,0.75146484375,-0.67138671875,0.0,-0.18310546875,-0.19775390625,41.0833740234375,-175.49560546875
1760967373.4337163,-0.6630859375,0.0009765625,0.75146484375,-0.67138671875,0.0,-0.18310546875,-0.208740234375,41.0888671875,-175.49560546875
1760967373.452452,-0.65625,-0.0048828125,0.75537109375,-1.28173828125,0.06103515625,0.0,-0.2142333984375,41.0888671875,-175.49560546875
1760967373.4607906,-0.65625,-0.0048828125,0.75537109375,-1.28173828125,0.06103515625,0.0,-0.2252197265625,41.0888671875,-175.49560546875
1760967373.4692352,-0.650390625,-0.01318359375,0.7783203125,-1.52587890625,0.30517578125,0.3662109375,-0.24169921875,41.0943603515625,-175.4901123046875
1760967373.4839997,-0.650390625,-0.01318359375,0.7783203125,-1.52587890625,0.30517578125,0.3662109375,-0.252685546875,41.0943603515625,-175.484619140625
1760967373.4924738,-0.64208984375,-0.0068359375,0.783203125,-1.46484375,0.54931640625,0.42724609375,-0.263671875,41.099853515625,-175.4791259765625
1760967373.5014942,-0.64208984375,-0.0068359375,0.783203125,-1.46484375,0.54931640625,0.42724609375,-0.274658203125,41.099853515625,-175.4791259765625
1760967373.508479,-0.64404296875,-0.00732421875,0.7724609375,-0.732421875,0.48828125,0.54931640625,-0.2801513671875,41.1053466796875,-175.4736328125
1760967373.5252469,-0.64404296875,-0.00732421875,0.7724609375,-0.732421875,0.48828125,0.54931640625,-0.28564453125,41.1053466796875,-175.4681396484375
1760967373.5334692,-0.64306640625,-0.00244140625,0.7587890625,0.244140625,0.3662109375,0.244140625,-0.28564453125,41.1053466796875,-175.4681396484375
1760967373.5465014,-0.64306640625,-0.00244140625,0.7587890625,0.244140625,0.3662109375,0.244140625,-0.2801513671875,41.1053466796875,-175.4681396484375
1760967373.5816684,-0.65478515625,0.0107421875,0.77294921875,0.0,0.1220703125,0.06103515625,-0.2801513671875,41.1053466796875,-175.4736328125
1760967373.5892248,-0.65478515625,0.0107421875,0.77294921875,0.0,0.1220703125,0.06103515625,-0.274658203125,41.099853515625,-175.4791259765625
1760967373.5997305,-0.6591796875,0.001953125,0.74560546875,-1.3427734375,0.06103515625,0.1220703125,-0.28564453125,41.099853515625,-175.4791259765625
1760967373.6265125,-0.6591796875,0.001953125,0.74560546875,-1.3427734375,0.06103515625,0.1220703125,-0.296630859375,41.0943603515625,-175.4736328125
1760967373.6347892,-0.66064453125,-0.0078125,0.7666015625,0.244140625,-0.3662109375,0.0,-0.296630859375,41.0888671875,-175.4791259765625
1760967373.641101,-0.66064453125,-0.0078125,0.7666015625,0.244140625,-0.3662109375,0.0,-0.2911376953125,41.0833740234375,-175.4791259765625
1760967373.6501942,-0.6708984375,-0.017578125,0.74658203125,2.25830078125,-0.42724609375,-0.06103515625,-0.2691650390625,41.077880859375,-175.484619140625
1760967373.666042,-0.6708984375,-0.017578125,0.74658203125,2.25830078125,-0.42724609375,-0.06103515625,-0.2471923828125,41.0723876953125,-175.484619140625
1760967373.6743038,-0.66064453125,-0.00244140625,0.72021484375,3.0517578125,-0.79345703125,-0.244140625,-0.2197265625,41.0614013671875,-175.4901123046875
1760967373.681001,-0.66064453125,-0.00244140625,0.72021484375,3.0517578125,-0.79345703125,-0.244140625,-0.1922607421875,41.055908203125,-175.4901123046875
1760967373.6889453,-0.6708984375,0.00341796875,0.775390625,3.0517578125,-1.15966796875,-0.42724609375,-0.164794921875,41.044921875,-175.49560546875
1760967373.7057755,-0.6708984375,0.00341796875,0.775390625,3.0517578125,-1.15966796875,-0.42724609375,-0.142822265625,41.033935546875,-175.5010986328125
1760967373.7140155,-0.64306640625,-0.0009765625,0.75,2.25830078125,-1.64794921875,-0.244140625,-0.120849609375,41.0174560546875,-175.5010986328125
1760967373.7222946,-0.64306640625,-0.0009765625,0.75,2.25830078125,-1.64794921875,-0.244140625,-0.098876953125,41.0009765625,-175.506591796875
1760967373.7302048,-0.654296875,0.0,0.771484375,1.3427734375,-1.8310546875,-0.06103515625,-0.087890625,40.9844970703125,-175.506591796875
1760967373.7485487,-0.654296875,0.0,0.771484375,1.3427734375,-1.8310546875,-0.06103515625,-0.076904296875,40.968017578125,-175.506591796875
1760967373.7565587,-0.65625,0.00048828125,0.7626953125,1.15966796875,-1.953125,0.0,-0.06591796875,40.946044921875,-175.506591796875
1760967373.7643118,-0.65625,0.00048828125,0.7626953125,1.15966796875,-1.953125,0.0,-0.054931640625,40.924072265625,-175.506591796875
1760967373.790667,-0.65673828125,0.0,0.75732421875,1.0986328125,-2.13623046875,0.06103515625,-0.0439453125,40.902099609375,-175.506591796875
1760967373.7978435,-0.65673828125,0.0,0.75732421875,1.0986328125,-2.13623046875,0.06103515625,-0.032958984375,40.880126953125,-175.5010986328125
1760967373.8050122,-0.640625,-0.0029296875,0.76416015625,0.8544921875,-2.44140625,0.1220703125,-0.02197265625,40.858154296875,-175.5010986328125
1760967373.8116627,-0.640625,-0.0029296875,0.76416015625,0.8544921875,-2.44140625,0.1220703125,-0.0164794921875,40.8306884765625,-175.5010986328125
1760967373.8270638,-0.63720703125,-0.00390625,0.783203125,0.67138671875,-2.685546875,0.30517578125,-0.0054931640625,40.80322265625,-175.49560546875
1760967373.8337514,-0.63720703125,-0.00390625,0.783203125,0.67138671875,-2.685546875,0.30517578125,0.0,40.7757568359375,-175.4901123046875
1760967373.840878,-0.63525390625,-0.00927734375,0.77880859375,1.28173828125,-2.62451171875,0.42724609375,0.010986328125,40.748291015625,-175.4901123046875
1760967373.8482773,-0.63525390625,-0.00927734375,0.77880859375,1.28173828125,-2.62451171875,0.42724609375,0.0274658203125,40.71533203125,-175.4901123046875
1760967373.8571029,-0.64306640625,-0.0107421875,0.783203125,2.44140625,-2.5634765625,0.54931640625,0.054931640625,40.6878662109375,-175.484619140625
1760967373.872735,-0.64306640625,-0.0107421875,0.783203125,2.44140625,-2.5634765625,0.54931640625,0.0823974609375,40.660400390625,-175.484619140625
1760967373.8802102,-0.64404296875,-0.00439453125,0.7666015625,4.33349609375,-2.5634765625,0.54931640625,0.1263427734375,40.62744140625,-175.484619140625
1760967373.8880496,-0.64404296875,-0.00439453125,0.7666015625,4.33349609375,-2.5634765625,0.54931640625,0.1702880859375,40.5999755859375,-175.4791259765625
1760967373.8946815,-0.64794921875,0.021484375,0.76123046875,2.62451171875,-2.74658203125,0.3662109375,0.19775390625,40.572509765625,-175.4791259765625
1760967373.9102974,-0.64794921875,0.021484375,0.76123046875,2.62451171875,-2.74658203125,0.3662109375,0.2252197265625,40.53955078125,-175.4791259765625
1760967373.9181998,-0.66162109375,0.02490234375,0.75830078125,-1.28173828125,-2.99072265625,0.30517578125,0.2142333984375,40.506591796875,-175.4791259765625
1760967373.9267619,-0.66162109375,0.02490234375,0.75830078125,-1.28173828125,-2.99072265625,0.30517578125,0.2032470703125,40.4791259765625,-175.4736328125
1760967373.9334166,-0.6591796875,0.01171875,0.74462890625,-5.126953125,-3.35693359375,0.42724609375,0.1593017578125,40.440673828125,-175.4681396484375
1760967373.944831,-0.6591796875,0.01171875,0.74462890625,-5.126953125,-3.35693359375,0.42724609375,0.1153564453125,40.40771484375,-175.462646484375
1760967373.9556546,-0.66796875,-0.00634765625,0.75048828125,-4.150390625,-3.5400390625,0.48828125,0.076904296875,40.374755859375,-175.45166015625
1760967373.9621673,-0.66796875,-0.00634765625,0.75048828125,-4.150390625,-3.5400390625,0.48828125,0.0439453125,40.341796875,-175.440673828125
1760967373.996751,-0.66943359375,-0.005859375,0.740234375,-1.89208984375,-3.662109375,0.1220703125,0.0274658203125,40.308837890625,-175.4296875
1760967374.0030425,-0.66943359375,-0.005859375,0.740234375,-1.89208984375,-3.662109375,0.1220703125,0.0054931640625,40.27587890625,-175.4241943359375
1760967374.00907,-0.63427734375,0.01025390625,0.74951171875,-1.28173828125,-3.7841796875,0.06103515625,0.0,40.242919921875,-175.4132080078125
1760967374.0337255,-0.63427734375,0.01025390625,0.74951171875,-1.28173828125,-3.7841796875,0.06103515625,-0.010986328125,40.2099609375,-175.40771484375
1760967374.0398614,-0.64990234375,0.00244140625,0.81884765625,-4.39453125,-3.60107421875,0.18310546875,-0.0494384765625,40.177001953125,-175.396728515625
1760967374.0579088,-0.64990234375,0.00244140625,0.81884765625,-4.39453125,-3.60107421875,0.18310546875,-0.087890625,40.1385498046875,-175.3912353515625
1760967374.071886,-0.64990234375,0.00244140625,0.81884765625,-6.53076171875,-3.5400390625,0.30517578125,-0.1483154296875,40.1055908203125,-175.3802490234375
1760967374.0890176,-0.642578125,0.005859375,0.7431640625,-6.53076171875,-3.5400390625,0.30517578125,-0.208740234375,40.0726318359375,-175.3692626953125
1760967374.0967617,-0.638671875,0.0,0.7587890625,-3.96728515625,-3.72314453125,0.06103515625,-0.2471923828125,40.0396728515625,-175.36376953125
1760967374.1235964,-0.638671875,0.0,0.7587890625,-3.96728515625,-3.72314453125,0.06103515625,-0.2801513671875,40.0067138671875,-175.352783203125
1760967374.1301837,-0.63916015625,-0.0107421875,0.798828125,-3.2958984375,-3.47900390625,0.0,-0.3131103515625,39.9737548828125,-175.3472900390625
1760967374.1363354,-0.63916015625,-0.0107421875,0.798828125,-3.2958984375,-3.47900390625,0.0,-0.340576171875,39.935302734375,-175.341796875
1760967374.1428478,-0.6357421875,-0.00390625,0.76416015625,-2.8076171875,-3.23486328125,-0.06103515625,-0.3680419921875,39.9078369140625,-175.3363037109375
1760967374.1497953,-0.6357421875,-0.00390625,0.76416015625,-2.8076171875,-3.23486328125,-0.06103515625,-0.3955078125,39.8748779296875,-175.330810546875
1760967374.1566875,-0.63720703125,-0.00830078125,0.76806640625,-4.0283203125,-3.23486328125,0.1220703125,-0.4339599609375,39.8419189453125,-175.3253173828125
1760967374.184651,-0.63720703125,-0.00830078125,0.76806640625,-4.0283203125,-3.23486328125,0.1220703125,-0.4669189453125,39.814453125,-175.3143310546875
1760967374.1923623,-0.62890625,-0.01611328125,0.7822265625,-2.74658203125,-3.2958984375,0.3662109375,-0.4888916015625,39.781494140625,-175.308837890625
1760967374.1988358,-0.62890625,-0.01611328125,0.7822265625,-2.74658203125,-3.2958984375,0.3662109375,-0.516357421875,39.74853515625,-175.2978515625
1760967374.213454,-0.63330078125,-0.00927734375,0.78173828125,-1.52587890625,-3.41796875,0.3662109375,-0.52734375,39.7100830078125,-175.286865234375
1760967374.2328894,-0.63330078125,-0.00927734375,0.78173828125,-1.52587890625,-3.41796875,0.3662109375,-0.538330078125,39.6771240234375,-175.2813720703125
1760967374.238894,-0.63232421875,-0.00830078125,0.7958984375,-1.220703125,-3.173828125,0.18310546875,-0.5438232421875,39.6441650390625,-175.2703857421875
1760967374.247006,-0.63232421875,-0.00830078125,0.7958984375,-1.220703125,-3.173828125,0.18310546875,-0.5548095703125,39.6112060546875,-175.264892578125
1760967374.2544134,-0.63916015625,-0.0087890625,0.76806640625,-0.18310546875,-3.0517578125,-0.06103515625,-0.5548095703125,39.5782470703125,-175.264892578125
1760967374.2780755,-0.63916015625,-0.0087890625,0.76806640625,-0.18310546875,-3.0517578125,-0.06103515625,-0.560302734375,39.55078125,-175.2593994140625
1760967374.2854474,-0.65771484375,-0.00390625,0.75,-1.0986328125,-3.173828125,0.0,-0.5657958984375,39.517822265625,-175.25390625
1760967374.2923348,-0.65771484375,-0.00390625,0.75,-1.0986328125,-3.173828125,0.0,-0.5767822265625,39.4903564453125,-175.2484130859375
1760967374.300095,-0.66162109375,-0.0078125,0.76025390625,-0.244140625,-2.99072265625,0.06103515625,-0.5767822265625,39.462890625,-175.2374267578125
1760967374.3240495,-0.66162109375,-0.0078125,0.76025390625,-0.244140625,-2.99072265625,0.06103515625,-0.582275390625,39.4354248046875,-175.2264404296875
1760967374.3306408,-0.66015625,-0.02294921875,0.75537109375,2.99072265625,-2.5634765625,0.0,-0.54931640625,39.4134521484375,-175.2154541015625
1760967374.3375015,-0.66015625,-0.02294921875,0.75537109375,2.99072265625,-2.5634765625,0.0,-0.5218505859375,39.3914794921875,-175.2044677734375
1760967374.3452973,-0.64892578125,-0.01416015625,0.7666015625,5.43212890625,-2.13623046875,-0.3662109375,-0.472412109375,39.375,-175.198974609375
1760967374.353239,-0.64892578125,-0.01416015625,0.7666015625,5.43212890625,-2.13623046875,-0.3662109375,-0.4229736328125,39.3585205078125,-175.198974609375
1760967374.3696284,-0.658203125,0.0048828125,0.775390625,5.4931640625,-1.708984375,-0.67138671875,-0.37353515625,39.3475341796875,-175.1934814453125
1760967374.3768134,-0.658203125,0.0048828125,0.775390625,5.4931640625,-1.708984375,-0.67138671875,-0.3240966796875,39.3365478515625,-175.1934814453125
1760967374.3852823,-0.662109375,0.00048828125,0.73974609375,3.23486328125,-1.46484375,-0.67138671875,-0.3021240234375,39.3255615234375,-175.1934814453125
1760967374.3928502,-0.662109375,0.00048828125,0.73974609375,3.23486328125,-1.46484375,-0.67138671875,-0.274658203125,39.320068359375,-175.18798828125
1760967374.4000332,-0.6669921875,-0.00537109375,0.75732421875,-0.3662109375,-1.3427734375,-0.244140625,-0.2801513671875,39.3145751953125,-175.1824951171875
1760967374.4150264,-0.6669921875,-0.00537109375,0.75732421875,-0.3662109375,-1.3427734375,-0.244140625,-0.2911376953125,39.30908203125,-175.1715087890625
1760967374.422054,-0.66015625,0.0,0.77587890625,-2.9296875,-1.220703125,0.0,-0.318603515625,39.3035888671875,-175.155029296875
1760967374.4296453,-0.66015625,0.0,0.77587890625,-2.9296875,-1.220703125,0.0,-0.3460693359375,39.298095703125,-175.14404296875
1760967374.4365492,-0.64453125,-0.0048828125,0.74755859375,-3.35693359375,-0.9765625,0.06103515625,-0.3790283203125,39.298095703125,-175.1275634765625
1760967374.4514976,-0.64453125,-0.0048828125,0.74755859375,-3.35693359375,-0.9765625,0.06103515625,-0.4119873046875,39.298095703125,-175.111083984375
1760967374.457946,-0.6318359375,-0.0009765625,0.78857421875,-3.7841796875,-1.03759765625,0.0,-0.450439453125,39.2926025390625,-175.10009765625
1760967374.4646802,-0.6318359375,-0.0009765625,0.78857421875,-3.7841796875,-1.03759765625,0.0,-0.4888916015625,39.287109375,-175.089111328125
1760967374.4712634,-0.6298828125,0.00341796875,0.796875,-5.0048828125,-0.732421875,0.06103515625,-0.538330078125,39.287109375,-175.0726318359375
1760967374.4777286,-0.6298828125,0.00341796875,0.796875,-5.0048828125,-0.732421875,0.06103515625,-0.582275390625,39.287109375,-175.0616455078125
1760967374.4848447,-0.626953125,-0.01416015625,0.77587890625,-5.0048828125,-0.732421875,0.18310546875,-0.6317138671875,39.2816162109375,-175.0506591796875
1760967374.4988747,-0.626953125,-0.01416015625,0.77587890625,-5.0048828125,-0.732421875,0.18310546875,-0.6756591796875,39.276123046875,-175.0396728515625
1760967374.5067787,-0.6240234375,-0.01806640625,0.77783203125,-5.7373046875,-1.0986328125,0.48828125,-0.7305908203125,39.26513671875,-175.0286865234375
1760967374.5142522,-0.6240234375,-0.01806640625,0.77783203125,-5.7373046875,-1.0986328125,0.48828125,-0.780029296875,39.2596435546875,-175.01220703125
1760967374.5223246,-0.62646484375,-0.00439453125,0.77490234375,-7.26318359375,-1.46484375,0.732421875,-0.845947265625,39.2431640625,-175.001220703125
1760967374.5294359,-0.62646484375,-0.00439453125,0.77490234375,-7.26318359375,-1.46484375,0.732421875,-0.9063720703125,39.232177734375,-174.9847412109375
1760967374.5376053,-0.62109375,-0.0107421875,0.78759765625,-7.50732421875,-1.708984375,0.79345703125,-0.9722900390625,39.2156982421875,-174.9627685546875
1760967374.5443249,-0.62109375,-0.0107421875,0.78759765625,-7.50732421875,-1.708984375,0.79345703125,-1.0382080078125,39.19921875,-174.9462890625
1760967374.556134,-0.60791015625,-0.02001953125,0.81103515625,-7.2021484375,-1.5869140625,0.732421875,-1.1041259765625,39.1827392578125,-174.935302734375
1760967374.5627718,-0.60791015625,-0.02001953125,0.81103515625,-7.2021484375,-1.5869140625,0.732421875,-1.16455078125,39.166259765625,-174.9188232421875
1760967374.569685,-0.60791015625,-0.0126953125,0.82568359375,-6.4697265625,-1.3427734375,0.6103515625,-1.2249755859375,39.1497802734375,-174.913330078125
1760967374.5773776,-0.60791015625,-0.0126953125,0.82568359375,-4.33349609375,-1.3427734375,0.244140625,-1.2689208984375,39.13330078125,-174.90234375
1760967374.5845144,-0.62158203125,-0.01220703125,0.77978515625,-4.33349609375,-1.3427734375,0.244140625,-1.307373046875,39.111328125,-174.8968505859375
1760967374.5914056,-0.6376953125,-0.021484375,0.75830078125,-4.21142578125,-1.64794921875,0.1220703125,-1.3458251953125,39.0948486328125,-174.891357421875
1760967374.600397,-0.6376953125,-0.021484375,0.75830078125,-4.21142578125,-1.64794921875,0.1220703125,-1.38427734375,39.078369140625,-174.8858642578125
1760967374.6135063,-0.64892578125,-0.02294921875,0.77685546875,-3.84521484375,-1.64794921875,0.1220703125,-1.417236328125,39.056396484375,-174.88037109375
1760967374.6200337,-0.64892578125,-0.02294921875,0.77685546875,-3.84521484375,-1.64794921875,0.1220703125,-1.4556884765625,39.0399169921875,-174.869384765625
1760967374.6271727,-0.66064453125,-0.029296875,0.7744140625,-2.74658203125,-1.46484375,0.244140625,-1.483154296875,39.0234375,-174.8638916015625
1760967374.633776,-0.66064453125,-0.029296875,0.7744140625,-2.74658203125,-1.46484375,0.244140625,-1.505126953125,39.012451171875,-174.847412109375
1760967374.6410809,-0.68310546875,-0.03076171875,0.73291015625,-1.3427734375,-0.9765625,0.244140625,-1.5216064453125,39.00146484375,-174.83642578125
1760967374.648375,-0.68310546875,-0.03076171875,0.73291015625,-1.3427734375,-0.9765625,0.244140625,-1.5325927734375,38.9959716796875,-174.8199462890625
1760967374.6570683,-0.701171875,-0.0234375,0.703125,-0.9765625,-0.54931640625,0.0,-1.5435791015625,38.9959716796875,-174.8089599609375
1760967374.6706097,-0.701171875,-0.0234375,0.703125,-0.9765625,-0.54931640625,0.0,-1.5545654296875,38.9959716796875,-174.79248046875
1760967374.678063,-0.6865234375,-0.01806640625,0.7255859375,-0.67138671875,-0.48828125,-0.06103515625,-1.56005859375,39.00146484375,-174.7705078125
1760967374.6851346,-0.6865234375,-0.01806640625,0.7255859375,-0.67138671875,-0.48828125,-0.06103515625,-1.571044921875,39.012451171875,-174.7540283203125
1760967374.6927378,-0.6640625,-0.0283203125,0.77587890625,-0.54931640625,-0.244140625,0.0,-1.5765380859375,39.0234375,-174.7320556640625
1760967374.7000043,-0.6640625,-0.0283203125,0.77587890625,-0.54931640625,-0.244140625,0.0,-1.58203125,39.034423828125,-174.7100830078125
1760967374.7168117,-0.6435546875,-0.0322265625,0.77001953125,0.3662109375,-0.06103515625,0.244140625,-1.58203125,39.04541015625,-174.6881103515625
1760967374.7240443,-0.6435546875,-0.0322265625,0.77001953125,0.3662109375,-0.06103515625,0.244140625,-1.5765380859375,39.056396484375,-174.6661376953125
1760967374.730183,-0.6337890625,-0.0205078125,0.779296875,0.54931640625,0.0,0.244140625,-1.571044921875,39.0673828125,-174.6441650390625
1760967374.7363794,-0.6337890625,-0.0205078125,0.779296875,0.54931640625,0.0,0.244140625,-1.5655517578125,39.0728759765625,-174.627685546875
1760967374.7432125,-0.63037109375,-0.01416015625,0.7802734375,-0.18310546875,0.0,0.244140625,-1.5655517578125,39.0838623046875,-174.605712890625
1760967374.7581782,-0.63037109375,-0.01416015625,0.7802734375,-0.18310546875,0.0,0.244140625,-1.5655517578125,39.0948486328125,-174.5892333984375
1760967374.7671127,-0.62939453125,-0.03125,0.77734375,-0.244140625,-0.18310546875,0.3662109375,-1.5655517578125,39.100341796875,-174.57275390625
1760967374.7746072,-0.62939453125,-0.03125,0.77734375,-0.244140625,-0.18310546875,0.3662109375,-1.5655517578125,39.100341796875,-174.5562744140625
1760967374.7825935,-0.623046875,-0.02880859375,0.78515625,-0.1220703125,-0.30517578125,0.48828125,-1.5655517578125,39.1058349609375,-174.539794921875
1760967374.7901182,-0.623046875,-0.02880859375,0.78515625,-0.1220703125,-0.30517578125,0.48828125,-1.5655517578125,39.1058349609375,-174.5233154296875
1760967374.8068209,-0.61962890625,-0.01171875,0.7919921875,-0.6103515625,-0.42724609375,0.3662109375,-1.5655517578125,39.1058349609375,-174.5068359375
1760967374.814516,-0.61962890625,-0.01171875,0.7919921875,-0.6103515625,-0.42724609375,0.3662109375,-1.571044921875,39.1058349609375,-174.495849609375
1760967374.821274,-0.619140625,-0.0126953125,0.7978515625,-1.28173828125,-0.3662109375,0.18310546875,-1.5765380859375,39.1058349609375,-174.48486328125
1760967374.8288038,-0.619140625,-0.0126953125,0.7978515625,-1.28173828125,-0.3662109375,0.18310546875,-1.5875244140625,39.100341796875,-174.473876953125
1760967374.8441753,-0.61767578125,-0.0302734375,0.7890625,-0.6103515625,-0.244140625,0.06103515625,-1.593017578125,39.0948486328125,-174.462890625
1760967374.8512723,-0.61767578125,-0.0302734375,0.7890625,-0.6103515625,-0.244140625,0.06103515625,-1.5985107421875,39.0948486328125,-174.4573974609375
1760967374.8598495,-0.623046875,-0.0263671875,0.7783203125,0.244140625,-0.244140625,0.06103515625,-1.5985107421875,39.08935546875,-174.451904296875
1760967374.8669803,-0.623046875,-0.0263671875,0.7783203125,0.244140625,-0.244140625,0.06103515625,-1.5985107421875,39.08935546875,-174.4464111328125
1760967374.8824332,-0.62353515625,-0.02392578125,0.7880859375,0.1220703125,-0.48828125,0.1220703125,-1.5985107421875,39.0838623046875,-174.44091796875
1760967374.8888505,-0.62353515625,-0.02392578125,0.7880859375,0.1220703125,-0.48828125,0.1220703125,-1.593017578125,39.078369140625,-174.4354248046875
1760967374.8961341,-0.6240234375,-0.02783203125,0.7861328125,-0.54931640625,-0.54931640625,0.42724609375,-1.593017578125,39.0673828125,-174.429931640625
1760967374.902415,-0.6240234375,-0.02783203125,0.7861328125,-0.54931640625,-0.54931640625,0.42724609375,-1.5985107421875,39.0618896484375,-174.4244384765625
1760967374.9103198,-0.619140625,-0.0234375,0.7900390625,-0.54931640625,-0.54931640625,0.54931640625,-1.5985107421875,39.056396484375,-174.4134521484375
1760967374.9174855,-0.619140625,-0.0234375,0.7900390625,-0.54931640625,-0.54931640625,0.54931640625,-1.60400390625,39.04541015625,-174.4024658203125
1760967374.9253688,-0.58056640625,-0.01953125,0.81591796875,0.30517578125,-0.79345703125,0.3662109375,-1.5985107421875,39.034423828125,-174.39697265625
1760967374.9325845,-0.58056640625,-0.01953125,0.81591796875,0.30517578125,-0.79345703125,0.3662109375,-1.593017578125,39.0234375,-174.3914794921875
1760967374.9410195,-0.59619140625,-0.01220703125,0.84228515625,-1.28173828125,-0.48828125,0.6103515625,-1.593017578125,39.012451171875,-174.3914794921875
1760967374.9477785,-0.59619140625,-0.01220703125,0.84228515625,-1.28173828125,-0.48828125,0.6103515625,-1.60400390625,38.9959716796875,-174.385986328125
1760967374.9547176,-0.59423828125,-0.0283203125,0.79052734375,-2.685546875,-0.6103515625,0.732421875,-1.614990234375,38.9849853515625,-174.3804931640625
1760967374.9612744,-0.59423828125,-0.0283203125,0.79052734375,-2.685546875,-0.6103515625,0.732421875,-1.636962890625,38.968505859375,-174.375
1760967374.9674897,-0.60205078125,-0.03271484375,0.79248046875,-2.74658203125,-1.0986328125,0.67138671875,-1.658935546875,38.9520263671875,-174.375
1760967374.9741175,-0.60205078125,-0.03271484375,0.79248046875,-2.74658203125,-1.0986328125,0.67138671875,-1.680908203125,38.9300537109375,-174.3695068359375
1760967374.9808297,-0.619140625,-0.02783203125,0.79833984375,-2.0751953125,-1.15966796875,0.8544921875,-1.6973876953125,38.9080810546875,-174.364013671875
1760967374.9872458,-0.619140625,-0.02783203125,0.79833984375,-2.0751953125,-1.15966796875,0.8544921875,-1.7138671875,38.8916015625,-174.3585205078125
1760967374.996605,-0.611328125,-0.0283203125,0.78759765625,-1.89208984375,-1.28173828125,0.8544921875,-1.724853515625,38.86962890625,-174.35302734375
1760967375.00381,-0.611328125,-0.0283203125,0.78759765625,-1.89208984375,-1.28173828125,0.8544921875,-1.73583984375,38.84765625,-174.3475341796875
1760967375.0114167,-0.60546875,-0.01416015625,0.79638671875,-1.77001953125,-1.220703125,0.6103515625,-1.7523193359375,38.82568359375,-174.342041015625
1760967375.0210786,-0.60546875,-0.01416015625,0.79638671875,-1.77001953125,-1.220703125,0.6103515625,-1.7633056640625,38.8092041015625,-174.342041015625
1760967375.0278656,-0.6064453125,-0.025390625,0.83056640625,0.0,-1.3427734375,0.42724609375,-1.768798828125,38.7872314453125,-174.3365478515625
1760967375.0345192,-0.6064453125,-0.025390625,0.83056640625,0.0,-1.3427734375,0.42724609375,-1.7633056640625,38.7652587890625,-174.3365478515625
1760967375.0418286,-0.615234375,-0.0341796875,0.77490234375,0.244140625,-1.46484375,0.42724609375,-1.7578125,38.7432861328125,-174.3365478515625
1760967375.0490048,-0.615234375,-0.0341796875,0.77490234375,0.244140625,-1.46484375,0.42724609375,-1.7523193359375,38.7213134765625,-174.3365478515625
1760967375.056319,-0.62890625,-0.0234375,0.7890625,0.732421875,-1.77001953125,0.3662109375,-1.746826171875,38.69384765625,-174.3365478515625
1760967375.0627987,-0.62890625,-0.0234375,0.7890625,0.732421875,-1.77001953125,0.3662109375,-1.73583984375,38.671875,-174.3365478515625
1760967375.0692189,-0.61669921875,-0.01025390625,0.794921875,-0.48828125,-1.64794921875,0.06103515625,-1.7303466796875,38.64990234375,-174.3310546875
1760967375.0766523,-0.61669921875,-0.01025390625,0.794921875,-0.48828125,-1.64794921875,0.06103515625,-1.73583984375,38.6279296875,-174.3310546875
1760967375.084303,-0.61083984375,-0.02099609375,0.791015625,-1.40380859375,-1.52587890625,-0.06103515625,-1.7413330078125,38.60595703125,-174.3310546875
1760967375.0906878,-0.61083984375,-0.02099609375,0.791015625,-1.40380859375,-1.52587890625,-0.06103515625,-1.7578125,38.583984375,-174.3310546875
1760967375.0982225,-0.62060546875,-0.02587890625,0.7998046875,-3.662109375,-1.46484375,0.1220703125,-1.77978515625,38.56201171875,-174.3310546875
1760967375.1054354,-0.62060546875,-0.02587890625,0.7998046875,-3.662109375,-1.46484375,0.1220703125,-1.812744140625,38.5400390625,-174.3255615234375
1760967375.1120336,-0.6259765625,-0.01513671875,0.76953125,-3.84521484375,-1.8310546875,0.0,-1.8511962890625,38.5235595703125,-174.3255615234375
1760967375.1193993,-0.6259765625,-0.01513671875,0.76953125,-3.84521484375,-1.8310546875,0.0,-1.8841552734375,38.5015869140625,-174.320068359375
1760967375.1263523,-0.63916015625,-0.02685546875,0.7685546875,-2.0751953125,-2.13623046875,-0.1220703125,-1.91162109375,38.47412109375,-174.3145751953125
1760967375.1328034,-0.63916015625,-0.02685546875,0.7685546875,-2.0751953125,-2.13623046875,-0.1220703125,-1.93359375,38.4521484375,-174.3145751953125
1760967375.139069,-0.6416015625,-0.03515625,0.77734375,-1.15966796875,-2.25830078125,-0.1220703125,-1.9500732421875,38.43017578125,-174.30908203125
1760967375.1470501,-0.6416015625,-0.03515625,0.77734375,-1.15966796875,-2.25830078125,-0.1220703125,-1.95556640625,38.408203125,-174.3035888671875
1760967375.155076,-0.64990234375,-0.03564453125,0.7587890625,0.6103515625,-2.13623046875,-0.244140625,-1.9610595703125,38.38623046875,-174.298095703125
1760967375.162594,-0.64990234375,-0.03564453125,0.7587890625,0.6103515625,-2.13623046875,-0.244140625,-1.95556640625,38.3697509765625,-174.2926025390625
1760967375.1696787,-0.6533203125,-0.04248046875,0.75244140625,2.0751953125,-1.953125,-0.1220703125,-1.944580078125,38.353271484375,-174.287109375
1760967375.176724,-0.6533203125,-0.04248046875,0.75244140625,2.0751953125,-1.953125,-0.1220703125,-1.922607421875,38.3367919921875,-174.276123046875
1760967375.1839437,-0.654296875,-0.02783203125,0.76904296875,2.8076171875,-1.708984375,0.06103515625,-1.900634765625,38.3258056640625,-174.26513671875
1760967375.190291,-0.654296875,-0.02783203125,0.76904296875,2.8076171875,-1.708984375,0.06103515625,-1.8731689453125,38.3148193359375,-174.2486572265625
1760967375.1973703,-0.6552734375,-0.02587890625,0.75537109375,2.50244140625,-1.3427734375,0.0,-1.8511962890625,38.3038330078125,-174.232177734375
1760967375.205602,-0.6552734375,-0.02587890625,0.75537109375,2.50244140625,-1.3427734375,0.0,-1.82373046875,38.29833984375,-174.2156982421875
1760967375.2140088,-0.65283203125,-0.0263671875,0.76708984375,2.197265625,-1.15966796875,0.244140625,-1.8017578125,38.29833984375,-174.19921875
1760967375.2294993,-0.65283203125,-0.0263671875,0.76708984375,2.197265625,-1.15966796875,0.244140625,-1.77978515625,38.2928466796875,-174.1827392578125
1760967375.2360802,-0.64892578125,-0.02734375,0.77734375,0.67138671875,-0.79345703125,0.48828125,-1.768798828125,38.2928466796875,-174.1607666015625
1760967375.2423186,-0.64892578125,-0.02734375,0.77734375,0.67138671875,-0.79345703125,0.48828125,-1.7578125,38.2928466796875,-174.1387939453125
1760967375.2495997,-0.63720703125,-0.02685546875,0.7646484375,1.3427734375,-0.54931640625,0.48828125,-1.746826171875,38.29833984375,-174.1168212890625
1760967375.2575312,-0.63720703125,-0.02685546875,0.7646484375,1.3427734375,-0.54931640625,0.48828125,-1.7303466796875,38.3038330078125,-174.0948486328125
1760967375.2655294,-0.62890625,-0.021484375,0.78857421875,1.46484375,-0.48828125,0.42724609375,-1.7138671875,38.3038330078125,-174.0728759765625
1760967375.27306,-0.62890625,-0.021484375,0.78857421875,1.46484375,-0.48828125,0.42724609375,-1.6973876953125,38.309326171875,-174.0509033203125
1760967375.2810397,-0.6220703125,-0.01904296875,0.78662109375,1.52587890625,-0.30517578125,0.3662109375,-1.680908203125,38.3148193359375,-174.0289306640625
1760967375.2907014,-0.6220703125,-0.01904296875,0.78662109375,1.52587890625,-0.30517578125,0.3662109375,-1.6644287109375,38.3148193359375,-174.012451171875
1760967375.3010201,-0.6162109375,-0.02392578125,0.7880859375,0.30517578125,-0.30517578125,0.67138671875,-1.6534423828125,38.3203125,-173.9959716796875
1760967375.3105838,-0.6162109375,-0.02392578125,0.7880859375,0.30517578125,-0.30517578125,0.67138671875,-1.64794921875,38.3203125,-173.9739990234375
1760967375.3367176,-0.61328125,-0.029296875,0.8046875,0.1220703125,-0.42724609375,0.6103515625,-1.6424560546875,38.3203125,-173.9520263671875
1760967375.3444264,-0.61328125,-0.029296875,0.8046875,0.1220703125,-0.42724609375,0.6103515625,-1.636962890625,38.3203125,-173.935546875
1760967375.3541348,-0.61083984375,-0.01904296875,0.77978515625,1.40380859375,-0.6103515625,0.48828125,-1.6259765625,38.3203125,-173.9190673828125
1760967375.3608174,-0.61083984375,-0.01904296875,0.77978515625,1.40380859375,-0.6103515625,0.48828125,-1.6094970703125,38.3148193359375,-173.9080810546875
1760967375.3692417,-0.61083984375,-0.01904296875,0.77978515625,2.13623046875,-0.732421875,0.48828125,-1.5875244140625,38.309326171875,-173.8916015625
1760967375.3774545,-0.60302734375,-0.02783203125,0.80810546875,2.13623046875,-0.732421875,0.48828125,-1.56005859375,38.3038330078125,-173.880615234375
1760967375.392762,-0.5966796875,-0.0224609375,0.81884765625,1.953125,-0.6103515625,0.48828125,-1.5380859375,38.29833984375,-173.86962890625
1760967375.407775,-0.5966796875,-0.0224609375,0.81884765625,1.953125,-0.6103515625,0.48828125,-1.51611328125,38.287353515625,-173.8641357421875
1760967375.4230883,-0.6025390625,-0.0146484375,0.80126953125,1.220703125,-0.6103515625,0.3662109375,-1.505126953125,38.2818603515625,-173.858642578125
1760967375.4301038,-0.6025390625,-0.0146484375,0.80126953125,1.220703125,-0.6103515625,0.3662109375,-1.4886474609375,38.2708740234375,-173.8531494140625
1760967375.4465551,-0.61083984375,-0.0068359375,0.7890625,-0.42724609375,-0.67138671875,0.3662109375,-1.494140625,38.2598876953125,-173.84765625
1760967375.4562984,-0.61083984375,-0.0068359375,0.7890625,-0.42724609375,-0.67138671875,0.3662109375,-1.494140625,38.2489013671875,-173.8421630859375
1760967375.4636662,-0.61474609375,-0.02587890625,0.78662109375,-1.220703125,-0.732421875,0.54931640625,-1.4996337890625,38.2379150390625,-173.8311767578125
1760967375.4712691,-0.61474609375,-0.02587890625,0.78662109375,-1.220703125,-0.732421875,0.54931640625,-1.5106201171875,38.232421875,-173.8201904296875
1760967375.4791472,-0.62060546875,-0.033203125,0.796875,-0.3662109375,-0.9765625,0.67138671875,-1.505126953125,38.2159423828125,-173.8092041015625
1760967375.4859276,-0.62060546875,-0.033203125,0.796875,-0.3662109375,-0.9765625,0.67138671875,-1.505126953125,38.2049560546875,-173.8037109375
1760967375.492336,-0.62353515625,-0.01953125,0.78369140625,0.1220703125,-1.15966796875,0.54931640625,-1.4996337890625,38.1939697265625,-173.792724609375
1760967375.5070245,-0.62353515625,-0.01953125,0.78369140625,0.1220703125,-1.15966796875,0.54931640625,-1.494140625,38.177490234375,-173.78173828125
1760967375.5165427,-0.623046875,-0.01513671875,0.791015625,0.3662109375,-1.15966796875,0.3662109375,-1.4886474609375,38.16650390625,-173.770751953125
1760967375.5241382,-0.623046875,-0.01513671875,0.791015625,0.3662109375,-1.15966796875,0.3662109375,-1.483154296875,38.155517578125,-173.7652587890625
1760967375.5334082,-0.6240234375,-0.01171875,0.7890625,1.15966796875,-0.8544921875,0.244140625,-1.47216796875,38.14453125,-173.759765625
1760967375.540925,-0.6240234375,-0.01171875,0.7890625,1.15966796875,-0.8544921875,0.244140625,-1.4556884765625,38.133544921875,-173.7542724609375
1760967375.5476947,-0.63037109375,-0.0283203125,0.79248046875,2.13623046875,-0.6103515625,0.18310546875,-1.4337158203125,38.1280517578125,-173.7432861328125
1760967375.5561378,-0.63037109375,-0.0283203125,0.79248046875,2.13623046875,-0.6103515625,0.18310546875,-1.4117431640625,38.12255859375,-173.73779296875
1760967375.5621982,-0.640625,-0.02587890625,0.7705078125,1.03759765625,-0.42724609375,0.30517578125,-1.4007568359375,38.1170654296875,-173.7322998046875
1760967375.5711594,-0.640625,-0.02587890625,0.7705078125,1.03759765625,-0.42724609375,0.30517578125,-1.3897705078125,38.1170654296875,-173.7213134765625
1760967375.581378,-0.6552734375,-0.00830078125,0.7353515625,0.732421875,-0.67138671875,0.1220703125,-1.3787841796875,38.111572265625,-173.7103271484375
1760967375.5909696,-0.6552734375,-0.00830078125,0.7353515625,0.732421875,-0.67138671875,0.1220703125,-1.373291015625,38.111572265625,-173.6993408203125
1760967375.601513,-0.64501953125,-0.01416015625,0.7861328125,-0.54931640625,-0.6103515625,0.244140625,-1.373291015625,38.111572265625,-173.682861328125
1760967375.61127,-0.64501953125,-0.01416015625,0.7861328125,-0.54931640625,-0.6103515625,0.244140625,-1.3787841796875,38.111572265625,-173.6663818359375
1760967375.62171,-0.6328125,-0.02587890625,0.79443359375,-0.54931640625,-0.18310546875,0.3662109375,-1.38427734375,38.1170654296875,-173.64990234375
1760967375.6323104,-0.6328125,-0.02587890625,0.79443359375,-0.54931640625,-0.18310546875,0.3662109375,-1.38427734375,38.1170654296875,-173.6334228515625
1760967375.6417952,-0.630859375,-0.01611328125,0.77587890625,0.3662109375,0.06103515625,0.42724609375,-1.3787841796875,38.12255859375,-173.616943359375
1760967375.6611042,-0.630859375,-0.01611328125,0.77587890625,0.3662109375,0.06103515625,0.42724609375,-1.373291015625,38.1280517578125,-173.6004638671875
1760967375.6685789,-0.63330078125,-0.02197265625,0.78271484375,-0.42724609375,0.06103515625,0.42724609375,-1.373291015625,38.133544921875,-173.583984375
1760967375.6751206,-0.63330078125,-0.02197265625,0.78271484375,-0.42724609375,0.06103515625,0.42724609375,-1.373291015625,38.14453125,-173.5675048828125
1760967375.6854944,-0.63134765625,-0.02880859375,0.76611328125,-0.6103515625,-0.1220703125,0.67138671875,-1.3787841796875,38.14453125,-173.5455322265625
1760967375.6932175,-0.63134765625,-0.02880859375,0.76611328125,-0.6103515625,-0.1220703125,0.67138671875,-1.3787841796875,38.1500244140625,-173.529052734375
1760967375.702092,-0.62353515625,-0.017578125,0.796875,-0.1220703125,-0.1220703125,0.67138671875,-1.373291015625,38.155517578125,-173.507080078125
1760967375.71203,-0.62353515625,-0.017578125,0.796875,-0.1220703125,-0.1220703125,0.67138671875,-1.373291015625,38.1610107421875,-173.485107421875
1760967375.7259924,-0.60986328125,-0.01904296875,0.7998046875,-0.30517578125,0.06103515625,0.732421875,-1.3677978515625,38.1610107421875,-173.4686279296875
1760967375.7336664,-0.60986328125,-0.01904296875,0.7998046875,-0.30517578125,0.06103515625,0.732421875,-1.3677978515625,38.16650390625,-173.4466552734375
1760967375.741089,-0.607421875,-0.0244140625,0.810546875,-0.42724609375,0.1220703125,0.79345703125,-1.3677978515625,38.1719970703125,-173.43017578125
1760967375.7514915,-0.607421875,-0.0244140625,0.810546875,-0.42724609375,0.1220703125,0.79345703125,-1.3677978515625,38.1719970703125,-173.4136962890625
1760967375.762062,-0.61669921875,-0.013671875,0.78125,-0.1220703125,0.1220703125,0.6103515625,-1.3623046875,38.1719970703125,-173.4027099609375
1760967375.7732685,-0.61669921875,-0.013671875,0.78125,-0.1220703125,0.1220703125,0.6103515625,-1.3623046875,38.177490234375,-173.3917236328125
1760967375.7813716,-0.62060546875,-0.015625,0.78076171875,0.0,-0.1220703125,0.42724609375,-1.3568115234375,38.177490234375,-173.3807373046875
1760967375.7941635,-0.62060546875,-0.015625,0.78076171875,0.0,-0.1220703125,0.42724609375,-1.3568115234375,38.1719970703125,-173.3697509765625
1760967375.801197,-0.61181640625,-0.021484375,0.8037109375,0.48828125,-0.30517578125,0.30517578125,-1.3458251953125,38.1719970703125,-173.3642578125
1760967375.8179278,-0.61181640625,-0.021484375,0.8037109375,0.48828125,-0.30517578125,0.30517578125,-1.34033203125,38.16650390625,-173.353271484375
1760967375.8266983,-0.60791015625,-0.02197265625,0.8017578125,0.79345703125,-0.244140625,0.30517578125,-1.329345703125,38.16650390625,-173.3477783203125
1760967375.8341458,-0.60791015625,-0.02197265625,0.8017578125,0.79345703125,-0.244140625,0.30517578125,-1.318359375,38.1610107421875,-173.3367919921875
1760967375.8421745,-0.611328125,-0.0146484375,0.80224609375,-0.1220703125,-0.244140625,0.42724609375,-1.318359375,38.155517578125,-173.331298828125
1760967375.8522298,-0.611328125,-0.0146484375,0.80224609375,-0.1220703125,-0.244140625,0.42724609375,-1.318359375,38.155517578125,-173.3203125
1760967375.861462,-0.6201171875,-0.0126953125,0.783203125,-0.18310546875,-0.30517578125,0.244140625,-1.318359375,38.1500244140625,-173.3148193359375
1760967375.8784268,-0.6201171875,-0.0126953125,0.783203125,-0.18310546875,-0.30517578125,0.244140625,-1.318359375,38.14453125,-173.309326171875
1760967375.887328,-0.62744140625,-0.0244140625,0.77880859375,0.67138671875,-0.48828125,0.18310546875,-1.307373046875,38.1390380859375,-173.3038330078125
1760967375.894587,-0.62744140625,-0.0244140625,0.77880859375,0.67138671875,-0.48828125,0.18310546875,-1.3018798828125,38.133544921875,-173.29833984375
1760967375.9014857,-0.62841796875,-0.0205078125,0.78759765625,0.48828125,-0.48828125,0.244140625,-1.29638671875,38.1280517578125,-173.287353515625
1760967375.914033,-0.62841796875,-0.0205078125,0.78759765625,0.48828125,-0.48828125,0.244140625,-1.285400390625,38.12255859375,-173.2763671875
1760967375.9262881,-0.62255859375,-0.0048828125,0.78125,0.67138671875,-0.30517578125,0.1220703125,-1.2799072265625,38.12255859375,-173.2708740234375
1760967375.9357994,-0.62255859375,-0.0048828125,0.78125,0.67138671875,-0.30517578125,0.1220703125,-1.2744140625,38.1170654296875,-173.2598876953125
1760967375.9426718,-0.619140625,-0.02392578125,0.81298828125,-1.40380859375,-0.18310546875,0.3662109375,-1.285400390625,38.1170654296875,-173.2489013671875
1760967375.9530253,-0.619140625,-0.02392578125,0.81298828125,-1.40380859375,-0.18310546875,0.3662109375,-1.29638671875,38.1170654296875,-173.2379150390625
1760967375.9617648,-0.6181640625,-0.0224609375,0.7783203125,-1.64794921875,0.0,0.48828125,-1.307373046875,38.1170654296875,-173.2269287109375
1760967375.981228,-0.6181640625,-0.0224609375,0.7783203125,-1.64794921875,0.0,0.48828125,-1.318359375,38.1170654296875,-173.2159423828125
1760967375.9878454,-0.62158203125,-0.013671875,0.779296875,-1.220703125,-0.06103515625,0.3662109375,-1.329345703125,38.1170654296875,-173.2049560546875
1760967375.9976134,-0.62158203125,-0.013671875,0.779296875,-1.220703125,-0.06103515625,0.3662109375,-1.34033203125,38.1170654296875,-173.199462890625
1760967376.005587,-0.62353515625,-0.0146484375,0.80126953125,-1.8310546875,-0.1220703125,0.30517578125,-1.3568115234375,38.1170654296875,-173.1884765625
1760967376.0154703,-0.62353515625,-0.0146484375,0.80126953125,-1.8310546875,-0.1220703125,0.30517578125,-1.3677978515625,38.1170654296875,-173.177490234375
1760967376.0238745,-0.61865234375,-0.0302734375,0.79052734375,-0.67138671875,-0.06103515625,0.3662109375,-1.373291015625,38.111572265625,-173.16650390625
1760967376.0444486,-0.61865234375,-0.0302734375,0.79052734375,-0.67138671875,-0.06103515625,0.3662109375,-1.3787841796875,38.111572265625,-173.155517578125
1760967376.0537076,-0.6171875,-0.01953125,0.78759765625,0.244140625,0.0,0.30517578125,-1.373291015625,38.111572265625,-173.1500244140625
1760967376.0602965,-0.6171875,-0.01953125,0.78759765625,0.244140625,0.0,0.30517578125,-1.3677978515625,38.111572265625,-173.14453125
1760967376.0671268,-0.61376953125,-0.0068359375,0.796875,-0.54931640625,0.0,0.18310546875,-1.373291015625,38.111572265625,-173.133544921875
1760967376.074689,-0.61376953125,-0.0068359375,0.796875,-0.54931640625,0.0,0.18310546875,-1.373291015625,38.111572265625,-173.1280517578125
1760967376.088473,-0.6142578125,-0.0234375,0.7978515625,-0.30517578125,0.0,0.18310546875,-1.3787841796875,38.111572265625,-173.12255859375
1760967376.0952802,-0.6142578125,-0.0234375,0.7978515625,-0.30517578125,0.0,0.18310546875,-1.3787841796875,38.111572265625,-173.1170654296875
1760967376.1015608,-0.61181640625,-0.0302734375,0.7978515625,0.1220703125,0.0,0.244140625,-1.373291015625,38.111572265625,-173.111572265625
1760967376.1129243,-0.61181640625,-0.0302734375,0.7978515625,0.1220703125,0.0,0.244140625,-1.373291015625,38.111572265625,-173.1060791015625
1760967376.121723,-0.60888671875,-0.0166015625,0.802734375,0.30517578125,0.0,0.244140625,-1.3677978515625,38.1060791015625,-173.1005859375
1760967376.1378634,-0.60888671875,-0.0166015625,0.802734375,0.30517578125,0.0,0.244140625,-1.3623046875,38.1060791015625,-173.0950927734375
1760967376.1456165,-0.61181640625,-0.0078125,0.787109375,-0.18310546875,0.0,0.1220703125,-1.3623046875,38.1005859375,-173.089599609375
1760967376.1558158,-0.61181640625,-0.0078125,0.787109375,-0.18310546875,0.0,0.1220703125,-1.3623046875,38.1005859375,-173.089599609375
1760967376.1628528,-0.609375,-0.017578125,0.796875,0.0,-0.1220703125,0.06103515625,-1.3623046875,38.0950927734375,-173.0841064453125
1760967376.1719549,-0.609375,-0.017578125,0.796875,0.0,-0.1220703125,0.06103515625,-1.3623046875,38.0950927734375,-173.0841064453125
1760967376.1815917,-0.61669921875,-0.021484375,0.80224609375,0.3662109375,-0.18310546875,0.0,-1.3568115234375,38.089599609375,-173.0841064453125
1760967376.1950712,-0.61669921875,-0.021484375,0.80224609375,0.3662109375,-0.18310546875,0.0,-1.351318359375,38.0841064453125,-173.07861328125
1760967376.202548,-0.61865234375,-0.02392578125,0.783203125,0.79345703125,-0.244140625,-0.06103515625,-1.3458251953125,38.07861328125,-173.07861328125
1760967376.2120538,-0.61865234375,-0.02392578125,0.783203125,0.79345703125,-0.244140625,-0.06103515625,-1.34033203125,38.07861328125,-173.07861328125
1760967376.2289972,-0.6181640625,-0.0205078125,0.7939453125,1.220703125,-0.30517578125,-0.06103515625,-1.329345703125,38.0731201171875,-173.07861328125
1760967376.245044,-0.6181640625,-0.0205078125,0.7939453125,1.220703125,-0.30517578125,-0.06103515625,-1.318359375,38.067626953125,-173.07861328125
1760967376.2512343,-0.61474609375,-0.01416015625,0.7958984375,0.9765625,-0.244140625,-0.1220703125,-1.307373046875,38.0621337890625,-173.07861328125
1760967376.2772014,-0.61474609375,-0.01416015625,0.7958984375,0.9765625,-0.244140625,-0.1220703125,-1.3018798828125,38.056640625,-173.07861328125
1760967376.2841215,-0.6171875,-0.013671875,0.7958984375,0.48828125,-0.18310546875,-0.1220703125,-1.29638671875,38.056640625,-173.07861328125
1760967376.301859,-0.6171875,-0.013671875,0.7958984375,0.48828125,-0.18310546875,-0.1220703125,-1.2908935546875,38.0511474609375,-173.07861328125
1760967376.3321333,-0.6201171875,-0.0224609375,0.78369140625,0.6103515625,-0.1220703125,-0.06103515625,-1.285400390625,38.0511474609375,-173.07861328125
1760967376.3398278,-0.6201171875,-0.0224609375,0.78369140625,0.6103515625,-0.1220703125,-0.06103515625,-1.2799072265625,38.045654296875,-173.0731201171875
1760967376.346431,-0.625,-0.02001953125,0.783203125,0.67138671875,-0.1220703125,0.0,-1.2744140625,38.045654296875,-173.067626953125
1760967376.3763084,-0.62646484375,-0.0205078125,0.79296875,0.54931640625,-0.06103515625,0.1220703125,-1.2689208984375,38.045654296875,-173.067626953125
1760967376.3861032,-0.62646484375,-0.0205078125,0.79296875,0.54931640625,-0.06103515625,0.1220703125,-1.263427734375,38.0401611328125,-173.0621337890625
1760967376.3927395,-0.6220703125,-0.01416015625,0.78955078125,0.8544921875,0.0,0.06103515625,-1.2579345703125,38.0401611328125,-173.056640625
1760967376.402779,-0.6220703125,-0.01416015625,0.78955078125,0.8544921875,0.0,0.06103515625,-1.2469482421875,38.0401611328125,-173.0511474609375
1760967376.4148583,-0.6142578125,-0.01611328125,0.79296875,1.15966796875,0.0,0.0,-1.2359619140625,38.0401611328125,-173.045654296875
1760967376.424742,-0.6142578125,-0.01611328125,0.79296875,1.15966796875,0.0,0.0,-1.2249755859375,38.0401611328125,-173.0401611328125
1760967376.4323037,-0.61083984375,-0.013671875,0.80419921875,0.244140625,0.1220703125,0.0,-1.219482421875,38.0401611328125,-173.0401611328125
1760967376.4497273,-0.61083984375,-0.013671875,0.80419921875,0.244140625,0.1220703125,0.0,-1.219482421875,38.045654296875,-173.0401611328125
1760967376.4562206,-0.6171875,-0.02197265625,0.78759765625,-0.30517578125,0.1220703125,0.1220703125,-1.219482421875,38.045654296875,-173.03466796875
1760967376.4653509,-0.6171875,-0.02197265625,0.78759765625,-0.30517578125,0.1220703125,0.1220703125,-1.219482421875,38.045654296875,-173.0291748046875
1760967376.475748,-0.6259765625,-0.0185546875,0.783203125,0.42724609375,0.0,0.18310546875,-1.219482421875,38.045654296875,-173.0291748046875
1760967376.4947584,-0.6259765625,-0.0185546875,0.783203125,0.42724609375,0.0,0.18310546875,-1.2139892578125,38.045654296875,-173.023681640625
1760967376.5043988,-0.6201171875,-0.01220703125,0.78515625,0.30517578125,0.0,0.0,-1.20849609375,38.045654296875,-173.0181884765625
1760967376.5114608,-0.6201171875,-0.01220703125,0.78515625,0.30517578125,0.0,0.0,-1.20849609375,38.045654296875,-173.0126953125
1760967376.5178468,-0.611328125,-0.01025390625,0.8076171875,-0.30517578125,0.06103515625,0.0,-1.20849609375,38.045654296875,-173.0072021484375
1760967376.5261436,-0.611328125,-0.01025390625,0.8076171875,-0.30517578125,0.06103515625,0.0,-1.20849609375,38.045654296875,-173.0072021484375
1760967376.535942,-0.6142578125,-0.0205078125,0.80078125,-0.3662109375,0.1220703125,0.0,-1.2139892578125,38.045654296875,-173.001708984375
1760967376.5443296,-0.6142578125,-0.0205078125,0.80078125,-0.3662109375,0.1220703125,0.0,-1.2139892578125,38.045654296875,-173.001708984375
1760967376.5591097,-0.6181640625,-0.02392578125,0.775390625,-0.18310546875,0.06103515625,0.06103515625,-1.219482421875,38.045654296875,-172.9962158203125
1760967376.5831838,-0.6181640625,-0.02392578125,0.775390625,-0.18310546875,0.06103515625,0.06103515625,-1.219482421875,38.045654296875,-172.9962158203125
1760967376.5903313,-0.6162109375,-0.0068359375,0.7890625,-0.06103515625,0.0,0.0,-1.219482421875,38.045654296875,-172.99072265625
1760967376.5981967,-0.6162109375,-0.0068359375,0.7890625,-0.06103515625,0.0,0.0,-1.219482421875,38.045654296875,-172.99072265625
1760967376.6060789,-0.6123046875,-0.01806640625,0.80712890625,-0.6103515625,0.1220703125,-0.06103515625,-1.2249755859375,38.045654296875,-172.99072265625
1760967376.6146667,-0.6123046875,-0.01806640625,0.80712890625,-0.6103515625,0.1220703125,-0.06103515625,-1.23046875,38.045654296875,-172.99072265625
1760967376.6224148,-0.6142578125,-0.02783203125,0.79248046875,-0.54931640625,0.1220703125,0.0,-1.2359619140625,38.045654296875,-172.9852294921875
1760967376.629448,-0.6142578125,-0.02783203125,0.79248046875,-0.54931640625,0.1220703125,0.0,-1.241455078125,38.0401611328125,-172.9852294921875
1760967376.6370728,-0.61328125,-0.01513671875,0.79052734375,0.6103515625,-0.06103515625,0.0,-1.241455078125,38.0401611328125,-172.9852294921875
1760967376.6455016,-0.61328125,-0.01513671875,0.79052734375,0.6103515625,-0.06103515625,0.0,-1.2359619140625,38.0401611328125,-172.979736328125
1760967376.6519117,-0.623046875,-0.0078125,0.7939453125,0.30517578125,-0.1220703125,0.0,-1.23046875,38.03466796875,-172.979736328125
1760967376.6596549,-0.623046875,-0.0078125,0.7939453125,0.30517578125,-0.1220703125,0.0,-1.23046875,38.03466796875,-172.9742431640625
1760967376.6769164,-0.6328125,-0.01806640625,0.77978515625,-0.30517578125,0.0,0.0,-1.23046875,38.03466796875,-172.9742431640625
1760967376.6851182,-0.6328125,-0.01806640625,0.77978515625,-0.30517578125,0.0,0.0,-1.23046875,38.03466796875,-172.96875
1760967376.6990676,-0.6328125,-0.01806640625,0.77978515625,-0.06103515625,0.0,0.0,-1.23046875,38.03466796875,-172.9632568359375
1760967376.7163243,-0.63720703125,-0.01904296875,0.77685546875,-0.06103515625,0.0,0.0,-1.2359619140625,38.03466796875,-172.9632568359375
1760967376.7356343,-0.63720703125,-0.01220703125,0.7744140625,-0.1220703125,0.06103515625,0.0,-1.2359619140625,38.03466796875,-172.9522705078125
1760967376.7429342,-0.63720703125,-0.01220703125,0.7744140625,-0.1220703125,0.06103515625,0.0,-1.2359619140625,38.0401611328125,-172.94677734375
1760967376.7504191,-0.60595703125,-0.021484375,0.7578125,-0.8544921875,0.18310546875,0.0,-1.241455078125,38.045654296875,-172.9412841796875
1760967376.758256,-0.60595703125,-0.021484375,0.7578125,-0.8544921875,0.18310546875,0.0,-1.2469482421875,38.0511474609375,-172.935791015625
1760967376.7671475,-0.607421875,-0.02783203125,0.86767578125,-0.42724609375,-0.18310546875,0.0,-1.25244140625,38.0511474609375,-172.9248046875
1760967376.7750895,-0.607421875,-0.02783203125,0.86767578125,-0.42724609375,-0.18310546875,0.0,-1.2579345703125,38.0511474609375,-172.9248046875
1760967376.7819588,-0.60205078125,-0.02099609375,0.77978515625,0.6103515625,-0.1220703125,0.0,-1.2579345703125,38.045654296875,-172.9193115234375
1760967376.7888513,-0.60205078125,-0.02099609375,0.77978515625,0.6103515625,-0.1220703125,0.0,-1.25244140625,38.045654296875,-172.9193115234375
1760967376.796508,-0.61376953125,-0.00634765625,0.78466796875,0.6103515625,-0.42724609375,0.0,-1.2469482421875,38.0401611328125,-172.913818359375
1760967376.8050609,-0.61376953125,-0.00634765625,0.78466796875,0.6103515625,-0.42724609375,0.0,-1.241455078125,38.03466796875,-172.913818359375
1760967376.8348145,-0.61083984375,-0.0087890625,0.8173828125,-0.42724609375,-0.244140625,0.0,-1.241455078125,38.0291748046875,-172.913818359375
1760967376.8418655,-0.61083984375,-0.0087890625,0.8173828125,-0.42724609375,-0.244140625,0.0,-1.2469482421875,38.0291748046875,-172.913818359375
1760967376.850813,-0.609375,-0.02783203125,0.79345703125,-0.67138671875,-0.1220703125,0.0,-1.2469482421875,38.023681640625,-172.913818359375
1760967376.859221,-0.609375,-0.02783203125,0.79345703125,-0.67138671875,-0.1220703125,0.0,-1.2579345703125,38.0181884765625,-172.913818359375
1760967376.8677347,-0.61279296875,-0.025390625,0.80078125,0.30517578125,-0.06103515625,0.0,-1.2579345703125,38.0181884765625,-172.913818359375
1760967376.875717,-0.61279296875,-0.025390625,0.80078125,0.30517578125,-0.06103515625,0.0,-1.2579345703125,38.0126953125,-172.913818359375
1760967376.8825848,-0.6201171875,-0.01123046875,0.7900390625,1.15966796875,0.06103515625,0.0,-1.2469482421875,38.0126953125,-172.913818359375
1760967376.889914,-0.6201171875,-0.01123046875,0.7900390625,1.15966796875,0.06103515625,0.0,-1.2359619140625,38.0072021484375,-172.913818359375
1760967376.89922,-0.6181640625,-0.0048828125,0.77685546875,0.48828125,0.0,-0.3662109375,-1.23046875,38.0072021484375,-172.9193115234375
1760967376.9066608,-0.6181640625,-0.0048828125,0.77685546875,0.48828125,0.0,-0.3662109375,-1.23046875,38.0072021484375,-172.9193115234375
1760967376.9139254,-0.60986328125,-0.01904296875,0.802734375,-0.18310546875,-0.18310546875,-0.30517578125,-1.23046875,38.001708984375,-172.9248046875
1760967376.9202795,-0.60986328125,-0.01904296875,0.802734375,-0.18310546875,-0.18310546875,-0.30517578125,-1.23046875,38.001708984375,-172.9248046875
1760967376.9274082,-0.60595703125,-0.0302734375,0.81005859375,0.0,-0.18310546875,-0.1220703125,-1.2359619140625,37.9962158203125,-172.9248046875
1760967376.9352317,-0.60595703125,-0.0302734375,0.81005859375,0.0,-0.18310546875,-0.1220703125,-1.2359619140625,37.99072265625,-172.9302978515625
1760967376.9436588,-0.6083984375,-0.0205078125,0.78857421875,0.244140625,-0.18310546875,-0.06103515625,-1.2359619140625,37.9852294921875,-172.9302978515625
1760967376.9500682,-0.6083984375,-0.0205078125,0.78857421875,0.244140625,-0.18310546875,-0.06103515625,-1.2359619140625,37.9852294921875,-172.935791015625
1760967376.9570906,-0.6162109375,-0.00537109375,0.7998046875,0.48828125,-0.1220703125,-0.30517578125,-1.23046875,37.979736328125,-172.935791015625
1760967376.9637678,-0.6162109375,-0.00537109375,0.7998046875,0.48828125,-0.1220703125,-0.30517578125,-1.23046875,37.9742431640625,-172.9412841796875
1760967376.970867,-0.615234375,-0.01904296875,0.79541015625,1.3427734375,-0.18310546875,-0.3662109375,-1.2249755859375,37.96875,-172.94677734375
1760967376.9801514,-0.615234375,-0.01904296875,0.79541015625,1.3427734375,-0.18310546875,-0.3662109375,-1.2139892578125,37.96875,-172.9522705078125
1760967376.988211,-0.6142578125,-0.02783203125,0.78955078125,1.220703125,-0.18310546875,-0.42724609375,-1.2030029296875,37.9632568359375,-172.9632568359375
1760967376.9952612,-0.6142578125,-0.02783203125,0.78955078125,1.220703125,-0.18310546875,-0.42724609375,-1.197509765625,37.957763671875,-172.96875
1760967377.0024416,-0.61669921875,-0.009765625,0.7900390625,0.42724609375,-0.3662109375,-0.3662109375,-1.1920166015625,37.9522705078125,-172.9742431640625
1760967377.0096436,-0.61669921875,-0.009765625,0.7900390625,0.42724609375,-0.3662109375,-0.3662109375,-1.1920166015625,37.94677734375,-172.979736328125
1760967377.0183995,-0.61865234375,-0.00537109375,0.796875,0.67138671875,-0.30517578125,-0.6103515625,-1.1865234375,37.94677734375,-172.9852294921875
1760967377.0260084,-0.61865234375,-0.00537109375,0.796875,0.67138671875,-0.30517578125,-0.6103515625,-1.1865234375,37.9412841796875,-172.99072265625
1760967377.033483,-0.62109375,-0.01611328125,0.78515625,0.18310546875,-0.18310546875,-0.79345703125,-1.1865234375,37.935791015625,-172.9962158203125
1760967377.040131,-0.62109375,-0.01611328125,0.78515625,0.18310546875,-0.18310546875,-0.79345703125,-1.1920166015625,37.935791015625,-173.0072021484375
1760967377.0486937,-0.62158203125,-0.0263671875,0.7841796875,1.0986328125,-0.18310546875,-0.8544921875,-1.1920166015625,37.9302978515625,-173.0126953125
1760967377.0584466,-0.62158203125,-0.0263671875,0.7841796875,1.0986328125,-0.18310546875,-0.8544921875,-1.1865234375,37.9302978515625,-173.023681640625
1760967377.0659869,-0.61767578125,-0.0244140625,0.7958984375,0.54931640625,-0.1220703125,-0.79345703125,-1.1865234375,37.9248046875,-173.0291748046875
1760967377.0733335,-0.61767578125,-0.0244140625,0.7958984375,0.54931640625,-0.1220703125,-0.79345703125,-1.1865234375,37.9248046875,-173.0401611328125
1760967377.0805016,-0.615234375,-0.00439453125,0.78271484375,0.0,-0.244140625,-0.8544921875,-1.1920166015625,37.9248046875,-173.045654296875
1760967377.0872605,-0.615234375,-0.00439453125,0.78271484375,0.0,-0.244140625,-0.8544921875,-1.197509765625,37.9193115234375,-173.056640625
1760967377.0946088,-0.611328125,-0.0107421875,0.8017578125,-0.91552734375,-0.18310546875,-0.9765625,-1.20849609375,37.9193115234375,-173.0621337890625
1760967377.1042027,-0.611328125,-0.0107421875,0.8017578125,-0.91552734375,-0.18310546875,-0.9765625,-1.2249755859375,37.9193115234375,-173.0731201171875
1760967377.113442,-0.6123046875,-0.0224609375,0.79931640625,-1.0986328125,-0.06103515625,-0.9765625,-1.241455078125,37.913818359375,-173.0841064453125
1760967377.1230834,-0.6123046875,-0.0224609375,0.79931640625,-1.0986328125,-0.06103515625,-0.9765625,-1.2579345703125,37.913818359375,-173.089599609375
1760967377.1332288,-0.61083984375,-0.02783203125,0.79150390625,-0.06103515625,-0.1220703125,-0.9765625,-1.2744140625,37.913818359375,-173.1005859375
1760967377.143365,-0.61083984375,-0.02783203125,0.79150390625,-0.06103515625,-0.1220703125,-0.9765625,-1.2799072265625,37.9083251953125,-173.111572265625
1760967377.1536086,-0.609375,-0.02197265625,0.80078125,-0.244140625,-0.1220703125,-0.91552734375,-1.2908935546875,37.9083251953125,-173.12255859375
1760967377.163066,-0.609375,-0.02197265625,0.80078125,-0.244140625,-0.1220703125,-0.91552734375,-1.3018798828125,37.90283203125,-173.133544921875
1760967377.1735675,-0.6123046875,-0.009765625,0.7978515625,-0.8544921875,-0.244140625,-1.03759765625,-1.3128662109375,37.90283203125,-173.1500244140625
1760967377.1860943,-0.6123046875,-0.009765625,0.7978515625,-0.8544921875,-0.244140625,-1.03759765625,-1.329345703125,37.8973388671875,-173.1610107421875
1760967377.1940353,-0.61083984375,-0.01123046875,0.78955078125,-1.46484375,-0.244140625,-1.0986328125,-1.351318359375,37.891845703125,-173.1719970703125
1760967377.20282,-0.61083984375,-0.01123046875,0.78955078125,-1.46484375,-0.244140625,-1.0986328125,-1.373291015625,37.8863525390625,-173.1829833984375
1760967377.2232223,-0.611328125,-0.02197265625,0.80859375,-1.708984375,-0.18310546875,-1.15966796875,-1.395263671875,37.880859375,-173.1939697265625
1760967377.2301953,-0.611328125,-0.02197265625,0.80859375,-1.708984375,-0.18310546875,-1.15966796875,-1.417236328125,37.880859375,-173.2049560546875
1760967377.2429566,-0.6142578125,-0.02685546875,0.79248046875,-0.48828125,-0.1220703125,-1.0986328125,-1.439208984375,37.8753662109375,-173.221435546875
1760967377.257388,-0.6142578125,-0.02685546875,0.79248046875,-0.48828125,-0.1220703125,-1.0986328125,-1.4501953125,37.869873046875,-173.232421875
1760967377.267977,-0.611328125,-0.025390625,0.791015625,-0.79345703125,-0.244140625,-1.03759765625,-1.4666748046875,37.869873046875,-173.243408203125
1760967377.2822733,-0.611328125,-0.025390625,0.791015625,-0.79345703125,-0.244140625,-1.03759765625,-1.483154296875,37.8643798828125,-173.25439453125
1760967377.304225,-0.60888671875,-0.01416015625,0.80859375,-1.5869140625,-0.18310546875,-1.15966796875,-1.4996337890625,37.85888671875,-173.265380859375
1760967377.3127406,-0.60888671875,-0.01416015625,0.80859375,-1.5869140625,-0.18310546875,-1.15966796875,-1.527099609375,37.8533935546875,-173.2818603515625
1760967377.3201163,-0.61083984375,-0.01611328125,0.794921875,-1.3427734375,-0.1220703125,-1.3427734375,-1.549072265625,37.8533935546875,-173.29833984375
1760967377.3394022,-0.61083984375,-0.01611328125,0.794921875,-1.3427734375,-0.1220703125,-1.3427734375,-1.571044921875,37.847900390625,-173.3148193359375
1760967377.358879,-0.61328125,-0.03173828125,0.783203125,-0.06103515625,-0.244140625,-1.46484375,-1.58203125,37.8424072265625,-173.331298828125
1760967377.367076,-0.61328125,-0.03173828125,0.783203125,-0.06103515625,-0.244140625,-1.46484375,-1.593017578125,37.8424072265625,-173.3477783203125
1760967377.3802254,-0.6083984375,-0.033203125,0.80126953125,0.6103515625,-0.244140625,-1.46484375,-1.5985107421875,37.8369140625,-173.3642578125
1760967377.3950276,-0.6083984375,-0.033203125,0.80126953125,0.6103515625,-0.244140625,-1.46484375,-1.60400390625,37.8314208984375,-173.3807373046875
1760967377.4023767,-0.603515625,-0.0244140625,0.80615234375,1.0986328125,-0.244140625,-1.40380859375,-1.60400390625,37.825927734375,-173.397216796875
1760967377.4154575,-0.603515625,-0.0244140625,0.80615234375,1.0986328125,-0.244140625,-1.40380859375,-1.60400390625,37.8204345703125,-173.4136962890625
1760967377.4317605,-0.6103515625,-0.0205078125,0.80078125,1.28173828125,-0.1220703125,-1.40380859375,-1.60400390625,37.81494140625,-173.43017578125
1760967377.4480438,-0.6103515625,-0.0205078125,0.80078125,1.28173828125,-0.1220703125,-1.40380859375,-1.5985107421875,37.81494140625,-173.4521484375
1760967377.4682095,-0.607421875,-0.02197265625,0.79052734375,0.42724609375,-0.1220703125,-1.3427734375,-1.6094970703125,37.8094482421875,-173.4686279296875
1760967377.483779,-0.607421875,-0.02197265625,0.79052734375,0.42724609375,-0.1220703125,-1.3427734375,-1.614990234375,37.803955078125,-173.485107421875
1760967377.5031824,-0.6064453125,-0.02099609375,0.8046875,-0.244140625,-0.18310546875,-1.46484375,-1.6259765625,37.7984619140625,-173.5015869140625
1760967377.5202048,-0.6064453125,-0.02099609375,0.8046875,-0.244140625,-0.18310546875,-1.46484375,-1.6424560546875,37.79296875,-173.5235595703125
1760967377.5269532,-0.6123046875,-0.01806640625,0.7998046875,-0.79345703125,-0.30517578125,-1.5869140625,-1.658935546875,37.7874755859375,-173.5400390625
1760967377.5415397,-0.6123046875,-0.01806640625,0.7998046875,-0.79345703125,-0.30517578125,-1.5869140625,-1.680908203125,37.781982421875,-173.56201171875
1760967377.5617373,-0.61572265625,-0.0283203125,0.783203125,-0.06103515625,-0.3662109375,-1.708984375,-1.69189453125,37.7764892578125,-173.583984375
1760967377.5777655,-0.61572265625,-0.0283203125,0.783203125,-0.06103515625,-0.3662109375,-1.708984375,-1.7083740234375,37.77099609375,-173.6004638671875
1760967377.5975204,-0.611328125,-0.02685546875,0.80615234375,0.244140625,-0.42724609375,-1.89208984375,-1.7193603515625,37.7655029296875,-173.6224365234375
1760967377.6078084,-0.611328125,-0.02685546875,0.80615234375,0.244140625,-0.42724609375,-1.89208984375,-1.7303466796875,37.7545166015625,-173.6444091796875
1760967377.6201813,-0.61767578125,-0.0185546875,0.79443359375,0.9765625,-0.42724609375,-1.89208984375,-1.73583984375,37.7490234375,-173.6663818359375
1760967377.6414096,-0.61767578125,-0.0185546875,0.79443359375,0.9765625,-0.42724609375,-1.89208984375,-1.7413330078125,37.7435302734375,-173.6883544921875
1760967377.649495,-0.62353515625,-0.03271484375,0.77734375,1.28173828125,-0.42724609375,-1.77001953125,-1.7413330078125,37.738037109375,-173.7103271484375
1760967377.6588457,-0.62353515625,-0.03271484375,0.77734375,1.28173828125,-0.42724609375,-1.77001953125,-1.7413330078125,37.7325439453125,-173.726806640625
1760967377.6662827,-0.62646484375,-0.03955078125,0.78466796875,2.38037109375,-0.54931640625,-1.77001953125,-1.7303466796875,37.72705078125,-173.748779296875
1760967377.682209,-0.62646484375,-0.03955078125,0.78466796875,2.38037109375,-0.54931640625,-1.77001953125,-1.7193603515625,37.7215576171875,-173.7652587890625
1760967377.6890256,-0.630859375,-0.0263671875,0.78515625,2.9296875,-0.6103515625,-1.77001953125,-1.7083740234375,37.716064453125,-173.7872314453125
1760967377.7048008,-0.630859375,-0.0263671875,0.78515625,2.9296875,-0.6103515625,-1.77001953125,-1.69189453125,37.7105712890625,-173.8037109375
1760967377.7119136,-0.63134765625,-0.01416015625,0.7822265625,2.8076171875,-0.42724609375,-1.953125,-1.680908203125,37.7105712890625,-173.8201904296875
1760967377.729219,-0.63134765625,-0.01416015625,0.7822265625,2.8076171875,-0.42724609375,-1.953125,-1.669921875,37.705078125,-173.8421630859375
1760967377.7392204,-0.6298828125,-0.0224609375,0.783203125,3.0517578125,-0.30517578125,-2.01416015625,-1.6534423828125,37.705078125,-173.858642578125
1760967377.76071,-0.6298828125,-0.0224609375,0.783203125,3.0517578125,-0.30517578125,-2.01416015625,-1.6424560546875,37.705078125,-173.880615234375
1760967377.7681963,-0.6298828125,-0.02734375,0.77880859375,2.685546875,-0.30517578125,-1.89208984375,-1.6314697265625,37.705078125,-173.8970947265625
1760967377.7779021,-0.6298828125,-0.02734375,0.77880859375,2.685546875,-0.30517578125,-1.89208984375,-1.6204833984375,37.7105712890625,-173.91357421875
1760967377.793146,-0.6298828125,-0.02734375,0.77880859375,2.38037109375,-0.244140625,-1.8310546875,-1.6094970703125,37.7105712890625,-173.9300537109375
1760967377.8011043,-0.62548828125,-0.0234375,0.79052734375,2.38037109375,-0.244140625,-1.8310546875,-1.60400390625,37.7105712890625,-173.946533203125
1760967377.812068,-0.62353515625,-0.0244140625,0.79052734375,3.5400390625,-0.18310546875,-1.89208984375,-1.58203125,37.7105712890625,-173.9630126953125
1760967377.8263345,-0.62353515625,-0.0244140625,0.79052734375,3.5400390625,-0.18310546875,-1.89208984375,-1.56005859375,37.716064453125,-173.9794921875
1760967377.837587,-0.6220703125,-0.02099609375,0.78857421875,2.9296875,-0.18310546875,-1.953125,-1.549072265625,37.716064453125,-173.9959716796875
1760967377.8474572,-0.6220703125,-0.02099609375,0.78857421875,2.9296875,-0.18310546875,-1.953125,-1.5380859375,37.716064453125,-174.012451171875
1760967377.8610501,-0.62109375,-0.02099609375,0.79052734375,2.197265625,-0.18310546875,-1.953125,-1.5325927734375,37.7215576171875,-174.0289306640625
1760967377.8689907,-0.62109375,-0.02099609375,0.79052734375,2.197265625,-0.18310546875,-1.953125,-1.527099609375,37.7215576171875,-174.0509033203125
1760967377.8808527,-0.61865234375,-0.025390625,0.787109375,2.50244140625,-0.18310546875,-1.953125,-1.51611328125,37.7215576171875,-174.0673828125
1760967377.8966138,-0.61865234375,-0.025390625,0.787109375,2.50244140625,-0.18310546875,-1.953125,-1.505126953125,37.7215576171875,-174.08935546875
1760967377.9128122,-0.61767578125,-0.025390625,0.7978515625,2.685546875,-0.18310546875,-2.01416015625,-1.4996337890625,37.7215576171875,-174.1058349609375
1760967377.919487,-0.61767578125,-0.025390625,0.7978515625,2.685546875,-0.18310546875,-2.01416015625,-1.4886474609375,37.7215576171875,-174.1278076171875
1760967377.928161,-0.61328125,-0.0166015625,0.796875,3.173828125,-0.06103515625,-2.197265625,-1.47216796875,37.72705078125,-174.1497802734375
1760967377.9447434,-0.61328125,-0.0166015625,0.796875,3.173828125,-0.06103515625,-2.197265625,-1.461181640625,37.72705078125,-174.17724609375
1760967377.953368,-0.615234375,-0.01318359375,0.7939453125,2.99072265625,-0.1220703125,-2.38037109375,-1.4501953125,37.72705078125,-174.2047119140625
1760967377.9651997,-0.615234375,-0.01318359375,0.7939453125,2.99072265625,-0.1220703125,-2.38037109375,-1.439208984375,37.72705078125,-174.2266845703125
1760967377.9834049,-0.61181640625,-0.01611328125,0.78759765625,2.13623046875,-0.18310546875,-2.44140625,-1.439208984375,37.72705078125,-174.254150390625
1760967377.99663,-0.61181640625,-0.01611328125,0.78759765625,2.13623046875,-0.18310546875,-2.44140625,-1.4337158203125,37.72705078125,-174.2816162109375
1760967378.0123777,-0.60595703125,-0.03271484375,0.81201171875,1.89208984375,-0.30517578125,-2.25830078125,-1.4337158203125,37.7215576171875,-174.3035888671875
1760967378.0187137,-0.60595703125,-0.03271484375,0.81201171875,1.89208984375,-0.30517578125,-2.25830078125,-1.4337158203125,37.716064453125,-174.3310546875
1760967378.0301218,-0.609375,-0.03271484375,0.8056640625,2.74658203125,-0.1220703125,-2.0751953125,-1.4227294921875,37.716064453125,-174.3585205078125
1760967378.041393,-0.609375,-0.03271484375,0.8056640625,2.74658203125,-0.1220703125,-2.0751953125,-1.4117431640625,37.716064453125,-174.385986328125
1760967378.049527,-0.615234375,-0.02197265625,0.779296875,2.0751953125,-0.1220703125,-2.13623046875,-1.4117431640625,37.7105712890625,-174.4134521484375
1760967378.0564942,-0.615234375,-0.02197265625,0.779296875,2.0751953125,-0.1220703125,-2.13623046875,-1.40625,37.7105712890625,-174.44091796875
1760967378.0632393,-0.61865234375,-0.01025390625,0.79052734375,2.0751953125,-0.1220703125,-2.197265625,-1.40625,37.7105712890625,-174.4683837890625
1760967378.0715482,-0.61865234375,-0.01025390625,0.79052734375,2.0751953125,-0.1220703125,-2.197265625,-1.4007568359375,37.7105712890625,-174.495849609375
1760967378.0781493,-0.611328125,-0.02099609375,0.80517578125,1.8310546875,-0.18310546875,-2.0751953125,-1.4007568359375,37.705078125,-174.517822265625
1760967378.0862684,-0.611328125,-0.02099609375,0.80517578125,1.8310546875,-0.18310546875,-2.0751953125,-1.4007568359375,37.705078125,-174.5452880859375
1760967378.092572,-0.61279296875,-0.02587890625,0.79541015625,1.40380859375,-0.18310546875,-1.8310546875,-1.4007568359375,37.6995849609375,-174.5672607421875
1760967378.0995402,-0.61279296875,-0.02587890625,0.79541015625,1.40380859375,-0.18310546875,-1.8310546875,-1.4007568359375,37.6995849609375,-174.5947265625
1760967378.1075559,-0.61572265625,-0.01953125,0.78662109375,1.46484375,-0.18310546875,-1.953125,-1.40625,37.694091796875,-174.61669921875
1760967378.1140788,-0.61572265625,-0.01953125,0.78662109375,1.46484375,-0.18310546875,-1.953125,-1.40625,37.694091796875,-174.638671875
1760967378.1217935,-0.60986328125,-0.01025390625,0.7841796875,1.64794921875,-0.1220703125,-2.13623046875,-1.40625,37.694091796875,-174.6661376953125
1760967378.1311116,-0.60986328125,-0.01025390625,0.7841796875,1.64794921875,-0.1220703125,-2.13623046875,-1.40625,37.694091796875,-174.6881103515625
1760967378.1394804,-0.615234375,-0.0263671875,0.80419921875,2.62451171875,-0.30517578125,-2.38037109375,-1.4007568359375,37.6885986328125,-174.715576171875
1760967378.1467128,-0.615234375,-0.0263671875,0.80419921875,2.62451171875,-0.30517578125,-2.38037109375,-1.3897705078125,37.68310546875,-174.74853515625
1760967378.154257,-0.609375,-0.02783203125,0.814453125,1.40380859375,-0.18310546875,-2.38037109375,-1.395263671875,37.68310546875,-174.7760009765625
1760967378.1622677,-0.609375,-0.02783203125,0.814453125,1.40380859375,-0.18310546875,-2.38037109375,-1.4007568359375,37.6776123046875,-174.8089599609375
1760967378.1706991,-0.60595703125,-0.02490234375,0.787109375,2.9296875,-0.30517578125,-2.44140625,-1.3897705078125,37.672119140625,-174.83642578125
1760967378.1781545,-0.60595703125,-0.02490234375,0.787109375,2.9296875,-0.30517578125,-2.44140625,-1.38427734375,37.672119140625,-174.869384765625
1760967378.1854837,-0.62109375,-0.01806640625,0.794921875,3.5400390625,-0.30517578125,-2.74658203125,-1.3677978515625,37.6666259765625,-174.9078369140625
1760967378.1934893,-0.62109375,-0.01806640625,0.794921875,3.5400390625,-0.30517578125,-2.74658203125,-1.3568115234375,37.6611328125,-174.9407958984375
1760967378.2002366,-0.62890625,-0.02099609375,0.78759765625,3.35693359375,-0.06103515625,-2.86865234375,-1.3458251953125,37.6611328125,-174.979248046875
1760967378.2068968,-0.62890625,-0.02099609375,0.78759765625,3.35693359375,-0.06103515625,-2.86865234375,-1.3348388671875,37.6611328125,-175.01220703125
1760967378.213909,-0.62353515625,-0.01953125,0.77783203125,3.72314453125,0.0,-2.99072265625,-1.3238525390625,37.6611328125,-175.0506591796875
1760967378.2209387,-0.62353515625,-0.01953125,0.77783203125,3.72314453125,0.0,-2.99072265625,-1.3128662109375,37.6611328125,-175.089111328125
