timestamp,acc_x,acc_y,acc_z,gyro_x,gyro_y,gyro_z,angle_x,angle_y,angle_z
1760837508.2393997,-0.60009765625,-0.0234375,0.8017578125,0.0,-0.42724609375,0.06103515625,-1.571044921875,36.507568359375,174.1387939453125
1760837508.2487848,-0.60009765625,-0.0234375,0.8017578125,0.0,-0.42724609375,0.06103515625,-1.571044921875,36.5020751953125,174.13330078125
1760837508.2590222,-0.59912109375,-0.021484375,0.7998046875,0.244140625,-0.48828125,0.0,-1.571044921875,36.5020751953125,174.1278076171875
1760837508.271259,-0.59912109375,-0.021484375,0.7998046875,0.244140625,-0.48828125,0.0,-1.5655517578125,36.49658203125,174.122314453125
1760837508.281595,-0.60009765625,-0.02197265625,0.806640625,0.54931640625,-0.54931640625,0.0,-1.56005859375,36.49658203125,174.122314453125
1760837508.2934418,-0.60009765625,-0.02197265625,0.806640625,0.54931640625,-0.54931640625,0.0,-1.5545654296875,36.4910888671875,174.1168212890625
1760837508.3048286,-0.59619140625,-0.01806640625,0.80224609375,0.18310546875,-0.54931640625,-0.1220703125,-1.5545654296875,36.485595703125,174.111328125
1760837508.3137827,-0.59619140625,-0.01806640625,0.80224609375,0.18310546875,-0.54931640625,-0.1220703125,-1.5545654296875,36.485595703125,174.1058349609375
1760837508.3230455,-0.60009765625,-0.0234375,0.7998046875,0.30517578125,-0.54931640625,-0.1220703125,-1.549072265625,36.4801025390625,174.100341796875
1760837508.3316317,-0.60009765625,-0.0234375,0.7998046875,0.30517578125,-0.54931640625,-0.1220703125,-1.549072265625,36.474609375,174.0948486328125
1760837508.3398178,-0.6015625,-0.021484375,0.80126953125,0.48828125,-0.67138671875,-0.1220703125,-1.5435791015625,36.4691162109375,174.08935546875
1760837508.3485882,-0.6015625,-0.021484375,0.80126953125,0.48828125,-0.67138671875,-0.1220703125,-1.5380859375,36.4691162109375,174.0838623046875
1760837508.357714,-0.6005859375,-0.02099609375,0.7998046875,0.54931640625,-0.67138671875,0.0,-1.5325927734375,36.463623046875,174.078369140625
1760837508.367319,-0.6005859375,-0.02099609375,0.7998046875,0.54931640625,-0.67138671875,0.0,-1.527099609375,36.4581298828125,174.078369140625
1760837508.3773646,-0.59814453125,-0.02197265625,0.802734375,0.67138671875,-0.79345703125,0.0,-1.5216064453125,36.45263671875,174.0728759765625
1760837508.3873725,-0.59814453125,-0.02197265625,0.802734375,0.67138671875,-0.79345703125,0.0,-1.51611328125,36.4471435546875,174.0673828125
1760837508.3973668,-0.595703125,-0.0205078125,0.810546875,0.6103515625,-0.8544921875,0.0,-1.5106201171875,36.441650390625,174.0673828125
1760837508.4073777,-0.595703125,-0.0205078125,0.810546875,0.6103515625,-0.8544921875,0.0,-1.505126953125,36.4306640625,174.0618896484375
1760837508.4177127,-0.59619140625,-0.0146484375,0.802734375,0.3662109375,-0.79345703125,-0.1220703125,-1.4996337890625,36.4251708984375,174.056396484375
1760837508.4278586,-0.59619140625,-0.0146484375,0.802734375,0.3662109375,-0.79345703125,-0.1220703125,-1.494140625,36.419677734375,174.0509033203125
1760837508.4374561,-0.59912109375,-0.02099609375,0.80322265625,0.1220703125,-0.6103515625,-0.30517578125,-1.494140625,36.4141845703125,174.04541015625
1760837508.44746,-0.59912109375,-0.02099609375,0.80322265625,0.1220703125,-0.6103515625,-0.30517578125,-1.494140625,36.40869140625,174.034423828125
1760837508.4574733,-0.6005859375,-0.015625,0.79931640625,0.06103515625,-0.67138671875,-0.30517578125,-1.494140625,36.4031982421875,174.0289306640625
1760837508.4674807,-0.6005859375,-0.015625,0.79931640625,0.06103515625,-0.67138671875,-0.30517578125,-1.494140625,36.4031982421875,174.0234375
1760837508.4774935,-0.599609375,-0.02294921875,0.80322265625,0.0,-0.6103515625,-0.244140625,-1.4996337890625,36.397705078125,174.0179443359375
1760837508.4875023,-0.599609375,-0.02294921875,0.80322265625,0.0,-0.6103515625,-0.244140625,-1.4996337890625,36.3922119140625,174.012451171875
1760837508.4975183,-0.59521484375,-0.02294921875,0.80322265625,0.0,-0.6103515625,-0.18310546875,-1.4996337890625,36.38671875,174.0069580078125
1760837508.507527,-0.59521484375,-0.02294921875,0.80322265625,0.0,-0.6103515625,-0.18310546875,-1.4996337890625,36.3812255859375,174.00146484375
1760837508.5175555,-0.59521484375,-0.021484375,0.80712890625,0.30517578125,-0.54931640625,-0.18310546875,-1.4996337890625,36.3812255859375,173.9959716796875
1760837508.5275562,-0.59521484375,-0.021484375,0.80712890625,0.30517578125,-0.54931640625,-0.18310546875,-1.494140625,36.375732421875,173.990478515625
1760837508.5375655,-0.5947265625,-0.02099609375,0.80810546875,0.3662109375,-0.54931640625,-0.244140625,-1.494140625,36.3702392578125,173.9849853515625
1760837508.5475917,-0.5947265625,-0.02099609375,0.80810546875,0.3662109375,-0.54931640625,-0.244140625,-1.494140625,36.36474609375,173.9794921875
1760837508.557584,-0.59716796875,-0.0166015625,0.806640625,0.18310546875,-0.54931640625,-0.18310546875,-1.4886474609375,36.36474609375,173.9739990234375
1760837508.5676038,-0.59716796875,-0.0166015625,0.806640625,0.18310546875,-0.54931640625,-0.18310546875,-1.4886474609375,36.3592529296875,173.9630126953125
1760837508.5776136,-0.59814453125,-0.02294921875,0.8037109375,0.18310546875,-0.3662109375,-0.30517578125,-1.4886474609375,36.353759765625,173.95751953125
1760837508.5876255,-0.59814453125,-0.02294921875,0.8037109375,0.18310546875,-0.3662109375,-0.30517578125,-1.4886474609375,36.353759765625,173.9520263671875
1760837508.597633,-0.599609375,-0.0224609375,0.80224609375,0.48828125,-0.18310546875,-0.30517578125,-1.4886474609375,36.353759765625,173.9410400390625
1760837508.607645,-0.599609375,-0.0224609375,0.80224609375,0.48828125,-0.18310546875,-0.30517578125,-1.483154296875,36.353759765625,173.935546875
1760837508.617649,-0.59716796875,-0.02099609375,0.80224609375,0.42724609375,0.0,-0.18310546875,-1.483154296875,36.353759765625,173.9300537109375
1760837508.6276598,-0.59716796875,-0.02099609375,0.80224609375,0.42724609375,0.0,-0.18310546875,-1.4776611328125,36.353759765625,173.924560546875
1760837508.63772,-0.5927734375,-0.0185546875,0.80810546875,0.06103515625,0.0,-0.06103515625,-1.4776611328125,36.3592529296875,173.9190673828125
1760837508.6477015,-0.5927734375,-0.0185546875,0.80810546875,0.06103515625,0.0,-0.06103515625,-1.4776611328125,36.3592529296875,173.91357421875
1760837508.6576989,-0.59521484375,-0.0205078125,0.80712890625,-0.18310546875,-0.06103515625,-0.1220703125,-1.483154296875,36.3592529296875,173.9080810546875
1760837508.667718,-0.59521484375,-0.0205078125,0.80712890625,-0.18310546875,-0.06103515625,-0.1220703125,-1.483154296875,36.3592529296875,173.902587890625
1760837508.677738,-0.5986328125,-0.02392578125,0.80517578125,0.3662109375,-0.06103515625,-0.1220703125,-1.4776611328125,36.3592529296875,173.8970947265625
1760837508.6877248,-0.5986328125,-0.02392578125,0.80517578125,0.3662109375,-0.06103515625,-0.1220703125,-1.4776611328125,36.3592529296875,173.8916015625
1760837508.6980655,-0.59814453125,-0.0185546875,0.8017578125,0.3662109375,0.0,-0.1220703125,-1.4776611328125,36.3592529296875,173.8916015625
1760837508.7078154,-0.59814453125,-0.0185546875,0.8017578125,0.3662109375,0.0,-0.1220703125,-1.47216796875,36.36474609375,173.8861083984375
1760837508.7178454,-0.59619140625,-0.01904296875,0.80419921875,0.30517578125,0.0,0.0,-1.4666748046875,36.36474609375,173.880615234375
1760837508.727811,-0.59619140625,-0.01904296875,0.80419921875,0.30517578125,0.0,0.0,-1.4666748046875,36.36474609375,173.8751220703125
1760837508.7384284,-0.59228515625,-0.02099609375,0.806640625,0.06103515625,0.0,0.0,-1.4666748046875,36.36474609375,173.86962890625
1760837508.748278,-0.59228515625,-0.02099609375,0.806640625,0.06103515625,0.0,0.0,-1.4666748046875,36.36474609375,173.86962890625
1760837508.75806,-0.5947265625,-0.0205078125,0.80517578125,0.244140625,-0.1220703125,-0.06103515625,-1.461181640625,36.36474609375,173.8641357421875
1760837508.7678988,-0.5947265625,-0.0205078125,0.80517578125,0.244140625,-0.1220703125,-0.06103515625,-1.461181640625,36.36474609375,173.858642578125
1760837508.7780218,-0.60107421875,-0.01953125,0.8037109375,0.06103515625,-0.1220703125,-0.1220703125,-1.461181640625,36.36474609375,173.8531494140625
1760837508.787926,-0.60107421875,-0.01953125,0.8037109375,0.06103515625,-0.1220703125,-0.1220703125,-1.461181640625,36.36474609375,173.84765625
1760837508.7980251,-0.6005859375,-0.0205078125,0.7978515625,0.244140625,-0.1220703125,-0.1220703125,-1.461181640625,36.36474609375,173.8421630859375
1760837508.8079314,-0.6005859375,-0.0205078125,0.7978515625,0.244140625,-0.1220703125,-0.1220703125,-1.4556884765625,36.36474609375,173.8421630859375
1760837508.8180177,-0.59521484375,-0.0234375,0.806640625,0.48828125,-0.1220703125,-0.06103515625,-1.4556884765625,36.36474609375,173.836669921875
1760837508.8279762,-0.59521484375,-0.0234375,0.806640625,0.48828125,-0.1220703125,-0.06103515625,-1.4501953125,36.36474609375,173.836669921875
1760837508.8389773,-0.5859375,-0.0205078125,0.81103515625,0.6103515625,-0.06103515625,-0.06103515625,-1.4447021484375,36.36474609375,173.8311767578125
1760837508.8480434,-0.5859375,-0.0205078125,0.81103515625,0.6103515625,-0.06103515625,-0.06103515625,-1.439208984375,36.36474609375,173.82568359375
1760837508.8580987,-0.58544921875,-0.015625,0.81689453125,0.0,0.0,0.0,-1.439208984375,36.36474609375,173.82568359375
1760837508.867938,-0.58544921875,-0.015625,0.81689453125,0.0,0.0,0.0,-1.439208984375,36.36474609375,173.8201904296875
1760837508.8780077,-0.5966796875,-0.01611328125,0.81005859375,-0.732421875,0.1220703125,0.0,-1.4447021484375,36.3702392578125,173.814697265625
1760837508.888505,-0.5966796875,-0.01611328125,0.81005859375,-0.732421875,0.1220703125,0.0,-1.4501953125,36.3702392578125,173.8092041015625
1760837508.8984935,-0.599609375,-0.02392578125,0.79833984375,-0.42724609375,0.54931640625,0.0,-1.4556884765625,36.375732421875,173.8092041015625
1760837508.9079936,-0.599609375,-0.02392578125,0.79833984375,-0.42724609375,0.54931640625,0.0,-1.461181640625,36.3812255859375,173.8037109375
1760837508.9181948,-0.5947265625,-0.02685546875,0.80517578125,-0.3662109375,0.9765625,0.1220703125,-1.461181640625,36.3922119140625,173.7982177734375
1760837508.9284487,-0.5947265625,-0.02685546875,0.80517578125,-0.3662109375,0.9765625,0.1220703125,-1.4666748046875,36.397705078125,173.7982177734375
1760837508.942199,-0.59326171875,-0.01953125,0.8134765625,-0.42724609375,1.220703125,0.244140625,-1.4666748046875,36.4141845703125,173.792724609375
1760837508.9498875,-0.59326171875,-0.01953125,0.8134765625,-0.42724609375,1.220703125,0.244140625,-1.47216796875,36.4251708984375,173.792724609375
1760837508.9603143,-0.5869140625,-0.02001953125,0.8095703125,-0.54931640625,1.0986328125,0.48828125,-1.47216796875,36.4361572265625,173.792724609375
1760837508.9689097,-0.5869140625,-0.02001953125,0.8095703125,-0.54931640625,1.0986328125,0.48828125,-1.4776611328125,36.441650390625,173.792724609375
1760837508.9788697,-0.59033203125,-0.025390625,0.8056640625,-0.8544921875,0.91552734375,0.67138671875,-1.4776611328125,36.45263671875,173.7982177734375
1760837508.9934955,-0.59033203125,-0.025390625,0.8056640625,-0.8544921875,0.91552734375,0.67138671875,-1.483154296875,36.4581298828125,173.7982177734375
1760837509.000493,-0.595703125,-0.02490234375,0.8046875,-0.8544921875,0.732421875,0.8544921875,-1.4886474609375,36.4691162109375,173.8037109375
1760837509.0081298,-0.595703125,-0.02490234375,0.8046875,-0.8544921875,0.732421875,0.8544921875,-1.4886474609375,36.474609375,173.8092041015625
1760837509.019084,-0.59033203125,-0.02001953125,0.802734375,-0.6103515625,0.42724609375,0.9765625,-1.4886474609375,36.474609375,173.814697265625
1760837509.0282764,-0.59033203125,-0.02001953125,0.802734375,-0.6103515625,0.42724609375,0.9765625,-1.4886474609375,36.4801025390625,173.8201904296875
1760837509.0403528,-0.59326171875,-0.02490234375,0.81884765625,-0.30517578125,0.0,1.03759765625,-1.483154296875,36.4801025390625,173.82568359375
1760837509.0501106,-0.59326171875,-0.02490234375,0.81884765625,-0.30517578125,0.0,1.03759765625,-1.4776611328125,36.4801025390625,173.8311767578125
1760837509.0597477,-0.58935546875,-0.01513671875,0.80322265625,-0.3662109375,-0.48828125,0.91552734375,-1.4776611328125,36.474609375,173.836669921875
1760837509.0687072,-0.58935546875,-0.01513671875,0.80322265625,-0.3662109375,-0.48828125,0.91552734375,-1.47216796875,36.4691162109375,173.8421630859375
1760837509.0783658,-0.59326171875,-0.01806640625,0.7998046875,-0.1220703125,-0.6103515625,0.8544921875,-1.4666748046875,36.4581298828125,173.84765625
1760837509.0883503,-0.59326171875,-0.01806640625,0.7998046875,-0.1220703125,-0.6103515625,0.8544921875,-1.4666748046875,36.45263671875,173.8531494140625
1760837509.0986035,-0.60400390625,-0.021484375,0.81005859375,-0.1220703125,-0.67138671875,0.732421875,-1.461181640625,36.4471435546875,173.8531494140625
1760837509.1086607,-0.60400390625,-0.021484375,0.81005859375,-0.1220703125,-0.67138671875,0.732421875,-1.4556884765625,36.4361572265625,173.858642578125
1760837509.1182837,-0.6064453125,-0.015625,0.794921875,-0.244140625,-0.3662109375,0.6103515625,-1.4556884765625,36.4361572265625,173.858642578125
1760837509.1283023,-0.6064453125,-0.015625,0.794921875,-0.244140625,-0.3662109375,0.6103515625,-1.4501953125,36.4306640625,173.8641357421875
1760837509.1388664,-0.60546875,-0.02001953125,0.7919921875,-0.54931640625,-0.30517578125,0.6103515625,-1.4501953125,36.4306640625,173.86962890625
1760837509.1486435,-0.60546875,-0.02001953125,0.7919921875,-0.54931640625,-0.30517578125,0.6103515625,-1.4501953125,36.4306640625,173.8751220703125
1760837509.1584322,-0.60546875,-0.02001953125,0.7919921875,-0.732421875,-0.30517578125,0.732421875,-1.4556884765625,36.4306640625,173.8861083984375
1760837509.1699843,-0.60986328125,-0.0224609375,0.80322265625,-0.732421875,-0.30517578125,0.732421875,-1.4556884765625,36.4251708984375,173.8916015625
1760837509.1787288,-0.6083984375,-0.01416015625,0.794921875,-0.6103515625,-0.42724609375,0.79345703125,-1.4556884765625,36.4251708984375,173.902587890625
1760837509.1890955,-0.6083984375,-0.01416015625,0.794921875,-0.6103515625,-0.42724609375,0.79345703125,-1.4556884765625,36.4251708984375,173.91357421875
1760837509.1984065,-0.603515625,-0.02197265625,0.80029296875,-0.48828125,-0.18310546875,0.79345703125,-1.4556884765625,36.4251708984375,173.924560546875
1760837509.214944,-0.603515625,-0.02197265625,0.80029296875,-0.48828125,-0.18310546875,0.79345703125,-1.4501953125,36.4251708984375,173.9300537109375
1760837509.2560997,-0.59814453125,-0.02392578125,0.80322265625,-0.54931640625,0.0,0.732421875,-1.4501953125,36.4306640625,173.9410400390625
1760837509.28356,-0.59814453125,-0.02392578125,0.80322265625,-0.54931640625,0.0,0.732421875,-1.4501953125,36.4306640625,173.9520263671875
1760837509.3048825,-0.59765625,-0.02294921875,0.8056640625,0.0,0.0,0.732421875,-1.4447021484375,36.4361572265625,173.95751953125
1760837509.3424668,-0.59765625,-0.02294921875,0.8056640625,0.0,0.0,0.732421875,-1.4447021484375,36.4361572265625,173.968505859375
1760837509.3531394,-0.60009765625,-0.0185546875,0.80419921875,0.244140625,0.06103515625,0.67138671875,-1.4337158203125,36.441650390625,173.9739990234375
1760837509.378845,-0.60009765625,-0.0185546875,0.80419921875,0.244140625,0.06103515625,0.67138671875,-1.42822265625,36.4471435546875,173.9794921875
1760837509.3883038,-0.6025390625,-0.015625,0.7978515625,0.06103515625,0.244140625,0.6103515625,-1.4227294921875,36.4471435546875,173.990478515625
1760837509.3992283,-0.6025390625,-0.015625,0.7978515625,0.06103515625,0.244140625,0.6103515625,-1.417236328125,36.45263671875,173.9959716796875
1760837509.4077694,-0.591796875,-0.02001953125,0.80029296875,0.0,0.54931640625,0.48828125,-1.4117431640625,36.463623046875,174.00146484375
1760837509.4209733,-0.591796875,-0.02001953125,0.80029296875,0.0,0.54931640625,0.48828125,-1.4117431640625,36.4691162109375,174.0069580078125
1760837509.42769,-0.5751953125,-0.0205078125,0.8212890625,0.0,0.18310546875,0.42724609375,-1.40625,36.474609375,174.0069580078125
1760837509.4352295,-0.5751953125,-0.0205078125,0.8212890625,0.0,0.18310546875,0.42724609375,-1.40625,36.474609375,174.012451171875
1760837509.4437993,-0.58544921875,-0.01806640625,0.8173828125,0.0,-0.3662109375,0.3662109375,-1.4007568359375,36.4691162109375,174.012451171875
1760837509.4549916,-0.58544921875,-0.01806640625,0.8173828125,0.0,-0.3662109375,0.3662109375,-1.4007568359375,36.463623046875,174.012451171875
1760837509.4639378,-0.5771484375,-0.017578125,0.80078125,0.06103515625,-0.9765625,0.42724609375,-1.395263671875,36.45263671875,174.012451171875
1760837509.4714298,-0.5771484375,-0.017578125,0.80078125,0.06103515625,-0.9765625,0.42724609375,-1.3897705078125,36.441650390625,174.012451171875
1760837509.478054,-0.59033203125,-0.0234375,0.8115234375,0.06103515625,-1.40380859375,0.42724609375,-1.38427734375,36.4306640625,174.012451171875
1760837509.4867668,-0.59033203125,-0.0234375,0.8115234375,0.06103515625,-1.40380859375,0.42724609375,-1.38427734375,36.4141845703125,174.012451171875
1760837509.5130255,-0.603515625,-0.017578125,0.81201171875,0.1220703125,-1.77001953125,0.42724609375,-1.3787841796875,36.3922119140625,174.012451171875
1760837509.533771,-0.603515625,-0.017578125,0.81201171875,0.1220703125,-1.77001953125,0.42724609375,-1.373291015625,36.375732421875,174.012451171875
1760837509.5452485,-0.60009765625,-0.01416015625,0.79345703125,0.18310546875,-1.89208984375,0.54931640625,-1.3677978515625,36.3592529296875,174.0179443359375
1760837509.5522285,-0.60009765625,-0.01416015625,0.79345703125,0.18310546875,-1.89208984375,0.54931640625,-1.3623046875,36.3372802734375,174.0234375
1760837509.5587635,-0.59912109375,-0.01806640625,0.79736328125,-0.18310546875,-1.708984375,0.48828125,-1.3568115234375,36.32080078125,174.0289306640625
1760837509.5648375,-0.59912109375,-0.01806640625,0.79736328125,-0.18310546875,-1.708984375,0.48828125,-1.3568115234375,36.3043212890625,174.034423828125
1760837509.5717587,-0.60205078125,-0.02001953125,0.8046875,-0.1220703125,-1.40380859375,0.30517578125,-1.3568115234375,36.2933349609375,174.034423828125
1760837509.5791621,-0.60205078125,-0.02001953125,0.8046875,-0.1220703125,-1.40380859375,0.30517578125,-1.351318359375,36.2823486328125,174.0399169921875
1760837509.5859766,-0.60400390625,-0.01513671875,0.802734375,-0.06103515625,-1.3427734375,0.244140625,-1.351318359375,36.2713623046875,174.04541015625
1760837509.6107671,-0.60400390625,-0.01513671875,0.802734375,-0.06103515625,-1.3427734375,0.244140625,-1.351318359375,36.2603759765625,174.04541015625
1760837509.6254208,-0.60302734375,-0.01953125,0.80029296875,-0.30517578125,-1.15966796875,0.244140625,-1.351318359375,36.2493896484375,174.0509033203125
1760837509.6326742,-0.60400390625,-0.0166015625,0.79833984375,-0.48828125,-0.91552734375,0.30517578125,-1.351318359375,36.243896484375,174.056396484375
1760837509.644198,-0.60400390625,-0.0166015625,0.79833984375,-0.48828125,-0.91552734375,0.30517578125,-1.351318359375,36.23291015625,174.0618896484375
1760837509.650829,-0.6005859375,-0.015625,0.802734375,-0.732421875,-0.732421875,0.30517578125,-1.3568115234375,36.23291015625,174.0673828125
1760837509.657193,-0.6005859375,-0.015625,0.802734375,-0.732421875,-0.732421875,0.30517578125,-1.3623046875,36.2274169921875,174.0728759765625
1760837509.6659322,-0.60302734375,-0.01806640625,0.8056640625,-0.48828125,-0.67138671875,0.244140625,-1.3623046875,36.221923828125,174.078369140625
1760837509.6721234,-0.60302734375,-0.01806640625,0.8056640625,-0.48828125,-0.67138671875,0.244140625,-1.3677978515625,36.221923828125,174.0838623046875
1760837509.679951,-0.59912109375,-0.01904296875,0.806640625,-0.42724609375,-0.6103515625,0.244140625,-1.3677978515625,36.2164306640625,174.0948486328125
1760837509.687264,-0.59912109375,-0.01904296875,0.806640625,-0.42724609375,-0.6103515625,0.244140625,-1.373291015625,36.2109375,174.100341796875
1760837509.6947706,-0.59375,-0.01904296875,0.8037109375,-0.42724609375,-0.42724609375,0.30517578125,-1.373291015625,36.2109375,174.1058349609375
1760837509.701394,-0.59375,-0.01904296875,0.8037109375,-0.42724609375,-0.42724609375,0.30517578125,-1.373291015625,36.2109375,174.111328125
1760837509.7085974,-0.5947265625,-0.0205078125,0.80322265625,-0.48828125,-0.244140625,0.30517578125,-1.373291015625,36.2109375,174.1168212890625
1760837509.7160087,-0.5947265625,-0.0205078125,0.80322265625,-0.48828125,-0.244140625,0.30517578125,-1.3787841796875,36.2109375,174.122314453125
1760837509.7235348,-0.5986328125,-0.021484375,0.80712890625,-0.54931640625,-0.244140625,0.3662109375,-1.3787841796875,36.2109375,174.1278076171875
1760837509.7304838,-0.5986328125,-0.021484375,0.80712890625,-0.54931640625,-0.244140625,0.3662109375,-1.38427734375,36.2109375,174.13330078125
1760837509.7409825,-0.5986328125,-0.021484375,0.80712890625,-0.06103515625,-0.18310546875,0.3662109375,-1.38427734375,36.2109375,174.1387939453125
1760837509.7473805,-0.595703125,-0.01953125,0.80078125,-0.06103515625,-0.18310546875,0.3662109375,-1.3787841796875,36.2109375,174.144287109375
1760837509.7540805,-0.59375,-0.0234375,0.80615234375,0.42724609375,-0.1220703125,0.42724609375,-1.373291015625,36.2109375,174.1497802734375
1760837509.761579,-0.59375,-0.0234375,0.80615234375,0.42724609375,-0.1220703125,0.42724609375,-1.3677978515625,36.2164306640625,174.1552734375
1760837509.7677581,-0.59814453125,-0.01708984375,0.810546875,0.30517578125,0.0,0.30517578125,-1.3623046875,36.2164306640625,174.1607666015625
1760837509.77404,-0.59814453125,-0.01708984375,0.810546875,0.30517578125,0.0,0.30517578125,-1.3568115234375,36.2164306640625,174.166259765625
1760837509.7816105,-0.59765625,-0.01171875,0.80126953125,0.0,0.18310546875,0.18310546875,-1.3568115234375,36.221923828125,174.166259765625
1760837509.7900872,-0.59765625,-0.01171875,0.80126953125,0.0,0.18310546875,0.18310546875,-1.351318359375,36.2274169921875,174.1717529296875
1760837509.797545,-0.59375,-0.0205078125,0.8046875,-0.18310546875,0.244140625,0.1220703125,-1.351318359375,36.2274169921875,174.1717529296875
1760837509.8046052,-0.59375,-0.0205078125,0.8046875,-0.18310546875,0.244140625,0.1220703125,-1.351318359375,36.23291015625,174.1717529296875
1760837509.8120446,-0.58935546875,-0.01953125,0.81201171875,-0.30517578125,0.1220703125,0.18310546875,-1.351318359375,36.2384033203125,174.17724609375
1760837509.8198414,-0.58935546875,-0.01953125,0.81201171875,-0.30517578125,0.1220703125,0.18310546875,-1.3568115234375,36.2384033203125,174.17724609375
1760837509.8289406,-0.58837890625,-0.01513671875,0.81005859375,-0.54931640625,0.0,0.30517578125,-1.3568115234375,36.243896484375,174.1827392578125
1760837509.8359265,-0.58837890625,-0.01513671875,0.81005859375,-0.54931640625,0.0,0.30517578125,-1.3623046875,36.243896484375,174.188232421875
1760837509.8443127,-0.59228515625,-0.0205078125,0.80615234375,-0.54931640625,-0.18310546875,0.244140625,-1.3623046875,36.243896484375,174.188232421875
1760837509.8507888,-0.59228515625,-0.0205078125,0.80615234375,-0.54931640625,-0.18310546875,0.244140625,-1.3677978515625,36.243896484375,174.188232421875
1760837509.857002,-0.59521484375,-0.02392578125,0.80078125,0.1220703125,-0.18310546875,0.0,-1.3677978515625,36.2384033203125,174.1937255859375
1760837509.8641639,-0.59521484375,-0.02392578125,0.80078125,0.1220703125,-0.18310546875,0.0,-1.3677978515625,36.2384033203125,174.188232421875
1760837509.87082,-0.59521484375,-0.02001953125,0.80615234375,0.54931640625,-0.244140625,0.0,-1.3623046875,36.2384033203125,174.188232421875
1760837509.8789148,-0.59521484375,-0.02001953125,0.80615234375,0.54931640625,-0.244140625,0.0,-1.3568115234375,36.2384033203125,174.188232421875
1760837509.8853855,-0.5927734375,-0.01611328125,0.8076171875,0.48828125,-0.30517578125,0.06103515625,-1.351318359375,36.23291015625,174.188232421875
1760837509.8932073,-0.5927734375,-0.01611328125,0.8076171875,0.48828125,-0.30517578125,0.06103515625,-1.3458251953125,36.23291015625,174.188232421875
1760837509.9009538,-0.59326171875,-0.015625,0.8095703125,0.30517578125,-0.48828125,0.1220703125,-1.34033203125,36.2274169921875,174.188232421875
1760837509.9096777,-0.59326171875,-0.015625,0.8095703125,0.30517578125,-0.48828125,0.1220703125,-1.34033203125,36.2274169921875,174.188232421875
1760837509.9166813,-0.595703125,-0.01708984375,0.80517578125,-0.18310546875,-0.54931640625,0.1220703125,-1.3348388671875,36.221923828125,174.188232421875
1760837509.9236963,-0.595703125,-0.01708984375,0.80517578125,-0.18310546875,-0.54931640625,0.1220703125,-1.3348388671875,36.2164306640625,174.188232421875
1760837509.930759,-0.591796875,-0.0205078125,0.80126953125,-0.18310546875,-0.42724609375,0.1220703125,-1.34033203125,36.2109375,174.188232421875
1760837509.937287,-0.591796875,-0.0205078125,0.80126953125,-0.18310546875,-0.42724609375,0.1220703125,-1.34033203125,36.2109375,174.188232421875
1760837509.944593,-0.5986328125,-0.0146484375,0.80517578125,0.0,-0.30517578125,0.1220703125,-1.34033203125,36.2054443359375,174.188232421875
1760837509.9515567,-0.5986328125,-0.0146484375,0.80517578125,0.0,-0.30517578125,0.1220703125,-1.3348388671875,36.2054443359375,174.188232421875
1760837509.9588227,-0.59765625,-0.0146484375,0.8115234375,0.18310546875,-0.42724609375,0.244140625,-1.3348388671875,36.2054443359375,174.1937255859375
1760837509.9649892,-0.59765625,-0.0146484375,0.8115234375,0.18310546875,-0.42724609375,0.244140625,-1.329345703125,36.199951171875,174.1937255859375
1760837509.9713085,-0.59423828125,-0.0185546875,0.80419921875,-0.30517578125,-0.42724609375,0.30517578125,-1.329345703125,36.199951171875,174.19921875
1760837509.9797099,-0.59423828125,-0.0185546875,0.80419921875,-0.30517578125,-0.42724609375,0.30517578125,-1.329345703125,36.1944580078125,174.2047119140625
1760837509.9894035,-0.59423828125,-0.0205078125,0.8017578125,-0.6103515625,-0.30517578125,0.30517578125,-1.329345703125,36.1944580078125,174.210205078125
1760837510.0010722,-0.59423828125,-0.0205078125,0.8017578125,-0.6103515625,-0.30517578125,0.30517578125,-1.3348388671875,36.18896484375,174.2156982421875
1760837510.0105085,-0.59716796875,-0.01708984375,0.80859375,-0.6103515625,-0.3662109375,0.3662109375,-1.3348388671875,36.18896484375,174.22119140625
1760837510.019414,-0.59716796875,-0.01708984375,0.80859375,-0.6103515625,-0.3662109375,0.3662109375,-1.34033203125,36.18896484375,174.2266845703125
1760837510.0294757,-0.59326171875,-0.0166015625,0.80419921875,-0.3662109375,-0.30517578125,0.42724609375,-1.34033203125,36.1834716796875,174.2376708984375
1760837510.040144,-0.59326171875,-0.0166015625,0.80419921875,-0.3662109375,-0.30517578125,0.42724609375,-1.34033203125,36.1834716796875,174.2431640625
1760837510.0505023,-0.5966796875,-0.021484375,0.80810546875,-0.06103515625,-0.06103515625,0.3662109375,-1.34033203125,36.1834716796875,174.2486572265625
1760837510.0610688,-0.5966796875,-0.021484375,0.80810546875,-0.06103515625,-0.06103515625,0.3662109375,-1.3348388671875,36.1834716796875,174.2596435546875
1760837510.0723553,-0.595703125,-0.02099609375,0.8095703125,0.06103515625,0.06103515625,0.3662109375,-1.3348388671875,36.18896484375,174.26513671875
1760837510.0833983,-0.595703125,-0.02099609375,0.8095703125,0.06103515625,0.06103515625,0.3662109375,-1.329345703125,36.18896484375,174.2706298828125
1760837510.0911815,-0.591796875,-0.0185546875,0.806640625,0.18310546875,0.18310546875,0.48828125,-1.329345703125,36.18896484375,174.276123046875
1760837510.1003714,-0.591796875,-0.0185546875,0.806640625,0.18310546875,0.18310546875,0.48828125,-1.3238525390625,36.1944580078125,174.2816162109375
1760837510.1110218,-0.59375,-0.0185546875,0.80712890625,-0.18310546875,0.30517578125,0.67138671875,-1.318359375,36.199951171875,174.2926025390625
1760837510.120381,-0.59375,-0.0185546875,0.80712890625,-0.18310546875,0.30517578125,0.67138671875,-1.3128662109375,36.199951171875,174.3035888671875
1760837510.129576,-0.5927734375,-0.01904296875,0.80517578125,-0.48828125,0.6103515625,0.67138671875,-1.3128662109375,36.2054443359375,174.3145751953125
1760837510.1399114,-0.5927734375,-0.01904296875,0.80517578125,-0.48828125,0.6103515625,0.67138671875,-1.3128662109375,36.2164306640625,174.320068359375
1760837510.1498203,-0.5927734375,-0.01904296875,0.80517578125,-0.06103515625,0.732421875,0.67138671875,-1.3128662109375,36.221923828125,174.3310546875
1760837510.1606426,-0.5927734375,-0.01904296875,0.80517578125,-0.06103515625,0.732421875,0.67138671875,-1.307373046875,36.23291015625,174.342041015625
1760837510.1711214,-0.59375,-0.0185546875,0.810546875,0.48828125,0.79345703125,0.54931640625,-1.3018798828125,36.2384033203125,174.3475341796875
1760837510.180466,-0.59375,-0.0185546875,0.810546875,0.48828125,0.79345703125,0.54931640625,-1.2908935546875,36.2493896484375,174.35302734375
1760837510.1898973,-0.58837890625,-0.017578125,0.8095703125,0.42724609375,0.79345703125,0.67138671875,-1.285400390625,36.2548828125,174.3585205078125
1760837510.2004786,-0.58837890625,-0.017578125,0.8095703125,0.42724609375,0.79345703125,0.67138671875,-1.2744140625,36.265869140625,174.364013671875
1760837510.2120442,-0.58837890625,-0.01708984375,0.8115234375,-0.18310546875,0.67138671875,0.732421875,-1.2689208984375,36.2713623046875,174.375
1760837510.2203226,-0.58837890625,-0.01708984375,0.8115234375,-0.18310546875,0.67138671875,0.732421875,-1.2689208984375,36.2823486328125,174.3804931640625
1760837510.229845,-0.59521484375,-0.0146484375,0.80224609375,-0.48828125,0.54931640625,0.8544921875,-1.263427734375,36.287841796875,174.3914794921875
1760837510.240018,-0.59521484375,-0.0146484375,0.80224609375,-0.48828125,0.54931640625,0.8544921875,-1.263427734375,36.2933349609375,174.39697265625
1760837510.252164,-0.59423828125,-0.02294921875,0.80126953125,0.1220703125,0.42724609375,0.732421875,-1.2579345703125,36.298828125,174.407958984375
1760837510.2632422,-0.59423828125,-0.02294921875,0.80126953125,0.1220703125,0.42724609375,0.732421875,-1.25244140625,36.298828125,174.4189453125
1760837510.2728717,-0.59912109375,-0.0205078125,0.8037109375,0.8544921875,0.30517578125,0.67138671875,-1.2469482421875,36.3043212890625,174.4244384765625
1760837510.2806907,-0.59912109375,-0.0205078125,0.8037109375,0.8544921875,0.30517578125,0.67138671875,-1.23046875,36.309814453125,174.429931640625
1760837510.2913513,-0.58984375,-0.01708984375,0.8076171875,1.15966796875,0.06103515625,0.79345703125,-1.219482421875,36.309814453125,174.44091796875
1760837510.300131,-0.58984375,-0.01708984375,0.8076171875,1.15966796875,0.06103515625,0.79345703125,-1.2030029296875,36.309814453125,174.4464111328125
1760837510.3114355,-0.58984375,-0.01318359375,0.810546875,0.67138671875,-0.18310546875,0.8544921875,-1.1865234375,36.309814453125,174.4573974609375
1760837510.3206258,-0.58984375,-0.01318359375,0.810546875,0.67138671875,-0.18310546875,0.8544921875,-1.175537109375,36.309814453125,174.462890625
1760837510.3305607,-0.59423828125,-0.01171875,0.8076171875,0.48828125,-0.48828125,0.732421875,-1.16455078125,36.309814453125,174.473876953125
1760837510.3405054,-0.59423828125,-0.01171875,0.8076171875,0.48828125,-0.48828125,0.732421875,-1.153564453125,36.3043212890625,174.4793701171875
1760837510.3511791,-0.5947265625,-0.01123046875,0.8037109375,0.0,-0.54931640625,0.732421875,-1.142578125,36.298828125,174.48486328125
1760837510.3618488,-0.5947265625,-0.01123046875,0.8037109375,0.0,-0.54931640625,0.732421875,-1.1370849609375,36.2933349609375,174.495849609375
1760837510.3719106,-0.59521484375,-0.0146484375,0.8056640625,-0.244140625,-0.54931640625,0.79345703125,-1.1370849609375,36.287841796875,174.5013427734375
1760837510.3833022,-0.59521484375,-0.0146484375,0.8056640625,-0.244140625,-0.54931640625,0.79345703125,-1.131591796875,36.2823486328125,174.5123291015625
1760837510.390959,-0.59326171875,-0.01513671875,0.8046875,-0.42724609375,-0.732421875,0.91552734375,-1.1260986328125,36.27685546875,174.5233154296875
1760837510.399971,-0.59326171875,-0.01513671875,0.8046875,-0.42724609375,-0.732421875,0.91552734375,-1.1260986328125,36.2713623046875,174.5343017578125
1760837510.4110646,-0.58447265625,-0.017578125,0.8076171875,-0.18310546875,-0.732421875,0.79345703125,-1.12060546875,36.265869140625,174.539794921875
1760837510.4198272,-0.58447265625,-0.017578125,0.8076171875,-0.18310546875,-0.732421875,0.79345703125,-1.1151123046875,36.2548828125,174.55078125
1760837510.4312937,-0.587890625,-0.02001953125,0.8134765625,0.0,-0.732421875,0.732421875,-1.1151123046875,36.2493896484375,174.5562744140625
1760837510.440605,-0.587890625,-0.02001953125,0.8134765625,0.0,-0.732421875,0.732421875,-1.109619140625,36.243896484375,174.5672607421875
1760837510.4508636,-0.58837890625,-0.01220703125,0.81201171875,0.48828125,-0.8544921875,0.67138671875,-1.0986328125,36.23291015625,174.57275390625
1760837510.4691021,-0.58837890625,-0.01220703125,0.81201171875,0.48828125,-0.8544921875,0.67138671875,-1.0931396484375,36.2274169921875,174.5782470703125
1760837510.4790006,-0.5947265625,-0.01416015625,0.81396484375,-0.1220703125,-0.9765625,0.732421875,-1.0821533203125,36.2164306640625,174.583740234375
1760837510.4871967,-0.5947265625,-0.01416015625,0.81396484375,-0.1220703125,-0.9765625,0.732421875,-1.0821533203125,36.2054443359375,174.5947265625
1760837510.4963932,-0.5869140625,-0.0126953125,0.80712890625,-0.6103515625,-0.91552734375,0.91552734375,-1.07666015625,36.1944580078125,174.605712890625
1760837510.50723,-0.5869140625,-0.0126953125,0.80712890625,-0.6103515625,-0.91552734375,0.91552734375,-1.07666015625,36.18896484375,174.61669921875
1760837510.521228,-0.5908203125,-0.01904296875,0.8056640625,-1.0986328125,-0.732421875,1.03759765625,-1.0821533203125,36.177978515625,174.627685546875
1760837510.5293167,-0.5908203125,-0.01904296875,0.8056640625,-1.0986328125,-0.732421875,1.03759765625,-1.0821533203125,36.1724853515625,174.638671875
1760837510.5357568,-0.57763671875,-0.01953125,0.81396484375,-0.6103515625,-0.79345703125,1.15966796875,-1.0821533203125,36.1614990234375,174.6551513671875
1760837510.5443485,-0.57763671875,-0.01953125,0.81396484375,-0.6103515625,-0.79345703125,1.15966796875,-1.0821533203125,36.156005859375,174.6661376953125
1760837510.5594974,-0.59765625,-0.01611328125,0.81298828125,-0.18310546875,-0.8544921875,1.220703125,-1.0711669921875,36.14501953125,174.6771240234375
1760837510.5677013,-0.59765625,-0.01611328125,0.81298828125,-0.18310546875,-0.8544921875,1.220703125,-1.065673828125,36.1395263671875,174.693603515625
1760837510.576252,-0.58740234375,-0.00830078125,0.80810546875,-0.18310546875,-0.91552734375,1.28173828125,-1.0601806640625,36.1285400390625,174.7100830078125
1760837510.5851345,-0.58740234375,-0.00830078125,0.80810546875,-0.18310546875,-0.91552734375,1.28173828125,-1.0546875,36.1175537109375,174.7265625
1760837510.592623,-0.58447265625,-0.01416015625,0.8125,-0.244140625,-0.91552734375,1.46484375,-1.043701171875,36.112060546875,174.7430419921875
1760837510.6081867,-0.58447265625,-0.01416015625,0.8125,-0.244140625,-0.91552734375,1.46484375,-1.0382080078125,36.10107421875,174.759521484375
1760837510.6164525,-0.58984375,-0.015625,0.81591796875,-0.9765625,-0.91552734375,1.5869140625,-1.03271484375,36.090087890625,174.7760009765625
1760837510.6270788,-0.58984375,-0.015625,0.81591796875,-0.9765625,-0.91552734375,1.5869140625,-1.03271484375,36.0791015625,174.7979736328125
1760837510.6352744,-0.59375,-0.00927734375,0.8037109375,-0.79345703125,-0.9765625,1.708984375,-1.0272216796875,36.068115234375,174.814453125
1760837510.6528952,-0.59375,-0.00927734375,0.8037109375,-0.79345703125,-0.9765625,1.708984375,-1.021728515625,36.0626220703125,174.83642578125
1760837510.660524,-0.59375,-0.00927734375,0.8037109375,-0.91552734375,-0.9765625,1.708984375,-1.0162353515625,36.0516357421875,174.8583984375
1760837510.6684594,-0.59375,-0.01806640625,0.80419921875,-0.91552734375,-0.9765625,1.708984375,-1.0162353515625,36.0406494140625,174.88037109375
1760837510.6803699,-0.60009765625,-0.015625,0.80859375,0.0,-1.03759765625,1.64794921875,-1.0052490234375,36.03515625,174.90234375
1760837510.6887484,-0.60009765625,-0.015625,0.80859375,0.0,-1.03759765625,1.64794921875,-0.9942626953125,36.024169921875,174.92431640625
1760837510.6952105,-0.5908203125,-0.013671875,0.8076171875,0.30517578125,-0.9765625,1.64794921875,-0.977783203125,36.0186767578125,174.9462890625
1760837510.7016046,-0.5908203125,-0.013671875,0.8076171875,0.30517578125,-0.9765625,1.64794921875,-0.9613037109375,36.0076904296875,174.96826171875
1760837510.7239542,-0.58837890625,-0.01416015625,0.8076171875,1.220703125,-0.9765625,1.52587890625,-0.9393310546875,36.002197265625,174.9847412109375
1760837510.7398763,-0.58837890625,-0.01416015625,0.8076171875,1.220703125,-0.9765625,1.52587890625,-0.9173583984375,35.9912109375,175.0067138671875
1760837510.7596486,-0.595703125,-0.0107421875,0.81201171875,0.91552734375,-0.9765625,1.3427734375,-0.90087890625,35.980224609375,175.023193359375
1760837510.7804523,-0.595703125,-0.0107421875,0.81201171875,0.91552734375,-0.9765625,1.3427734375,-0.87890625,35.9747314453125,175.045166015625
1760837510.798414,-0.58837890625,-0.00927734375,0.8017578125,0.42724609375,-0.8544921875,1.28173828125,-0.867919921875,35.96923828125,175.0616455078125
1760837510.8110864,-0.58837890625,-0.00927734375,0.8017578125,0.42724609375,-0.8544921875,1.28173828125,-0.8514404296875,35.958251953125,175.078125
1760837510.831948,-0.59521484375,-0.0087890625,0.8115234375,-0.1220703125,-0.67138671875,1.220703125,-0.845947265625,35.958251953125,175.0946044921875
1760837510.838613,-0.59521484375,-0.0087890625,0.8115234375,-0.1220703125,-0.67138671875,1.220703125,-0.8404541015625,35.9527587890625,175.111083984375
1760837510.845721,-0.59765625,-0.0068359375,0.81005859375,0.06103515625,-0.6103515625,1.0986328125,-0.8294677734375,35.947265625,175.1220703125
1760837510.855318,-0.59765625,-0.0068359375,0.81005859375,0.06103515625,-0.6103515625,1.0986328125,-0.8184814453125,35.9417724609375,175.1385498046875
1760837510.863494,-0.58984375,-0.0087890625,0.80517578125,-0.1220703125,-0.3662109375,1.03759765625,-0.81298828125,35.9417724609375,175.155029296875
1760837510.8847702,-0.58984375,-0.0087890625,0.80517578125,-0.1220703125,-0.3662109375,1.03759765625,-0.8074951171875,35.9417724609375,175.166015625
1760837510.901698,-0.5927734375,-0.01220703125,0.81005859375,-0.54931640625,-0.1220703125,1.0986328125,-0.8074951171875,35.9417724609375,175.1824951171875
1760837510.9131207,-0.5927734375,-0.01220703125,0.81005859375,-0.54931640625,-0.1220703125,1.0986328125,-0.802001953125,35.9417724609375,175.198974609375
1760837510.9327953,-0.58984375,-0.013671875,0.80908203125,-0.244140625,-0.18310546875,1.0986328125,-0.7965087890625,35.9417724609375,175.2154541015625
1760837510.9472413,-0.58984375,-0.013671875,0.80908203125,-0.244140625,-0.18310546875,1.0986328125,-0.791015625,35.9417724609375,175.23193359375
1760837510.966263,-0.59375,-0.01171875,0.80517578125,0.06103515625,-0.18310546875,1.03759765625,-0.7855224609375,35.9417724609375,175.2484130859375
1760837510.9732172,-0.59375,-0.01171875,0.80517578125,0.06103515625,-0.18310546875,1.03759765625,-0.7745361328125,35.9417724609375,175.2593994140625
1760837510.9970326,-0.5908203125,-0.0087890625,0.80517578125,0.0,-0.06103515625,1.03759765625,-0.76904296875,35.9417724609375,175.27587890625
1760837511.0140643,-0.5908203125,-0.0087890625,0.80517578125,0.0,-0.06103515625,1.03759765625,-0.7635498046875,35.9417724609375,175.2923583984375
1760837511.0388956,-0.6005859375,-0.00732421875,0.810546875,0.0,0.0,1.0986328125,-0.7525634765625,35.947265625,175.308837890625
1760837511.0478432,-0.6005859375,-0.00732421875,0.810546875,0.0,0.0,1.0986328125,-0.7470703125,35.947265625,175.3253173828125
1760837511.0571513,-0.59912109375,-0.00732421875,0.802734375,-0.06103515625,0.0,0.9765625,-0.736083984375,35.9527587890625,175.341796875
1760837511.0668082,-0.59912109375,-0.00732421875,0.802734375,-0.06103515625,0.0,0.9765625,-0.7305908203125,35.9527587890625,175.3582763671875
1760837511.0753987,-0.58935546875,-0.00927734375,0.80224609375,0.1220703125,0.0,0.8544921875,-0.72509765625,35.9527587890625,175.3692626953125
1760837511.0818722,-0.58935546875,-0.00927734375,0.80224609375,0.1220703125,0.0,0.8544921875,-0.714111328125,35.958251953125,175.3857421875
1760837511.0893824,-0.59716796875,-0.0078125,0.80517578125,-0.48828125,0.0,0.79345703125,-0.714111328125,35.958251953125,175.396728515625
1760837511.0955944,-0.59716796875,-0.0078125,0.80517578125,-0.48828125,0.0,0.79345703125,-0.714111328125,35.9637451171875,175.4132080078125
1760837511.1033323,-0.5986328125,-0.0087890625,0.806640625,0.0,-0.06103515625,0.732421875,-0.7086181640625,35.9637451171875,175.4241943359375
1760837511.1124985,-0.5986328125,-0.0087890625,0.806640625,0.0,-0.06103515625,0.732421875,-0.703125,35.96923828125,175.4351806640625
1760837511.1218727,-0.5927734375,-0.00439453125,0.80615234375,-0.18310546875,-0.1220703125,0.67138671875,-0.6976318359375,35.96923828125,175.45166015625
1760837511.1310945,-0.5927734375,-0.00439453125,0.80615234375,-0.18310546875,-0.1220703125,0.67138671875,-0.6976318359375,35.96923828125,175.462646484375
1760837511.1389434,-0.5947265625,-0.00439453125,0.80810546875,-0.244140625,-0.30517578125,0.6103515625,-0.692138671875,35.96923828125,175.4736328125
1760837511.1476076,-0.5947265625,-0.00439453125,0.80810546875,-0.244140625,-0.30517578125,0.6103515625,-0.692138671875,35.96923828125,175.4901123046875
1760837511.1577425,-0.591796875,-0.0078125,0.80517578125,-0.42724609375,-0.3662109375,0.48828125,-0.692138671875,35.96923828125,175.5010986328125
1760837511.1689,-0.591796875,-0.0078125,0.80517578125,-0.42724609375,-0.3662109375,0.48828125,-0.692138671875,35.96923828125,175.5120849609375
1760837511.176765,-0.59521484375,-0.01171875,0.80908203125,-0.244140625,-0.30517578125,0.3662109375,-0.6866455078125,35.96923828125,175.5230712890625
1760837511.1857252,-0.59521484375,-0.01171875,0.80908203125,-0.244140625,-0.30517578125,0.3662109375,-0.6866455078125,35.96923828125,175.5340576171875
1760837511.1966426,-0.5947265625,-0.00634765625,0.8056640625,-0.1220703125,-0.244140625,0.30517578125,-0.6866455078125,35.96923828125,175.5450439453125
1760837511.2052681,-0.5947265625,-0.00634765625,0.8056640625,-0.1220703125,-0.244140625,0.30517578125,-0.6866455078125,35.96923828125,175.550537109375
1760837511.2125819,-0.59375,-0.00927734375,0.8076171875,0.06103515625,-0.244140625,0.30517578125,-0.68115234375,35.96923828125,175.5615234375
1760837511.2210267,-0.59375,-0.00927734375,0.8076171875,0.06103515625,-0.244140625,0.30517578125,-0.6756591796875,35.96923828125,175.572509765625
1760837511.2288682,-0.5908203125,-0.01123046875,0.80810546875,0.1220703125,-0.18310546875,0.244140625,-0.6756591796875,35.96923828125,175.5780029296875
1760837511.2367947,-0.5908203125,-0.01123046875,0.80810546875,0.1220703125,-0.18310546875,0.244140625,-0.670166015625,35.96923828125,175.58349609375
1760837511.2442162,-0.5908203125,-0.01123046875,0.80810546875,0.54931640625,-0.244140625,0.244140625,-0.6646728515625,35.96923828125,175.594482421875
1760837511.2529514,-0.5908203125,-0.01123046875,0.80810546875,0.54931640625,-0.244140625,0.244140625,-0.6591796875,35.96923828125,175.5999755859375
1760837511.2617822,-0.5888671875,-0.001953125,0.810546875,0.244140625,-0.244140625,0.30517578125,-0.6536865234375,35.96923828125,175.60546875
1760837511.2738738,-0.5888671875,-0.001953125,0.810546875,0.244140625,-0.244140625,0.30517578125,-0.648193359375,35.9637451171875,175.616455078125
1760837511.28087,-0.59033203125,-0.01025390625,0.81005859375,0.3662109375,-0.42724609375,0.30517578125,-0.6427001953125,35.9637451171875,175.6219482421875
1760837511.297357,-0.59033203125,-0.01025390625,0.81005859375,0.3662109375,-0.42724609375,0.30517578125,-0.6317138671875,35.958251953125,175.62744140625
1760837511.3054183,-0.58837890625,-0.0087890625,0.80615234375,0.3662109375,-0.6103515625,0.30517578125,-0.626220703125,35.958251953125,175.6329345703125
1760837511.3151195,-0.58837890625,-0.0087890625,0.80615234375,0.3662109375,-0.6103515625,0.30517578125,-0.6207275390625,35.9527587890625,175.638427734375
1760837511.3232882,-0.59130859375,-0.00634765625,0.810546875,0.42724609375,-0.6103515625,0.3662109375,-0.615234375,35.947265625,175.6494140625
1760837511.3331091,-0.59130859375,-0.00634765625,0.810546875,0.42724609375,-0.6103515625,0.3662109375,-0.6097412109375,35.9417724609375,175.6549072265625
1760837511.3406317,-0.58837890625,-0.00537109375,0.8125,0.9765625,-0.79345703125,0.48828125,-0.59326171875,35.936279296875,175.660400390625
1760837511.3496912,-0.58837890625,-0.00537109375,0.8125,0.9765625,-0.79345703125,0.48828125,-0.582275390625,35.92529296875,175.67138671875
1760837511.3578336,-0.58251953125,-0.00830078125,0.81298828125,0.732421875,-0.9765625,0.30517578125,-0.5712890625,35.9197998046875,175.6768798828125
1760837511.364756,-0.58251953125,-0.00830078125,0.81298828125,0.732421875,-0.9765625,0.30517578125,-0.560302734375,35.9088134765625,175.682373046875
1760837511.3746083,-0.5830078125,-0.00341796875,0.8125,0.1220703125,-0.91552734375,0.244140625,-0.5548095703125,35.9033203125,175.6878662109375
1760837511.384159,-0.5830078125,-0.00341796875,0.8125,0.1220703125,-0.91552734375,0.244140625,-0.5548095703125,35.892333984375,175.693359375
1760837511.3922122,-0.58447265625,-0.00732421875,0.8125,-0.1220703125,-0.9765625,0.244140625,-0.5548095703125,35.88134765625,175.704345703125
1760837511.3994057,-0.58447265625,-0.00732421875,0.8125,-0.1220703125,-0.9765625,0.244140625,-0.54931640625,35.8758544921875,175.7098388671875
1760837511.4077983,-0.58935546875,-0.0068359375,0.81298828125,0.18310546875,-1.15966796875,0.244140625,-0.54931640625,35.8648681640625,175.71533203125
1760837511.4167795,-0.58935546875,-0.0068359375,0.81298828125,0.18310546875,-1.15966796875,0.244140625,-0.5438232421875,35.8538818359375,175.7208251953125
1760837511.4242594,-0.583984375,-0.00537109375,0.81494140625,0.54931640625,-1.28173828125,0.244140625,-0.538330078125,35.83740234375,175.726318359375
1760837511.4317446,-0.583984375,-0.00537109375,0.81494140625,0.54931640625,-1.28173828125,0.244140625,-0.52734375,35.826416015625,175.7318115234375
1760837511.4388816,-0.5869140625,-0.00830078125,0.814453125,0.42724609375,-1.40380859375,0.18310546875,-0.5218505859375,35.8154296875,175.7373046875
1760837511.4457972,-0.5869140625,-0.00830078125,0.814453125,0.42724609375,-1.40380859375,0.18310546875,-0.516357421875,35.7989501953125,175.7427978515625
1760837511.4541728,-0.58935546875,-0.00390625,0.80810546875,0.54931640625,-1.46484375,0.3662109375,-0.50537109375,35.782470703125,175.748291015625
1760837511.4628468,-0.58935546875,-0.00390625,0.80810546875,0.54931640625,-1.46484375,0.3662109375,-0.4998779296875,35.771484375,175.7537841796875
1760837511.469755,-0.5888671875,-0.0068359375,0.806640625,0.9765625,-1.40380859375,0.30517578125,-0.4888916015625,35.760498046875,175.75927734375
1760837511.477084,-0.5888671875,-0.0068359375,0.806640625,0.9765625,-1.40380859375,0.30517578125,-0.472412109375,35.7440185546875,175.7647705078125
1760837511.4839797,-0.58740234375,-0.00732421875,0.81640625,1.03759765625,-1.28173828125,0.244140625,-0.46142578125,35.7330322265625,175.770263671875
1760837511.491528,-0.58740234375,-0.00732421875,0.81640625,1.03759765625,-1.28173828125,0.244140625,-0.450439453125,35.7220458984375,175.7757568359375
1760837511.4993536,-0.59228515625,-0.00341796875,0.810546875,0.3662109375,-1.0986328125,0.42724609375,-0.4449462890625,35.7110595703125,175.78125
1760837511.506675,-0.59228515625,-0.00341796875,0.810546875,0.3662109375,-1.0986328125,0.42724609375,-0.439453125,35.7000732421875,175.792236328125
1760837511.5158014,-0.59130859375,-0.00439453125,0.8076171875,0.0,-0.91552734375,0.54931640625,-0.4339599609375,35.694580078125,175.80322265625
1760837511.5228252,-0.59130859375,-0.00439453125,0.8076171875,0.0,-0.91552734375,0.54931640625,-0.428466796875,35.6890869140625,175.8087158203125
1760837511.5293055,-0.59130859375,-0.00732421875,0.80615234375,0.18310546875,-0.67138671875,0.6103515625,-0.4229736328125,35.68359375,175.8251953125
1760837511.5362563,-0.59130859375,-0.009765625,0.8095703125,0.54931640625,-0.42724609375,0.67138671875,-0.4119873046875,35.6781005859375,175.836181640625
1760837511.5440943,-0.59130859375,-0.009765625,0.8095703125,0.54931640625,-0.42724609375,0.67138671875,-0.406494140625,35.6781005859375,175.84716796875
1760837511.5510416,-0.591796875,-0.00390625,0.81201171875,1.15966796875,-0.244140625,0.54931640625,-0.3900146484375,35.6781005859375,175.858154296875
1760837511.5584517,-0.591796875,-0.00390625,0.81201171875,1.15966796875,-0.244140625,0.54931640625,-0.3790283203125,35.6781005859375,175.869140625
1760837511.5647578,-0.59228515625,0.0,0.8154296875,1.0986328125,-0.06103515625,0.54931640625,-0.362548828125,35.6781005859375,175.880126953125
1760837511.572212,-0.59228515625,0.0,0.8154296875,1.0986328125,-0.06103515625,0.54931640625,-0.3460693359375,35.6781005859375,175.8856201171875
1760837511.5792263,-0.591796875,0.00390625,0.80810546875,0.42724609375,0.1220703125,0.54931640625,-0.3350830078125,35.68359375,175.8966064453125
1760837511.6010478,-0.591796875,0.00390625,0.80810546875,0.42724609375,0.1220703125,0.54931640625,-0.3240966796875,35.68359375,175.9075927734375
1760837511.6082954,-0.59375,-0.0009765625,0.80810546875,0.0,0.30517578125,0.54931640625,-0.318603515625,35.6890869140625,175.9185791015625
1760837511.616287,-0.59375,-0.0009765625,0.80810546875,0.0,0.30517578125,0.54931640625,-0.3131103515625,35.694580078125,175.93505859375
1760837511.623892,-0.595703125,-0.001953125,0.8095703125,-0.6103515625,0.54931640625,0.48828125,-0.3131103515625,35.7000732421875,175.946044921875
1760837511.6315413,-0.595703125,-0.001953125,0.8095703125,-0.6103515625,0.54931640625,0.48828125,-0.318603515625,35.7110595703125,175.95703125
1760837511.6452665,-0.59326171875,-0.00244140625,0.8095703125,-0.42724609375,0.732421875,0.54931640625,-0.318603515625,35.716552734375,175.968017578125
1760837511.6553519,-0.59326171875,-0.00244140625,0.8095703125,-0.42724609375,0.732421875,0.54931640625,-0.318603515625,35.7275390625,175.97900390625
1760837511.6621106,-0.58984375,-0.00341796875,0.80712890625,-0.48828125,0.8544921875,0.54931640625,-0.318603515625,35.738525390625,175.989990234375
1760837511.6698892,-0.58984375,-0.00341796875,0.80712890625,-0.48828125,0.8544921875,0.54931640625,-0.318603515625,35.74951171875,176.0009765625
1760837511.6771712,-0.5908203125,-0.00048828125,0.8095703125,-0.67138671875,1.03759765625,0.54931640625,-0.318603515625,35.760498046875,176.011962890625
1760837511.6845777,-0.5908203125,-0.00048828125,0.8095703125,-0.67138671875,1.03759765625,0.54931640625,-0.318603515625,35.7769775390625,176.02294921875
1760837511.6976862,-0.587890625,-0.00244140625,0.8095703125,-0.732421875,1.15966796875,0.42724609375,-0.3240966796875,35.7879638671875,176.033935546875
1760837511.7041008,-0.587890625,-0.00244140625,0.8095703125,-0.732421875,1.15966796875,0.42724609375,-0.3240966796875,35.804443359375,176.044921875
1760837511.7108808,-0.583984375,-0.005859375,0.8125,-0.732421875,1.3427734375,0.244140625,-0.32958984375,35.8154296875,176.0504150390625
1760837511.718079,-0.583984375,-0.005859375,0.8125,-0.732421875,1.3427734375,0.244140625,-0.3350830078125,35.8319091796875,176.055908203125
1760837511.7323434,-0.58349609375,-0.005859375,0.81494140625,0.1220703125,1.15966796875,0.18310546875,-0.3350830078125,35.8428955078125,176.0614013671875
1760837511.7410133,-0.58349609375,-0.005859375,0.81494140625,0.1220703125,1.15966796875,0.18310546875,-0.3350830078125,35.859375,176.06689453125
1760837511.7488828,-0.57861328125,-0.0078125,0.81591796875,0.42724609375,0.9765625,0.06103515625,-0.32958984375,35.870361328125,176.06689453125
1760837511.7559083,-0.57861328125,-0.0078125,0.81591796875,0.42724609375,0.9765625,0.06103515625,-0.3240966796875,35.88134765625,176.0723876953125
1760837511.763422,-0.5791015625,-0.00341796875,0.8115234375,0.30517578125,0.732421875,-0.06103515625,-0.318603515625,35.8868408203125,176.0723876953125
1760837511.7771292,-0.5791015625,-0.00341796875,0.8115234375,0.30517578125,0.732421875,-0.06103515625,-0.318603515625,35.892333984375,176.0723876953125
1760837511.785179,-0.5888671875,-0.001953125,0.81494140625,0.67138671875,0.48828125,-0.1220703125,-0.3131103515625,35.8978271484375,176.0723876953125
1760837511.792939,-0.5888671875,-0.001953125,0.81494140625,0.67138671875,0.48828125,-0.1220703125,-0.3076171875,35.9033203125,176.0723876953125
1760837511.8014436,-0.58935546875,0.0,0.8134765625,0.3662109375,0.244140625,-0.1220703125,-0.3021240234375,35.9088134765625,176.0723876953125
1760837511.8115573,-0.58935546875,0.0,0.8134765625,0.3662109375,0.244140625,-0.1220703125,-0.296630859375,35.9088134765625,176.0723876953125
1760837511.8243973,-0.595703125,0.0,0.80517578125,0.42724609375,0.1220703125,-0.06103515625,-0.296630859375,35.9088134765625,176.0723876953125
1760837511.8319724,-0.595703125,0.0,0.80517578125,0.42724609375,0.1220703125,-0.06103515625,-0.2911376953125,35.9088134765625,176.0723876953125
1760837511.8418953,-0.59521484375,-0.0048828125,0.80224609375,0.91552734375,0.1220703125,0.0,-0.28564453125,35.914306640625,176.0723876953125
1760837511.8528082,-0.59521484375,-0.0048828125,0.80224609375,0.91552734375,0.1220703125,0.0,-0.274658203125,35.914306640625,176.0723876953125
1760837511.8694036,-0.595703125,-0.00341796875,0.8056640625,0.06103515625,0.244140625,-0.06103515625,-0.2691650390625,35.9197998046875,176.0723876953125
1760837511.8774126,-0.595703125,-0.00341796875,0.8056640625,0.06103515625,0.244140625,-0.06103515625,-0.2691650390625,35.9197998046875,176.077880859375
1760837511.8855677,-0.60205078125,0.0029296875,0.8037109375,-0.3662109375,0.42724609375,-0.06103515625,-0.2691650390625,35.92529296875,176.077880859375
1760837511.9040885,-0.60205078125,0.0029296875,0.8037109375,-0.3662109375,0.42724609375,-0.06103515625,-0.274658203125,35.9307861328125,176.0833740234375
1760837511.912007,-0.6015625,0.0,0.80224609375,-0.244140625,0.48828125,0.0,-0.274658203125,35.936279296875,176.0833740234375
1760837511.9202373,-0.6015625,0.0,0.80224609375,-0.244140625,0.48828125,0.0,-0.274658203125,35.947265625,176.0888671875
1760837511.927538,-0.5908203125,-0.009765625,0.80419921875,-0.06103515625,0.54931640625,0.0,-0.2801513671875,35.9527587890625,176.0943603515625
1760837511.93643,-0.5908203125,-0.009765625,0.80419921875,-0.06103515625,0.54931640625,0.0,-0.2801513671875,35.9637451171875,176.099853515625
1760837511.949795,-0.5869140625,-0.00634765625,0.81201171875,0.30517578125,0.48828125,0.0,-0.274658203125,35.96923828125,176.099853515625
1760837511.9594524,-0.5869140625,-0.00634765625,0.81201171875,0.30517578125,0.48828125,0.0,-0.274658203125,35.9747314453125,176.1053466796875
1760837511.9667501,-0.58740234375,0.001953125,0.81787109375,0.18310546875,0.3662109375,-0.06103515625,-0.2691650390625,35.980224609375,176.1053466796875
1760837511.9733422,-0.58740234375,0.001953125,0.81787109375,0.18310546875,0.3662109375,-0.06103515625,-0.2691650390625,35.9857177734375,176.11083984375
1760837511.9909396,-0.58935546875,0.00146484375,0.81005859375,0.0,0.3662109375,-0.1220703125,-0.2691650390625,35.9912109375,176.11083984375
1760837512.0441518,-0.58935546875,0.00146484375,0.81005859375,0.0,0.3662109375,-0.1220703125,-0.2691650390625,35.9967041015625,176.11083984375
1760837512.0645075,-0.58984375,-0.0068359375,0.81103515625,-0.1220703125,0.3662109375,-0.30517578125,-0.2691650390625,36.002197265625,176.11083984375
1760837512.0717566,-0.58984375,-0.0068359375,0.81103515625,-0.1220703125,0.3662109375,-0.30517578125,-0.274658203125,36.002197265625,176.1053466796875
1760837512.0950398,-0.58544921875,-0.00244140625,0.8095703125,0.42724609375,0.30517578125,-0.30517578125,-0.274658203125,36.0076904296875,176.1053466796875
1760837512.1155767,-0.58544921875,-0.00244140625,0.8095703125,0.42724609375,0.30517578125,-0.30517578125,-0.2691650390625,36.01318359375,176.1053466796875
1760837512.1240492,-0.5830078125,-0.00537109375,0.8134765625,0.8544921875,0.18310546875,-0.30517578125,-0.263671875,36.01318359375,176.099853515625
1760837512.1327393,-0.5830078125,-0.00537109375,0.8134765625,0.8544921875,0.18310546875,-0.30517578125,-0.2581787109375,36.0186767578125,176.099853515625
1760837512.1546085,-0.58837890625,-0.0009765625,0.81103515625,0.06103515625,0.1220703125,-0.18310546875,-0.2581787109375,36.0186767578125,176.099853515625
1760837512.162205,-0.58837890625,-0.0009765625,0.81103515625,0.06103515625,0.1220703125,-0.18310546875,-0.2581787109375,36.0186767578125,176.0943603515625
1760837512.1699846,-0.591796875,-0.0029296875,0.8076171875,-0.18310546875,0.0,-0.06103515625,-0.2581787109375,36.0186767578125,176.0943603515625
1760837512.1903374,-0.591796875,-0.0029296875,0.8076171875,-0.18310546875,0.0,-0.06103515625,-0.2581787109375,36.0186767578125,176.0943603515625
1760837512.2370784,-0.5927734375,-0.00390625,0.80810546875,0.18310546875,0.0,0.0,-0.2581787109375,36.0186767578125,176.0943603515625
1760837512.2440226,-0.5927734375,-0.00390625,0.80810546875,0.18310546875,0.0,0.0,-0.2581787109375,36.0186767578125,176.0943603515625
1760837512.281156,-0.59130859375,-0.00830078125,0.81005859375,0.30517578125,0.06103515625,0.06103515625,-0.252685546875,36.0186767578125,176.0943603515625
1760837512.2941744,-0.59130859375,-0.00830078125,0.81005859375,0.30517578125,0.06103515625,0.06103515625,-0.252685546875,36.0186767578125,176.0943603515625
1760837512.3028753,-0.587890625,-0.005859375,0.81103515625,0.6103515625,0.06103515625,0.18310546875,-0.2471923828125,36.024169921875,176.099853515625
1760837512.3112755,-0.587890625,-0.005859375,0.81103515625,0.6103515625,0.06103515625,0.18310546875,-0.2362060546875,36.024169921875,176.1053466796875
1760837512.3192182,-0.5888671875,0.00244140625,0.8125,0.244140625,0.06103515625,0.18310546875,-0.2362060546875,36.024169921875,176.1053466796875
1760837512.3421166,-0.5888671875,0.00244140625,0.8125,0.244140625,0.06103515625,0.18310546875,-0.230712890625,36.024169921875,176.11083984375
1760837512.350293,-0.59423828125,0.0029296875,0.80712890625,-0.30517578125,0.1220703125,0.18310546875,-0.230712890625,36.024169921875,176.11083984375
1760837512.3694427,-0.59423828125,0.0029296875,0.80712890625,-0.30517578125,0.1220703125,0.18310546875,-0.230712890625,36.0296630859375,176.1163330078125
1760837512.3779163,-0.59765625,-0.00341796875,0.8046875,-0.18310546875,0.244140625,0.1220703125,-0.230712890625,36.0296630859375,176.121826171875
1760837512.3924923,-0.59765625,-0.00341796875,0.8046875,-0.18310546875,0.244140625,0.1220703125,-0.230712890625,36.03515625,176.121826171875
1760837512.4072027,-0.59619140625,-0.00390625,0.806640625,0.0,0.42724609375,0.1220703125,-0.230712890625,36.03515625,176.1273193359375
1760837512.4183722,-0.59619140625,-0.00390625,0.806640625,0.0,0.42724609375,0.1220703125,-0.230712890625,36.0406494140625,176.1273193359375
1760837512.4296248,-0.5927734375,-0.0029296875,0.8076171875,-0.1220703125,0.54931640625,0.1220703125,-0.230712890625,36.046142578125,176.1328125
1760837512.4372015,-0.5927734375,-0.0029296875,0.8076171875,-0.1220703125,0.54931640625,0.1220703125,-0.230712890625,36.05712890625,176.1328125
1760837512.4530156,-0.59130859375,-0.00048828125,0.80810546875,-0.06103515625,0.54931640625,0.18310546875,-0.230712890625,36.0626220703125,176.1383056640625
1760837512.460206,-0.59130859375,-0.00048828125,0.80810546875,-0.06103515625,0.54931640625,0.18310546875,-0.2252197265625,36.068115234375,176.143798828125
1760837512.4675224,-0.59375,0.0,0.80859375,-0.18310546875,0.67138671875,0.18310546875,-0.2252197265625,36.0736083984375,176.143798828125
1760837512.4738214,-0.59375,0.0,0.80859375,-0.18310546875,0.67138671875,0.18310546875,-0.2252197265625,36.0845947265625,176.1492919921875
1760837512.480497,-0.591796875,-0.0048828125,0.80859375,0.18310546875,0.732421875,0.1220703125,-0.2252197265625,36.090087890625,176.15478515625
1760837512.4880288,-0.591796875,-0.0048828125,0.80859375,0.18310546875,0.732421875,0.1220703125,-0.2197265625,36.10107421875,176.15478515625
1760837512.4952612,-0.5927734375,-0.00537109375,0.8115234375,0.6103515625,0.91552734375,0.06103515625,-0.2197265625,36.1065673828125,176.15478515625
1760837512.5118434,-0.5927734375,-0.00537109375,0.8115234375,0.6103515625,0.91552734375,0.06103515625,-0.208740234375,36.1175537109375,176.1602783203125
1760837512.5199335,-0.59326171875,0.0009765625,0.8076171875,0.42724609375,1.03759765625,0.06103515625,-0.2032470703125,36.1285400390625,176.1602783203125
1760837512.5272317,-0.59326171875,0.0009765625,0.8076171875,0.42724609375,1.03759765625,0.06103515625,-0.19775390625,36.1395263671875,176.1602783203125
1760837512.533718,-0.59228515625,-0.0029296875,0.80419921875,0.244140625,1.15966796875,0.1220703125,-0.19775390625,36.1505126953125,176.165771484375
1760837512.5546777,-0.59228515625,-0.0029296875,0.80419921875,0.244140625,1.15966796875,0.1220703125,-0.1922607421875,36.1614990234375,176.165771484375
1760837512.5765207,-0.58984375,-0.00390625,0.80810546875,0.30517578125,1.15966796875,0.06103515625,-0.186767578125,36.1724853515625,176.1712646484375
1760837512.5897152,-0.58984375,-0.00390625,0.80810546875,0.30517578125,1.15966796875,0.06103515625,-0.186767578125,36.18896484375,176.1712646484375
1760837512.6115928,-0.58984375,-0.0009765625,0.8115234375,0.06103515625,0.9765625,0.18310546875,-0.1812744140625,36.199951171875,176.1712646484375
1760837512.6243296,-0.58984375,-0.0009765625,0.8115234375,0.06103515625,0.9765625,0.18310546875,-0.1812744140625,36.2054443359375,176.1767578125
1760837512.6311545,-0.591796875,0.00732421875,0.80810546875,-0.18310546875,0.79345703125,0.244140625,-0.1812744140625,36.2164306640625,176.1767578125
1760837512.6387463,-0.591796875,0.00732421875,0.80810546875,-0.18310546875,0.79345703125,0.244140625,-0.1812744140625,36.221923828125,176.1822509765625
1760837512.6459398,-0.59033203125,-0.001953125,0.810546875,-0.244140625,0.6103515625,0.18310546875,-0.1812744140625,36.23291015625,176.1822509765625
1760837512.653331,-0.59033203125,-0.001953125,0.810546875,-0.244140625,0.6103515625,0.18310546875,-0.1812744140625,36.2384033203125,176.187744140625
1760837512.6596942,-0.59228515625,-0.0009765625,0.80810546875,-0.3662109375,0.67138671875,0.0,-0.1812744140625,36.243896484375,176.187744140625
1760837512.6669824,-0.59228515625,-0.0009765625,0.80810546875,-0.3662109375,0.67138671875,0.0,-0.1812744140625,36.2493896484375,176.187744140625
1760837512.6743975,-0.59423828125,0.0,0.806640625,-0.54931640625,0.79345703125,-0.06103515625,-0.186767578125,36.2548828125,176.187744140625
1760837512.6831434,-0.59423828125,0.0,0.806640625,-0.54931640625,0.79345703125,-0.06103515625,-0.1922607421875,36.265869140625,176.187744140625
1760837512.6899981,-0.59326171875,-0.0009765625,0.80908203125,-0.18310546875,0.67138671875,-0.18310546875,-0.19775390625,36.2713623046875,176.1822509765625
1760837512.6994464,-0.59326171875,-0.0009765625,0.80908203125,-0.18310546875,0.67138671875,-0.18310546875,-0.19775390625,36.27685546875,176.1822509765625
1760837512.7083766,-0.59375,-0.00390625,0.80859375,0.0,0.54931640625,-0.18310546875,-0.19775390625,36.2823486328125,176.1767578125
1760837512.7152424,-0.59375,-0.00390625,0.80859375,0.0,0.54931640625,-0.18310546875,-0.19775390625,36.287841796875,176.1767578125
1760837512.7258475,-0.59521484375,-0.00244140625,0.802734375,-0.1220703125,0.54931640625,-0.18310546875,-0.2032470703125,36.2933349609375,176.1767578125
1760837512.734297,-0.59521484375,-0.00244140625,0.802734375,-0.1220703125,0.54931640625,-0.18310546875,-0.2032470703125,36.298828125,176.1712646484375
1760837512.7415102,-0.6015625,-0.00390625,0.80126953125,-0.06103515625,0.67138671875,0.0,-0.2032470703125,36.3043212890625,176.1712646484375
1760837512.7512038,-0.6015625,-0.00390625,0.80126953125,-0.06103515625,0.67138671875,0.0,-0.2032470703125,36.309814453125,176.1712646484375
1760837512.759,-0.6005859375,-0.001953125,0.80322265625,-0.42724609375,0.67138671875,0.0,-0.208740234375,36.32080078125,176.1712646484375
1760837512.768281,-0.6005859375,-0.001953125,0.80322265625,-0.42724609375,0.67138671875,0.0,-0.2142333984375,36.3262939453125,176.1767578125
1760837512.7755685,-0.5947265625,-0.00048828125,0.8046875,-0.67138671875,0.732421875,0.30517578125,-0.2142333984375,36.3372802734375,176.1767578125
1760837512.7826226,-0.5947265625,-0.00048828125,0.8046875,-0.67138671875,0.732421875,0.30517578125,-0.2197265625,36.3427734375,176.1822509765625
1760837512.791609,-0.59912109375,-0.0009765625,0.8056640625,-1.220703125,0.67138671875,0.48828125,-0.2252197265625,36.353759765625,176.187744140625
1760837512.7979271,-0.59912109375,-0.0009765625,0.8056640625,-1.220703125,0.67138671875,0.48828125,-0.2362060546875,36.3592529296875,176.19873046875
1760837512.8043778,-0.59814453125,-0.00390625,0.80322265625,-1.3427734375,0.54931640625,0.48828125,-0.2471923828125,36.36474609375,176.2042236328125
1760837512.812799,-0.59814453125,-0.00390625,0.80322265625,-1.3427734375,0.54931640625,0.48828125,-0.252685546875,36.3702392578125,176.2152099609375
1760837512.822076,-0.59375,-0.0048828125,0.80419921875,-0.8544921875,0.42724609375,0.42724609375,-0.2581787109375,36.375732421875,176.220703125
1760837512.8293304,-0.59375,-0.0048828125,0.80419921875,-0.8544921875,0.42724609375,0.42724609375,-0.263671875,36.3812255859375,176.2261962890625
1760837512.8437433,-0.59033203125,-0.00439453125,0.80615234375,-0.3662109375,0.3662109375,0.42724609375,-0.263671875,36.38671875,176.231689453125
1760837512.8596556,-0.59033203125,-0.00439453125,0.80615234375,-0.3662109375,0.3662109375,0.42724609375,-0.263671875,36.3922119140625,176.2371826171875
1760837512.8767705,-0.59033203125,-0.0048828125,0.81201171875,-0.18310546875,0.18310546875,0.42724609375,-0.263671875,36.3922119140625,176.2481689453125
1760837512.8929756,-0.59033203125,-0.0048828125,0.81201171875,-0.18310546875,0.18310546875,0.42724609375,-0.2581787109375,36.3922119140625,176.253662109375
1760837512.901024,-0.5888671875,-0.001953125,0.80615234375,0.30517578125,0.0,0.30517578125,-0.252685546875,36.3922119140625,176.2591552734375
1760837512.9099054,-0.5888671875,-0.001953125,0.80615234375,0.30517578125,0.0,0.30517578125,-0.2471923828125,36.3922119140625,176.2591552734375
1760837512.917634,-0.59228515625,-0.0048828125,0.80712890625,0.8544921875,-0.1220703125,0.1220703125,-0.24169921875,36.3922119140625,176.2646484375
1760837512.924515,-0.59228515625,-0.0048828125,0.80712890625,0.8544921875,-0.1220703125,0.1220703125,-0.230712890625,36.3922119140625,176.2646484375
1760837512.931432,-0.5947265625,-0.0029296875,0.80859375,1.03759765625,-0.244140625,0.0,-0.2197265625,36.38671875,176.2646484375
1760837512.9400635,-0.5947265625,-0.0029296875,0.80859375,1.03759765625,-0.244140625,0.0,-0.208740234375,36.38671875,176.2591552734375
1760837512.946834,-0.58935546875,0.0009765625,0.8076171875,1.0986328125,-0.42724609375,0.0,-0.19775390625,36.3812255859375,176.2591552734375
1760837512.9562066,-0.58935546875,0.0009765625,0.8076171875,1.0986328125,-0.42724609375,0.0,-0.186767578125,36.375732421875,176.2591552734375
1760837512.9648895,-0.58935546875,0.00341796875,0.81103515625,-0.06103515625,-0.6103515625,0.0,-0.186767578125,36.3702392578125,176.2591552734375
1760837512.9753761,-0.58935546875,0.00341796875,0.81103515625,-0.06103515625,-0.6103515625,0.0,-0.186767578125,36.3592529296875,176.2591552734375
1760837512.9835525,-0.59130859375,0.00048828125,0.80859375,-0.732421875,-0.8544921875,0.06103515625,-0.1922607421875,36.353759765625,176.253662109375
1760837512.9931955,-0.59130859375,0.00048828125,0.80859375,-0.732421875,-0.8544921875,0.06103515625,-0.2032470703125,36.3427734375,176.253662109375
1760837513.0002096,-0.5966796875,-0.00439453125,0.80419921875,-0.30517578125,-1.0986328125,0.06103515625,-0.2032470703125,36.331787109375,176.253662109375
1760837513.0093427,-0.5966796875,-0.00439453125,0.80419921875,-0.30517578125,-1.0986328125,0.06103515625,-0.2032470703125,36.32080078125,176.253662109375
1760837513.0184073,-0.5927734375,-0.00390625,0.8056640625,-0.18310546875,-1.0986328125,0.06103515625,-0.2032470703125,36.309814453125,176.253662109375
1760837513.037801,-0.5927734375,-0.00390625,0.8056640625,-0.18310546875,-1.0986328125,0.06103515625,-0.208740234375,36.298828125,176.253662109375
1760837513.0443819,-0.59716796875,-0.0029296875,0.80615234375,-0.06103515625,-1.220703125,0.18310546875,-0.2032470703125,36.287841796875,176.253662109375
1760837513.0520055,-0.59716796875,-0.0029296875,0.80615234375,-0.06103515625,-1.220703125,0.18310546875,-0.2032470703125,36.27685546875,176.2591552734375
1760837513.0594425,-0.59619140625,-0.00341796875,0.8046875,-0.244140625,-1.220703125,0.244140625,-0.2032470703125,36.2603759765625,176.2591552734375
1760837513.0661166,-0.59619140625,-0.00341796875,0.8046875,-0.244140625,-1.220703125,0.244140625,-0.2032470703125,36.2493896484375,176.2646484375
1760837513.0755074,-0.5986328125,0.0,0.80419921875,-0.9765625,-1.0986328125,0.244140625,-0.2142333984375,36.243896484375,176.2701416015625
1760837513.087075,-0.5986328125,0.0,0.80419921875,-0.9765625,-1.0986328125,0.244140625,-0.2197265625,36.23291015625,176.275634765625
1760837513.098423,-0.6005859375,-0.0029296875,0.80419921875,-0.244140625,-0.9765625,0.244140625,-0.2197265625,36.221923828125,176.2811279296875
1760837513.1046832,-0.6005859375,-0.0029296875,0.80419921875,-0.244140625,-0.9765625,0.244140625,-0.2197265625,36.2164306640625,176.28662109375
1760837513.1124709,-0.5986328125,-0.00830078125,0.80322265625,0.06103515625,-0.79345703125,0.30517578125,-0.2197265625,36.2109375,176.2921142578125
1760837513.1290627,-0.5986328125,-0.00830078125,0.80322265625,0.06103515625,-0.79345703125,0.30517578125,-0.2142333984375,36.2054443359375,176.297607421875
1760837513.1377993,-0.59619140625,0.0,0.80126953125,0.1220703125,-0.48828125,0.3662109375,-0.208740234375,36.199951171875,176.3031005859375
1760837513.1447248,-0.59619140625,0.0,0.80126953125,0.1220703125,-0.48828125,0.3662109375,-0.208740234375,36.1944580078125,176.30859375
1760837513.1519532,-0.59912109375,-0.0009765625,0.80517578125,0.48828125,-0.1220703125,0.3662109375,-0.19775390625,36.199951171875,176.319580078125
1760837513.1599512,-0.59912109375,-0.0009765625,0.80517578125,0.48828125,-0.1220703125,0.3662109375,-0.1922607421875,36.199951171875,176.3250732421875
1760837513.1665745,-0.6015625,-0.0078125,0.80517578125,0.48828125,0.06103515625,0.3662109375,-0.1812744140625,36.199951171875,176.33056640625
1760837513.18299,-0.6015625,-0.0078125,0.80517578125,0.48828125,0.06103515625,0.3662109375,-0.17578125,36.2054443359375,176.341552734375
1760837513.1902754,-0.59521484375,0.00048828125,0.8037109375,0.54931640625,0.3662109375,0.3662109375,-0.1702880859375,36.2109375,176.3470458984375
1760837513.1996036,-0.59521484375,0.00048828125,0.8037109375,0.54931640625,0.3662109375,0.3662109375,-0.1593017578125,36.2164306640625,176.3525390625
1760837513.2062056,-0.59423828125,-0.001953125,0.80859375,0.9765625,0.48828125,0.42724609375,-0.1483154296875,36.221923828125,176.3580322265625
1760837513.212954,-0.59423828125,-0.001953125,0.80859375,0.9765625,0.48828125,0.42724609375,-0.1373291015625,36.23291015625,176.363525390625
1760837513.2292707,-0.5927734375,-0.00146484375,0.81201171875,0.79345703125,0.42724609375,0.30517578125,-0.1263427734375,36.2384033203125,176.3690185546875
1760837513.2360854,-0.5927734375,-0.00146484375,0.81201171875,0.79345703125,0.42724609375,0.30517578125,-0.1153564453125,36.243896484375,176.37451171875
1760837513.2429807,-0.59130859375,0.00439453125,0.80712890625,0.48828125,0.42724609375,0.244140625,-0.10986328125,36.2493896484375,176.3800048828125
1760837513.250189,-0.59130859375,0.00439453125,0.80712890625,0.48828125,0.42724609375,0.244140625,-0.1043701171875,36.2548828125,176.3800048828125
1760837513.2576065,-0.59521484375,0.001953125,0.80517578125,0.18310546875,0.48828125,0.18310546875,-0.098876953125,36.2603759765625,176.385498046875
1760837513.2674146,-0.59521484375,0.001953125,0.80517578125,0.18310546875,0.48828125,0.18310546875,-0.0933837890625,36.265869140625,176.385498046875
1760837513.2824621,-0.5908203125,-0.00390625,0.8125,0.244140625,0.48828125,0.06103515625,-0.0933837890625,36.2713623046875,176.385498046875
1760837513.2905474,-0.5908203125,-0.00390625,0.8125,0.244140625,0.48828125,0.06103515625,-0.087890625,36.27685546875,176.385498046875
1760837513.2981596,-0.5869140625,0.00244140625,0.81201171875,0.54931640625,0.42724609375,0.0,-0.0823974609375,36.2823486328125,176.385498046875
1760837513.3056676,-0.5869140625,0.00244140625,0.81201171875,0.54931640625,0.42724609375,0.0,-0.076904296875,36.2823486328125,176.385498046875
1760837513.3124197,-0.5869140625,-0.00048828125,0.81201171875,0.732421875,0.48828125,-0.06103515625,-0.0714111328125,36.287841796875,176.385498046875
1760837513.3199747,-0.5869140625,-0.00048828125,0.81201171875,0.732421875,0.48828125,-0.06103515625,-0.06591796875,36.2933349609375,176.385498046875
1760837513.3267107,-0.59375,-0.0009765625,0.810546875,0.3662109375,0.67138671875,-0.18310546875,-0.0604248046875,36.298828125,176.3800048828125
1760837513.333314,-0.59375,-0.0009765625,0.810546875,0.3662109375,0.67138671875,-0.18310546875,-0.0604248046875,36.3043212890625,176.3800048828125
1760837513.3398175,-0.5927734375,0.00244140625,0.8076171875,0.3662109375,0.8544921875,-0.30517578125,-0.054931640625,36.3153076171875,176.37451171875
1760837513.3521702,-0.5927734375,0.00244140625,0.8076171875,0.3662109375,0.8544921875,-0.30517578125,-0.054931640625,36.32080078125,176.3690185546875
1760837513.3597307,-0.59619140625,0.0,0.80712890625,0.42724609375,0.9765625,-0.244140625,-0.054931640625,36.331787109375,176.363525390625
1760837513.3667483,-0.59619140625,0.0,0.80712890625,0.42724609375,0.9765625,-0.244140625,-0.0494384765625,36.3372802734375,176.363525390625
1760837513.3730578,-0.59326171875,0.00048828125,0.80712890625,0.0,1.03759765625,-0.1220703125,-0.0494384765625,36.3482666015625,176.3580322265625
1760837513.3806853,-0.59326171875,0.00048828125,0.80712890625,0.0,1.03759765625,-0.1220703125,-0.0494384765625,36.3592529296875,176.3580322265625
1760837513.3905647,-0.59814453125,0.0009765625,0.80859375,0.1220703125,0.9765625,0.0,-0.0494384765625,36.3702392578125,176.3580322265625
1760837513.3976789,-0.59814453125,0.0009765625,0.80859375,0.1220703125,0.9765625,0.0,-0.0494384765625,36.375732421875,176.3525390625
1760837513.4054642,-0.59423828125,-0.0009765625,0.80517578125,-0.06103515625,0.8544921875,0.0,-0.0494384765625,36.38671875,176.3525390625
1760837513.4141462,-0.59423828125,-0.0009765625,0.80517578125,-0.06103515625,0.8544921875,0.0,-0.0494384765625,36.3922119140625,176.3525390625
1760837513.4291565,-0.59765625,-0.00048828125,0.80126953125,0.0,0.79345703125,0.0,-0.0494384765625,36.4031982421875,176.3525390625
1760837513.43569,-0.59765625,-0.00048828125,0.80126953125,0.0,0.79345703125,0.0,-0.0494384765625,36.40869140625,176.3525390625
1760837513.442564,-0.59326171875,-0.0048828125,0.8017578125,0.06103515625,0.8544921875,0.06103515625,-0.0439453125,36.419677734375,176.3525390625
1760837513.4518332,-0.59326171875,-0.0048828125,0.8017578125,0.06103515625,0.8544921875,0.06103515625,-0.0439453125,36.4251708984375,176.3525390625
1760837513.4584024,-0.59375,-0.00146484375,0.8046875,0.06103515625,0.6103515625,0.18310546875,-0.0439453125,36.4306640625,176.3525390625
1760837513.466189,-0.59375,-0.00146484375,0.8046875,0.06103515625,0.6103515625,0.18310546875,-0.0439453125,36.4361572265625,176.3525390625
1760837513.481886,-0.595703125,0.001953125,0.81103515625,-0.06103515625,0.30517578125,0.3662109375,-0.0384521484375,36.441650390625,176.3580322265625
1760837513.4897752,-0.595703125,0.001953125,0.81103515625,-0.06103515625,0.30517578125,0.3662109375,-0.0384521484375,36.441650390625,176.3580322265625
1760837513.4985068,-0.59326171875,0.00439453125,0.806640625,-0.06103515625,0.06103515625,0.42724609375,-0.032958984375,36.4471435546875,176.363525390625
1760837513.505299,-0.59326171875,0.00439453125,0.806640625,-0.06103515625,0.06103515625,0.42724609375,-0.032958984375,36.4471435546875,176.3690185546875
1760837513.519211,-0.59228515625,0.00048828125,0.80517578125,-0.06103515625,0.0,0.244140625,-0.032958984375,36.441650390625,176.3690185546875
1760837513.5261803,-0.59228515625,0.00048828125,0.80517578125,-0.06103515625,0.0,0.244140625,-0.0274658203125,36.441650390625,176.3690185546875
1760837513.5329368,-0.5947265625,0.0,0.80615234375,0.1220703125,0.0,0.244140625,-0.0274658203125,36.441650390625,176.37451171875
1760837513.5393538,-0.5947265625,0.0,0.80615234375,0.1220703125,0.0,0.244140625,-0.02197265625,36.441650390625,176.37451171875
1760837513.5461814,-0.5927734375,-0.00439453125,0.80908203125,0.6103515625,-0.1220703125,0.18310546875,-0.0164794921875,36.441650390625,176.37451171875
1760837513.554113,-0.59423828125,0.00341796875,0.8095703125,0.54931640625,-0.30517578125,0.18310546875,-0.0054931640625,36.441650390625,176.37451171875
1760837513.561086,-0.59423828125,0.00341796875,0.8095703125,0.54931640625,-0.30517578125,0.18310546875,0.0,36.4361572265625,176.37451171875
1760837513.5767646,-0.59765625,0.00634765625,0.80078125,0.67138671875,-0.3662109375,0.18310546875,0.0,36.4306640625,176.37451171875
1760837513.584726,-0.59765625,0.00634765625,0.80078125,0.67138671875,-0.3662109375,0.18310546875,0.010986328125,36.4251708984375,176.3800048828125
1760837513.5919213,-0.59619140625,-0.00048828125,0.80126953125,0.8544921875,-0.244140625,0.06103515625,0.0164794921875,36.4251708984375,176.3800048828125
1760837513.5996213,-0.59619140625,-0.00048828125,0.80126953125,0.8544921875,-0.244140625,0.06103515625,0.0274658203125,36.419677734375,176.3800048828125
1760837513.6061864,-0.59423828125,-0.0029296875,0.8046875,0.9765625,-0.18310546875,0.0,0.0384521484375,36.419677734375,176.3800048828125
1760837513.613717,-0.59423828125,-0.0029296875,0.8046875,0.9765625,-0.18310546875,0.0,0.0494384765625,36.419677734375,176.3800048828125
1760837513.6217172,-0.60009765625,0.00341796875,0.80859375,0.91552734375,-0.244140625,0.1220703125,0.054931640625,36.4141845703125,176.3800048828125
1760837513.6290576,-0.60009765625,0.00341796875,0.80859375,0.91552734375,-0.244140625,0.1220703125,0.06591796875,36.4141845703125,176.3800048828125
1760837513.6359816,-0.60302734375,0.00439453125,0.8037109375,0.244140625,-0.30517578125,0.18310546875,0.0714111328125,36.4141845703125,176.385498046875
1760837513.6439536,-0.60302734375,0.00439453125,0.8037109375,0.244140625,-0.30517578125,0.18310546875,0.076904296875,36.40869140625,176.385498046875
1760837513.6510777,-0.5986328125,0.00341796875,0.794921875,0.6103515625,-0.30517578125,0.3662109375,0.0823974609375,36.40869140625,176.3909912109375
1760837513.6579902,-0.5986328125,0.00341796875,0.794921875,0.6103515625,-0.30517578125,0.3662109375,0.0933837890625,36.40869140625,176.396484375
1760837513.6652267,-0.59814453125,-0.00341796875,0.80126953125,0.54931640625,-0.244140625,0.3662109375,0.1043701171875,36.4031982421875,176.4019775390625
1760837513.6730123,-0.59814453125,-0.00341796875,0.80126953125,0.54931640625,-0.244140625,0.3662109375,0.10986328125,36.4031982421875,176.407470703125
1760837513.6800396,-0.6025390625,-0.00341796875,0.802734375,0.8544921875,-0.3662109375,0.48828125,0.120849609375,36.4031982421875,176.4129638671875
1760837513.6868172,-0.6025390625,-0.00341796875,0.802734375,0.8544921875,-0.3662109375,0.48828125,0.1318359375,36.397705078125,176.41845703125
1760837513.6932592,-0.6005859375,0.0009765625,0.798828125,1.5869140625,-0.54931640625,0.48828125,0.1483154296875,36.397705078125,176.429443359375
1760837513.7005436,-0.6005859375,0.0009765625,0.798828125,1.5869140625,-0.54931640625,0.48828125,0.164794921875,36.3922119140625,176.4349365234375
1760837513.7066553,-0.59716796875,0.0029296875,0.79931640625,1.8310546875,-0.54931640625,0.30517578125,0.186767578125,36.3922119140625,176.4404296875
1760837513.7136216,-0.59716796875,0.0029296875,0.79931640625,1.8310546875,-0.54931640625,0.30517578125,0.2032470703125,36.38671875,176.4404296875
1760837513.7242713,-0.5966796875,0.0078125,0.80126953125,1.5869140625,-0.54931640625,0.30517578125,0.2197265625,36.3812255859375,176.4459228515625
1760837513.7318316,-0.5966796875,0.0078125,0.80126953125,1.5869140625,-0.54931640625,0.30517578125,0.24169921875,36.3812255859375,176.451416015625
1760837513.7401464,-0.6015625,0.01123046875,0.8076171875,0.54931640625,-0.6103515625,0.48828125,0.252685546875,36.375732421875,176.4569091796875
1760837513.747237,-0.6015625,0.01123046875,0.8076171875,0.54931640625,-0.6103515625,0.48828125,0.263671875,36.3702392578125,176.46240234375
1760837513.7539434,-0.6005859375,0.0078125,0.80322265625,-0.06103515625,-0.54931640625,0.54931640625,0.2691650390625,36.3702392578125,176.4678955078125
1760837513.7621515,-0.6005859375,0.0078125,0.80322265625,-0.06103515625,-0.54931640625,0.54931640625,0.2691650390625,36.36474609375,176.473388671875
1760837513.7712436,-0.59912109375,0.00439453125,0.80224609375,0.18310546875,-0.54931640625,0.48828125,0.274658203125,36.36474609375,176.484375
1760837513.78021,-0.59912109375,0.00439453125,0.80224609375,0.18310546875,-0.54931640625,0.48828125,0.2801513671875,36.3592529296875,176.4898681640625
1760837513.7881687,-0.6025390625,0.00634765625,0.80322265625,0.3662109375,-0.30517578125,0.3662109375,0.28564453125,36.3592529296875,176.495361328125
1760837513.7960098,-0.6025390625,0.00634765625,0.80322265625,0.3662109375,-0.30517578125,0.3662109375,0.296630859375,36.353759765625,176.5008544921875
1760837513.8037114,-0.599609375,0.0068359375,0.80322265625,0.30517578125,-0.06103515625,0.3662109375,0.3021240234375,36.3592529296875,176.50634765625
1760837513.8104098,-0.599609375,0.0068359375,0.80322265625,0.30517578125,-0.06103515625,0.3662109375,0.3076171875,36.3592529296875,176.5118408203125
1760837513.8181906,-0.603515625,-0.00244140625,0.798828125,0.67138671875,0.1220703125,0.3662109375,0.3131103515625,36.3592529296875,176.517333984375
1760837513.8255904,-0.603515625,-0.00244140625,0.798828125,0.67138671875,0.1220703125,0.3662109375,0.3240966796875,36.36474609375,176.5228271484375
1760837513.8336852,-0.599609375,0.00830078125,0.80322265625,0.6103515625,0.18310546875,0.30517578125,0.3350830078125,36.3702392578125,176.5283203125
1760837513.8439765,-0.599609375,0.00830078125,0.80322265625,0.6103515625,0.18310546875,0.30517578125,0.340576171875,36.375732421875,176.5338134765625
1760837513.8544633,-0.603515625,0.013671875,0.802734375,0.1220703125,0.48828125,0.3662109375,0.3460693359375,36.3812255859375,176.5447998046875
1760837513.8646746,-0.603515625,0.013671875,0.802734375,0.1220703125,0.48828125,0.3662109375,0.3515625,36.38671875,176.55029296875
1760837513.8740838,-0.60205078125,0.0087890625,0.80322265625,-0.3662109375,0.732421875,0.3662109375,0.3515625,36.397705078125,176.5557861328125
1760837513.8865814,-0.60205078125,0.0087890625,0.80322265625,-0.3662109375,0.732421875,0.3662109375,0.3515625,36.4031982421875,176.5667724609375
1760837513.893918,-0.60546875,0.00341796875,0.8017578125,0.48828125,0.91552734375,0.244140625,0.3570556640625,36.4141845703125,176.572265625
1760837513.9080029,-0.60546875,0.00341796875,0.8017578125,0.48828125,0.91552734375,0.244140625,0.362548828125,36.4306640625,176.5777587890625
1760837513.9162033,-0.61376953125,0.0029296875,0.798828125,1.40380859375,1.15966796875,-0.06103515625,0.37353515625,36.441650390625,176.583251953125
1760837513.9252956,-0.61376953125,0.0029296875,0.798828125,1.40380859375,1.15966796875,-0.06103515625,0.3900146484375,36.4581298828125,176.583251953125
1760837513.9339893,-0.619140625,0.00927734375,0.7890625,1.5869140625,1.5869140625,-0.244140625,0.4010009765625,36.474609375,176.583251953125
1760837513.944151,-0.619140625,0.00927734375,0.7890625,1.5869140625,1.5869140625,-0.244140625,0.41748046875,36.4910888671875,176.583251953125
1760837513.9545262,-0.61083984375,0.0107421875,0.78564453125,1.28173828125,2.0751953125,-0.30517578125,0.428466796875,36.5130615234375,176.5887451171875
1760837513.9638448,-0.61083984375,0.0107421875,0.78564453125,1.28173828125,2.0751953125,-0.30517578125,0.439453125,36.54052734375,176.5887451171875
1760837513.976966,-0.59765625,0.00146484375,0.8037109375,0.67138671875,2.25830078125,-0.3662109375,0.4449462890625,36.5679931640625,176.5887451171875
1760837513.983942,-0.59765625,0.00146484375,0.8037109375,0.67138671875,2.25830078125,-0.3662109375,0.450439453125,36.595458984375,176.5887451171875
1760837513.9938838,-0.59765625,0.00634765625,0.80810546875,0.54931640625,2.01416015625,-0.3662109375,0.4559326171875,36.617431640625,176.5887451171875
1760837514.0048418,-0.59765625,0.00634765625,0.80810546875,0.54931640625,2.01416015625,-0.3662109375,0.4559326171875,36.639404296875,176.5887451171875
1760837514.0142024,-0.60009765625,0.0107421875,0.80126953125,0.732421875,1.8310546875,-0.3662109375,0.46142578125,36.661376953125,176.583251953125
1760837514.0246365,-0.60009765625,0.0107421875,0.80126953125,0.732421875,1.8310546875,-0.3662109375,0.4669189453125,36.683349609375,176.583251953125
1760837514.0343509,-0.60205078125,0.01220703125,0.79833984375,0.79345703125,1.5869140625,-0.42724609375,0.472412109375,36.6998291015625,176.5777587890625
1760837514.0451586,-0.60205078125,0.01220703125,0.79833984375,0.79345703125,1.5869140625,-0.42724609375,0.4779052734375,36.7218017578125,176.572265625
1760837514.0562518,-0.599609375,0.009765625,0.7998046875,0.18310546875,1.40380859375,-0.67138671875,0.4779052734375,36.73828125,176.5667724609375
1760837514.0643685,-0.599609375,0.009765625,0.7998046875,0.18310546875,1.40380859375,-0.67138671875,0.472412109375,36.7547607421875,176.561279296875
1760837514.0749576,-0.5986328125,0.009765625,0.80078125,0.1220703125,1.0986328125,-0.91552734375,0.472412109375,36.7657470703125,176.5557861328125
1760837514.0860038,-0.5986328125,0.009765625,0.80078125,0.1220703125,1.0986328125,-0.91552734375,0.4669189453125,36.7767333984375,176.5447998046875
1760837514.095216,-0.60107421875,0.0087890625,0.80517578125,0.1220703125,0.67138671875,-0.9765625,0.46142578125,36.7877197265625,176.5338134765625
1760837514.1063948,-0.60107421875,0.0087890625,0.80517578125,0.1220703125,0.67138671875,-0.9765625,0.4559326171875,36.7987060546875,176.5228271484375
1760837514.1177382,-0.60400390625,0.01318359375,0.8017578125,-0.06103515625,0.244140625,-0.91552734375,0.450439453125,36.7987060546875,176.5118408203125
1760837514.125193,-0.60400390625,0.01318359375,0.8017578125,-0.06103515625,0.244140625,-0.91552734375,0.4449462890625,36.80419921875,176.5008544921875
1760837514.1352904,-0.5986328125,0.00341796875,0.79345703125,-0.48828125,-0.06103515625,-0.79345703125,0.439453125,36.80419921875,176.4898681640625
1760837514.1447015,-0.5986328125,0.00341796875,0.79345703125,-0.48828125,-0.06103515625,-0.79345703125,0.428466796875,36.80419921875,176.484375
1760837514.1568215,-0.5986328125,0.00341796875,0.79345703125,-0.06103515625,-0.6103515625,-0.79345703125,0.41748046875,36.80419921875,176.473388671875
1760837514.1677647,-0.60107421875,0.00732421875,0.7998046875,-0.06103515625,-0.6103515625,-0.79345703125,0.4119873046875,36.7987060546875,176.46240234375
1760837514.1768494,-0.607421875,0.00341796875,0.79833984375,0.54931640625,-0.9765625,-0.91552734375,0.4119873046875,36.793212890625,176.451416015625
1760837514.186029,-0.607421875,0.00341796875,0.79833984375,0.54931640625,-0.9765625,-0.91552734375,0.4119873046875,36.7822265625,176.4404296875
1760837514.195522,-0.6103515625,0.00244140625,0.79345703125,0.91552734375,-0.9765625,-0.9765625,0.4119873046875,36.7767333984375,176.429443359375
1760837514.207107,-0.6103515625,0.00244140625,0.79345703125,0.91552734375,-0.9765625,-0.9765625,0.4119873046875,36.7657470703125,176.41845703125
1760837514.2164397,-0.6025390625,0.0087890625,0.79833984375,0.79345703125,-0.9765625,-0.9765625,0.41748046875,36.76025390625,176.4019775390625
1760837514.22431,-0.6025390625,0.0087890625,0.79833984375,0.79345703125,-0.9765625,-0.9765625,0.41748046875,36.749267578125,176.3909912109375
1760837514.2351923,-0.59765625,0.00732421875,0.8056640625,0.3662109375,-0.91552734375,-0.79345703125,0.41748046875,36.7437744140625,176.3800048828125
1760837514.2448404,-0.59765625,0.00732421875,0.8056640625,0.3662109375,-0.91552734375,-0.79345703125,0.4119873046875,36.73828125,176.37451171875
1760837514.2602382,-0.59814453125,0.00634765625,0.8046875,0.0,-0.91552734375,-0.732421875,0.4119873046875,36.727294921875,176.363525390625
1760837514.2683804,-0.59814453125,0.00634765625,0.8046875,0.0,-0.91552734375,-0.732421875,0.406494140625,36.7218017578125,176.3525390625
1760837514.278055,-0.60546875,0.00341796875,0.8017578125,0.06103515625,-0.79345703125,-0.54931640625,0.4010009765625,36.71630859375,176.3470458984375
1760837514.2846327,-0.60546875,0.00341796875,0.8017578125,0.06103515625,-0.79345703125,-0.54931640625,0.3955078125,36.7108154296875,176.341552734375
1760837514.2943184,-0.60498046875,0.0009765625,0.79931640625,0.30517578125,-0.54931640625,-0.48828125,0.3955078125,36.705322265625,176.3360595703125
1760837514.3050454,-0.60498046875,0.0009765625,0.79931640625,0.30517578125,-0.54931640625,-0.48828125,0.3955078125,36.6998291015625,176.3250732421875
1760837514.318709,-0.60107421875,0.00927734375,0.802734375,0.48828125,-0.42724609375,-0.244140625,0.3955078125,36.6943359375,176.319580078125
1760837514.328079,-0.60107421875,0.00927734375,0.802734375,0.48828125,-0.42724609375,-0.244140625,0.4010009765625,36.6943359375,176.319580078125
1760837514.339756,-0.59326171875,0.0048828125,0.8076171875,-0.1220703125,-0.42724609375,0.0,0.4010009765625,36.6888427734375,176.319580078125
1760837514.3475945,-0.59326171875,0.0048828125,0.8076171875,-0.1220703125,-0.42724609375,0.0,0.4010009765625,36.6888427734375,176.319580078125
1760837514.3570557,-0.6044921875,0.0078125,0.80029296875,-0.79345703125,-0.30517578125,0.1220703125,0.3955078125,36.683349609375,176.319580078125
1760837514.3677506,-0.6044921875,0.0078125,0.80029296875,-0.79345703125,-0.30517578125,0.1220703125,0.3900146484375,36.683349609375,176.319580078125
1760837514.375093,-0.60693359375,0.0068359375,0.80126953125,-0.244140625,0.0,0.18310546875,0.384521484375,36.683349609375,176.3250732421875
1760837514.3844848,-0.60693359375,0.0068359375,0.80126953125,-0.244140625,0.0,0.18310546875,0.384521484375,36.683349609375,176.3250732421875
1760837514.3962588,-0.60693359375,0.0068359375,0.80126953125,0.0,0.1220703125,0.18310546875,0.384521484375,36.683349609375,176.33056640625
1760837514.408188,-0.6025390625,0.00537109375,0.80322265625,0.0,0.1220703125,0.18310546875,0.384521484375,36.6888427734375,176.33056640625
1760837514.4166548,-0.59423828125,0.00732421875,0.802734375,-0.244140625,0.1220703125,0.3662109375,0.3900146484375,36.6888427734375,176.3360595703125
1760837514.4256177,-0.59423828125,0.00732421875,0.802734375,-0.244140625,0.1220703125,0.3662109375,0.3900146484375,36.6943359375,176.3360595703125
1760837514.4434643,-0.59619140625,0.0048828125,0.80419921875,-0.30517578125,0.06103515625,0.42724609375,0.3900146484375,36.6943359375,176.341552734375
1760837514.4532924,-0.59619140625,0.0048828125,0.80419921875,-0.30517578125,0.06103515625,0.42724609375,0.3900146484375,36.6943359375,176.341552734375
1760837514.4656405,-0.599609375,0.005859375,0.8056640625,-0.3662109375,-0.06103515625,0.42724609375,0.3900146484375,36.6943359375,176.3470458984375
1760837514.476002,-0.599609375,0.005859375,0.8056640625,-0.3662109375,-0.06103515625,0.42724609375,0.3900146484375,36.6943359375,176.3470458984375
1760837514.4846482,-0.60205078125,0.00830078125,0.802734375,0.06103515625,-0.1220703125,0.30517578125,0.3900146484375,36.6943359375,176.3470458984375
1760837514.493264,-0.60205078125,0.00830078125,0.802734375,0.06103515625,-0.1220703125,0.30517578125,0.3955078125,36.6943359375,176.3525390625
1760837514.5006344,-0.59521484375,0.00537109375,0.8017578125,0.30517578125,-0.18310546875,0.18310546875,0.3955078125,36.6943359375,176.3525390625
1760837514.508752,-0.59521484375,0.00537109375,0.8017578125,0.30517578125,-0.18310546875,0.18310546875,0.4010009765625,36.6943359375,176.3470458984375
1760837514.5180783,-0.5947265625,0.00927734375,0.8046875,-0.42724609375,-0.1220703125,0.244140625,0.4010009765625,36.6888427734375,176.3470458984375
1760837514.5275676,-0.5947265625,0.00927734375,0.8046875,-0.42724609375,-0.1220703125,0.244140625,0.4010009765625,36.6888427734375,176.3470458984375
1760837514.5365796,-0.59912109375,0.00634765625,0.80908203125,-0.3662109375,-0.244140625,0.244140625,0.3955078125,36.6888427734375,176.3470458984375
1760837514.5451448,-0.59912109375,0.00634765625,0.80908203125,-0.3662109375,-0.244140625,0.244140625,0.3955078125,36.683349609375,176.3470458984375
1760837514.554711,-0.60009765625,0.0048828125,0.80029296875,-0.48828125,-0.3662109375,0.30517578125,0.3955078125,36.683349609375,176.3470458984375
1760837514.5736792,-0.60009765625,0.0048828125,0.80029296875,-0.48828125,-0.3662109375,0.30517578125,0.3900146484375,36.6778564453125,176.3470458984375
1760837514.5839834,-0.59912109375,0.00830078125,0.79833984375,-0.8544921875,-0.30517578125,0.42724609375,0.384521484375,36.67236328125,176.3525390625
1760837514.5925004,-0.59912109375,0.00830078125,0.79833984375,-0.8544921875,-0.30517578125,0.42724609375,0.3790283203125,36.67236328125,176.3580322265625
1760837514.6046028,-0.595703125,0.00244140625,0.80029296875,-1.15966796875,-0.42724609375,0.6103515625,0.37353515625,36.6668701171875,176.363525390625
1760837514.615541,-0.595703125,0.00244140625,0.80029296875,-1.15966796875,-0.42724609375,0.6103515625,0.3680419921875,36.661376953125,176.3690185546875
1760837514.6236365,-0.59130859375,0.00146484375,0.80712890625,-0.6103515625,-0.67138671875,0.67138671875,0.3680419921875,36.6558837890625,176.37451171875
1760837514.6340187,-0.59130859375,0.00146484375,0.80712890625,-0.6103515625,-0.67138671875,0.67138671875,0.3680419921875,36.650390625,176.3800048828125
1760837514.6439068,-0.59619140625,0.0048828125,0.81005859375,0.1220703125,-0.91552734375,0.6103515625,0.37353515625,36.639404296875,176.385498046875
1760837514.6533282,-0.59619140625,0.0048828125,0.81005859375,0.1220703125,-0.91552734375,0.6103515625,0.3790283203125,36.6339111328125,176.3909912109375
1760837514.6624587,-0.6025390625,0.00830078125,0.80322265625,0.30517578125,-0.8544921875,0.42724609375,0.384521484375,36.6229248046875,176.3909912109375
1760837514.6714528,-0.6025390625,0.00830078125,0.80322265625,0.30517578125,-0.8544921875,0.42724609375,0.3900146484375,36.6119384765625,176.396484375
1760837514.6800337,-0.5966796875,0.00830078125,0.80078125,0.0,-0.67138671875,0.18310546875,0.3900146484375,36.6064453125,176.396484375
1760837514.6874352,-0.5966796875,0.00830078125,0.80078125,0.0,-0.67138671875,0.18310546875,0.3900146484375,36.6009521484375,176.396484375
1760837514.6953666,-0.6015625,0.013671875,0.80517578125,0.0,-0.6103515625,0.1220703125,0.3955078125,36.595458984375,176.4019775390625
1760837514.707288,-0.6015625,0.013671875,0.80517578125,0.0,-0.6103515625,0.1220703125,0.3955078125,36.5899658203125,176.4019775390625
1760837514.7223709,-0.603515625,0.0068359375,0.80224609375,0.0,-0.79345703125,0.06103515625,0.3955078125,36.58447265625,176.4019775390625
1760837514.7338445,-0.603515625,0.0068359375,0.80224609375,0.0,-0.79345703125,0.06103515625,0.3955078125,36.573486328125,176.4019775390625
1760837514.7420583,-0.6015625,0.00537109375,0.79638671875,-0.06103515625,-0.9765625,0.0,0.3955078125,36.5679931640625,176.4019775390625
1760837514.7497933,-0.6015625,0.00537109375,0.79638671875,-0.06103515625,-0.9765625,0.0,0.3955078125,36.5570068359375,176.4019775390625
1760837514.7583218,-0.603515625,0.005859375,0.79931640625,0.06103515625,-1.03759765625,-0.06103515625,0.4010009765625,36.551513671875,176.4019775390625
1760837514.7678685,-0.603515625,0.005859375,0.79931640625,0.06103515625,-1.03759765625,-0.06103515625,0.4010009765625,36.54052734375,176.4019775390625
1760837514.7763817,-0.60986328125,0.00830078125,0.80029296875,0.06103515625,-1.03759765625,-0.18310546875,0.4010009765625,36.529541015625,176.4019775390625
1760837514.7848818,-0.60986328125,0.00830078125,0.80029296875,0.06103515625,-1.03759765625,-0.18310546875,0.4010009765625,36.5240478515625,176.4019775390625
1760837514.7972603,-0.609375,0.0087890625,0.79345703125,0.18310546875,-0.9765625,-0.244140625,0.4010009765625,36.5185546875,176.396484375
1760837514.81448,-0.609375,0.0087890625,0.79345703125,0.18310546875,-0.9765625,-0.244140625,0.4010009765625,36.507568359375,176.396484375
1760837514.8219173,-0.6083984375,0.005859375,0.79443359375,0.1220703125,-0.732421875,-0.30517578125,0.4010009765625,36.507568359375,176.396484375
1760837514.8294072,-0.6083984375,0.005859375,0.79443359375,0.1220703125,-0.732421875,-0.30517578125,0.4010009765625,36.5020751953125,176.396484375
1760837514.8401763,-0.603515625,0.0009765625,0.80078125,0.30517578125,-0.732421875,-0.30517578125,0.4010009765625,36.49658203125,176.3909912109375
1760837514.850282,-0.603515625,0.0009765625,0.80078125,0.30517578125,-0.732421875,-0.30517578125,0.4010009765625,36.49658203125,176.3909912109375
1760837514.8650472,-0.59619140625,0.00146484375,0.80419921875,0.42724609375,-0.8544921875,-0.244140625,0.406494140625,36.4910888671875,176.3909912109375
1760837514.8714986,-0.59619140625,0.00146484375,0.80419921875,0.42724609375,-0.8544921875,-0.244140625,0.406494140625,36.485595703125,176.3909912109375
1760837514.8987176,-0.59423828125,0.0078125,0.80810546875,0.9765625,-0.91552734375,-0.06103515625,0.41748046875,36.4801025390625,176.3909912109375
1760837514.9060187,-0.59423828125,0.0078125,0.80810546875,0.9765625,-0.91552734375,-0.06103515625,0.4229736328125,36.4691162109375,176.396484375
1760837514.9161415,-0.59521484375,0.00537109375,0.80859375,0.91552734375,-0.79345703125,0.0,0.4339599609375,36.463623046875,176.396484375
1760837514.9320557,-0.59521484375,0.00537109375,0.80859375,0.91552734375,-0.79345703125,0.0,0.4449462890625,36.4581298828125,176.396484375
1760837514.9403582,-0.591796875,0.0078125,0.81005859375,0.6103515625,-0.6103515625,0.1220703125,0.450439453125,36.45263671875,176.4019775390625
1760837514.9607003,-0.591796875,0.0078125,0.81005859375,0.6103515625,-0.6103515625,0.1220703125,0.4559326171875,36.45263671875,176.4019775390625
1760837514.9759684,-0.5927734375,0.0107421875,0.806640625,-0.48828125,-0.3662109375,0.244140625,0.450439453125,36.4471435546875,176.407470703125
1760837514.9822867,-0.5927734375,0.0107421875,0.806640625,-0.48828125,-0.3662109375,0.244140625,0.450439453125,36.4471435546875,176.407470703125
1760837514.9969382,-0.59423828125,0.00927734375,0.80908203125,-0.79345703125,-0.244140625,0.244140625,0.4449462890625,36.441650390625,176.4129638671875
1760837515.0076296,-0.59423828125,0.00927734375,0.80908203125,-0.79345703125,-0.244140625,0.244140625,0.439453125,36.441650390625,176.41845703125
1760837515.0284371,-0.59521484375,0.00341796875,0.8115234375,-0.06103515625,-0.18310546875,0.30517578125,0.439453125,36.441650390625,176.41845703125
1760837515.0401795,-0.59521484375,0.00341796875,0.8115234375,-0.06103515625,-0.18310546875,0.30517578125,0.439453125,36.4361572265625,176.4239501953125
1760837515.0601609,-0.59130859375,0.0078125,0.80712890625,0.06103515625,-0.18310546875,0.3662109375,0.4449462890625,36.4361572265625,176.429443359375
1760837515.0688605,-0.59130859375,0.0078125,0.80712890625,0.06103515625,-0.18310546875,0.3662109375,0.450439453125,36.4361572265625,176.429443359375
1760837515.0765135,-0.59716796875,0.00732421875,0.80615234375,0.0,0.0,0.30517578125,0.450439453125,36.4361572265625,176.4349365234375
1760837515.0933115,-0.59716796875,0.00732421875,0.80615234375,0.0,0.0,0.30517578125,0.4559326171875,36.4361572265625,176.4404296875
1760837515.1025364,-0.59912109375,0.00390625,0.80029296875,0.0,0.18310546875,0.30517578125,0.4559326171875,36.4361572265625,176.4459228515625
1760837515.1100378,-0.59912109375,0.00390625,0.80029296875,0.0,0.18310546875,0.30517578125,0.4559326171875,36.441650390625,176.4459228515625
1760837515.1180115,-0.59765625,0.00537109375,0.80517578125,0.18310546875,0.30517578125,0.30517578125,0.46142578125,36.441650390625,176.451416015625
1760837515.1342943,-0.59765625,0.00537109375,0.80517578125,0.18310546875,0.30517578125,0.30517578125,0.4669189453125,36.4471435546875,176.4569091796875
1760837515.1423285,-0.59521484375,0.00927734375,0.81201171875,-0.244140625,0.18310546875,0.42724609375,0.4669189453125,36.4471435546875,176.46240234375
1760837515.1508136,-0.59521484375,0.00927734375,0.81201171875,-0.244140625,0.18310546875,0.42724609375,0.4669189453125,36.45263671875,176.46240234375
1760837515.1662529,-0.59423828125,0.01123046875,0.80712890625,-0.3662109375,0.06103515625,0.6103515625,0.4669189453125,36.45263671875,176.4678955078125
1760837515.1878285,-0.59423828125,0.01123046875,0.80712890625,-0.3662109375,0.06103515625,0.6103515625,0.472412109375,36.45263671875,176.4788818359375
1760837515.195653,-0.59375,0.00927734375,0.8037109375,-0.732421875,0.0,0.67138671875,0.4669189453125,36.45263671875,176.484375
1760837515.2170842,-0.59375,0.00927734375,0.8037109375,-0.732421875,0.0,0.67138671875,0.4669189453125,36.45263671875,176.4898681640625
1760837515.2532468,-0.59912109375,0.0107421875,0.80224609375,-1.220703125,0.0,0.54931640625,0.46142578125,36.45263671875,176.495361328125
1760837515.263311,-0.59912109375,0.0107421875,0.80224609375,-1.220703125,0.0,0.54931640625,0.450439453125,36.45263671875,176.5008544921875
1760837515.2835114,-0.59912109375,0.0107421875,0.80224609375,-1.220703125,0.0,0.42724609375,0.4449462890625,36.45263671875,176.50634765625
1760837515.29137,-0.60009765625,0.005859375,0.79833984375,-1.220703125,0.0,0.42724609375,0.4339599609375,36.45263671875,176.5118408203125
1760837515.3008673,-0.59814453125,0.005859375,0.80419921875,-0.8544921875,0.0,0.3662109375,0.428466796875,36.45263671875,176.517333984375
1760837515.3095798,-0.59814453125,0.005859375,0.80419921875,-0.8544921875,0.0,0.3662109375,0.4229736328125,36.45263671875,176.5228271484375
1760837515.330729,-0.59765625,0.00341796875,0.8056640625,-0.30517578125,-0.18310546875,0.30517578125,0.4229736328125,36.45263671875,176.5283203125
1760837515.3398342,-0.59765625,0.00341796875,0.8056640625,-0.30517578125,-0.18310546875,0.30517578125,0.4229736328125,36.45263671875,176.5338134765625
1760837515.3584979,-0.5986328125,0.00537109375,0.802734375,-0.1220703125,-0.18310546875,0.30517578125,0.4229736328125,36.45263671875,176.539306640625
1760837515.3654628,-0.5986328125,0.00537109375,0.802734375,-0.1220703125,-0.18310546875,0.30517578125,0.428466796875,36.45263671875,176.5447998046875
1760837515.3731656,-0.59716796875,0.00732421875,0.79833984375,-0.1220703125,-0.244140625,0.30517578125,0.428466796875,36.4471435546875,176.55029296875
1760837515.3811774,-0.59716796875,0.00732421875,0.79833984375,-0.1220703125,-0.244140625,0.30517578125,0.428466796875,36.4471435546875,176.55029296875
1760837515.3879275,-0.60107421875,0.0087890625,0.80029296875,0.06103515625,-0.42724609375,0.3662109375,0.4339599609375,36.4471435546875,176.5557861328125
1760837515.3946166,-0.60107421875,0.0087890625,0.80029296875,0.06103515625,-0.42724609375,0.3662109375,0.4339599609375,36.441650390625,176.5667724609375
1760837515.4021206,-0.6015625,0.005859375,0.80615234375,0.244140625,-0.6103515625,0.3662109375,0.439453125,36.4361572265625,176.572265625
1760837515.4100606,-0.6015625,0.005859375,0.80615234375,0.244140625,-0.6103515625,0.3662109375,0.4449462890625,36.4306640625,176.5777587890625
1760837515.4177234,-0.5966796875,0.01025390625,0.80419921875,0.244140625,-0.6103515625,0.244140625,0.450439453125,36.4306640625,176.5777587890625
1760837515.425267,-0.5966796875,0.01025390625,0.80419921875,0.244140625,-0.6103515625,0.244140625,0.4559326171875,36.4251708984375,176.583251953125
1760837515.4332416,-0.59619140625,0.009765625,0.80712890625,0.0,-0.54931640625,0.06103515625,0.4559326171875,36.419677734375,176.5887451171875
1760837515.4433563,-0.59619140625,0.009765625,0.80712890625,0.0,-0.54931640625,0.06103515625,0.4559326171875,36.4141845703125,176.5887451171875
1760837515.450632,-0.59814453125,0.0107421875,0.8056640625,-0.18310546875,-0.42724609375,0.0,0.4559326171875,36.4141845703125,176.59423828125
1760837515.4592254,-0.59814453125,0.0107421875,0.8056640625,-0.18310546875,-0.42724609375,0.0,0.4559326171875,36.40869140625,176.59423828125
1760837515.4679954,-0.59130859375,0.0068359375,0.80322265625,-0.3662109375,-0.3662109375,-0.06103515625,0.450439453125,36.40869140625,176.59423828125
1760837515.4782932,-0.59130859375,0.0068359375,0.80322265625,-0.3662109375,-0.3662109375,-0.06103515625,0.450439453125,36.4031982421875,176.59423828125
1760837515.48528,-0.5947265625,0.00390625,0.806640625,-0.06103515625,-0.3662109375,-0.06103515625,0.450439453125,36.4031982421875,176.5997314453125
1760837515.495509,-0.5947265625,0.00390625,0.806640625,-0.06103515625,-0.3662109375,-0.06103515625,0.450439453125,36.397705078125,176.5997314453125
1760837515.5028985,-0.5947265625,0.00390625,0.806640625,-0.3662109375,-0.48828125,0.0,0.4449462890625,36.397705078125,176.5997314453125
1760837515.5100443,-0.5908203125,0.005859375,0.810546875,-0.3662109375,-0.48828125,0.0,0.439453125,36.3922119140625,176.605224609375
1760837515.5179198,-0.59375,0.009765625,0.80908203125,-0.18310546875,-0.42724609375,0.0,0.439453125,36.38671875,176.605224609375
1760837515.5245163,-0.59375,0.009765625,0.80908203125,-0.18310546875,-0.42724609375,0.0,0.439453125,36.3812255859375,176.6107177734375
1760837515.5437768,-0.59765625,0.00732421875,0.80712890625,-0.48828125,-0.48828125,0.0,0.4339599609375,36.375732421875,176.6107177734375
1760837515.5641162,-0.59765625,0.00732421875,0.80712890625,-0.48828125,-0.48828125,0.0,0.428466796875,36.375732421875,176.6107177734375
1760837515.5827272,-0.59765625,0.005859375,0.80078125,-0.42724609375,-0.48828125,0.06103515625,0.428466796875,36.3702392578125,176.6162109375
1760837515.5960188,-0.59765625,0.005859375,0.80078125,-0.42724609375,-0.48828125,0.06103515625,0.4229736328125,36.36474609375,176.6162109375
1760837515.6053278,-0.60009765625,0.00439453125,0.8017578125,-0.18310546875,-0.48828125,0.1220703125,0.4229736328125,36.3592529296875,176.6217041015625
1760837515.6154478,-0.60009765625,0.00341796875,0.80419921875,-0.1220703125,-0.3662109375,0.18310546875,0.4229736328125,36.3592529296875,176.6217041015625
1760837515.6226294,-0.60009765625,0.00341796875,0.80419921875,-0.1220703125,-0.3662109375,0.18310546875,0.4229736328125,36.353759765625,176.627197265625
1760837515.6294954,-0.5947265625,0.00244140625,0.8037109375,0.18310546875,-0.3662109375,0.18310546875,0.4229736328125,36.353759765625,176.6326904296875
1760837515.6363597,-0.5947265625,0.00244140625,0.8037109375,0.18310546875,-0.3662109375,0.18310546875,0.428466796875,36.3482666015625,176.6326904296875
1760837515.644435,-0.59716796875,0.00732421875,0.80517578125,0.6103515625,-0.3662109375,0.0,0.4339599609375,36.3482666015625,176.63818359375
1760837515.6555061,-0.59716796875,0.00732421875,0.80517578125,0.6103515625,-0.3662109375,0.0,0.439453125,36.3482666015625,176.63818359375
1760837515.6634877,-0.59814453125,0.00927734375,0.80517578125,0.8544921875,-0.42724609375,0.0,0.4449462890625,36.3427734375,176.63818359375
1760837515.673731,-0.59814453125,0.00927734375,0.80517578125,0.8544921875,-0.42724609375,0.0,0.4559326171875,36.3427734375,176.63818359375
1760837515.681508,-0.599609375,0.0107421875,0.8037109375,0.48828125,-0.42724609375,0.0,0.46142578125,36.3372802734375,176.63818359375
1760837515.6922975,-0.599609375,0.0107421875,0.8037109375,0.48828125,-0.42724609375,0.0,0.4669189453125,36.3372802734375,176.6436767578125
1760837515.7007227,-0.59814453125,0.01025390625,0.8037109375,0.0,-0.3662109375,0.06103515625,0.4669189453125,36.331787109375,176.6436767578125
1760837515.7128687,-0.59814453125,0.01025390625,0.8037109375,0.0,-0.3662109375,0.06103515625,0.4669189453125,36.331787109375,176.649169921875
1760837515.7221153,-0.59326171875,0.00439453125,0.80859375,0.1220703125,-0.3662109375,0.18310546875,0.472412109375,36.3262939453125,176.649169921875
1760837515.729949,-0.59326171875,0.00439453125,0.80859375,0.1220703125,-0.3662109375,0.18310546875,0.472412109375,36.3262939453125,176.6546630859375
1760837515.7416668,-0.5869140625,0.001953125,0.8095703125,0.30517578125,-0.30517578125,0.06103515625,0.4779052734375,36.3262939453125,176.6546630859375
1760837515.7496185,-0.5869140625,0.001953125,0.8095703125,0.30517578125,-0.30517578125,0.06103515625,0.4833984375,36.32080078125,176.66015625
1760837515.7565136,-0.5888671875,0.00634765625,0.81005859375,0.48828125,-0.244140625,0.06103515625,0.4833984375,36.32080078125,176.66015625
1760837515.7643719,-0.5888671875,0.00634765625,0.81005859375,0.48828125,-0.244140625,0.06103515625,0.4888916015625,36.3153076171875,176.66015625
1760837515.7722788,-0.5947265625,0.0107421875,0.806640625,0.18310546875,-0.18310546875,0.1220703125,0.494384765625,36.3153076171875,176.66015625
1760837515.7805831,-0.5947265625,0.0107421875,0.806640625,0.18310546875,-0.18310546875,0.1220703125,0.494384765625,36.3153076171875,176.6656494140625
1760837515.788817,-0.59716796875,0.00927734375,0.80712890625,0.0,-0.18310546875,0.244140625,0.4998779296875,36.3153076171875,176.6656494140625
1760837515.798586,-0.59716796875,0.00927734375,0.80712890625,0.0,-0.18310546875,0.244140625,0.4998779296875,36.309814453125,176.671142578125
1760837515.806624,-0.59326171875,0.0087890625,0.8095703125,-0.18310546875,-0.3662109375,0.3662109375,0.4998779296875,36.309814453125,176.6766357421875
1760837515.8150249,-0.59326171875,0.0087890625,0.8095703125,-0.18310546875,-0.3662109375,0.3662109375,0.50537109375,36.3043212890625,176.68212890625
1760837515.8252068,-0.59033203125,0.00830078125,0.8095703125,-0.3662109375,-0.54931640625,0.42724609375,0.50537109375,36.298828125,176.6876220703125
1760837515.8343897,-0.59033203125,0.00830078125,0.8095703125,-0.3662109375,-0.54931640625,0.42724609375,0.50537109375,36.2933349609375,176.6876220703125
1760837515.8433592,-0.5908203125,0.00830078125,0.80078125,0.1220703125,-0.6103515625,0.30517578125,0.50537109375,36.287841796875,176.693115234375
1760837515.8525736,-0.5908203125,0.00830078125,0.80078125,0.1220703125,-0.6103515625,0.30517578125,0.5108642578125,36.2823486328125,176.6986083984375
1760837515.8609698,-0.59619140625,0.00341796875,0.80615234375,0.1220703125,-0.48828125,0.0,0.5108642578125,36.27685546875,176.6986083984375
1760837515.8717325,-0.59619140625,0.00341796875,0.80615234375,0.1220703125,-0.48828125,0.0,0.5108642578125,36.27685546875,176.6986083984375
1760837515.880665,-0.599609375,0.01025390625,0.80712890625,0.0,-0.48828125,-0.06103515625,0.5108642578125,36.2713623046875,176.6986083984375
1760837515.893575,-0.599609375,0.01025390625,0.80712890625,0.0,-0.48828125,-0.06103515625,0.5108642578125,36.265869140625,176.6986083984375
1760837515.9085183,-0.59521484375,0.01318359375,0.80126953125,-0.18310546875,-0.6103515625,0.06103515625,0.5108642578125,36.2603759765625,176.7041015625
1760837515.9155958,-0.59521484375,0.01318359375,0.80126953125,-0.18310546875,-0.6103515625,0.06103515625,0.5108642578125,36.2548828125,176.7041015625
1760837515.9249873,-0.59521484375,0.0068359375,0.8037109375,-0.79345703125,-0.79345703125,0.30517578125,0.50537109375,36.2493896484375,176.7095947265625
1760837515.934664,-0.59521484375,0.0068359375,0.8037109375,-0.79345703125,-0.79345703125,0.30517578125,0.4998779296875,36.243896484375,176.715087890625
1760837515.941883,-0.59765625,0.0048828125,0.806640625,-0.54931640625,-0.9765625,0.3662109375,0.4998779296875,36.2384033203125,176.7205810546875
1760837515.9502869,-0.59765625,0.0048828125,0.806640625,-0.54931640625,-0.9765625,0.3662109375,0.494384765625,36.2274169921875,176.72607421875
1760837515.9612224,-0.5947265625,0.005859375,0.80712890625,-0.244140625,-0.91552734375,0.3662109375,0.494384765625,36.221923828125,176.7315673828125
1760837515.972397,-0.5947265625,0.005859375,0.80712890625,-0.244140625,-0.91552734375,0.3662109375,0.494384765625,36.2109375,176.7425537109375
1760837515.980588,-0.59228515625,0.00439453125,0.80908203125,0.0,-0.79345703125,0.18310546875,0.494384765625,36.2054443359375,176.7425537109375
1760837515.9899027,-0.59228515625,0.00439453125,0.80908203125,0.0,-0.79345703125,0.18310546875,0.4998779296875,36.199951171875,176.748046875
1760837515.9995897,-0.59228515625,0.00439453125,0.80908203125,0.48828125,-0.6103515625,0.1220703125,0.4998779296875,36.1944580078125,176.748046875
1760837516.0103424,-0.59130859375,0.00634765625,0.81103515625,0.48828125,-0.6103515625,0.1220703125,0.50537109375,36.18896484375,176.7535400390625
1760837516.0177011,-0.58935546875,0.009765625,0.81298828125,0.732421875,-0.6103515625,0.06103515625,0.5108642578125,36.1834716796875,176.7535400390625
1760837516.024611,-0.58935546875,0.009765625,0.81298828125,0.732421875,-0.6103515625,0.06103515625,0.5218505859375,36.177978515625,176.7535400390625
1760837516.0329387,-0.58740234375,0.0087890625,0.81005859375,0.3662109375,-0.6103515625,0.1220703125,0.52734375,36.1724853515625,176.759033203125
1760837516.0406065,-0.58740234375,0.0087890625,0.81005859375,0.3662109375,-0.6103515625,0.1220703125,0.5328369140625,36.1669921875,176.759033203125
1760837516.049561,-0.5888671875,0.0126953125,0.8095703125,-0.42724609375,-0.48828125,0.1220703125,0.5328369140625,36.1614990234375,176.759033203125
1760837516.0569382,-0.5888671875,0.0126953125,0.8095703125,-0.42724609375,-0.48828125,0.1220703125,0.52734375,36.156005859375,176.7645263671875
1760837516.0641208,-0.59326171875,0.00732421875,0.80859375,-0.30517578125,-0.42724609375,0.18310546875,0.52734375,36.1505126953125,176.7645263671875
1760837516.070829,-0.59326171875,0.00732421875,0.80859375,-0.30517578125,-0.42724609375,0.18310546875,0.52734375,36.14501953125,176.77001953125
1760837516.0793023,-0.591796875,0.00927734375,0.80419921875,0.0,-0.42724609375,0.30517578125,0.52734375,36.14501953125,176.77001953125
1760837516.0875716,-0.591796875,0.00927734375,0.80419921875,0.0,-0.42724609375,0.30517578125,0.52734375,36.1395263671875,176.7755126953125
1760837516.0944402,-0.5888671875,0.00439453125,0.8154296875,0.06103515625,-0.42724609375,0.244140625,0.5328369140625,36.134033203125,176.781005859375
1760837516.1032941,-0.5888671875,0.00439453125,0.8154296875,0.06103515625,-0.42724609375,0.244140625,0.5328369140625,36.134033203125,176.781005859375
1760837516.1352952,-0.58544921875,0.0078125,0.81494140625,-0.244140625,-0.48828125,0.1220703125,0.5328369140625,36.1285400390625,176.7864990234375
1760837516.1650271,-0.58544921875,0.0078125,0.81494140625,-0.244140625,-0.48828125,0.1220703125,0.5328369140625,36.123046875,176.7864990234375
1760837516.17661,-0.58740234375,0.013671875,0.81005859375,-0.18310546875,-0.3662109375,0.0,0.5328369140625,36.1175537109375,176.7864990234375
1760837516.214124,-0.58740234375,0.013671875,0.81005859375,-0.18310546875,-0.3662109375,0.0,0.52734375,36.112060546875,176.7864990234375
1760837516.2328649,-0.5908203125,0.01220703125,0.8134765625,-0.30517578125,-0.3662109375,0.0,0.52734375,36.1065673828125,176.7864990234375
1760837516.2402852,-0.5908203125,0.01220703125,0.8134765625,-0.30517578125,-0.3662109375,0.0,0.52734375,36.1065673828125,176.7919921875
1760837516.2468445,-0.59033203125,0.0068359375,0.8076171875,-0.67138671875,-0.30517578125,0.06103515625,0.5218505859375,36.10107421875,176.7919921875
1760837516.2537272,-0.59033203125,0.0068359375,0.8076171875,-0.67138671875,-0.30517578125,0.06103515625,0.516357421875,36.0955810546875,176.7919921875
1760837516.2605624,-0.5888671875,0.00341796875,0.80712890625,-0.48828125,-0.3662109375,0.1220703125,0.5108642578125,36.0955810546875,176.7919921875
1760837516.279099,-0.5888671875,0.00341796875,0.80712890625,-0.48828125,-0.3662109375,0.1220703125,0.50537109375,36.090087890625,176.7974853515625
1760837516.2856429,-0.5927734375,0.00439453125,0.8095703125,-0.06103515625,-0.3662109375,0.06103515625,0.50537109375,36.0845947265625,176.7974853515625
1760837516.2919338,-0.5927734375,0.00439453125,0.8095703125,-0.06103515625,-0.3662109375,0.06103515625,0.50537109375,36.0845947265625,176.802978515625
1760837516.2997751,-0.59326171875,0.005859375,0.8076171875,0.48828125,-0.48828125,0.0,0.5108642578125,36.0791015625,176.802978515625
1760837516.317835,-0.59326171875,0.005859375,0.8076171875,0.48828125,-0.48828125,0.0,0.5108642578125,36.0736083984375,176.802978515625
1760837516.3246126,-0.5927734375,0.00927734375,0.8076171875,0.3662109375,-0.42724609375,0.0,0.516357421875,36.068115234375,176.802978515625
1760837516.3324435,-0.5927734375,0.00927734375,0.8076171875,0.3662109375,-0.42724609375,0.0,0.5218505859375,36.068115234375,176.802978515625
1760837516.3386214,-0.5927734375,0.013671875,0.8076171875,0.06103515625,-0.42724609375,0.0,0.5218505859375,36.0626220703125,176.8084716796875
1760837516.3581452,-0.5927734375,0.013671875,0.8076171875,0.06103515625,-0.42724609375,0.0,0.5218505859375,36.05712890625,176.8084716796875
1760837516.3672764,-0.595703125,0.0107421875,0.810546875,-0.18310546875,-0.42724609375,0.06103515625,0.5218505859375,36.05712890625,176.81396484375
1760837516.403863,-0.595703125,0.0107421875,0.810546875,-0.18310546875,-0.42724609375,0.06103515625,0.5218505859375,36.0516357421875,176.81396484375
1760837516.412069,-0.59423828125,0.00927734375,0.8056640625,-0.732421875,-0.3662109375,0.06103515625,0.5218505859375,36.0516357421875,176.8194580078125
1760837516.4369204,-0.59423828125,0.00927734375,0.8056640625,-0.732421875,-0.3662109375,0.06103515625,0.516357421875,36.046142578125,176.8194580078125
1760837516.443455,-0.59326171875,0.00732421875,0.806640625,-0.54931640625,-0.3662109375,0.0,0.5108642578125,36.046142578125,176.824951171875
1760837516.4587748,-0.59326171875,0.00732421875,0.806640625,-0.54931640625,-0.3662109375,0.0,0.50537109375,36.0406494140625,176.824951171875
1760837516.4650457,-0.5908203125,0.005859375,0.8076171875,-0.30517578125,-0.244140625,0.0,0.4998779296875,36.0406494140625,176.824951171875
1760837516.4723308,-0.5908203125,0.005859375,0.8076171875,-0.30517578125,-0.244140625,0.0,0.4998779296875,36.0406494140625,176.8304443359375
1760837516.495837,-0.587890625,0.0029296875,0.8125,-0.30517578125,-0.18310546875,-0.06103515625,0.494384765625,36.03515625,176.8304443359375
1760837516.5081701,-0.587890625,0.0029296875,0.8125,-0.30517578125,-0.18310546875,-0.06103515625,0.4888916015625,36.03515625,176.8304443359375
1760837516.5277655,-0.591796875,0.0078125,0.8125,-0.18310546875,-0.1220703125,0.0,0.4888916015625,36.03515625,176.8304443359375
1760837516.534311,-0.591796875,0.0078125,0.8125,-0.18310546875,-0.1220703125,0.0,0.4888916015625,36.03515625,176.8359375
1760837516.5412855,-0.59326171875,0.01123046875,0.80908203125,0.0,-0.06103515625,-0.1220703125,0.4833984375,36.03515625,176.8359375
1760837516.547957,-0.59326171875,0.01123046875,0.80908203125,0.0,-0.06103515625,-0.1220703125,0.4833984375,36.03515625,176.8359375
1760837516.566098,-0.59033203125,0.00830078125,0.80859375,-0.30517578125,0.0,-0.244140625,0.4833984375,36.03515625,176.8359375
1760837516.573268,-0.59033203125,0.00830078125,0.80859375,-0.30517578125,0.0,-0.244140625,0.4779052734375,36.03515625,176.8304443359375
1760837516.579996,-0.58984375,0.0087890625,0.81494140625,-0.48828125,0.06103515625,-0.244140625,0.472412109375,36.0406494140625,176.8304443359375
