timestamp,acc_x,acc_y,acc_z,gyro_x,gyro_y,gyro_z,angle_x,angle_y,angle_z
1758527328.507458,0.62646484375,0.09228515625,0.78125,0.79345703125,0.0,0.0,6.43798828125,-38.682861328125,-42.176513671875
1758527328.5169451,0.62646484375,0.09228515625,0.78125,0.79345703125,0.0,0.0,6.4434814453125,-38.682861328125,-42.176513671875
1758527328.5277357,0.62939453125,0.0888671875,0.77490234375,0.0,0.0,0.0,6.448974609375,-38.682861328125,-42.176513671875
1758527328.5386713,0.62939453125,0.0888671875,0.77490234375,0.0,0.0,0.0,6.448974609375,-38.682861328125,-42.176513671875
1758527328.5498652,0.6298828125,0.08642578125,0.7744140625,0.0,-0.1220703125,0.0,6.448974609375,-38.6883544921875,-42.176513671875
1758527328.5614407,0.6298828125,0.08642578125,0.7744140625,0.0,-0.1220703125,0.0,6.448974609375,-38.6883544921875,-42.1820068359375
1758527328.573056,0.64892578125,0.08935546875,0.7900390625,0.30517578125,-0.06103515625,-0.3662109375,6.4544677734375,-38.6883544921875,-42.1820068359375
1758527328.5838583,0.64892578125,0.08935546875,0.7900390625,0.30517578125,-0.06103515625,-0.3662109375,6.4599609375,-38.6883544921875,-42.1875
1758527328.590654,0.65673828125,0.091796875,0.81689453125,0.1220703125,-0.42724609375,-0.67138671875,6.4654541015625,-38.69384765625,-42.198486328125
1758527328.5971289,0.65673828125,0.091796875,0.81689453125,0.1220703125,-0.42724609375,-0.67138671875,6.4764404296875,-38.6993408203125,-42.20947265625
1758527328.603659,0.67041015625,0.08349609375,0.81494140625,0.48828125,-1.52587890625,-0.6103515625,6.48193359375,-38.704833984375,-42.2149658203125
1758527328.612907,0.67041015625,0.08349609375,0.81494140625,0.48828125,-1.52587890625,-0.6103515625,6.492919921875,-38.7213134765625,-42.2259521484375
1758527328.623097,0.669921875,0.0849609375,0.82470703125,0.79345703125,-2.3193359375,-0.54931640625,6.50390625,-38.7432861328125,-42.2369384765625
1758527328.6331005,0.669921875,0.0849609375,0.82470703125,0.79345703125,-2.3193359375,-0.54931640625,6.5203857421875,-38.7652587890625,-42.242431640625
1758527328.6431794,0.6630859375,0.09033203125,0.8203125,-0.18310546875,-2.8076171875,-0.48828125,6.52587890625,-38.792724609375,-42.25341796875
1758527328.6542988,0.6630859375,0.09033203125,0.8203125,-0.18310546875,-2.8076171875,-0.48828125,6.5313720703125,-38.8201904296875,-42.264404296875
1758527328.663293,0.6376953125,0.09814453125,0.7861328125,-2.13623046875,-3.173828125,0.3662109375,6.5203857421875,-38.84765625,-42.2698974609375
1758527328.6737676,0.6376953125,0.09814453125,0.7861328125,-2.13623046875,-3.173828125,0.3662109375,6.4984130859375,-38.880615234375,-42.2698974609375
1758527328.68318,0.6259765625,0.0830078125,0.76123046875,-3.23486328125,-3.41796875,1.0986328125,6.4654541015625,-38.91357421875,-42.264404296875
1758527328.6929662,0.6259765625,0.0830078125,0.76123046875,-3.23486328125,-3.41796875,1.0986328125,6.427001953125,-38.946533203125,-42.2589111328125
1758527328.7029371,0.6220703125,0.07861328125,0.7568359375,-2.3193359375,-3.23486328125,1.64794921875,6.39404296875,-38.9849853515625,-42.242431640625
1758527328.712972,0.6220703125,0.07861328125,0.7568359375,-2.3193359375,-3.23486328125,1.64794921875,6.361083984375,-39.0179443359375,-42.2259521484375
1758527328.7229867,0.63330078125,0.0810546875,0.76904296875,-1.46484375,-3.11279296875,2.38037109375,6.328125,-39.0509033203125,-42.2039794921875
1758527328.7329981,0.63330078125,0.0810546875,0.76904296875,-1.46484375,-3.11279296875,2.38037109375,6.295166015625,-39.0838623046875,-42.1820068359375
1758527328.7429917,0.6435546875,0.08935546875,0.7783203125,-1.64794921875,-3.2958984375,3.0517578125,6.26220703125,-39.1168212890625,-42.1490478515625
1758527328.7530317,0.6435546875,0.08935546875,0.7783203125,-1.64794921875,-3.2958984375,3.0517578125,6.2237548828125,-39.1552734375,-42.1160888671875
1758527328.7635636,0.6494140625,0.07763671875,0.7900390625,-1.5869140625,-3.84521484375,3.2958984375,6.185302734375,-39.1937255859375,-42.0831298828125
1758527328.7730565,0.6494140625,0.07763671875,0.7900390625,-1.5869140625,-3.84521484375,3.2958984375,6.1468505859375,-39.232177734375,-42.044677734375
1758527328.7830546,0.66015625,0.08203125,0.78955078125,-1.77001953125,-4.45556640625,3.0517578125,6.1083984375,-39.276123046875,-42.01171875
1758527328.793056,0.66015625,0.08203125,0.78955078125,-1.77001953125,-4.45556640625,3.0517578125,6.0699462890625,-39.3255615234375,-41.9842529296875
1758527328.8030877,0.662109375,0.08837890625,0.8037109375,-0.8544921875,-5.06591796875,2.8076171875,6.0369873046875,-39.375,-41.9512939453125
1758527328.8131013,0.662109375,0.08837890625,0.8037109375,-0.8544921875,-5.06591796875,2.8076171875,6.009521484375,-39.429931640625,-41.923828125
1758527328.8231142,0.67578125,0.08154296875,0.80078125,-0.9765625,-5.615234375,2.62451171875,5.9820556640625,-39.48486328125,-41.90185546875
1758527328.8331327,0.67578125,0.08154296875,0.80078125,-0.9765625,-5.615234375,2.62451171875,5.9600830078125,-39.539794921875,-41.8743896484375
1758527328.8431299,0.65869140625,0.08984375,0.802734375,-3.7841796875,-6.04248046875,2.44140625,5.921630859375,-39.6002197265625,-41.8524169921875
1758527328.8531396,0.65869140625,0.08984375,0.802734375,-3.7841796875,-6.04248046875,2.44140625,5.86669921875,-39.66064453125,-41.8304443359375
1758527328.863169,0.60595703125,0.08154296875,0.74658203125,-5.126953125,-5.79833984375,2.197265625,5.811767578125,-39.7210693359375,-41.8084716796875
1758527328.8731842,0.60595703125,0.08154296875,0.74658203125,-5.126953125,-5.79833984375,2.197265625,5.7513427734375,-39.7760009765625,-41.7919921875
1758527328.8831844,0.6103515625,0.07470703125,0.68603515625,-4.39453125,-4.33349609375,1.52587890625,5.6964111328125,-39.825439453125,-41.7755126953125
1758527328.8932,0.6103515625,0.07470703125,0.68603515625,-4.39453125,-4.33349609375,1.52587890625,5.6414794921875,-39.869384765625,-41.7645263671875
1758527328.9032037,0.5927734375,0.0732421875,0.7529296875,-0.732421875,-3.0517578125,1.15966796875,5.614013671875,-39.9078369140625,-41.7535400390625
1758527328.9133003,0.5927734375,0.0732421875,0.7529296875,-0.732421875,-3.0517578125,1.15966796875,5.60302734375,-39.935302734375,-41.7425537109375
1758527328.9233124,0.64599609375,0.09326171875,0.7392578125,-0.91552734375,-2.197265625,0.48828125,5.592041015625,-39.957275390625,-41.7425537109375
1758527328.9334147,0.64599609375,0.09326171875,0.7392578125,-0.91552734375,-2.197265625,0.48828125,5.5865478515625,-39.979248046875,-41.737060546875
1758527328.9433355,0.64111328125,0.0791015625,0.7626953125,-1.28173828125,-1.8310546875,0.06103515625,5.5755615234375,-39.9957275390625,-41.7425537109375
1758527328.9533,0.64111328125,0.0791015625,0.7626953125,-1.28173828125,-1.8310546875,0.06103515625,5.570068359375,-40.01220703125,-41.7425537109375
1758527328.963318,0.6474609375,0.05810546875,0.7734375,-0.67138671875,-1.8310546875,-0.1220703125,5.5645751953125,-40.0286865234375,-41.748046875
1758527328.9733188,0.6474609375,0.05810546875,0.7734375,-0.67138671875,-1.8310546875,-0.1220703125,5.5645751953125,-40.045166015625,-41.759033203125
1758527328.983333,0.64990234375,0.08251953125,0.77001953125,1.220703125,-1.5869140625,-0.6103515625,5.570068359375,-40.0616455078125,-41.7645263671875
1758527328.993343,0.64990234375,0.08251953125,0.77001953125,1.220703125,-1.5869140625,-0.6103515625,5.592041015625,-40.0726318359375,-41.781005859375
1758527329.0033586,0.64697265625,0.08056640625,0.765625,1.953125,-1.46484375,-0.79345703125,5.614013671875,-40.089111328125,-41.7919921875
1758527329.013359,0.64697265625,0.08056640625,0.765625,1.953125,-1.46484375,-0.79345703125,5.64697265625,-40.10009765625,-41.802978515625
1758527329.0233915,0.65087890625,0.0830078125,0.7626953125,0.3662109375,-1.52587890625,-0.6103515625,5.6634521484375,-40.111083984375,-41.8194580078125
1758527329.0337653,0.65087890625,0.0830078125,0.7626953125,0.3662109375,-1.52587890625,-0.6103515625,5.679931640625,-40.1220703125,-41.8304443359375
1758527329.043501,0.65087890625,0.0830078125,0.7626953125,0.42724609375,-1.46484375,-0.54931640625,5.69091796875,-40.1385498046875,-41.8414306640625
1758527329.0538185,0.65185546875,0.0771484375,0.76318359375,0.42724609375,-1.46484375,-0.54931640625,5.701904296875,-40.1495361328125,-41.846923828125
1758527329.0634768,0.65283203125,0.07568359375,0.77099609375,0.0,-1.52587890625,-0.732421875,5.712890625,-40.166015625,-41.8634033203125
1758527329.0738308,0.65283203125,0.07568359375,0.77099609375,0.0,-1.52587890625,-0.732421875,5.7183837890625,-40.177001953125,-41.8743896484375
1758527329.0836244,0.66064453125,0.07958984375,0.76806640625,-0.30517578125,-1.708984375,-0.54931640625,5.723876953125,-40.1934814453125,-41.8853759765625
1758527329.0939372,0.66064453125,0.07958984375,0.76806640625,-0.30517578125,-1.708984375,-0.54931640625,5.7293701171875,-40.2099609375,-41.8963623046875
1758527329.1040673,0.65478515625,0.07177734375,0.771484375,0.06103515625,-1.89208984375,-0.3662109375,5.73486328125,-40.2264404296875,-41.90185546875
1758527329.113922,0.65478515625,0.07177734375,0.771484375,0.06103515625,-1.89208984375,-0.3662109375,5.7403564453125,-40.242919921875,-41.912841796875
1758527329.124075,0.638671875,0.0732421875,0.7451171875,-1.28173828125,-1.8310546875,-0.18310546875,5.7403564453125,-40.2593994140625,-41.9183349609375
1758527329.1338673,0.638671875,0.0732421875,0.7451171875,-1.28173828125,-1.8310546875,-0.18310546875,5.7293701171875,-40.27587890625,-41.923828125
1758527329.144397,0.6552734375,0.07470703125,0.77197265625,-2.197265625,-1.89208984375,0.0,5.712890625,-40.2978515625,-41.9293212890625
1758527329.1538699,0.6552734375,0.07470703125,0.77197265625,-2.197265625,-1.89208984375,0.0,5.69091796875,-40.3143310546875,-41.9293212890625
1758527329.1636937,0.67724609375,0.0810546875,0.7744140625,-2.50244140625,-2.25830078125,-0.06103515625,5.6744384765625,-40.3363037109375,-41.934814453125
1758527329.1745164,0.67724609375,0.0810546875,0.7744140625,-2.50244140625,-2.25830078125,-0.06103515625,5.64697265625,-40.3582763671875,-41.9403076171875
1758527329.184017,0.67578125,0.068359375,0.78955078125,-3.5400390625,-3.23486328125,0.0,5.625,-40.3802490234375,-41.94580078125
1758527329.1938403,0.67578125,0.068359375,0.78955078125,-3.5400390625,-3.23486328125,0.0,5.592041015625,-40.4132080078125,-41.9512939453125
1758527329.203822,0.6806640625,0.07373046875,0.78173828125,-3.2958984375,-4.0283203125,0.30517578125,5.55908203125,-40.45166015625,-41.9512939453125
1758527329.2145717,0.6806640625,0.07373046875,0.78173828125,-3.2958984375,-4.0283203125,0.30517578125,5.526123046875,-40.4901123046875,-41.9512939453125
1758527329.2238004,0.6884765625,0.07275390625,0.787109375,-2.50244140625,-4.638671875,0.48828125,5.4986572265625,-40.5340576171875,-41.9512939453125
1758527329.2341847,0.6884765625,0.07275390625,0.787109375,-2.50244140625,-4.638671875,0.48828125,5.47119140625,-40.58349609375,-41.9512939453125
1758527329.2448766,0.689453125,0.0712890625,0.7802734375,-0.6103515625,-5.615234375,0.54931640625,5.4547119140625,-40.6329345703125,-41.9512939453125
1758527329.2540967,0.689453125,0.0712890625,0.7802734375,-0.6103515625,-5.615234375,0.54931640625,5.44921875,-40.6878662109375,-41.94580078125
1758527329.2639961,0.69921875,0.06298828125,0.8056640625,1.03759765625,-7.14111328125,0.48828125,5.4547119140625,-40.7537841796875,-41.94580078125
1758527329.2748227,0.69921875,0.06298828125,0.8056640625,1.03759765625,-7.14111328125,0.48828125,5.4656982421875,-40.8251953125,-41.9512939453125
1758527329.2840226,0.69921875,0.06298828125,0.8056640625,2.0751953125,-8.23974609375,0.1220703125,5.482177734375,-40.902099609375,-41.956787109375
1758527329.2941225,0.66259765625,0.06640625,0.7529296875,2.0751953125,-8.23974609375,0.1220703125,5.5096435546875,-40.97900390625,-41.9622802734375
1758527329.3046324,0.67919921875,0.07080078125,0.77197265625,2.86865234375,-8.85009765625,-0.1220703125,5.537109375,-41.06689453125,-41.9732666015625
1758527329.3141255,0.67919921875,0.07080078125,0.77197265625,2.86865234375,-8.85009765625,-0.1220703125,5.5755615234375,-41.1492919921875,-41.9842529296875
1758527329.3240066,0.67626953125,0.076171875,0.76171875,5.0048828125,-9.58251953125,-0.3662109375,5.6195068359375,-41.24267578125,-42.000732421875
1758527329.3345556,0.67626953125,0.076171875,0.76171875,5.0048828125,-9.58251953125,-0.3662109375,5.679931640625,-41.3360595703125,-42.0172119140625
1758527329.3439248,0.677734375,0.083984375,0.75537109375,4.150390625,-10.7421875,-0.8544921875,5.73486328125,-41.4349365234375,-42.0391845703125
1758527329.3543127,0.677734375,0.083984375,0.75537109375,4.150390625,-10.7421875,-0.8544921875,5.7952880859375,-41.5338134765625,-42.066650390625
1758527329.364631,0.6748046875,0.095703125,0.7158203125,0.1220703125,-11.1083984375,-1.15966796875,5.833740234375,-41.6436767578125,-42.0941162109375
1758527329.374235,0.6748046875,0.095703125,0.7158203125,0.1220703125,-11.1083984375,-1.15966796875,5.8502197265625,-41.748046875,-42.1270751953125
1758527329.3841453,0.66259765625,0.078125,0.7265625,2.197265625,-11.04736328125,-1.77001953125,5.888671875,-41.85791015625,-42.1600341796875
1758527329.394361,0.66259765625,0.078125,0.7265625,2.197265625,-11.04736328125,-1.77001953125,5.9381103515625,-41.9622802734375,-42.198486328125
1758527329.4043233,0.658203125,0.0673828125,0.72705078125,4.8828125,-11.04736328125,-2.3193359375,5.99853515625,-42.066650390625,-42.242431640625
1758527329.4142447,0.658203125,0.0673828125,0.72705078125,4.8828125,-11.04736328125,-2.3193359375,6.075439453125,-42.1710205078125,-42.2918701171875
1758527329.42416,0.67822265625,0.0947265625,0.716796875,4.33349609375,-10.7421875,-2.74658203125,6.1578369140625,-42.275390625,-42.34130859375
1758527329.434614,0.67822265625,0.0947265625,0.716796875,4.33349609375,-10.7421875,-2.74658203125,6.2347412109375,-42.374267578125,-42.3907470703125
1758527329.443978,0.681640625,0.1171875,0.76171875,-1.77001953125,-11.04736328125,-2.86865234375,6.2841796875,-42.4786376953125,-42.4456787109375
1758527329.4542851,0.681640625,0.1171875,0.76171875,-1.77001953125,-11.04736328125,-2.86865234375,6.3006591796875,-42.5775146484375,-42.506103515625
1758527329.4647367,0.69873046875,0.09765625,0.716796875,-6.28662109375,-11.5966796875,-2.9296875,6.3006591796875,-42.681884765625,-42.56103515625
1758527329.4743805,0.69873046875,0.09765625,0.716796875,-6.28662109375,-11.5966796875,-2.9296875,6.2786865234375,-42.791748046875,-42.615966796875
1758527329.484409,0.72265625,0.07421875,0.72412109375,-6.28662109375,-11.962890625,-3.11279296875,6.26220703125,-42.901611328125,-42.6763916015625
1758527329.494737,0.72265625,0.07421875,0.72412109375,-6.28662109375,-11.962890625,-3.11279296875,6.240234375,-43.0169677734375,-42.73681640625
1758527329.504365,0.7255859375,0.0625,0.7841796875,-3.23486328125,-12.8173828125,-3.0517578125,6.251220703125,-43.1378173828125,-42.791748046875
1758527329.5144026,0.7255859375,0.0625,0.7841796875,-3.23486328125,-12.8173828125,-3.0517578125,6.26220703125,-43.2586669921875,-42.8521728515625
1758527329.5241935,0.72216796875,0.07373046875,0.75341796875,-1.52587890625,-13.671875,-2.86865234375,6.2896728515625,-43.385009765625,-42.91259765625
1758527329.5348086,0.72216796875,0.07373046875,0.75341796875,-1.52587890625,-13.671875,-2.86865234375,6.3116455078125,-43.516845703125,-42.9730224609375
1758527329.5442383,0.7265625,0.0908203125,0.72802734375,-5.615234375,-14.09912109375,-2.38037109375,6.295166015625,-43.648681640625,-43.0224609375
1758527329.5547023,0.7265625,0.0908203125,0.72802734375,-5.615234375,-14.09912109375,-2.38037109375,6.273193359375,-43.7860107421875,-43.077392578125
1758527329.5648444,0.7275390625,0.08984375,0.7373046875,-6.8359375,-14.58740234375,-2.0751953125,6.240234375,-43.92333984375,-43.1268310546875
1758527329.5748866,0.7275390625,0.08984375,0.7373046875,-6.8359375,-14.58740234375,-2.0751953125,6.207275390625,-44.0606689453125,-43.17626953125
1758527329.5847077,0.71240234375,0.056640625,0.72802734375,-1.5869140625,-15.2587890625,-2.13623046875,6.229248046875,-44.208984375,-43.2257080078125
1758527329.6008375,0.71240234375,0.056640625,0.72802734375,-1.5869140625,-15.2587890625,-2.13623046875,6.251220703125,-44.351806640625,-43.275146484375
1758527329.6069968,0.68701171875,0.06201171875,0.7099609375,0.8544921875,-15.44189453125,-2.0751953125,6.295166015625,-44.5001220703125,-43.3245849609375
1758527329.6148236,0.68701171875,0.06201171875,0.7099609375,0.8544921875,-15.44189453125,-2.0751953125,6.339111328125,-44.6429443359375,-43.3740234375
1758527329.624205,0.70458984375,0.1064453125,0.69482421875,-3.23486328125,-14.892578125,-1.5869140625,6.3336181640625,-44.7857666015625,-43.41796875
1758527329.6369863,0.70458984375,0.1064453125,0.69482421875,-3.23486328125,-14.892578125,-1.5869140625,6.3336181640625,-44.923095703125,-43.4619140625
1758527329.6442406,0.70263671875,0.1220703125,0.67919921875,-14.6484375,-13.7939453125,-0.6103515625,6.2127685546875,-45.054931640625,-43.4893798828125
1758527329.6545944,0.70263671875,0.1220703125,0.67919921875,-14.6484375,-13.7939453125,-0.6103515625,6.0919189453125,-45.186767578125,-43.516845703125
1758527329.6646338,0.69140625,0.0771484375,0.68798828125,-18.73779296875,-12.8173828125,-0.1220703125,5.9271240234375,-45.3076171875,-43.538818359375
1758527329.674552,0.69140625,0.0771484375,0.68798828125,-18.73779296875,-12.8173828125,-0.1220703125,5.7623291015625,-45.428466796875,-43.5552978515625
1758527329.6844716,0.66552734375,0.0478515625,0.65869140625,-14.892578125,-11.29150390625,0.0,5.6304931640625,-45.5328369140625,-43.57177734375
1758527329.6947198,0.66552734375,0.0478515625,0.65869140625,-14.892578125,-11.29150390625,0.0,5.4986572265625,-45.63720703125,-43.5882568359375
1758527329.7046402,0.71435546875,0.03564453125,0.697265625,-8.4228515625,-10.19287109375,-0.42724609375,5.4327392578125,-45.7305908203125,-43.604736328125
1758527329.7146573,0.71435546875,0.03564453125,0.697265625,-8.4228515625,-10.19287109375,-0.42724609375,5.3668212890625,-45.8294677734375,-43.626708984375
1758527329.7244158,0.708984375,0.0400390625,0.67724609375,-0.48828125,-9.09423828125,-0.3662109375,5.372314453125,-45.911865234375,-43.6431884765625
1758527329.7360559,0.708984375,0.0400390625,0.67724609375,-0.48828125,-9.09423828125,-0.3662109375,5.38330078125,-45.9942626953125,-43.65966796875
1758527329.7443593,0.72119140625,0.0654296875,0.65869140625,-0.3662109375,-7.4462890625,0.0,5.38330078125,-46.065673828125,-43.6651611328125
1758527329.7545967,0.72119140625,0.0654296875,0.65869140625,-0.3662109375,-7.4462890625,0.0,5.3887939453125,-46.131591796875,-43.670654296875
1758527329.7647579,0.73193359375,0.05712890625,0.71435546875,0.8544921875,-6.7138671875,0.06103515625,5.4052734375,-46.197509765625,-43.6761474609375
1758527329.7745383,0.73193359375,0.05712890625,0.71435546875,0.8544921875,-6.7138671875,0.06103515625,5.416259765625,-46.2579345703125,-43.681640625
1758527329.7844996,0.7265625,0.04736328125,0.66064453125,3.11279296875,-6.591796875,-0.91552734375,5.460205078125,-46.318359375,-43.6981201171875
1758527329.7946227,0.7265625,0.04736328125,0.66064453125,3.11279296875,-6.591796875,-0.91552734375,5.5096435546875,-46.3787841796875,-43.714599609375
1758527329.8045797,0.72021484375,0.0673828125,0.6640625,9.21630859375,-6.16455078125,-3.23486328125,5.635986328125,-46.439208984375,-43.7640380859375
1758527329.8147097,0.72021484375,0.0673828125,0.6640625,9.21630859375,-6.16455078125,-3.23486328125,5.767822265625,-46.494140625,-43.8134765625
1758527329.8244991,0.7392578125,0.0390625,0.69482421875,15.869140625,-5.55419921875,-4.8828125,5.9765625,-46.5380859375,-43.890380859375
1758527329.8375037,0.7392578125,0.0390625,0.69482421875,15.869140625,-5.55419921875,-4.8828125,6.185302734375,-46.5875244140625,-43.9617919921875
1758527329.8445678,0.7646484375,0.0732421875,0.716796875,17.39501953125,-4.94384765625,-5.06591796875,6.4105224609375,-46.6314697265625,-44.0386962890625
1758527329.8545282,0.7646484375,0.0732421875,0.716796875,17.39501953125,-4.94384765625,-5.06591796875,6.6302490234375,-46.669921875,-44.110107421875
1758527329.8646848,0.74267578125,0.0810546875,0.70263671875,17.7001953125,-4.33349609375,-4.5166015625,6.8499755859375,-46.7083740234375,-44.176025390625
1758527329.8746138,0.74267578125,0.0810546875,0.70263671875,17.7001953125,-4.33349609375,-4.5166015625,7.0697021484375,-46.7413330078125,-44.2474365234375
1758527329.884638,0.73095703125,0.08349609375,0.70166015625,12.39013671875,-3.2958984375,-3.60107421875,7.22900390625,-46.768798828125,-44.296875
1758527329.894772,0.73095703125,0.08349609375,0.70166015625,12.39013671875,-3.2958984375,-3.60107421875,7.3828125,-46.790771484375,-44.351806640625
1758527329.904734,0.71728515625,0.10009765625,0.65966796875,7.99560546875,-1.8310546875,-2.13623046875,7.4761962890625,-46.8072509765625,-44.3792724609375
1758527329.9146605,0.71728515625,0.10009765625,0.65966796875,7.99560546875,-1.8310546875,-2.13623046875,7.5750732421875,-46.8182373046875,-44.4122314453125
1758527329.9246275,0.677734375,0.07958984375,0.67919921875,8.36181640625,-0.42724609375,-0.732421875,7.657470703125,-46.8182373046875,-44.417724609375
1758527329.935081,0.677734375,0.07958984375,0.67919921875,8.36181640625,-0.42724609375,-0.732421875,7.7398681640625,-46.8182373046875,-44.4287109375
1758527329.9446561,0.6494140625,0.08349609375,0.5869140625,4.33349609375,0.9765625,0.1220703125,7.7728271484375,-46.8072509765625,-44.4232177734375
1758527329.9547129,0.6494140625,0.08349609375,0.5869140625,4.33349609375,0.9765625,0.1220703125,7.8057861328125,-46.790771484375,-44.4122314453125
1758527329.9650347,0.7431640625,0.11181640625,0.70458984375,3.5400390625,2.197265625,0.3662109375,7.8277587890625,-46.768798828125,-44.4012451171875
1758527329.9747422,0.7431640625,0.11181640625,0.70458984375,3.5400390625,2.197265625,0.3662109375,7.8497314453125,-46.746826171875,-44.3902587890625
1758527329.984787,0.73046875,0.11767578125,0.65185546875,-1.5869140625,3.173828125,0.6103515625,7.8167724609375,-46.7138671875,-44.373779296875
1758527329.9950764,0.73046875,0.11767578125,0.65185546875,-1.5869140625,3.173828125,0.6103515625,7.789306640625,-46.680908203125,-44.351806640625
1758527330.004849,0.72314453125,0.1005859375,0.66845703125,-1.28173828125,3.5400390625,0.9765625,7.7618408203125,-46.64794921875,-44.3243408203125
1758527330.0147738,0.72314453125,0.1005859375,0.66845703125,-1.28173828125,3.5400390625,0.9765625,7.734375,-46.614990234375,-44.3023681640625
1758527330.0247982,0.716796875,0.0693359375,0.66455078125,-1.708984375,2.99072265625,1.89208984375,7.6904296875,-46.5875244140625,-44.263916015625
1758527330.0355177,0.716796875,0.0693359375,0.66455078125,-1.708984375,2.99072265625,1.89208984375,7.6519775390625,-46.56005859375,-44.2254638671875
1758527330.04515,0.716796875,0.0693359375,0.66455078125,-4.45556640625,2.8076171875,2.86865234375,7.569580078125,-46.5380859375,-44.1705322265625
1758527330.054806,0.734375,0.09814453125,0.66748046875,-4.45556640625,2.8076171875,2.86865234375,7.49267578125,-46.51611328125,-44.12109375
1758527330.065961,0.72998046875,0.08544921875,0.69482421875,-6.2255859375,3.23486328125,3.23486328125,7.393798828125,-46.4886474609375,-44.0606689453125
1758527330.074847,0.72998046875,0.08544921875,0.69482421875,-6.2255859375,3.23486328125,3.23486328125,7.294921875,-46.4666748046875,-44.0057373046875
1758527330.0856807,0.7568359375,0.09765625,0.6796875,-6.8359375,2.9296875,3.72314453125,7.18505859375,-46.4447021484375,-43.9398193359375
1758527330.095344,0.7568359375,0.09765625,0.6796875,-6.8359375,2.9296875,3.72314453125,7.0751953125,-46.4227294921875,-43.8739013671875
1758527330.106081,0.7431640625,0.0908203125,0.7109375,-7.99560546875,1.8310546875,4.39453125,6.954345703125,-46.4117431640625,-43.802490234375
1758527330.114935,0.7431640625,0.0908203125,0.7109375,-7.99560546875,1.8310546875,4.39453125,6.8280029296875,-46.4007568359375,-43.7310791015625
1758527330.1254249,0.7451171875,0.0849609375,0.6611328125,-11.5966796875,0.54931640625,4.638671875,6.668701171875,-46.4007568359375,-43.65966796875
1758527330.13675,0.7451171875,0.0849609375,0.6611328125,-11.5966796875,0.54931640625,4.638671875,6.5093994140625,-46.40625,-43.582763671875
1758527330.145757,0.74658203125,0.068359375,0.7119140625,-7.99560546875,-0.42724609375,4.21142578125,6.39404296875,-46.417236328125,-43.5223388671875
1758527330.154926,0.74658203125,0.068359375,0.7119140625,-7.99560546875,-0.42724609375,4.21142578125,6.273193359375,-46.42822265625,-43.4564208984375
1758527330.1659503,0.74462890625,0.068359375,0.68359375,-4.0283203125,-1.46484375,3.72314453125,6.2017822265625,-46.4501953125,-43.39599609375
1758527330.1752222,0.74462890625,0.068359375,0.68359375,-4.0283203125,-1.46484375,3.72314453125,6.13037109375,-46.47216796875,-43.341064453125
1758527330.1858373,0.75,0.06591796875,0.7041015625,-1.5869140625,-2.44140625,3.47900390625,6.0809326171875,-46.505126953125,-43.2916259765625
1758527330.195039,0.75,0.06591796875,0.7041015625,-1.5869140625,-2.44140625,3.47900390625,6.0369873046875,-46.5325927734375,-43.2366943359375
1758527330.2062967,0.763671875,0.083984375,0.6923828125,-4.150390625,-3.2958984375,3.662109375,5.965576171875,-46.571044921875,-43.1817626953125
1758527330.2150838,0.763671875,0.083984375,0.6923828125,-4.150390625,-3.2958984375,3.662109375,5.8941650390625,-46.614990234375,-43.13232421875
1758527330.2250323,0.76123046875,0.06982421875,0.705078125,-5.0048828125,-4.2724609375,3.41796875,5.8172607421875,-46.658935546875,-43.0828857421875
1758527330.2360797,0.76123046875,0.06982421875,0.705078125,-5.0048828125,-4.2724609375,3.41796875,5.7403564453125,-46.7083740234375,-43.033447265625
1758527330.2451031,0.7607421875,0.0791015625,0.6982421875,-4.45556640625,-5.859375,3.23486328125,5.6689453125,-46.7742919921875,-42.989501953125
1758527330.2550786,0.7607421875,0.0791015625,0.6982421875,-4.45556640625,-5.859375,3.23486328125,5.60302734375,-46.834716796875,-42.945556640625
1758527330.2654424,0.779296875,0.0322265625,0.666015625,3.60107421875,-7.2021484375,2.62451171875,5.6195068359375,-46.91162109375,-42.91259765625
1758527330.2755296,0.779296875,0.0322265625,0.666015625,3.60107421875,-7.2021484375,2.62451171875,5.635986328125,-46.988525390625,-42.8741455078125
1758527330.285426,0.779296875,0.0322265625,0.666015625,9.1552734375,-8.9111328125,2.3193359375,5.712890625,-47.0819091796875,-42.8466796875
1758527330.2951941,0.77587890625,0.00390625,0.732421875,9.1552734375,-8.9111328125,2.3193359375,5.7843017578125,-47.17529296875,-42.8192138671875
1758527330.3057218,0.78125,0.091796875,0.64501953125,8.7890625,-11.23046875,2.01416015625,5.855712890625,-47.2906494140625,-42.7972412109375
1758527330.3152344,0.78125,0.091796875,0.64501953125,8.7890625,-11.23046875,2.01416015625,5.9326171875,-47.406005859375,-42.78076171875
1758527330.3251426,0.76123046875,0.12548828125,0.70703125,2.25830078125,-12.8173828125,2.9296875,5.9326171875,-47.537841796875,-42.747802734375
1758527330.3361914,0.76123046875,0.12548828125,0.70703125,2.25830078125,-12.8173828125,2.9296875,5.943603515625,-47.669677734375,-42.7203369140625
1758527330.3452272,0.7392578125,0.0458984375,0.6611328125,5.126953125,-13.7939453125,3.662109375,5.9710693359375,-47.8125,-42.681884765625
1758527330.3554113,0.7392578125,0.0458984375,0.6611328125,5.126953125,-13.7939453125,3.662109375,5.9930419921875,-47.9498291015625,-42.64892578125
1758527330.3656764,0.7470703125,0.013671875,0.63232421875,11.474609375,-13.73291015625,3.60107421875,6.0809326171875,-48.0926513671875,-42.6104736328125
1758527330.3752804,0.7470703125,0.013671875,0.63232421875,11.474609375,-13.73291015625,3.60107421875,6.1688232421875,-48.22998046875,-42.572021484375
1758527330.3857632,0.74658203125,0.0634765625,0.66064453125,10.92529296875,-13.427734375,3.11279296875,6.251220703125,-48.3673095703125,-42.5445556640625
1758527330.3957353,0.74658203125,0.0634765625,0.66064453125,10.92529296875,-13.427734375,3.11279296875,6.3336181640625,-48.4991455078125,-42.51708984375
1758527330.4053624,0.72607421875,0.1318359375,0.6611328125,5.126953125,-12.8173828125,3.72314453125,6.3555908203125,-48.6309814453125,-42.4786376953125
1758527330.4153745,0.72607421875,0.1318359375,0.6611328125,5.126953125,-12.8173828125,3.72314453125,6.3775634765625,-48.75732421875,-42.440185546875
1758527330.4253035,0.70166015625,0.09716796875,0.572265625,1.220703125,-11.16943359375,3.84521484375,6.361083984375,-48.8671875,-42.4017333984375
1758527330.4363897,0.70166015625,0.09716796875,0.572265625,1.220703125,-11.16943359375,3.84521484375,6.35009765625,-48.9825439453125,-42.36328125
1758527330.44535,0.671875,0.04931640625,0.6064453125,2.25830078125,-9.27734375,3.72314453125,6.339111328125,-49.0704345703125,-42.3193359375
1758527330.455344,0.671875,0.04931640625,0.6064453125,2.25830078125,-9.27734375,3.72314453125,6.3336181640625,-49.163818359375,-42.2808837890625
1758527330.465773,0.69287109375,0.0888671875,0.6015625,-0.06103515625,-7.080078125,3.5400390625,6.30615234375,-49.2352294921875,-42.2369384765625
1758527330.4753819,0.69287109375,0.0888671875,0.6015625,-0.06103515625,-7.080078125,3.5400390625,6.273193359375,-49.3011474609375,-42.198486328125
1758527330.4859726,0.70263671875,0.12939453125,0.609375,-6.34765625,-4.69970703125,3.41796875,6.1798095703125,-49.3450927734375,-42.154541015625
1758527330.4956076,0.7041015625,0.0673828125,0.59326171875,-4.7607421875,-2.685546875,2.62451171875,6.1029052734375,-49.383544921875,-42.12158203125
1758527330.505772,0.7041015625,0.0673828125,0.59326171875,-4.7607421875,-2.685546875,2.62451171875,6.0369873046875,-49.405517578125,-42.088623046875
1758527330.5157914,0.705078125,0.05322265625,0.60205078125,-1.8310546875,-0.91552734375,1.40380859375,5.9930419921875,-49.4219970703125,-42.0611572265625
1758527330.525449,0.705078125,0.05322265625,0.60205078125,-1.8310546875,-0.91552734375,1.40380859375,5.965576171875,-49.427490234375,-42.044677734375
1758527330.5372877,0.74755859375,0.08154296875,0.62451171875,-0.8544921875,0.67138671875,0.54931640625,5.943603515625,-49.427490234375,-42.03369140625
1758527330.545585,0.74755859375,0.08154296875,0.62451171875,-0.8544921875,0.67138671875,0.54931640625,5.9381103515625,-49.41650390625,-42.022705078125
1758527330.555787,0.7626953125,0.0908203125,0.658203125,-1.5869140625,1.64794921875,0.0,5.9271240234375,-49.405517578125,-42.0172119140625
1758527330.565599,0.7626953125,0.0908203125,0.658203125,-1.5869140625,1.64794921875,0.0,5.9161376953125,-49.383544921875,-42.0172119140625
1758527330.5766792,0.79345703125,0.07470703125,0.6630859375,-1.3427734375,2.13623046875,-0.79345703125,5.91064453125,-49.361572265625,-42.0172119140625
1758527330.586143,0.79345703125,0.07470703125,0.6630859375,-1.3427734375,2.13623046875,-0.79345703125,5.91064453125,-49.339599609375,-42.0281982421875
1758527330.5959156,0.8076171875,0.033203125,0.68310546875,8.30078125,2.01416015625,-2.197265625,5.965576171875,-49.317626953125,-42.044677734375
1758527330.6059246,0.8076171875,0.033203125,0.68310546875,8.30078125,2.01416015625,-2.197265625,6.075439453125,-49.295654296875,-42.0721435546875
1758527330.616127,0.822265625,0.0615234375,0.6953125,9.70458984375,1.15966796875,-3.2958984375,6.1962890625,-49.273681640625,-42.110595703125
1758527330.6255877,0.822265625,0.0615234375,0.6953125,9.70458984375,1.15966796875,-3.2958984375,6.328125,-49.2626953125,-42.154541015625
1758527330.6372023,0.81982421875,0.1103515625,0.68603515625,6.77490234375,0.0,-3.35693359375,6.4434814453125,-49.251708984375,-42.198486328125
1758527330.645948,0.81982421875,0.1103515625,0.68603515625,6.77490234375,0.0,-3.35693359375,6.5533447265625,-49.251708984375,-42.2479248046875
1758527330.656178,0.80078125,0.09228515625,0.6337890625,0.9765625,-1.46484375,-2.62451171875,6.624755859375,-49.2572021484375,-42.286376953125
1758527330.6656485,0.80078125,0.09228515625,0.6337890625,0.9765625,-1.46484375,-2.62451171875,6.668701171875,-49.2681884765625,-42.3248291015625
1758527330.6768835,0.80517578125,0.03515625,0.671875,5.31005859375,-3.173828125,-2.197265625,6.7291259765625,-49.2901611328125,-42.36328125
1758527330.685712,0.80517578125,0.03515625,0.671875,5.31005859375,-3.173828125,-2.197265625,6.8115234375,-49.3231201171875,-42.396240234375
1758527330.6956758,0.8173828125,0.041015625,0.7001953125,7.9345703125,-5.06591796875,-1.953125,6.9049072265625,-49.3670654296875,-42.42919921875
1758527330.706222,0.8173828125,0.041015625,0.7001953125,7.9345703125,-5.06591796875,-1.953125,7.0037841796875,-49.41650390625,-42.462158203125
1758527330.7157457,0.80419921875,0.12646484375,0.630859375,1.5869140625,-6.2255859375,-1.03759765625,7.0697021484375,-49.471435546875,-42.484130859375
1758527330.7258284,0.80419921875,0.12646484375,0.630859375,1.5869140625,-6.2255859375,-1.03759765625,7.1026611328125,-49.537353515625,-42.506103515625
1758527330.7390952,0.77880859375,0.080078125,0.64892578125,-0.06103515625,-6.89697265625,-0.244140625,7.1246337890625,-49.603271484375,-42.5225830078125
1758527330.745798,0.77880859375,0.080078125,0.64892578125,-0.06103515625,-6.89697265625,-0.244140625,7.1356201171875,-49.6746826171875,-42.5335693359375
1758527330.755791,0.73046875,0.04638671875,0.6357421875,-1.40380859375,-7.62939453125,0.67138671875,7.130126953125,-49.74609375,-42.5390625
1758527330.766006,0.73046875,0.04638671875,0.6357421875,-1.40380859375,-7.62939453125,0.67138671875,7.119140625,-49.822998046875,-42.5390625
1758527330.775772,0.73388671875,0.08935546875,0.55859375,-2.0751953125,-7.50732421875,1.28173828125,7.0916748046875,-49.89990234375,-42.5335693359375
1758527330.7858102,0.73388671875,0.08935546875,0.55859375,-2.0751953125,-7.50732421875,1.28173828125,7.064208984375,-49.976806640625,-42.5225830078125
1758527330.7961173,0.73388671875,0.08935546875,0.55859375,-5.67626953125,-6.53076171875,1.708984375,7.020263671875,-50.0537109375,-42.506103515625
1758527330.8058345,0.7158203125,0.08349609375,0.60595703125,-5.67626953125,-6.53076171875,1.708984375,6.9488525390625,-50.11962890625,-42.4896240234375
1758527330.8158126,0.7373046875,0.0869140625,0.61328125,-8.30078125,-5.2490234375,1.953125,6.866455078125,-50.1800537109375,-42.4676513671875
1758527330.825868,0.7373046875,0.0869140625,0.61328125,-8.30078125,-5.2490234375,1.953125,6.767578125,-50.2349853515625,-42.4456787109375
1758527330.8359907,0.7158203125,0.06689453125,0.61181640625,-1.220703125,-4.33349609375,0.91552734375,6.712646484375,-50.284423828125,-42.42919921875
1758527330.8459284,0.7158203125,0.06689453125,0.61181640625,-1.220703125,-4.33349609375,0.91552734375,6.70166015625,-50.3228759765625,-42.4237060546875
1758527330.8559868,0.7607421875,0.06689453125,0.58837890625,-1.89208984375,-3.5400390625,0.06103515625,6.6851806640625,-50.361328125,-42.418212890625
1758527330.8662493,0.7607421875,0.06689453125,0.58837890625,-1.89208984375,-3.5400390625,0.06103515625,6.6741943359375,-50.394287109375,-42.4237060546875
1758527330.8759062,0.76953125,0.119140625,0.63525390625,-2.685546875,-2.50244140625,-0.3662109375,6.65771484375,-50.42724609375,-42.4237060546875
1758527330.8859496,0.76953125,0.119140625,0.63525390625,-2.685546875,-2.50244140625,-0.3662109375,6.6412353515625,-50.44921875,-42.4346923828125
1758527330.89606,0.7880859375,0.06689453125,0.634765625,-2.5634765625,-1.64794921875,-0.732421875,6.6302490234375,-50.47119140625,-42.4456787109375
1758527330.9062977,0.7880859375,0.06689453125,0.634765625,-2.5634765625,-1.64794921875,-0.732421875,6.6192626953125,-50.482177734375,-42.4566650390625
1758527330.915952,0.8017578125,0.060546875,0.6748046875,-1.28173828125,-1.40380859375,-1.28173828125,6.6192626953125,-50.4986572265625,-42.4676513671875
1758527330.9263446,0.8017578125,0.060546875,0.6748046875,-1.28173828125,-1.40380859375,-1.28173828125,6.624755859375,-50.5096435546875,-42.4896240234375
1758527330.9361305,0.7998046875,0.08203125,0.64599609375,-1.15966796875,-1.77001953125,-1.708984375,6.6357421875,-50.5206298828125,-42.5115966796875
1758527330.9462512,0.7998046875,0.08203125,0.64599609375,-1.15966796875,-1.77001953125,-1.708984375,6.6522216796875,-50.537109375,-42.5390625
1758527330.9563663,0.8212890625,0.0712890625,0.646484375,0.9765625,-2.3193359375,-2.3193359375,6.6796875,-50.5535888671875,-42.572021484375
1758527330.9670048,0.8212890625,0.0712890625,0.646484375,0.9765625,-2.3193359375,-2.3193359375,6.7181396484375,-50.5755615234375,-42.6104736328125
1758527330.976062,0.82470703125,0.037109375,0.673828125,4.39453125,-2.685546875,-2.8076171875,6.778564453125,-50.5975341796875,-42.64892578125
1758527330.9863892,0.82470703125,0.037109375,0.673828125,4.39453125,-2.685546875,-2.8076171875,6.8609619140625,-50.6195068359375,-42.69287109375
1758527330.9962208,0.806640625,0.080078125,0.6513671875,2.3193359375,-2.9296875,-2.86865234375,6.9268798828125,-50.64697265625,-42.73681640625
1758527331.0065424,0.806640625,0.080078125,0.6513671875,2.3193359375,-2.9296875,-2.86865234375,6.9818115234375,-50.6689453125,-42.78076171875
1758527331.0161295,0.78955078125,0.14697265625,0.60107421875,-3.23486328125,-3.11279296875,-1.8310546875,7.00927734375,-50.6964111328125,-42.8192138671875
1758527331.0265877,0.78955078125,0.14697265625,0.60107421875,-3.23486328125,-3.11279296875,-1.8310546875,7.0037841796875,-50.7293701171875,-42.8466796875
1758527331.0369384,0.76025390625,0.076171875,0.603515625,-7.32421875,-3.41796875,-0.9765625,6.976318359375,-50.7623291015625,-42.86865234375
1758527331.0467403,0.76025390625,0.076171875,0.603515625,-7.32421875,-3.41796875,-0.9765625,6.9268798828125,-50.7952880859375,-42.8851318359375
1758527331.0562031,0.7314453125,0.05224609375,0.576171875,-3.35693359375,-3.47900390625,-0.67138671875,6.888427734375,-50.8282470703125,-42.901611328125
1758527331.0672178,0.7314453125,0.05224609375,0.576171875,-3.35693359375,-3.47900390625,-0.67138671875,6.8719482421875,-50.8612060546875,-42.91259765625
1758527331.0761905,0.7138671875,0.0595703125,0.57568359375,-0.8544921875,-3.35693359375,-0.6103515625,6.866455078125,-50.899658203125,-42.923583984375
1758527331.0868309,0.7138671875,0.0595703125,0.57568359375,-0.8544921875,-3.35693359375,-0.6103515625,6.8719482421875,-50.9326171875,-42.9345703125
1758527331.0965335,0.7294921875,0.07373046875,0.564453125,-1.0986328125,-2.9296875,0.0,6.866455078125,-50.965576171875,-42.9400634765625
1758527331.1062539,0.7294921875,0.07373046875,0.564453125,-1.0986328125,-2.9296875,0.0,6.8609619140625,-50.9930419921875,-42.9400634765625
1758527331.1162188,0.7607421875,0.07763671875,0.57470703125,-3.5400390625,-2.0751953125,0.48828125,6.844482421875,-51.0205078125,-42.9345703125
1758527331.1263394,0.7607421875,0.07763671875,0.57470703125,-3.5400390625,-2.0751953125,0.48828125,6.8060302734375,-51.04248046875,-42.923583984375
1758527331.1363518,0.7529296875,0.0654296875,0.62109375,-3.23486328125,-2.01416015625,0.79345703125,6.767578125,-51.0699462890625,-42.9071044921875
1758527331.1462948,0.7529296875,0.0654296875,0.62109375,-3.23486328125,-2.01416015625,0.79345703125,6.7291259765625,-51.0919189453125,-42.8961181640625
1758527331.1563516,0.7744140625,0.0458984375,0.583984375,2.38037109375,-2.25830078125,0.732421875,6.7236328125,-51.1138916015625,-42.879638671875
1758527331.16693,0.7744140625,0.0458984375,0.583984375,2.38037109375,-2.25830078125,0.732421875,6.7401123046875,-51.141357421875,-42.86865234375
1758527331.176452,0.78662109375,0.06103515625,0.63330078125,4.8828125,-2.5634765625,0.67138671875,6.767578125,-51.1688232421875,-42.8521728515625
1758527331.186349,0.78662109375,0.06103515625,0.63330078125,4.8828125,-2.5634765625,0.67138671875,6.8115234375,-51.1962890625,-42.8411865234375
1758527331.1966286,0.79638671875,0.10107421875,0.61474609375,-0.6103515625,-2.86865234375,1.03759765625,6.822509765625,-51.2237548828125,-42.82470703125
1758527331.206379,0.79638671875,0.10107421875,0.61474609375,-0.6103515625,-2.86865234375,1.03759765625,6.8060302734375,-51.2567138671875,-42.8082275390625
1758527331.216417,0.80322265625,0.10888671875,0.60888671875,-6.4697265625,-3.11279296875,1.40380859375,6.7620849609375,-51.2896728515625,-42.7862548828125
1758527331.2265444,0.80322265625,0.10888671875,0.60888671875,-6.4697265625,-3.11279296875,1.40380859375,6.6851806640625,-51.3226318359375,-42.7642822265625
1758527331.2364986,0.802734375,0.046875,0.65087890625,-2.9296875,-3.72314453125,1.220703125,6.6302490234375,-51.361083984375,-42.747802734375
1758527331.246494,0.802734375,0.046875,0.65087890625,-2.9296875,-3.72314453125,1.220703125,6.5972900390625,-51.405029296875,-42.7313232421875
1758527331.2564435,0.798828125,0.0302734375,0.611328125,3.90625,-4.57763671875,0.6103515625,6.5972900390625,-51.4434814453125,-42.7203369140625
1758527331.2667,0.798828125,0.0302734375,0.611328125,3.90625,-4.57763671875,0.6103515625,6.6357421875,-51.492919921875,-42.7093505859375
1758527331.2764816,0.81689453125,0.0830078125,0.63134765625,4.69970703125,-5.0048828125,0.48828125,6.6741943359375,-51.5423583984375,-42.703857421875
1758527331.2865593,0.81689453125,0.0830078125,0.63134765625,4.69970703125,-5.0048828125,0.48828125,6.7181396484375,-51.5972900390625,-42.6983642578125
1758527331.2965963,0.8125,0.115234375,0.61767578125,-1.03759765625,-5.4931640625,0.9765625,6.734619140625,-51.646728515625,-42.69287109375
1758527331.3065436,0.8125,0.115234375,0.61767578125,-1.03759765625,-5.4931640625,0.9765625,6.7181396484375,-51.7071533203125,-42.681884765625
1758527331.3166041,0.80810546875,0.06396484375,0.611328125,-0.48828125,-6.16455078125,1.03759765625,6.712646484375,-51.767578125,-42.6708984375
1758527331.3266153,0.80810546875,0.06396484375,0.611328125,-0.48828125,-6.16455078125,1.03759765625,6.70166015625,-51.8280029296875,-42.6544189453125
1758527331.3366177,0.8056640625,0.06201171875,0.64306640625,0.30517578125,-7.01904296875,0.9765625,6.70166015625,-51.8994140625,-42.64892578125
1758527331.3466814,0.8056640625,0.06201171875,0.64306640625,0.30517578125,-7.01904296875,0.9765625,6.70166015625,-51.9708251953125,-42.637939453125
1758527331.3565798,0.7822265625,0.076171875,0.59228515625,0.244140625,-7.87353515625,1.15966796875,6.70166015625,-52.042236328125,-42.6324462890625
1758527331.3671365,0.7822265625,0.076171875,0.59228515625,0.244140625,-7.87353515625,1.15966796875,6.70166015625,-52.1246337890625,-42.6214599609375
1758527331.377434,0.77734375,0.0830078125,0.5751953125,-3.41796875,-8.11767578125,2.01416015625,6.6796875,-52.2015380859375,-42.6104736328125
1758527331.3865914,0.77734375,0.0830078125,0.5751953125,-3.41796875,-8.11767578125,2.01416015625,6.6357421875,-52.283935546875,-42.5885009765625
1758527331.397877,0.74462890625,0.0771484375,0.5478515625,-5.18798828125,-7.62939453125,2.44140625,6.5753173828125,-52.3663330078125,-42.56103515625
1758527331.4066803,0.74462890625,0.0771484375,0.5478515625,-5.18798828125,-7.62939453125,2.44140625,6.5093994140625,-52.4432373046875,-42.5335693359375
1758527331.4170516,0.78369140625,0.037109375,0.61669921875,-1.708984375,-7.32421875,2.25830078125,6.4599609375,-52.5201416015625,-42.5006103515625
1758527331.4268565,0.78369140625,0.037109375,0.61669921875,-1.708984375,-7.32421875,2.25830078125,6.4215087890625,-52.5970458984375,-42.4786376953125
1758527331.4374042,0.7900390625,0.04052734375,0.60546875,2.5634765625,-7.50732421875,1.77001953125,6.4105224609375,-52.66845703125,-42.4566650390625
1758527331.4469342,0.7900390625,0.04052734375,0.60546875,2.5634765625,-7.50732421875,1.77001953125,6.427001953125,-52.745361328125,-42.440185546875
1758527331.4572992,0.77880859375,0.07763671875,0.5703125,0.54931640625,-7.62939453125,1.64794921875,6.427001953125,-52.8167724609375,-42.4237060546875
1758527331.4669077,0.77880859375,0.07763671875,0.5703125,0.54931640625,-7.62939453125,1.64794921875,6.4215087890625,-52.8936767578125,-42.4072265625
1758527331.4772463,0.80029296875,0.09033203125,0.54296875,0.244140625,-7.568359375,1.8310546875,6.4105224609375,-52.9705810546875,-42.3907470703125
1758527331.486758,0.80029296875,0.09033203125,0.54296875,0.244140625,-7.568359375,1.8310546875,6.405029296875,-53.0474853515625,-42.374267578125
1758527331.4982746,0.81884765625,0.06298828125,0.60791015625,0.67138671875,-7.50732421875,1.89208984375,6.3995361328125,-53.1243896484375,-42.352294921875
1758527331.5068667,0.81884765625,0.06298828125,0.60791015625,0.67138671875,-7.50732421875,1.89208984375,6.39404296875,-53.19580078125,-42.330322265625
1758527331.517433,0.8369140625,0.06298828125,0.62255859375,-1.89208984375,-7.87353515625,1.708984375,6.361083984375,-53.2781982421875,-42.3138427734375
1758527331.527133,0.8369140625,0.06298828125,0.62255859375,-1.89208984375,-7.87353515625,1.708984375,6.3336181640625,-53.3551025390625,-42.29736328125
1758527331.5374956,0.83251953125,0.072265625,0.578125,-1.89208984375,-8.30078125,1.64794921875,6.30615234375,-53.4375,-42.2808837890625
1758527331.5470526,0.83251953125,0.072265625,0.578125,-1.89208984375,-8.30078125,1.64794921875,6.2786865234375,-53.525390625,-42.264404296875
1758527331.5579362,0.82080078125,0.0576171875,0.583984375,1.0986328125,-8.7890625,1.220703125,6.2841796875,-53.61328125,-42.2589111328125
1758527331.5669577,0.82080078125,0.0576171875,0.583984375,1.0986328125,-8.7890625,1.220703125,6.295166015625,-53.701171875,-42.2479248046875
1758527331.5769036,0.83251953125,0.05224609375,0.59228515625,4.82177734375,-9.09423828125,0.67138671875,6.3446044921875,-53.7890625,-42.2479248046875
1758527331.5869107,0.83251953125,0.05224609375,0.59228515625,4.82177734375,-9.09423828125,0.67138671875,6.3995361328125,-53.8824462890625,-42.2479248046875
1758527331.5977912,0.85546875,0.08203125,0.61962890625,5.92041015625,-9.21630859375,0.06103515625,6.470947265625,-53.9703369140625,-42.2589111328125
1758527331.6069999,0.85546875,0.08203125,0.61962890625,5.92041015625,-9.21630859375,0.06103515625,6.5423583984375,-54.063720703125,-42.2698974609375
1758527331.6170123,0.85107421875,0.072265625,0.5908203125,5.43212890625,-9.70458984375,-0.3662109375,6.61376953125,-54.1571044921875,-42.286376953125
1758527331.6273448,0.85107421875,0.072265625,0.5908203125,5.43212890625,-9.70458984375,-0.3662109375,6.690673828125,-54.25048828125,-42.308349609375
1758527331.6370292,0.84619140625,0.0673828125,0.58349609375,5.0048828125,-10.07080078125,-0.6103515625,6.7620849609375,-54.349365234375,-42.330322265625
1758527331.6483614,0.84619140625,0.0673828125,0.58349609375,5.0048828125,-10.07080078125,-0.6103515625,6.8389892578125,-54.4482421875,-42.3577880859375
1758527331.657019,0.8271484375,0.0673828125,0.58984375,5.859375,-10.25390625,-0.8544921875,6.92138671875,-54.547119140625,-42.38525390625
1758527331.6672351,0.8271484375,0.0673828125,0.58984375,5.859375,-10.25390625,-0.8544921875,7.00927734375,-54.64599609375,-42.418212890625
1758527331.6770878,0.810546875,0.0634765625,0.5595703125,8.056640625,-10.1318359375,-0.91552734375,7.1136474609375,-54.7393798828125,-42.451171875
1758527331.687091,0.810546875,0.0634765625,0.5595703125,8.056640625,-10.1318359375,-0.91552734375,7.2235107421875,-54.8382568359375,-42.484130859375
1758527331.6980512,0.79150390625,0.0751953125,0.546875,9.46044921875,-9.1552734375,-0.9765625,7.3443603515625,-54.9261474609375,-42.51708984375
1758527331.7071764,0.79150390625,0.0751953125,0.546875,9.46044921875,-9.1552734375,-0.9765625,7.4652099609375,-55.0140380859375,-42.5445556640625
1758527331.7171586,0.75048828125,0.0771484375,0.5419921875,10.07080078125,-7.8125,-1.03759765625,7.5860595703125,-55.08544921875,-42.5775146484375
1758527331.7274406,0.75048828125,0.0771484375,0.5419921875,10.07080078125,-7.8125,-1.03759765625,7.71240234375,-55.1568603515625,-42.6104736328125
1758527331.7381437,0.8271484375,0.1103515625,0.56884765625,3.2958984375,-6.40869140625,-0.54931640625,7.767333984375,-55.21728515625,-42.637939453125
1758527331.747587,0.8271484375,0.1103515625,0.56884765625,3.2958984375,-6.40869140625,-0.54931640625,7.8167724609375,-55.272216796875,-42.659912109375
1758527331.7573397,0.82763671875,0.103515625,0.54736328125,0.244140625,-5.126953125,-0.54931640625,7.8387451171875,-55.3216552734375,-42.681884765625
1758527331.7672143,0.82763671875,0.103515625,0.54736328125,0.244140625,-5.126953125,-0.54931640625,7.8607177734375,-55.3656005859375,-42.703857421875
1758527331.7772734,0.8037109375,0.08056640625,0.57470703125,-4.7607421875,-3.7841796875,-0.244140625,7.8277587890625,-55.3985595703125,-42.71484375
1758527331.7872646,0.8037109375,0.08056640625,0.57470703125,-4.7607421875,-3.7841796875,-0.244140625,7.7947998046875,-55.4315185546875,-42.725830078125
1758527331.7980127,0.8037109375,0.08056640625,0.57470703125,2.01416015625,-2.86865234375,-0.06103515625,7.822265625,-55.458984375,-42.7313232421875
1758527331.8075185,0.81298828125,0.04638671875,0.5498046875,2.01416015625,-2.86865234375,-0.06103515625,7.84423828125,-55.48095703125,-42.73681640625
1758527331.817356,0.826171875,0.0341796875,0.5703125,8.4228515625,-1.40380859375,-0.42724609375,7.9376220703125,-55.491943359375,-42.7423095703125
1758527331.8280332,0.826171875,0.0341796875,0.5703125,8.4228515625,-1.40380859375,-0.42724609375,8.02001953125,-55.5029296875,-42.747802734375
1758527331.8373306,0.83203125,0.07861328125,0.57958984375,6.77490234375,-0.30517578125,-0.48828125,8.0914306640625,-55.5029296875,-42.7532958984375
1758527331.8480623,0.83203125,0.07861328125,0.57958984375,6.77490234375,-0.30517578125,-0.48828125,8.1573486328125,-55.5029296875,-42.7587890625
1758527331.8573992,0.85400390625,0.1005859375,0.546875,7.568359375,0.48828125,-0.18310546875,8.228759765625,-55.4974365234375,-42.7587890625
1758527331.8684409,0.85400390625,0.1005859375,0.546875,7.568359375,0.48828125,-0.18310546875,8.3001708984375,-55.4864501953125,-42.7532958984375
1758527331.8773935,0.85498046875,0.08056640625,0.57763671875,6.2255859375,1.46484375,0.1220703125,8.3551025390625,-55.4754638671875,-42.7423095703125
1758527331.887817,0.85498046875,0.08056640625,0.57763671875,6.2255859375,1.46484375,0.1220703125,8.4100341796875,-55.458984375,-42.7313232421875
1758527331.8981712,0.86572265625,0.08447265625,0.5830078125,3.72314453125,2.197265625,0.6103515625,8.426513671875,-55.43701171875,-42.71484375
1758527331.9078882,0.86572265625,0.08447265625,0.5830078125,3.72314453125,2.197265625,0.6103515625,8.448486328125,-55.4205322265625,-42.69287109375
1758527331.917594,0.86328125,0.11474609375,0.576171875,-1.3427734375,2.8076171875,1.3427734375,8.404541015625,-55.39306640625,-42.6544189453125
1758527331.92851,0.86328125,0.11474609375,0.576171875,-1.3427734375,2.8076171875,1.3427734375,8.3660888671875,-55.3656005859375,-42.6214599609375
1758527331.9394703,0.8525390625,0.10205078125,0.55078125,-5.31005859375,2.86865234375,1.77001953125,8.28369140625,-55.3436279296875,-42.5775146484375
1758527331.9474225,0.8525390625,0.10205078125,0.55078125,-5.31005859375,2.86865234375,1.77001953125,8.206787109375,-55.3216552734375,-42.5335693359375
1758527331.9575582,0.86572265625,0.07080078125,0.58837890625,-3.2958984375,2.5634765625,1.52587890625,8.1463623046875,-55.2996826171875,-42.4951171875
1758527331.9675705,0.86572265625,0.07080078125,0.58837890625,-3.2958984375,2.5634765625,1.52587890625,8.0914306640625,-55.2777099609375,-42.4566650390625
1758527331.977545,0.85791015625,0.068359375,0.60009765625,-0.6103515625,2.13623046875,0.79345703125,8.0694580078125,-55.26123046875,-42.4346923828125
1758527331.9875612,0.85791015625,0.068359375,0.60009765625,-0.6103515625,2.13623046875,0.79345703125,8.0474853515625,-55.2447509765625,-42.4127197265625
1758527331.9978664,0.84619140625,0.080078125,0.57421875,-0.79345703125,1.40380859375,0.6103515625,8.031005859375,-55.2337646484375,-42.3907470703125
1758527332.0075412,0.84619140625,0.080078125,0.57421875,-0.79345703125,1.40380859375,0.6103515625,8.009033203125,-55.2227783203125,-42.374267578125
1758527332.0175862,0.8466796875,0.08544921875,0.54736328125,0.18310546875,1.03759765625,0.54931640625,8.0035400390625,-55.21728515625,-42.3577880859375
1758527332.0278764,0.8466796875,0.08544921875,0.54736328125,0.18310546875,1.03759765625,0.54931640625,7.9925537109375,-55.2117919921875,-42.34130859375
1758527332.0377371,0.85205078125,0.07568359375,0.57568359375,2.99072265625,0.732421875,0.1220703125,8.02001953125,-55.206298828125,-42.330322265625
1758527332.047659,0.85205078125,0.07568359375,0.57568359375,2.99072265625,0.732421875,0.1220703125,8.0474853515625,-55.2008056640625,-42.3193359375
1758527332.0576982,0.86669921875,0.08349609375,0.57080078125,1.89208984375,0.42724609375,-0.18310546875,8.0694580078125,-55.2008056640625,-42.3138427734375
1758527332.0677364,0.86669921875,0.08349609375,0.57080078125,1.89208984375,0.42724609375,-0.18310546875,8.0914306640625,-55.2008056640625,-42.3138427734375
1758527332.077829,0.8671875,0.0791015625,0.56591796875,2.197265625,0.1220703125,-0.6103515625,8.118896484375,-55.2008056640625,-42.3138427734375
1758527332.0878246,0.8671875,0.0791015625,0.56591796875,2.197265625,0.1220703125,-0.6103515625,8.15185546875,-55.206298828125,-42.3193359375
1758527332.0978694,0.8515625,0.07958984375,0.5771484375,2.5634765625,-0.3662109375,-1.0986328125,8.1903076171875,-55.2117919921875,-42.330322265625
1758527332.1076832,0.8515625,0.07958984375,0.5771484375,2.5634765625,-0.3662109375,-1.0986328125,8.2342529296875,-55.21728515625,-42.34130859375
1758527332.1178305,0.8447265625,0.0751953125,0.55908203125,-0.48828125,-0.8544921875,-1.15966796875,8.2452392578125,-55.228271484375,-42.3577880859375
1758527332.1278086,0.8447265625,0.0751953125,0.55908203125,-0.48828125,-0.8544921875,-1.15966796875,8.2562255859375,-55.2447509765625,-42.3687744140625
1758527332.1379733,0.82568359375,0.08251953125,0.53759765625,-0.67138671875,-0.79345703125,-1.220703125,8.2672119140625,-55.2557373046875,-42.38525390625
1758527332.1478045,0.82568359375,0.08251953125,0.53759765625,-0.67138671875,-0.79345703125,-1.220703125,8.2781982421875,-55.2667236328125,-42.4017333984375
1758527332.157841,0.818359375,0.07080078125,0.587890625,0.91552734375,-0.54931640625,-0.9765625,8.3001708984375,-55.272216796875,-42.4127197265625
1758527332.1682432,0.818359375,0.07080078125,0.587890625,0.91552734375,-0.54931640625,-0.9765625,8.3221435546875,-55.2777099609375,-42.4237060546875
1758527332.1778407,0.78857421875,0.0869140625,0.541015625,-0.67138671875,0.30517578125,-0.1220703125,8.316650390625,-55.2777099609375,-42.4237060546875
1758527332.1878803,0.78857421875,0.0869140625,0.541015625,-0.67138671875,0.30517578125,-0.1220703125,8.3111572265625,-55.2777099609375,-42.418212890625
1758527332.1979587,0.79248046875,0.10205078125,0.51416015625,-3.0517578125,1.0986328125,0.732421875,8.2672119140625,-55.272216796875,-42.396240234375
1758527332.2078416,0.79248046875,0.10205078125,0.51416015625,-3.0517578125,1.0986328125,0.732421875,8.2232666015625,-55.2667236328125,-42.374267578125
1758527332.2179756,0.78662109375,0.0908203125,0.52880859375,-6.2255859375,1.708984375,1.3427734375,8.1463623046875,-55.250244140625,-42.34130859375
1758527332.227872,0.78662109375,0.0908203125,0.52880859375,-6.2255859375,1.708984375,1.3427734375,8.06396484375,-55.2392578125,-42.308349609375
1758527332.2380757,0.78759765625,0.0625,0.568359375,-1.89208984375,1.46484375,1.77001953125,8.02001953125,-55.2337646484375,-42.2698974609375
1758527332.248022,0.78759765625,0.0625,0.568359375,-1.89208984375,1.46484375,1.77001953125,7.97607421875,-55.2227783203125,-42.2369384765625
1758527332.2580397,0.7841796875,0.02880859375,0.55029296875,7.9345703125,0.8544921875,1.220703125,8.0364990234375,-55.21728515625,-42.20947265625
1758527332.268489,0.7841796875,0.02880859375,0.55029296875,7.9345703125,0.8544921875,1.220703125,8.0914306640625,-55.2117919921875,-42.1820068359375
1758527332.2779887,0.77978515625,0.05810546875,0.5302734375,10.19287109375,0.30517578125,0.30517578125,8.184814453125,-55.206298828125,-42.1710205078125
1758527332.2880447,0.77978515625,0.05810546875,0.5302734375,10.19287109375,0.30517578125,0.30517578125,8.272705078125,-55.206298828125,-42.1600341796875
1758527332.2982903,0.7646484375,0.10791015625,0.509765625,10.986328125,-0.1220703125,0.0,8.3770751953125,-55.2117919921875,-42.154541015625
1758527332.3079782,0.7646484375,0.10791015625,0.509765625,10.986328125,-0.1220703125,0.0,8.4869384765625,-55.2117919921875,-42.154541015625
1758527332.318013,0.7685546875,0.10302734375,0.52587890625,15.9912109375,-0.48828125,0.0,8.646240234375,-55.21728515625,-42.1490478515625
1758527332.32798,0.7685546875,0.10302734375,0.52587890625,15.9912109375,-0.48828125,0.0,8.8055419921875,-55.2227783203125,-42.1490478515625
1758527332.3389332,0.77490234375,0.099609375,0.51416015625,12.451171875,-0.1220703125,0.1220703125,8.9263916015625,-55.228271484375,-42.1435546875
1758527332.348107,0.77490234375,0.099609375,0.51416015625,12.451171875,-0.1220703125,0.1220703125,9.0472412109375,-55.2337646484375,-42.1435546875
1758527332.3581605,0.77685546875,0.11376953125,0.51611328125,6.103515625,0.9765625,0.1220703125,9.107666015625,-55.2227783203125,-42.1380615234375
1758527332.3685362,0.77685546875,0.11376953125,0.51611328125,6.103515625,0.9765625,0.1220703125,9.1680908203125,-55.21728515625,-42.1270751953125
1758527332.3782153,0.7724609375,0.091796875,0.5380859375,9.033203125,1.953125,0.0,9.2559814453125,-55.2008056640625,-42.12158203125
1758527332.3881452,0.7724609375,0.091796875,0.5380859375,9.033203125,1.953125,0.0,9.3438720703125,-55.1788330078125,-42.1160888671875
1758527332.3984594,0.76708984375,0.06884765625,0.51806640625,10.68115234375,2.8076171875,-0.1220703125,9.4427490234375,-55.1568603515625,-42.110595703125
1758527332.4081275,0.76708984375,0.06884765625,0.51806640625,10.68115234375,2.8076171875,-0.1220703125,9.547119140625,-55.12939453125,-42.099609375
1758527332.418356,0.794921875,0.07763671875,0.54248046875,12.51220703125,4.0283203125,-0.732421875,9.66796875,-55.0909423828125,-42.099609375
1758527332.42815,0.794921875,0.07763671875,0.54248046875,12.51220703125,4.0283203125,-0.732421875,9.788818359375,-55.052490234375,-42.099609375
1758527332.4385362,0.806640625,0.119140625,0.57470703125,9.21630859375,5.2490234375,-0.732421875,9.876708984375,-55.0030517578125,-42.0941162109375
1758527332.4482422,0.806640625,0.119140625,0.57470703125,9.21630859375,5.2490234375,-0.732421875,9.964599609375,-54.9481201171875,-42.0941162109375
1758527332.4583023,0.810546875,0.13134765625,0.5361328125,5.18798828125,5.859375,-0.1220703125,10.0030517578125,-54.8931884765625,-42.07763671875
1758527332.468713,0.82958984375,0.12109375,0.53759765625,1.64794921875,6.40869140625,-0.06103515625,10.0250244140625,-54.8382568359375,-42.0611572265625
1758527332.4782429,0.82958984375,0.12109375,0.53759765625,1.64794921875,6.40869140625,-0.06103515625,10.0250244140625,-54.77783203125,-42.044677734375
1758527332.48828,0.83935546875,0.0908203125,0.59765625,4.5166015625,6.34765625,-0.79345703125,10.052490234375,-54.7174072265625,-42.0281982421875
1758527332.498549,0.83935546875,0.0908203125,0.59765625,4.5166015625,6.34765625,-0.79345703125,10.096435546875,-54.656982421875,-42.022705078125
1758527332.5082905,0.84716796875,0.07958984375,0.59716796875,7.080078125,5.859375,-1.40380859375,10.1513671875,-54.60205078125,-42.022705078125
1758527332.5184035,0.84716796875,0.07958984375,0.59716796875,7.080078125,5.859375,-1.40380859375,10.228271484375,-54.5416259765625,-42.0281982421875
1758527332.528279,0.85205078125,0.0927734375,0.5830078125,8.056640625,5.4931640625,-1.3427734375,10.30517578125,-54.4866943359375,-42.03369140625
1758527332.5398262,0.85205078125,0.0927734375,0.5830078125,8.056640625,5.4931640625,-1.3427734375,10.382080078125,-54.437255859375,-42.03369140625
1758527332.5486655,0.92236328125,0.130859375,0.60791015625,-0.1220703125,6.04248046875,-0.6103515625,10.4205322265625,-54.38232421875,-42.0281982421875
1758527332.5584345,0.92236328125,0.130859375,0.60791015625,-0.1220703125,6.04248046875,-0.6103515625,10.4095458984375,-54.327392578125,-42.0172119140625
1758527332.5687928,0.88037109375,0.154296875,0.619140625,-11.16943359375,7.38525390625,2.01416015625,10.3216552734375,-54.2669677734375,-41.9842529296875
1758527332.5784109,0.88037109375,0.154296875,0.619140625,-11.16943359375,7.38525390625,2.01416015625,10.1678466796875,-54.20654296875,-41.923828125
1758527332.5884085,0.8642578125,0.10498046875,0.6142578125,-16.9677734375,8.30078125,4.94384765625,9.964599609375,-54.140625,-41.8414306640625
1758527332.5987375,0.8642578125,0.10498046875,0.6142578125,-16.9677734375,8.30078125,4.94384765625,9.7174072265625,-54.07470703125,-41.7315673828125
1758527332.6084077,0.828125,0.08203125,0.5771484375,-21.91162109375,7.87353515625,6.53076171875,9.4317626953125,-54.0087890625,-41.6162109375
1758527332.6185164,0.828125,0.08203125,0.5771484375,-21.91162109375,7.87353515625,6.53076171875,9.1131591796875,-53.9483642578125,-41.484375
1758527332.6284318,0.82666015625,0.078125,0.572265625,-14.34326171875,6.89697265625,6.2255859375,8.8385009765625,-53.887939453125,-41.3580322265625
1758527332.6388073,0.82666015625,0.078125,0.572265625,-14.34326171875,6.89697265625,6.2255859375,8.602294921875,-53.8385009765625,-41.231689453125
1758527332.6485322,0.828125,0.04150390625,0.64013671875,-3.47900390625,5.9814453125,5.126953125,8.4320068359375,-53.7890625,-41.121826171875
1758527332.6587875,0.828125,0.04150390625,0.64013671875,-3.47900390625,5.9814453125,5.126953125,8.316650390625,-53.7396240234375,-41.0174560546875
1758527332.6690304,0.79931640625,0.0400390625,0.6064453125,7.38525390625,4.82177734375,3.5400390625,8.2672119140625,-53.701171875,-40.93505859375
1758527332.6785464,0.79931640625,0.0400390625,0.6064453125,7.38525390625,4.82177734375,3.5400390625,8.28369140625,-53.6572265625,-40.8636474609375
1758527332.6885486,0.77978515625,0.0615234375,0.59033203125,18.49365234375,4.0283203125,2.5634765625,8.360595703125,-53.624267578125,-40.80322265625
1758527332.6989043,0.77978515625,0.0615234375,0.59033203125,18.49365234375,4.0283203125,2.5634765625,8.4979248046875,-53.59130859375,-40.7537841796875
1758527332.708832,0.78759765625,0.12255859375,0.53857421875,12.6953125,3.662109375,2.86865234375,8.602294921875,-53.558349609375,-40.6988525390625
1758527332.7189286,0.78759765625,0.12255859375,0.53857421875,12.6953125,3.662109375,2.86865234375,8.67919921875,-53.5308837890625,-40.6494140625
1758527332.7289243,0.79638671875,0.1474609375,0.5146484375,-2.38037109375,4.57763671875,3.2958984375,8.67919921875,-53.4979248046875,-40.5889892578125
1758527332.7390232,0.79638671875,0.1474609375,0.5146484375,-2.38037109375,4.57763671875,3.2958984375,8.602294921875,-53.45947265625,-40.5230712890625
1758527332.748968,0.77734375,0.12060546875,0.57080078125,-3.35693359375,5.37109375,3.35693359375,8.525390625,-53.426513671875,-40.4571533203125
1758527332.7589943,0.77734375,0.12060546875,0.57080078125,-3.35693359375,5.37109375,3.35693359375,8.448486328125,-53.382568359375,-40.3912353515625
1758527332.7697687,0.7890625,0.08447265625,0.61376953125,3.90625,4.57763671875,2.99072265625,8.404541015625,-53.3441162109375,-40.3253173828125
1758527332.7786803,0.7890625,0.08447265625,0.61376953125,3.90625,4.57763671875,2.99072265625,8.404541015625,-53.3056640625,-40.2703857421875
1758527332.789491,0.7646484375,0.04833984375,0.5595703125,7.75146484375,3.662109375,1.953125,8.4320068359375,-53.272705078125,-40.220947265625
1758527332.798936,0.7646484375,0.04833984375,0.5595703125,7.75146484375,3.662109375,1.953125,8.4759521484375,-53.23974609375,-40.1824951171875
1758527332.8090057,0.79052734375,0.05322265625,0.5595703125,5.37109375,3.84521484375,2.197265625,8.5089111328125,-53.2122802734375,-40.14404296875
1758527332.8187711,0.79052734375,0.05322265625,0.5595703125,5.37109375,3.84521484375,2.197265625,8.525390625,-53.1793212890625,-40.10009765625
1758527332.8290334,0.79638671875,0.0625,0.607421875,12.63427734375,4.21142578125,2.8076171875,8.5693359375,-53.1463623046875,-40.0506591796875
1758527332.8401725,0.79638671875,0.0625,0.607421875,12.63427734375,4.21142578125,2.8076171875,8.646240234375,-53.1134033203125,-39.9957275390625
1758527332.8493824,0.82177734375,0.06396484375,0.65087890625,20.6298828125,3.7841796875,2.74658203125,8.7615966796875,-53.0804443359375,-39.9407958984375
1758527332.8588073,0.82177734375,0.06396484375,0.65087890625,20.6298828125,3.7841796875,2.74658203125,8.9154052734375,-53.052978515625,-39.891357421875
1758527332.8701446,0.8310546875,0.08740234375,0.60205078125,20.69091796875,2.25830078125,2.197265625,9.07470703125,-53.0255126953125,-39.847412109375
1758527332.8787768,0.8310546875,0.08740234375,0.60205078125,20.69091796875,2.25830078125,2.197265625,9.239501953125,-53.009033203125,-39.8089599609375
1758527332.8897345,0.82861328125,0.1162109375,0.5595703125,16.7236328125,1.46484375,1.8310546875,9.38232421875,-52.998046875,-39.7760009765625
1758527332.8990424,0.82861328125,0.1162109375,0.5595703125,16.7236328125,1.46484375,1.8310546875,9.51416015625,-52.987060546875,-39.7430419921875
1758527332.9090526,0.8232421875,0.09521484375,0.6123046875,21.66748046875,1.40380859375,1.708984375,9.6734619140625,-52.9815673828125,-39.7100830078125
1758527332.918921,0.8232421875,0.09521484375,0.6123046875,21.66748046875,1.40380859375,1.708984375,9.854736328125,-52.97607421875,-39.6826171875
1758527332.9288774,0.81787109375,0.0712890625,0.6591796875,28.13720703125,0.79345703125,1.89208984375,10.0689697265625,-52.9705810546875,-39.649658203125
1758527332.939286,0.81787109375,0.0712890625,0.6591796875,28.13720703125,0.79345703125,1.89208984375,10.3106689453125,-52.9705810546875,-39.6221923828125
1758527332.9489586,0.810546875,0.0654296875,0.58642578125,25.32958984375,-0.30517578125,1.64794921875,10.535888671875,-52.9705810546875,-39.5947265625
1758527332.9597814,0.810546875,0.0654296875,0.58642578125,25.32958984375,-0.30517578125,1.64794921875,10.7501220703125,-52.97607421875,-39.57275390625
1758527332.9692848,0.791015625,0.15869140625,0.52392578125,15.9912109375,-0.6103515625,1.40380859375,10.92041015625,-52.987060546875,-39.55078125
1758527332.9789515,0.791015625,0.15869140625,0.52392578125,15.9912109375,-0.6103515625,1.40380859375,11.05224609375,-52.998046875,-39.5343017578125
1758527332.9891772,0.7822265625,0.23486328125,0.5087890625,3.11279296875,0.0,2.25830078125,11.1126708984375,-53.009033203125,-39.5068359375
1758527332.9991364,0.7822265625,0.23486328125,0.5087890625,3.11279296875,0.0,2.25830078125,11.1126708984375,-53.02001953125,-39.473876953125
1758527333.0093572,0.783203125,0.19921875,0.52001953125,-13.24462890625,1.220703125,3.84521484375,11.0302734375,-53.0255126953125,-39.4244384765625
1758527333.019081,0.783203125,0.19921875,0.52001953125,-13.24462890625,1.220703125,3.84521484375,10.8544921875,-53.0255126953125,-39.364013671875
1758527333.0290291,0.7783203125,0.1474609375,0.56005859375,-19.95849609375,1.220703125,5.06591796875,10.645751953125,-53.031005859375,-39.298095703125
1758527333.0393412,0.7783203125,0.1474609375,0.56005859375,-19.95849609375,1.220703125,5.06591796875,10.39306640625,-53.031005859375,-39.2156982421875
1758527333.0490887,0.771484375,0.1220703125,0.56689453125,-27.89306640625,0.732421875,5.37109375,10.107421875,-53.0364990234375,-39.1387939453125
1758527333.059713,0.771484375,0.1220703125,0.56689453125,-27.89306640625,0.732421875,5.37109375,9.77783203125,-53.0474853515625,-39.056396484375
1758527333.0696254,0.7646484375,0.138671875,0.505859375,-35.58349609375,1.953125,4.82177734375,9.415283203125,-53.0474853515625,-38.9739990234375
1758527333.079061,0.7646484375,0.138671875,0.505859375,-35.58349609375,1.953125,4.82177734375,9.019775390625,-53.0419921875,-38.902587890625
1758527333.0891087,0.7724609375,0.12890625,0.57861328125,-41.50390625,3.11279296875,4.69970703125,8.5968017578125,-53.031005859375,-38.82568359375
1758527333.0991297,0.7724609375,0.12890625,0.57861328125,-41.50390625,3.11279296875,4.69970703125,8.140869140625,-53.009033203125,-38.748779296875
1758527333.109249,0.78173828125,0.06494140625,0.6279296875,-36.07177734375,2.44140625,4.69970703125,7.723388671875,-52.9925537109375,-38.671875
1758527333.119343,0.78173828125,0.06494140625,0.6279296875,-36.07177734375,2.44140625,4.69970703125,7.3223876953125,-52.9815673828125,-38.60595703125
1758527333.1291213,0.798828125,0.001953125,0.59375,-24.10888671875,1.89208984375,3.5400390625,6.9927978515625,-52.965087890625,-38.5455322265625
1758527333.1428843,0.798828125,0.001953125,0.59375,-24.10888671875,1.89208984375,3.5400390625,6.7236328125,-52.9541015625,-38.4906005859375
1758527333.1493118,0.79638671875,0.0400390625,0.60888671875,-21.30126953125,2.3193359375,1.77001953125,6.48193359375,-52.9376220703125,-38.4521484375
1758527333.1592798,0.79638671875,0.0400390625,0.60888671875,-21.30126953125,2.3193359375,1.77001953125,6.2567138671875,-52.921142578125,-38.4246826171875
1758527333.172503,0.80322265625,0.07373046875,0.623046875,-13.5498046875,2.74658203125,1.3427734375,6.0699462890625,-52.899169921875,-38.4027099609375
1758527333.179984,0.80322265625,0.07373046875,0.623046875,-13.5498046875,2.74658203125,1.3427734375,5.9326171875,-52.877197265625,-38.38623046875
1758527333.1892629,0.81298828125,0.056640625,0.62255859375,-11.04736328125,2.685546875,1.3427734375,5.80078125,-52.8497314453125,-38.3697509765625
1758527333.2042506,0.81298828125,0.056640625,0.62255859375,-11.04736328125,2.685546875,1.3427734375,5.679931640625,-52.8277587890625,-38.353271484375
1758527333.2109392,0.81591796875,0.0712890625,0.58056640625,-14.7705078125,2.9296875,1.28173828125,5.5426025390625,-52.80029296875,-38.3367919921875
1758527333.2193887,0.81591796875,0.0712890625,0.58056640625,-14.7705078125,2.9296875,1.28173828125,5.3887939453125,-52.7728271484375,-38.3148193359375
1758527333.2293289,0.818359375,0.0703125,0.61767578125,-15.31982421875,3.11279296875,1.28173828125,5.2294921875,-52.7508544921875,-38.29833984375
1758527333.2429523,0.818359375,0.0703125,0.61767578125,-15.31982421875,3.11279296875,1.28173828125,5.0701904296875,-52.723388671875,-38.2763671875
1758527333.2493656,0.81201171875,0.046875,0.6279296875,-14.83154296875,3.173828125,1.708984375,4.910888671875,-52.6959228515625,-38.25439453125
1758527333.2601695,0.81201171875,0.046875,0.6279296875,-14.83154296875,3.173828125,1.708984375,4.7515869140625,-52.66845703125,-38.232421875
1758527333.273811,0.82080078125,0.0205078125,0.6240234375,-12.75634765625,3.35693359375,2.01416015625,4.5977783203125,-52.635498046875,-38.2049560546875
1758527333.2804058,0.82080078125,0.0205078125,0.6240234375,-12.75634765625,3.35693359375,2.01416015625,4.449462890625,-52.6080322265625,-38.1719970703125
1758527333.2895362,0.81787109375,0.03564453125,0.62353515625,-15.07568359375,3.0517578125,2.197265625,4.2901611328125,-52.58056640625,-38.1390380859375
1758527333.304114,0.81787109375,0.03564453125,0.62353515625,-15.07568359375,3.0517578125,2.197265625,4.1143798828125,-52.5531005859375,-38.1060791015625
1758527333.3105655,0.80517578125,0.07861328125,0.59033203125,-20.08056640625,2.62451171875,2.25830078125,3.9166259765625,-52.525634765625,-38.0731201171875
1758527333.3194888,0.80517578125,0.07861328125,0.59033203125,-20.08056640625,2.62451171875,2.25830078125,3.69140625,-52.503662109375,-38.0401611328125
1758527333.3295796,0.80810546875,0.05419921875,0.61376953125,-16.2353515625,2.3193359375,1.46484375,3.4991455078125,-52.4871826171875,-38.0126953125
1758527333.340241,0.80810546875,0.05419921875,0.61376953125,-16.2353515625,2.3193359375,1.46484375,3.328857421875,-52.4652099609375,-37.9962158203125
1758527333.349608,0.8251953125,0.01416015625,0.6484375,-14.46533203125,1.5869140625,0.48828125,3.175048828125,-52.44873046875,-37.979736328125
1758527333.3595035,0.8251953125,0.01416015625,0.6484375,-14.46533203125,1.5869140625,0.48828125,3.0377197265625,-52.437744140625,-37.979736328125
1758527333.3703399,0.8251953125,0.033203125,0.60888671875,-15.07568359375,0.18310546875,-0.48828125,2.8948974609375,-52.4322509765625,-37.9852294921875
1758527333.3795218,0.8251953125,0.033203125,0.60888671875,-15.07568359375,0.18310546875,-0.48828125,2.7630615234375,-52.4322509765625,-38.001708984375
1758527333.3900924,0.8095703125,0.03466796875,0.62890625,-9.33837890625,-1.03759765625,-1.5869140625,2.6641845703125,-52.437744140625,-38.023681640625
1758527333.4001765,0.8095703125,0.03466796875,0.62890625,-9.33837890625,-1.03759765625,-1.5869140625,2.603759765625,-52.44873046875,-38.056640625
1758527333.409729,0.8046875,-0.04736328125,0.65966796875,6.2255859375,-1.5869140625,-2.197265625,2.6202392578125,-52.459716796875,-38.0950927734375
1758527333.4196658,0.8046875,-0.04736328125,0.65966796875,6.2255859375,-1.5869140625,-2.197265625,2.7191162109375,-52.4761962890625,-38.133544921875
1758527333.4297013,0.80322265625,-0.0078125,0.6005859375,3.5400390625,-1.64794921875,-1.77001953125,2.79052734375,-52.49267578125,-38.1719970703125
1758527333.4420857,0.80322265625,-0.0078125,0.6005859375,3.5400390625,-1.64794921875,-1.77001953125,2.845458984375,-52.5091552734375,-38.21044921875
1758527333.4502668,0.783203125,0.09521484375,0.58837890625,-5.37109375,-1.15966796875,0.18310546875,2.79052734375,-52.5201416015625,-38.21044921875
1758527333.4600716,0.783203125,0.09521484375,0.58837890625,-5.37109375,-1.15966796875,0.18310546875,2.735595703125,-52.5311279296875,-38.2159423828125
1758527333.4704945,0.7626953125,0.072265625,0.5673828125,-13.671875,-0.3662109375,2.685546875,2.57080078125,-52.53662109375,-38.177490234375
1758527333.4796407,0.7626953125,0.072265625,0.5673828125,-13.671875,-0.3662109375,2.685546875,2.4114990234375,-52.5421142578125,-38.1390380859375
1758527333.4900556,0.7861328125,-0.01220703125,0.60205078125,-17.9443359375,0.06103515625,4.2724609375,2.1807861328125,-52.5421142578125,-38.0731201171875
1758527333.5004935,0.7861328125,-0.01220703125,0.60205078125,-17.9443359375,0.06103515625,4.2724609375,1.95556640625,-52.547607421875,-38.0126953125
1758527333.5098562,0.783203125,0.02587890625,0.5908203125,-25.390625,0.6103515625,5.37109375,1.636962890625,-52.5421142578125,-37.9302978515625
1758527333.519825,0.783203125,0.02587890625,0.5908203125,-25.390625,0.6103515625,5.37109375,1.3238525390625,-52.53662109375,-37.8424072265625
1758527333.5298872,0.7490234375,0.0078125,0.57666015625,-19.83642578125,0.79345703125,5.67626953125,1.0601806640625,-52.5311279296875,-37.7545166015625
1758527333.5403311,0.7490234375,0.0078125,0.57666015625,-19.83642578125,0.79345703125,5.67626953125,0.802001953125,-52.525634765625,-37.6666259765625
1758527333.5500426,0.78125,-0.07421875,0.6376953125,-8.056640625,0.244140625,5.0048828125,0.6591796875,-52.525634765625,-37.59521484375
1758527333.5619872,0.78125,-0.07421875,0.6376953125,-8.056640625,0.244140625,5.0048828125,0.516357421875,-52.5201416015625,-37.518310546875
1758527333.5739968,0.7958984375,-0.0439453125,0.5869140625,0.6103515625,-0.67138671875,3.84521484375,0.472412109375,-52.5311279296875,-37.46337890625
1758527333.5801668,0.7958984375,-0.0439453125,0.5869140625,0.6103515625,-0.67138671875,3.84521484375,0.428466796875,-52.53662109375,-37.4029541015625
1758527333.5903497,0.818359375,0.05810546875,0.61181640625,-7.4462890625,-1.15966796875,3.90625,0.3021240234375,-52.547607421875,-37.342529296875
1758527333.6062183,0.818359375,0.05810546875,0.61181640625,-7.4462890625,-1.15966796875,3.90625,0.1812744140625,-52.55859375,-37.28759765625
1758527333.6140368,0.81884765625,0.06982421875,0.5810546875,-13.7939453125,-2.13623046875,4.57763671875,-0.0054931640625,-52.5860595703125,-37.2161865234375
1758527333.620159,0.81884765625,0.06982421875,0.5810546875,-13.7939453125,-2.13623046875,4.57763671875,-0.1922607421875,-52.6080322265625,-37.144775390625
1758527333.630463,0.822265625,-0.0556640625,0.65283203125,-4.33349609375,-3.60107421875,3.96728515625,-0.274658203125,-52.646484375,-37.0843505859375
1758527333.6401932,0.822265625,-0.0556640625,0.65283203125,-4.33349609375,-3.60107421875,3.96728515625,-0.362548828125,-52.679443359375,-37.02392578125
1758527333.6501803,0.83203125,-0.08056640625,0.62939453125,5.0048828125,-5.18798828125,2.5634765625,-0.3460693359375,-52.734375,-36.9854736328125
1758527333.6600356,0.83203125,-0.08056640625,0.62939453125,5.0048828125,-5.18798828125,2.5634765625,-0.3350830078125,-52.7838134765625,-36.947021484375
1758527333.670941,0.83056640625,-0.013671875,0.61279296875,9.82666015625,-5.859375,1.40380859375,-0.2581787109375,-52.84423828125,-36.9305419921875
1758527333.680045,0.83056640625,-0.013671875,0.61279296875,9.82666015625,-5.859375,1.40380859375,-0.1812744140625,-52.9046630859375,-36.9085693359375
1758527333.6907246,0.82861328125,0.02587890625,0.6181640625,8.23974609375,-6.16455078125,1.5869140625,-0.1263427734375,-52.965087890625,-36.8865966796875
1758527333.7004116,0.82861328125,0.02587890625,0.6181640625,8.23974609375,-6.16455078125,1.5869140625,-0.06591796875,-53.0255126953125,-36.8646240234375
1758527333.710653,0.814453125,0.0009765625,0.58984375,14.22119140625,-6.4697265625,1.5869140625,0.0494384765625,-53.0914306640625,-36.8426513671875
1758527333.7200673,0.814453125,0.0009765625,0.58984375,14.22119140625,-6.4697265625,1.5869140625,0.164794921875,-53.1573486328125,-36.8206787109375
1758527333.7313087,0.833984375,-0.0400390625,0.6357421875,16.6015625,-6.9580078125,1.46484375,0.3076171875,-53.2232666015625,-36.7987060546875
1758527333.7416036,0.833984375,-0.0400390625,0.6357421875,16.6015625,-6.9580078125,1.46484375,0.450439453125,-53.294677734375,-36.7767333984375
1758527333.75013,0.8388671875,0.02978515625,0.58154296875,4.08935546875,-7.2021484375,1.52587890625,0.46142578125,-53.3660888671875,-36.7547607421875
1758527333.760256,0.8388671875,0.02978515625,0.58154296875,4.08935546875,-7.2021484375,1.52587890625,0.4779052734375,-53.4375,-36.7327880859375
1758527333.7704256,0.81884765625,0.05322265625,0.5966796875,1.5869140625,-6.89697265625,1.953125,0.4669189453125,-53.5089111328125,-36.705322265625
1758527333.7802222,0.81884765625,0.05322265625,0.5966796875,1.5869140625,-6.89697265625,1.953125,0.46142578125,-53.5748291015625,-36.6778564453125
1758527333.7902758,0.802734375,-0.00927734375,0.62255859375,2.685546875,-6.9580078125,2.74658203125,0.450439453125,-53.646240234375,-36.639404296875
1758527333.8017638,0.802734375,-0.00927734375,0.62255859375,2.685546875,-6.9580078125,2.74658203125,0.439453125,-53.712158203125,-36.595458984375
1758527333.810319,0.78759765625,-0.037109375,0.5732421875,5.9814453125,-6.7138671875,3.11279296875,0.4559326171875,-53.778076171875,-36.551513671875
1758527333.8203616,0.78759765625,-0.037109375,0.5732421875,5.9814453125,-6.7138671875,3.11279296875,0.472412109375,-53.843994140625,-36.507568359375
1758527333.8307047,0.7548828125,0.01025390625,0.56005859375,-0.244140625,-5.37109375,3.5400390625,0.41748046875,-53.8934326171875,-36.45263671875
1758527333.8405583,0.7548828125,0.01025390625,0.56005859375,-0.244140625,-5.37109375,3.5400390625,0.362548828125,-53.94287109375,-36.397705078125
1758527333.8502264,0.71728515625,0.04833984375,0.5302734375,-3.41796875,-2.86865234375,4.0283203125,0.274658203125,-53.9703369140625,-36.3372802734375
1758527333.860436,0.71728515625,0.04833984375,0.5302734375,-3.41796875,-2.86865234375,4.0283203125,0.186767578125,-53.997802734375,-36.2823486328125
1758527333.870587,0.763671875,-0.0009765625,0.59765625,-4.45556640625,-0.48828125,4.94384765625,0.0823974609375,-53.997802734375,-36.2054443359375
1758527333.880324,0.763671875,-0.0009765625,0.59765625,-4.45556640625,-0.48828125,4.94384765625,-0.02197265625,-53.997802734375,-36.134033203125
1758527333.8903675,0.78466796875,-0.0146484375,0.57177734375,-11.29150390625,1.52587890625,4.94384765625,-0.19775390625,-53.975830078125,-36.0626220703125
1758527333.9005077,0.78466796875,-0.0146484375,0.57177734375,-11.29150390625,1.52587890625,4.94384765625,-0.37353515625,-53.9593505859375,-35.9912109375
1758527333.9103954,0.77294921875,0.009765625,0.56689453125,-11.3525390625,3.5400390625,4.57763671875,-0.54931640625,-53.9208984375,-35.92529296875
1758527333.9203458,0.77294921875,0.009765625,0.56689453125,-11.3525390625,3.5400390625,4.57763671875,-0.714111328125,-53.8824462890625,-35.859375
1758527333.9303849,0.77099609375,-0.03369140625,0.60302734375,-2.0751953125,4.69970703125,3.7841796875,-0.780029296875,-53.8275146484375,-35.8099365234375
1758527333.9405603,0.77099609375,-0.03369140625,0.60302734375,-2.0751953125,4.69970703125,3.7841796875,-0.8514404296875,-53.778076171875,-35.760498046875
1758527333.9503634,0.76025390625,-0.06201171875,0.55859375,5.55419921875,4.5166015625,2.25830078125,-0.823974609375,-53.7286376953125,-35.7330322265625
1758527333.9605658,0.76025390625,-0.06201171875,0.55859375,5.55419921875,4.5166015625,2.25830078125,-0.802001953125,-53.67919921875,-35.70556640625
1758527333.970802,0.76806640625,0.01025390625,0.54443359375,2.13623046875,4.21142578125,1.15966796875,-0.7965087890625,-53.63525390625,-35.694580078125
1758527333.9803813,0.76806640625,0.01025390625,0.54443359375,2.13623046875,4.21142578125,1.15966796875,-0.791015625,-53.59130859375,-35.6890869140625
1758527333.9905252,0.7734375,0.04931640625,0.5498046875,-4.33349609375,4.39453125,1.3427734375,-0.8514404296875,-53.54736328125,-35.672607421875
1758527334.00073,0.7734375,0.04931640625,0.5498046875,-4.33349609375,4.39453125,1.3427734375,-0.9063720703125,-53.50341796875,-35.66162109375
1758527334.0105155,0.82421875,-0.05419921875,0.64453125,0.67138671875,5.859375,2.01416015625,-0.9228515625,-53.448486328125,-35.6341552734375
1758527334.020757,0.82421875,-0.05419921875,0.64453125,0.67138671875,5.859375,2.01416015625,-0.9393310546875,-53.3880615234375,-35.6121826171875
1758527334.0305452,0.8828125,-0.10498046875,0.68310546875,7.080078125,7.8125,2.44140625,-0.90087890625,-53.3111572265625,-35.584716796875
1758527334.0411205,0.8828125,-0.10498046875,0.68310546875,7.080078125,7.8125,2.44140625,-0.8734130859375,-53.228759765625,-35.5517578125
1758527334.0504868,0.8828125,-0.10498046875,0.68310546875,-5.37109375,8.97216796875,3.23486328125,-0.9722900390625,-53.140869140625,-35.5078125
1758527334.0614038,0.8681640625,0.03369140625,0.625,-5.37109375,8.97216796875,3.23486328125,-1.0711669921875,-53.052978515625,-35.4638671875
1758527334.0709593,0.81396484375,0.09521484375,0.57373046875,-14.95361328125,9.6435546875,4.21142578125,-1.2689208984375,-52.9595947265625,-35.4034423828125
1758527334.0808308,0.81396484375,0.09521484375,0.57373046875,-14.95361328125,9.6435546875,4.21142578125,-1.461181640625,-52.8662109375,-35.343017578125
1758527334.0909019,0.83251953125,-0.02001953125,0.6474609375,-13.73291015625,10.43701171875,4.69970703125,-1.64794921875,-52.7618408203125,-35.2825927734375
1758527334.1015065,0.83251953125,-0.02001953125,0.6474609375,-13.73291015625,10.43701171875,4.69970703125,-1.8292236328125,-52.6629638671875,-35.2166748046875
1758527334.110669,0.83251953125,-0.02001953125,0.6474609375,-5.06591796875,9.94873046875,3.35693359375,-1.91162109375,-52.5640869140625,-35.17822265625
1758527334.1209705,0.8115234375,-0.08251953125,0.64501953125,-5.06591796875,9.94873046875,3.35693359375,-1.99951171875,-52.4652099609375,-35.13427734375
1758527334.130706,0.806640625,-0.06689453125,0.625,-0.67138671875,8.48388671875,1.52587890625,-2.021484375,-52.3828125,-35.123291015625
1758527334.1413066,0.806640625,-0.06689453125,0.625,-0.67138671875,8.48388671875,1.52587890625,-2.04345703125,-52.3004150390625,-35.1123046875
1758527334.1506617,0.8125,0.03271484375,0.5615234375,-12.63427734375,8.1787109375,0.9765625,-2.17529296875,-52.2235107421875,-35.1068115234375
1758527334.1614048,0.8125,0.03271484375,0.5615234375,-12.63427734375,8.1787109375,0.9765625,-2.30712890625,-52.1466064453125,-35.101318359375
1758527334.1710045,0.79638671875,0.05908203125,0.5849609375,-20.93505859375,8.23974609375,1.953125,-2.52685546875,-52.0751953125,-35.0738525390625
1758527334.1812358,0.79638671875,0.05908203125,0.5849609375,-20.93505859375,8.23974609375,1.953125,-2.7410888671875,-51.998291015625,-35.0518798828125
1758527334.190749,0.779296875,-0.05908203125,0.6650390625,-14.16015625,7.87353515625,2.38037109375,-2.8948974609375,-51.9268798828125,-35.0244140625
1758527334.200804,0.779296875,-0.05908203125,0.6650390625,-14.16015625,7.87353515625,2.38037109375,-3.0487060546875,-51.8499755859375,-35.00244140625
1758527334.210797,0.798828125,-0.14208984375,0.64208984375,-1.03759765625,7.38525390625,1.52587890625,-3.065185546875,-51.778564453125,-34.9859619140625
1758527334.2208474,0.798828125,-0.14208984375,0.64208984375,-1.03759765625,7.38525390625,1.52587890625,-3.0926513671875,-51.712646484375,-34.9749755859375
1758527334.2308319,0.81201171875,-0.078125,0.63720703125,5.43212890625,6.4697265625,0.0,-3.0377197265625,-51.646728515625,-34.98046875
1758527334.2408757,0.81201171875,-0.078125,0.63720703125,5.43212890625,6.4697265625,0.0,-2.9827880859375,-51.5863037109375,-34.991455078125
1758527334.2507913,0.82421875,0.013671875,0.63134765625,0.244140625,4.8828125,0.42724609375,-2.98828125,-51.5423583984375,-34.991455078125
1758527334.2608016,0.82421875,0.013671875,0.63134765625,0.244140625,4.8828125,0.42724609375,-2.98828125,-51.4984130859375,-34.991455078125
1758527334.2711883,0.8212890625,0.02197265625,0.61083984375,-9.8876953125,3.2958984375,1.89208984375,-3.1036376953125,-51.470947265625,-34.969482421875
1758527334.2808785,0.8212890625,0.02197265625,0.61083984375,-9.8876953125,3.2958984375,1.89208984375,-3.218994140625,-51.4434814453125,-34.947509765625
1758527334.2912002,0.7939453125,-0.01318359375,0.6171875,-18.6767578125,2.13623046875,2.38037109375,-3.427734375,-51.427001953125,-34.91455078125
1758527334.3010025,0.7939453125,-0.01318359375,0.6171875,-18.6767578125,2.13623046875,2.38037109375,-3.6309814453125,-51.4105224609375,-34.881591796875
1758527334.3109925,0.810546875,-0.0537109375,0.59423828125,-18.9208984375,0.18310546875,2.01416015625,-3.834228515625,-51.416015625,-34.8541259765625
1758527334.3208961,0.810546875,-0.0537109375,0.59423828125,-18.9208984375,0.18310546875,2.01416015625,-4.04296875,-51.416015625,-34.82666015625
1758527334.3310485,0.796875,-0.10302734375,0.64794921875,-5.37109375,-1.89208984375,0.9765625,-4.1033935546875,-51.4434814453125,-34.8101806640625
1758527334.3419628,0.796875,-0.10302734375,0.64794921875,-5.37109375,-1.89208984375,0.9765625,-4.1693115234375,-51.4654541015625,-34.7991943359375
1758527334.3511932,0.80615234375,-0.09716796875,0.6376953125,4.45556640625,-3.90625,-0.244140625,-4.1253662109375,-51.5093994140625,-34.7991943359375
1758527334.3613517,0.80615234375,-0.09716796875,0.6376953125,4.45556640625,-3.90625,-0.244140625,-4.0814208984375,-51.5533447265625,-34.8046875
1758527334.3712862,0.7978515625,-0.03076171875,0.59326171875,1.03759765625,-5.37109375,-0.18310546875,-4.075927734375,-51.6082763671875,-34.7991943359375
1758527334.3810918,0.7978515625,-0.03076171875,0.59326171875,1.03759765625,-5.37109375,-0.18310546875,-4.0704345703125,-51.668701171875,-34.7991943359375
1758527334.3910365,0.7255859375,-0.03564453125,0.580078125,2.25830078125,-5.79833984375,0.9765625,-4.0704345703125,-51.7291259765625,-34.78271484375
1758527334.4011102,0.7255859375,-0.03564453125,0.580078125,2.25830078125,-5.79833984375,0.9765625,-4.06494140625,-51.78955078125,-34.7662353515625
1758527334.411143,0.72412109375,-0.1201171875,0.57177734375,12.939453125,-5.31005859375,0.91552734375,-3.955078125,-51.8389892578125,-34.749755859375
1758527334.4211354,0.72412109375,-0.1201171875,0.57177734375,12.939453125,-5.31005859375,0.91552734375,-3.8507080078125,-51.8939208984375,-34.7332763671875
1758527334.4314125,0.767578125,-0.1015625,0.6318359375,21.728515625,-5.37109375,0.0,-3.6529541015625,-51.9488525390625,-34.727783203125
1758527334.4411976,0.8037109375,-0.0400390625,0.58935546875,18.98193359375,-6.53076171875,0.30517578125,-3.4716796875,-52.0037841796875,-34.727783203125
1758527334.4514163,0.8037109375,-0.0400390625,0.58935546875,18.98193359375,-6.53076171875,0.30517578125,-3.306884765625,-52.0697021484375,-34.716796875
1758527334.4611185,0.791015625,-0.001953125,0.62255859375,19.71435546875,-7.6904296875,1.28173828125,-3.14208984375,-52.14111328125,-34.705810546875
1758527334.4722564,0.791015625,-0.001953125,0.62255859375,19.71435546875,-7.6904296875,1.28173828125,-2.977294921875,-52.218017578125,-34.683837890625
1758527334.4811232,0.826171875,-0.048828125,0.640625,19.34814453125,-8.056640625,1.89208984375,-2.8179931640625,-52.294921875,-34.6563720703125
1758527334.4916961,0.826171875,-0.048828125,0.640625,19.34814453125,-8.056640625,1.89208984375,-2.669677734375,-52.371826171875,-34.62890625
1758527334.5012417,0.8359375,-0.02685546875,0.61181640625,17.4560546875,-9.1552734375,0.8544921875,-2.5213623046875,-52.4542236328125,-34.60693359375
1758527334.5117338,0.8359375,-0.02685546875,0.61181640625,17.4560546875,-9.1552734375,0.8544921875,-2.373046875,-52.5421142578125,-34.595947265625
1758527334.5214367,0.828125,0.01611328125,0.615234375,12.8173828125,-9.6435546875,-0.30517578125,-2.2412109375,-52.635498046875,-34.5904541015625
1758527334.5317924,0.828125,0.01611328125,0.615234375,12.8173828125,-9.6435546875,-0.30517578125,-2.120361328125,-52.734375,-34.595947265625
1758527334.5412376,0.81005859375,0.02197265625,0.6318359375,8.23974609375,-9.1552734375,-0.9765625,-2.0159912109375,-52.8277587890625,-34.6124267578125
1758527334.5514953,0.81005859375,0.02197265625,0.6318359375,8.23974609375,-9.1552734375,-0.9765625,-1.9281005859375,-52.9156494140625,-34.62890625
1758527334.561175,0.82177734375,0.0078125,0.60009765625,-1.220703125,-7.4462890625,-1.46484375,-1.8841552734375,-52.998046875,-34.6563720703125
1758527334.5727444,0.82177734375,0.0078125,0.60009765625,-1.220703125,-7.4462890625,-1.46484375,-1.878662109375,-53.0694580078125,-34.6893310546875
1758527334.5812483,0.7958984375,0.0576171875,0.5498046875,-20.3857421875,-6.16455078125,-1.220703125,-1.9720458984375,-53.1353759765625,-34.716796875
1758527334.591803,0.7958984375,0.0576171875,0.5498046875,-20.3857421875,-6.16455078125,-1.220703125,-2.1533203125,-53.19580078125,-34.7442626953125
1758527334.6013625,0.7958984375,0.0576171875,0.5498046875,-22.76611328125,-5.0048828125,0.6103515625,-2.3565673828125,-53.250732421875,-34.7552490234375
1758527334.6118495,0.73291015625,0.01025390625,0.62939453125,-22.76611328125,-5.0048828125,0.6103515625,-2.581787109375,-53.3001708984375,-34.749755859375
1758527334.6216578,0.78369140625,-0.125,0.56591796875,-13.3056640625,-2.99072265625,2.25830078125,-2.7685546875,-53.3331298828125,-34.73876953125
1758527334.633361,0.78369140625,-0.125,0.56591796875,-13.3056640625,-2.99072265625,2.25830078125,-2.92236328125,-53.360595703125,-34.7113037109375
1758527334.6423748,0.7919921875,-0.1005859375,0.6123046875,-5.06591796875,-1.3427734375,1.46484375,-3.0377197265625,-53.3770751953125,-34.6893310546875
1758527334.6512864,0.7919921875,-0.1005859375,0.6123046875,-5.06591796875,-1.3427734375,1.46484375,-3.109130859375,-53.382568359375,-34.6783447265625
1758527334.6613827,0.78857421875,0.005859375,0.5888671875,-4.82177734375,-1.03759765625,1.28173828125,-3.1805419921875,-53.3935546875,-34.661865234375
1758527334.672028,0.78857421875,0.005859375,0.5888671875,-4.82177734375,-1.03759765625,1.28173828125,-3.2464599609375,-53.3990478515625,-34.65087890625
1758527334.6814182,0.77978515625,-0.02001953125,0.5546875,-2.3193359375,-0.1220703125,2.50244140625,-3.306884765625,-53.3990478515625,-34.6343994140625
1758527334.6914587,0.77978515625,-0.02001953125,0.5546875,-2.3193359375,-0.1220703125,2.50244140625,-3.36181640625,-53.3990478515625,-34.6014404296875
1758527334.701636,0.77001953125,-0.07177734375,0.59375,-1.46484375,1.03759765625,2.74658203125,-3.4112548828125,-53.3880615234375,-34.5684814453125
1758527334.7113786,0.77001953125,-0.07177734375,0.59375,-1.46484375,1.03759765625,2.74658203125,-3.460693359375,-53.3770751953125,-34.5355224609375
1758527334.7216952,0.78466796875,-0.02978515625,0.56787109375,-9.521484375,1.953125,2.3193359375,-3.548583984375,-53.3551025390625,-34.5025634765625
1758527334.7317505,0.78466796875,-0.02978515625,0.56787109375,-9.521484375,1.953125,2.3193359375,-3.66943359375,-53.3331298828125,-34.47509765625
1758527334.7415137,0.76904296875,0.01025390625,0.56884765625,-11.16943359375,2.13623046875,3.11279296875,-3.8067626953125,-53.3111572265625,-34.442138671875
1758527334.7514203,0.76904296875,0.01025390625,0.56884765625,-11.16943359375,2.13623046875,3.11279296875,-3.9495849609375,-53.28369140625,-34.4036865234375
1758527334.7618077,0.7626953125,-0.10693359375,0.572265625,1.3427734375,2.01416015625,3.662109375,-4.0374755859375,-53.26171875,-34.3597412109375
1758527334.7724223,0.7626953125,-0.10693359375,0.572265625,1.3427734375,2.01416015625,3.662109375,-4.06494140625,-53.23974609375,-34.310302734375
1758527334.7814944,0.7822265625,-0.10595703125,0.5849609375,4.45556640625,2.38037109375,2.44140625,-4.075927734375,-53.2177734375,-34.2718505859375
1758527334.791722,0.7822265625,-0.10595703125,0.5849609375,4.45556640625,2.38037109375,2.44140625,-4.0704345703125,-53.1903076171875,-34.244384765625
1758527334.8017354,0.7998046875,-0.01513671875,0.6064453125,3.23486328125,3.23486328125,1.77001953125,-4.0594482421875,-53.1573486328125,-34.2169189453125
1758527334.8115602,0.7998046875,-0.01513671875,0.6064453125,3.23486328125,3.23486328125,1.77001953125,-4.053955078125,-53.1243896484375,-34.200439453125
1758527334.8219547,0.76806640625,0.01953125,0.57421875,-2.9296875,3.47900390625,2.25830078125,-4.075927734375,-53.0914306640625,-34.178466796875
1758527334.8319962,0.76806640625,0.01953125,0.57421875,-2.9296875,3.47900390625,2.25830078125,-4.130859375,-53.052978515625,-34.156494140625
1758527334.8416717,0.763671875,-0.0859375,0.56201171875,4.08935546875,2.25830078125,1.5869140625,-4.1473388671875,-53.0255126953125,-34.134521484375
1758527334.8515604,0.763671875,-0.0859375,0.56201171875,4.08935546875,2.25830078125,1.5869140625,-4.119873046875,-53.0035400390625,-34.1180419921875
1758527334.8618197,0.7783203125,-0.080078125,0.572265625,6.4697265625,2.197265625,0.30517578125,-4.0814208984375,-52.9815673828125,-34.112548828125
1758527334.8726208,0.7783203125,-0.080078125,0.572265625,6.4697265625,2.197265625,0.30517578125,-4.02099609375,-52.9595947265625,-34.1180419921875
1758527334.8819394,0.80810546875,0.029296875,0.58447265625,-5.31005859375,2.685546875,0.3662109375,-4.0264892578125,-52.9376220703125,-34.1180419921875
1758527334.8917544,0.80810546875,0.029296875,0.58447265625,-5.31005859375,2.685546875,0.3662109375,-4.0814208984375,-52.9156494140625,-34.12353515625
1758527334.9029384,0.77880859375,0.02294921875,0.58251953125,-11.3525390625,2.13623046875,1.40380859375,-4.1693115234375,-52.8936767578125,-34.1180419921875
1758527334.9117017,0.77880859375,0.02294921875,0.58251953125,-11.3525390625,2.13623046875,1.40380859375,-4.2901611328125,-52.8717041015625,-34.1070556640625
1758527334.9225485,0.76220703125,-0.11083984375,0.583984375,-3.84521484375,2.25830078125,2.197265625,-4.3780517578125,-52.8497314453125,-34.090576171875
1758527334.9321616,0.76220703125,-0.11083984375,0.583984375,-3.84521484375,2.25830078125,2.197265625,-4.4384765625,-52.833251953125,-34.0631103515625
1758527334.9425445,0.81396484375,-0.12255859375,0.60986328125,2.0751953125,2.685546875,1.46484375,-4.4659423828125,-52.8057861328125,-34.046630859375
1758527334.9517035,0.81396484375,-0.12255859375,0.60986328125,2.0751953125,2.685546875,1.46484375,-4.4659423828125,-52.7838134765625,-34.0301513671875
1758527334.9623756,0.8349609375,-0.0380859375,0.65234375,3.41796875,1.953125,0.91552734375,-4.4549560546875,-52.75634765625,-34.0191650390625
1758527334.9727023,0.8349609375,-0.0380859375,0.65234375,3.41796875,1.953125,0.91552734375,-4.4329833984375,-52.7398681640625,-34.013671875
1758527334.982184,0.80859375,0.0146484375,0.58251953125,-2.44140625,1.220703125,1.5869140625,-4.449462890625,-52.723388671875,-34.002685546875
1758527334.9918437,0.80859375,0.0146484375,0.58251953125,-2.44140625,1.220703125,1.5869140625,-4.4879150390625,-52.71240234375,-33.9862060546875
1758527335.0025024,0.77587890625,-0.06640625,0.60595703125,-0.9765625,1.28173828125,1.52587890625,-4.5208740234375,-52.701416015625,-33.9697265625
1758527335.0118186,0.77587890625,-0.06640625,0.60595703125,-0.9765625,1.28173828125,1.52587890625,-4.54833984375,-52.6904296875,-33.9532470703125
1758527335.0226305,0.80419921875,-0.0712890625,0.6064453125,-2.50244140625,0.79345703125,0.48828125,-4.5758056640625,-52.679443359375,-33.9422607421875
1758527335.032242,0.80419921875,-0.0712890625,0.6064453125,-2.50244140625,0.79345703125,0.48828125,-4.6087646484375,-52.6739501953125,-33.9422607421875
1758527335.0424569,0.82177734375,-0.029296875,0.59326171875,-2.74658203125,-0.48828125,-0.1220703125,-4.63623046875,-52.6739501953125,-33.94775390625
1758527335.0518866,0.82177734375,-0.029296875,0.59326171875,-2.74658203125,-0.48828125,-0.1220703125,-4.6636962890625,-52.679443359375,-33.9532470703125
1758527335.0618677,0.80322265625,-0.02783203125,0.578125,-1.5869140625,-1.5869140625,-0.06103515625,-4.68017578125,-52.6959228515625,-33.958740234375
1758527335.072861,0.80322265625,-0.02783203125,0.578125,-1.5869140625,-1.5869140625,-0.06103515625,-4.6966552734375,-52.71240234375,-33.9642333984375
1758527335.0819256,0.81884765625,-0.07177734375,0.638671875,-3.35693359375,-1.708984375,0.18310546875,-4.7186279296875,-52.734375,-33.9642333984375
1758527335.0922787,0.81884765625,-0.07177734375,0.638671875,-3.35693359375,-1.708984375,0.18310546875,-4.757080078125,-52.7508544921875,-33.9642333984375
1758527335.1021533,0.86474609375,-0.060546875,0.630859375,-3.662109375,-3.0517578125,0.42724609375,-4.7955322265625,-52.7783203125,-33.9642333984375
1758527335.112011,0.86474609375,-0.060546875,0.630859375,-3.662109375,-3.0517578125,0.42724609375,-4.8394775390625,-52.811279296875,-33.958740234375
1758527335.1219966,0.802734375,-0.05615234375,0.62841796875,-1.64794921875,-3.90625,1.28173828125,-4.8834228515625,-52.84423828125,-33.9422607421875
1758527335.132257,0.802734375,-0.05615234375,0.62841796875,-1.64794921875,-3.90625,1.28173828125,-4.9163818359375,-52.8826904296875,-33.9202880859375
1758527335.1424694,0.7724609375,-0.08154296875,0.5849609375,1.46484375,-3.35693359375,2.685546875,-4.9493408203125,-52.921142578125,-33.892822265625
1758527335.1519804,0.7724609375,-0.08154296875,0.5849609375,1.46484375,-3.35693359375,2.685546875,-4.976806640625,-52.9486083984375,-33.848876953125
1758527335.1623065,0.79052734375,-0.10693359375,0.59375,4.45556640625,-2.3193359375,3.60107421875,-4.9932861328125,-52.97607421875,-33.7994384765625
1758527335.1724632,0.79052734375,-0.10693359375,0.59375,4.45556640625,-2.3193359375,3.60107421875,-5.0042724609375,-52.9925537109375,-33.7445068359375
1758527335.182123,0.8076171875,-0.05419921875,0.5947265625,2.13623046875,-1.89208984375,3.35693359375,-5.0262451171875,-53.009033203125,-33.695068359375
1758527335.192118,0.8076171875,-0.05419921875,0.5947265625,2.13623046875,-1.89208984375,3.35693359375,-5.0592041015625,-53.0255126953125,-33.64013671875
1758527335.2022595,0.78857421875,-0.013671875,0.6025390625,2.5634765625,-1.708984375,2.13623046875,-5.0811767578125,-53.0419921875,-33.6016845703125
1758527335.2121944,0.78857421875,-0.013671875,0.6025390625,2.5634765625,-1.708984375,2.13623046875,-5.086669921875,-53.0584716796875,-33.57421875
1758527335.222259,0.80322265625,-0.04052734375,0.609375,3.2958984375,-0.6103515625,0.91552734375,-5.0811767578125,-53.06396484375,-33.5577392578125
1758527335.233786,0.80322265625,-0.04052734375,0.609375,3.2958984375,-0.6103515625,0.91552734375,-5.0592041015625,-53.0694580078125,-33.55224609375
1758527335.244601,0.8388671875,-0.0380859375,0.60205078125,1.5869140625,0.0,-0.18310546875,-5.0372314453125,-53.0694580078125,-33.5577392578125
1758527335.2522004,0.8388671875,-0.0380859375,0.60205078125,1.5869140625,0.0,-0.18310546875,-5.020751953125,-53.0694580078125,-33.5687255859375
1758527335.2623496,0.81884765625,-0.0283203125,0.6328125,-3.2958984375,-0.30517578125,-0.9765625,-5.020751953125,-53.074951171875,-33.5906982421875
1758527335.2727,0.81884765625,-0.0283203125,0.6328125,-3.2958984375,-0.30517578125,-0.9765625,-5.0372314453125,-53.0804443359375,-33.6126708984375
1758527335.2822459,0.77294921875,-0.03515625,0.57177734375,-7.32421875,-0.48828125,-0.6103515625,-5.07568359375,-53.0804443359375,-33.64013671875
1758527335.2922332,0.77294921875,-0.03515625,0.57177734375,-7.32421875,-0.48828125,-0.6103515625,-5.130615234375,-53.0859375,-33.662109375
1758527335.3024578,0.787109375,-0.08740234375,0.556640625,-7.080078125,0.0,0.244140625,-5.196533203125,-53.0914306640625,-33.673095703125
1758527335.3126707,0.787109375,-0.08740234375,0.556640625,-7.080078125,0.0,0.244140625,-5.2679443359375,-53.0914306640625,-33.6785888671875
1758527335.322327,0.8037109375,-0.107421875,0.63525390625,-1.708984375,-0.54931640625,0.30517578125,-5.3173828125,-53.096923828125,-33.68408203125
1758527335.333097,0.8037109375,-0.107421875,0.63525390625,-1.708984375,-0.54931640625,0.30517578125,-5.33935546875,-53.1024169921875,-33.68408203125
1758527335.34227,0.83642578125,-0.0537109375,0.59130859375,-0.244140625,-1.708984375,0.0,-5.3558349609375,-53.10791015625,-33.6895751953125
1758527335.352728,0.83642578125,-0.0537109375,0.59130859375,-0.244140625,-1.708984375,0.0,-5.361328125,-53.1298828125,-33.695068359375
1758527335.3622885,0.80419921875,-0.01904296875,0.60546875,-2.38037109375,-2.5634765625,0.3662109375,-5.38330078125,-53.15185546875,-33.695068359375
1758527335.3735478,0.80419921875,-0.01904296875,0.60546875,-2.38037109375,-2.5634765625,0.3662109375,-5.4107666015625,-53.173828125,-33.695068359375
1758527335.3823645,0.7314453125,-0.064453125,0.5654296875,-0.1220703125,-1.708984375,0.244140625,-5.42724609375,-53.19580078125,-33.695068359375
1758527335.3930542,0.7314453125,-0.064453125,0.5654296875,-0.1220703125,-1.708984375,0.244140625,-5.4327392578125,-53.2122802734375,-33.695068359375
1758527335.4025972,0.7783203125,-0.0595703125,0.544921875,-5.92041015625,0.30517578125,-0.67138671875,-5.460205078125,-53.2177734375,-33.7115478515625
1758527335.4128916,0.7783203125,-0.0595703125,0.544921875,-5.92041015625,0.30517578125,-0.67138671875,-5.5096435546875,-53.2177734375,-33.72802734375
1758527335.42245,0.79833984375,-0.013671875,0.60107421875,-8.60595703125,0.54931640625,-1.220703125,-5.570068359375,-53.2122802734375,-33.75
1758527335.4331586,0.79833984375,-0.013671875,0.60107421875,-8.60595703125,0.54931640625,-1.220703125,-5.635986328125,-53.2122802734375,-33.7774658203125
1758527335.4424279,0.69384765625,-0.048828125,0.5625,-5.43212890625,2.13623046875,-0.732421875,-5.6744384765625,-53.1903076171875,-33.804931640625
1758527335.4529784,0.69384765625,-0.048828125,0.5625,-5.43212890625,2.13623046875,-0.732421875,-5.7073974609375,-53.1683349609375,-33.8323974609375
1758527335.4624252,0.64990234375,-0.10888671875,0.5341796875,-7.62939453125,5.37109375,1.28173828125,-5.789794921875,-53.10791015625,-33.826904296875
1758527335.4738746,0.64990234375,-0.10888671875,0.5341796875,-7.62939453125,5.37109375,1.28173828125,-5.877685546875,-53.052978515625,-33.826904296875
1758527335.482521,0.7802734375,-0.1611328125,0.5224609375,-5.31005859375,4.57763671875,1.52587890625,-5.9490966796875,-53.0035400390625,-33.8214111328125
1758527335.4927552,0.7802734375,-0.1611328125,0.5224609375,-5.31005859375,4.57763671875,1.52587890625,-6.0260009765625,-52.9541015625,-33.8104248046875
1758527335.5027764,0.8408203125,-0.072265625,0.56884765625,1.28173828125,2.62451171875,1.64794921875,-6.04248046875,-52.93212890625,-33.7884521484375
1758527335.512533,0.8408203125,-0.072265625,0.56884765625,1.28173828125,2.62451171875,1.64794921875,-6.0589599609375,-52.9046630859375,-33.7664794921875
1758527335.5227375,0.86376953125,-0.06201171875,0.646484375,-1.8310546875,0.91552734375,0.9765625,-6.097412109375,-52.899169921875,-33.7554931640625
1758527335.5363808,0.86376953125,-0.06201171875,0.646484375,-1.8310546875,0.91552734375,0.9765625,-6.1358642578125,-52.8936767578125,-33.7445068359375
1758527335.545844,0.912109375,0.0576171875,0.7158203125,2.685546875,0.6103515625,-3.35693359375,-6.064453125,-52.8936767578125,-33.804931640625
1758527335.5525296,0.912109375,0.0576171875,0.7158203125,2.685546875,0.6103515625,-3.35693359375,-5.987548828125,-52.8936767578125,-33.870849609375
1758527335.5625582,0.916015625,0.0029296875,0.69677734375,-6.40869140625,-0.1220703125,-1.5869140625,-6.0205078125,-52.8936767578125,-33.90380859375
1758527335.5730503,0.916015625,0.0029296875,0.69677734375,-6.40869140625,-0.1220703125,-1.5869140625,-6.053466796875,-52.899169921875,-33.9422607421875
1758527335.5826535,0.806640625,-0.11865234375,0.5908203125,-11.16943359375,-0.42724609375,-0.18310546875,-6.15234375,-52.9046630859375,-33.9532470703125
1758527335.5928135,0.806640625,-0.11865234375,0.5908203125,-11.16943359375,-0.42724609375,-0.18310546875,-6.251220703125,-52.91015625,-33.958740234375
1758527335.603065,0.806640625,-0.11865234375,0.5908203125,0.06103515625,-0.91552734375,0.732421875,-6.26220703125,-52.921142578125,-33.9532470703125
1758527335.6126626,0.8505859375,-0.19970703125,0.58203125,0.06103515625,-0.91552734375,0.732421875,-6.2786865234375,-52.93212890625,-33.9422607421875
1758527335.6226833,0.89599609375,-0.12158203125,0.6923828125,13.5498046875,-2.01416015625,0.3662109375,-6.163330078125,-52.9541015625,-33.9312744140625
1758527335.6328306,0.89599609375,-0.12158203125,0.6923828125,13.5498046875,-2.01416015625,0.3662109375,-6.0479736328125,-52.97607421875,-33.92578125
1758527335.6427357,0.853515625,-0.03125,0.71533203125,17.578125,-2.0751953125,-0.30517578125,-5.877685546875,-52.998046875,-33.9312744140625
1758527335.652706,0.853515625,-0.03125,0.71533203125,17.578125,-2.0751953125,-0.30517578125,-5.712890625,-53.0145263671875,-33.9422607421875
1758527335.6627023,0.845703125,0.0,0.55810546875,4.150390625,-2.62451171875,0.91552734375,-5.69091796875,-53.0419921875,-33.9312744140625
1758527335.6731837,0.845703125,0.0,0.55810546875,4.150390625,-2.62451171875,0.91552734375,-5.6634521484375,-53.06396484375,-33.9202880859375
1758527335.6827638,0.83154296875,-0.0673828125,0.60498046875,-0.30517578125,-3.11279296875,1.15966796875,-5.69091796875,-53.096923828125,-33.90380859375
1758527335.6928113,0.83154296875,-0.0673828125,0.60498046875,-0.30517578125,-3.11279296875,1.15966796875,-5.712890625,-53.1298828125,-33.8818359375
1758527335.7031791,0.80908203125,-0.125,0.6220703125,18.9208984375,-4.0283203125,-0.1220703125,-5.5316162109375,-53.1683349609375,-33.8873291015625
1758527335.7128236,0.80908203125,-0.125,0.6220703125,18.9208984375,-4.0283203125,-0.1220703125,-5.3558349609375,-53.2122802734375,-33.8873291015625
1758527335.7228508,0.77734375,-0.07958984375,0.5849609375,13.48876953125,-4.08935546875,-0.3662109375,-5.2294921875,-53.250732421875,-33.892822265625
1758527335.733008,0.77734375,-0.07958984375,0.5849609375,13.48876953125,-4.08935546875,-0.3662109375,-5.108642578125,-53.2891845703125,-33.90380859375
1758527335.743236,0.76318359375,0.0107421875,0.52294921875,1.52587890625,-3.90625,0.1220703125,-5.108642578125,-53.32763671875,-33.90380859375
1758527335.7529156,0.76318359375,0.0107421875,0.52294921875,1.52587890625,-3.90625,0.1220703125,-5.1031494140625,-53.3660888671875,-33.8983154296875
1758527335.7629263,0.74853515625,-0.0146484375,0.5615234375,1.15966796875,-3.96728515625,0.0,-5.09765625,-53.4100341796875,-33.90380859375
1758527335.7742946,0.74853515625,-0.0146484375,0.5615234375,1.15966796875,-3.96728515625,0.0,-5.0921630859375,-53.448486328125,-33.90380859375
1758527335.783154,0.7587890625,-0.07470703125,0.58544921875,8.1787109375,-3.11279296875,-0.06103515625,-5.0152587890625,-53.4759521484375,-33.9093017578125
1758527335.7929506,0.7587890625,-0.07470703125,0.58544921875,8.1787109375,-3.11279296875,-0.06103515625,-4.9383544921875,-53.5089111328125,-33.9202880859375
1758527335.8038456,0.78955078125,-0.08935546875,0.58056640625,7.32421875,-2.197265625,-0.1220703125,-4.866943359375,-53.5308837890625,-33.92578125
1758527335.812921,0.78955078125,-0.08935546875,0.58056640625,7.32421875,-2.197265625,-0.1220703125,-4.801025390625,-53.54736328125,-33.936767578125
1758527335.8233654,0.7890625,0.0380859375,0.56494140625,-14.09912109375,-0.42724609375,0.42724609375,-4.954833984375,-53.5528564453125,-33.936767578125
1758527335.8331013,0.7890625,0.0380859375,0.56494140625,-14.09912109375,-0.42724609375,0.42724609375,-5.09765625,-53.5528564453125,-33.9422607421875
1758527335.8434188,0.8017578125,-0.0068359375,0.5703125,-14.09912109375,-0.48828125,0.42724609375,-5.2349853515625,-53.558349609375,-33.9422607421875
1758527335.852984,0.8017578125,-0.0068359375,0.5703125,-14.09912109375,-0.48828125,0.42724609375,-5.372314453125,-53.5638427734375,-33.94775390625
1758527335.8633265,0.806640625,-0.0927734375,0.61962890625,-6.40869140625,-0.48828125,0.06103515625,-5.4327392578125,-53.5693359375,-33.9532470703125
1758527335.8737683,0.806640625,-0.0927734375,0.61962890625,-6.40869140625,-0.48828125,0.06103515625,-5.4931640625,-53.5748291015625,-33.9642333984375
1758527335.8831031,0.79150390625,-0.103515625,0.60888671875,-2.13623046875,0.1220703125,0.0,-5.5096435546875,-53.5693359375,-33.9752197265625
1758527335.8930128,0.79150390625,-0.103515625,0.60888671875,-2.13623046875,0.1220703125,0.0,-5.5316162109375,-53.5693359375,-33.99169921875
1758527335.9036963,0.79052734375,-0.04248046875,0.59521484375,-8.48388671875,1.15966796875,0.42724609375,-5.6195068359375,-53.5528564453125,-33.9971923828125
1758527335.9131374,0.79052734375,-0.04248046875,0.59521484375,-8.48388671875,1.15966796875,0.42724609375,-5.7073974609375,-53.5418701171875,-34.0081787109375
1758527335.9232426,0.771484375,-0.03173828125,0.56494140625,-6.04248046875,1.953125,0.18310546875,-5.7623291015625,-53.5198974609375,-34.0191650390625
1758527335.9334025,0.771484375,-0.03173828125,0.56494140625,-6.04248046875,1.953125,0.18310546875,-5.8172607421875,-53.4979248046875,-34.03564453125
1758527335.9432447,0.75244140625,-0.1298828125,0.5546875,8.1787109375,2.25830078125,0.0,-5.7293701171875,-53.4759521484375,-34.046630859375
1758527335.953046,0.75244140625,-0.1298828125,0.5546875,8.1787109375,2.25830078125,0.0,-5.64697265625,-53.448486328125,-34.0631103515625
1758527335.9634066,0.79833984375,-0.11181640625,0.60986328125,1.0986328125,3.5400390625,0.06103515625,-5.6414794921875,-53.41552734375,-34.07958984375
1758527335.9737873,0.79833984375,-0.11181640625,0.60986328125,1.0986328125,3.5400390625,0.06103515625,-5.635986328125,-53.3770751953125,-34.090576171875
1758527335.983133,0.7978515625,-0.015625,0.62255859375,2.197265625,4.69970703125,-0.30517578125,-5.6085205078125,-53.32763671875,-34.1180419921875
1758527335.993101,0.7978515625,-0.015625,0.62255859375,2.197265625,4.69970703125,-0.30517578125,-5.5810546875,-53.2781982421875,-34.1400146484375
1758527336.003546,0.82861328125,-0.04248046875,0.5888671875,5.615234375,4.94384765625,-0.48828125,-5.51513671875,-53.228759765625,-34.16748046875
1758527336.0131419,0.82861328125,-0.04248046875,0.5888671875,5.615234375,4.94384765625,-0.48828125,-5.4437255859375,-53.1793212890625,-34.1949462890625
1758527336.0231912,0.841796875,-0.025390625,0.5849609375,-3.72314453125,5.615234375,-0.18310546875,-5.47119140625,-53.1243896484375,-34.21142578125
1758527336.03354,0.841796875,-0.025390625,0.5849609375,-3.72314453125,5.615234375,-0.18310546875,-5.4986572265625,-53.0694580078125,-34.2333984375
1758527336.0432212,0.8271484375,-0.01611328125,0.60888671875,-21.1181640625,6.53076171875,0.244140625,-5.701904296875,-53.009033203125,-34.2498779296875
1758527336.0532477,0.8271484375,-0.01611328125,0.60888671875,-21.1181640625,6.53076171875,0.244140625,-5.899658203125,-52.9486083984375,-34.2608642578125
1758527336.0632944,0.8291015625,-0.04931640625,0.61328125,-22.0947265625,6.591796875,1.15966796875,-6.1138916015625,-52.8826904296875,-34.2608642578125
1758527336.074007,0.8291015625,-0.04931640625,0.61328125,-22.0947265625,6.591796875,1.15966796875,-6.3336181640625,-52.822265625,-34.2608642578125
1758527336.083217,0.865234375,-0.16162109375,0.64892578125,-2.3193359375,5.0048828125,0.67138671875,-6.35009765625,-52.7783203125,-34.266357421875
1758527336.0933707,0.865234375,-0.16162109375,0.64892578125,-2.3193359375,5.0048828125,0.67138671875,-6.3720703125,-52.7288818359375,-34.2718505859375
1758527336.103683,0.87060546875,-0.1220703125,0.68701171875,-4.150390625,4.638671875,0.48828125,-6.416015625,-52.6849365234375,-34.27734375
1758527336.1132782,0.87060546875,-0.1220703125,0.68701171875,-4.150390625,4.638671875,0.48828125,-6.4599609375,-52.6409912109375,-34.2828369140625
1758527336.123346,0.861328125,-0.01708984375,0.6171875,-6.591796875,3.90625,0.79345703125,-6.5313720703125,-52.6025390625,-34.288330078125
1758527336.1336656,0.861328125,-0.01708984375,0.6171875,-6.591796875,3.90625,0.79345703125,-6.602783203125,-52.569580078125,-34.288330078125
1758527336.144123,0.8642578125,-0.0615234375,0.61181640625,0.8544921875,2.01416015625,0.9765625,-6.5972900390625,-52.5531005859375,-34.27734375
1758527336.153357,0.8642578125,-0.0615234375,0.61181640625,0.8544921875,2.01416015625,0.9765625,-6.5972900390625,-52.53662109375,-34.2718505859375
1758527336.163321,0.841796875,-0.10498046875,0.6298828125,-1.28173828125,0.79345703125,1.708984375,-6.6302490234375,-52.5311279296875,-34.2498779296875
1758527336.1740634,0.841796875,-0.10498046875,0.6298828125,-1.28173828125,0.79345703125,1.708984375,-6.6632080078125,-52.525634765625,-34.222412109375
1758527336.1833591,0.85595703125,-0.0849609375,0.6455078125,-0.18310546875,-0.48828125,1.953125,-6.690673828125,-52.53662109375,-34.1949462890625
1758527336.1933963,0.85595703125,-0.0849609375,0.6455078125,-0.18310546875,-0.48828125,1.953125,-6.7181396484375,-52.5421142578125,-34.16748046875
1758527336.2039573,0.85693359375,-0.109375,0.6396484375,8.6669921875,-2.25830078125,2.0751953125,-6.668701171875,-52.5640869140625,-34.134521484375
1758527336.213468,0.85693359375,-0.109375,0.6396484375,8.6669921875,-2.25830078125,2.0751953125,-6.61376953125,-52.591552734375,-34.0960693359375
1758527336.2234333,0.8408203125,-0.1298828125,0.66357421875,23.49853515625,-4.33349609375,1.0986328125,-6.405029296875,-52.635498046875,-34.07958984375
1758527336.233763,0.8408203125,-0.1298828125,0.66357421875,23.49853515625,-4.33349609375,1.0986328125,-6.2017822265625,-52.679443359375,-34.0576171875
1758527336.2435298,0.796875,-0.0751953125,0.62109375,20.6298828125,-5.2490234375,1.64794921875,-6.0369873046875,-52.7288818359375,-34.0301513671875
1758527336.2535012,0.796875,-0.0751953125,0.62109375,20.6298828125,-5.2490234375,1.64794921875,-5.8721923828125,-52.7783203125,-33.9971923828125
1758527336.2636807,0.6923828125,-0.02099609375,0.50634765625,20.32470703125,-5.859375,1.64794921875,-5.7073974609375,-52.833251953125,-33.9697265625
1758527336.2741563,0.6923828125,-0.02099609375,0.50634765625,20.32470703125,-5.859375,1.64794921875,-5.5426025390625,-52.88818359375,-33.9422607421875
1758527336.283526,0.7255859375,-0.03076171875,0.5380859375,14.83154296875,-6.77490234375,2.74658203125,-5.44921875,-52.9541015625,-33.8983154296875
1758527336.2935731,0.7255859375,-0.03076171875,0.5380859375,14.83154296875,-6.77490234375,2.74658203125,-5.350341796875,-53.02001953125,-33.8543701171875
1758527336.3038201,0.734375,0.005859375,0.5283203125,-10.19287109375,-5.615234375,3.41796875,-5.5096435546875,-53.0694580078125,-33.7994384765625
1758527336.3135705,0.734375,0.005859375,0.5283203125,-10.19287109375,-5.615234375,3.41796875,-5.6634521484375,-53.1243896484375,-33.7445068359375
1758527336.3236609,0.73779296875,-0.0205078125,0.52783203125,-1.5869140625,-6.103515625,2.9296875,-5.723876953125,-53.184814453125,-33.695068359375
1758527336.3337848,0.73779296875,-0.0205078125,0.52783203125,-1.5869140625,-6.103515625,2.9296875,-5.77880859375,-53.23974609375,-33.651123046875
1758527336.3435977,0.7392578125,-0.13134765625,0.59716796875,3.96728515625,-5.4931640625,3.47900390625,-5.789794921875,-53.294677734375,-33.59619140625
1758527336.35358,0.7392578125,-0.13134765625,0.59716796875,3.96728515625,-5.4931640625,3.47900390625,-5.8062744140625,-53.3441162109375,-33.541259765625
1758527336.3639095,0.7470703125,-0.12890625,0.568359375,9.21630859375,-5.0048828125,2.62451171875,-5.7623291015625,-53.3880615234375,-33.5028076171875
1758527336.374474,0.7470703125,-0.12890625,0.568359375,9.21630859375,-5.0048828125,2.62451171875,-5.7183837890625,-53.426513671875,-33.46435546875
1758527336.3836462,0.74755859375,-0.08837890625,0.55859375,14.95361328125,-4.2724609375,2.25830078125,-5.6195068359375,-53.4649658203125,-33.4368896484375
1758527336.3936913,0.74755859375,-0.08837890625,0.55859375,14.95361328125,-4.2724609375,2.25830078125,-5.51513671875,-53.4979248046875,-33.409423828125
1758527336.4038193,0.77490234375,-0.0244140625,0.533203125,8.056640625,-3.23486328125,2.74658203125,-5.4876708984375,-53.525390625,-33.3709716796875
1758527336.4136806,0.77490234375,-0.0244140625,0.533203125,8.056640625,-3.23486328125,2.74658203125,-5.460205078125,-53.5528564453125,-33.33251953125
1758527336.4236808,0.81640625,-0.01611328125,0.595703125,10.7421875,-3.173828125,2.62451171875,-5.394287109375,-53.580322265625,-33.2940673828125
1758527336.4342823,0.81640625,-0.01611328125,0.595703125,10.7421875,-3.173828125,2.62451171875,-5.3338623046875,-53.6077880859375,-33.2611083984375
1758527336.4444342,0.82421875,-0.0703125,0.65625,16.78466796875,-3.11279296875,1.953125,-5.196533203125,-53.63525390625,-33.2391357421875
1758527336.4536552,0.8408203125,-0.07763671875,0.59423828125,11.29150390625,-2.99072265625,1.953125,-5.0921630859375,-53.6627197265625,-33.2171630859375
1758527336.4640472,0.8408203125,-0.07763671875,0.59423828125,11.29150390625,-2.99072265625,1.953125,-5.0152587890625,-53.690185546875,-33.189697265625
1758527336.4745505,0.81982421875,-0.0009765625,0.5595703125,3.11279296875,-2.86865234375,1.708984375,-4.976806640625,-53.712158203125,-33.167724609375
1758527336.4836557,0.81982421875,-0.0009765625,0.5595703125,3.11279296875,-2.86865234375,1.708984375,-4.976806640625,-53.7396240234375,-33.145751953125
1758527336.4937167,0.80810546875,-0.05810546875,0.65771484375,24.7802734375,-3.2958984375,1.220703125,-4.8614501953125,-53.76708984375,-33.1292724609375
1758527336.50392,0.80810546875,-0.05810546875,0.65771484375,24.7802734375,-3.2958984375,1.220703125,-4.63623046875,-53.800048828125,-33.123779296875
1758527336.5137699,0.8408203125,-0.1201171875,0.62939453125,20.751953125,-2.38037109375,2.0751953125,-4.4384765625,-53.822021484375,-33.1072998046875
1758527336.5237477,0.8408203125,-0.1201171875,0.62939453125,20.751953125,-2.38037109375,2.0751953125,-4.273681640625,-53.8385009765625,-33.0853271484375
1758527336.5341756,0.85986328125,0.03076171875,0.48681640625,-17.333984375,-1.15966796875,2.5634765625,-4.295654296875,-53.85498046875,-33.057861328125
1758527336.543935,0.85986328125,0.03076171875,0.48681640625,-17.333984375,-1.15966796875,2.5634765625,-4.5098876953125,-53.865966796875,-33.02490234375
1758527336.5538602,0.8369140625,0.12255859375,0.55322265625,-25.146484375,-1.03759765625,1.8310546875,-4.7515869140625,-53.876953125,-32.9974365234375
1758527336.5637698,0.8369140625,0.12255859375,0.55322265625,-25.146484375,-1.03759765625,1.8310546875,-5.0152587890625,-53.8934326171875,-32.9754638671875
1758527336.5746887,0.81494140625,-0.03125,0.6845703125,-13.5498046875,-0.67138671875,3.0517578125,-5.2239990234375,-53.9044189453125,-32.947998046875
