timestamp,acc_x,acc_y,acc_z,gyro_x,gyro_y,gyro_z,angle_x,angle_y,angle_z
1758179709.660746,-0.3115234375,-0.00048828125,0.95068359375,0.0,-0.3662109375,-0.48828125,-0.2032470703125,17.6385498046875,-164.50927734375
1758179709.670044,-0.3115234375,-0.00048828125,0.95068359375,0.0,-0.3662109375,-0.48828125,-0.2032470703125,17.6385498046875,-164.5147705078125
1758179709.6809106,-0.30517578125,-0.00439453125,0.94970703125,0.30517578125,-0.54931640625,-0.732421875,-0.2032470703125,17.6385498046875,-164.5257568359375
1758179709.6915498,-0.30517578125,-0.00439453125,0.94970703125,0.30517578125,-0.54931640625,-0.732421875,-0.2032470703125,17.633056640625,-164.5367431640625
1758179709.7029786,-0.30419921875,-0.00390625,0.94970703125,0.42724609375,-0.8544921875,-0.9765625,-0.19775390625,17.6275634765625,-164.5477294921875
1758179709.7113924,-0.30419921875,-0.00390625,0.94970703125,0.42724609375,-0.8544921875,-0.9765625,-0.19775390625,17.6220703125,-164.5587158203125
1758179709.717721,-0.30859375,-0.00146484375,0.94873046875,0.30517578125,-1.15966796875,-1.0986328125,-0.19775390625,17.611083984375,-164.5697021484375
1758179709.727492,-0.30859375,-0.00146484375,0.94873046875,0.30517578125,-1.15966796875,-1.0986328125,-0.19775390625,17.6055908203125,-164.586181640625
1758179709.737469,-0.310546875,-0.0009765625,0.9501953125,-0.244140625,-1.28173828125,-1.03759765625,-0.2032470703125,17.5946044921875,-164.59716796875
1758179709.7474687,-0.310546875,-0.0009765625,0.9501953125,-0.244140625,-1.28173828125,-1.03759765625,-0.208740234375,17.5836181640625,-164.608154296875
1758179709.7574816,-0.30419921875,-0.00146484375,0.95361328125,-0.42724609375,-1.0986328125,-0.9765625,-0.2142333984375,17.5726318359375,-164.619140625
1758179709.7674944,-0.30419921875,-0.00146484375,0.95361328125,-0.42724609375,-1.0986328125,-0.9765625,-0.2197265625,17.567138671875,-164.630126953125
1758179709.7775056,-0.2958984375,-0.005859375,0.955078125,0.30517578125,-0.91552734375,-1.03759765625,-0.2197265625,17.55615234375,-164.6466064453125
1758179709.7875123,-0.2958984375,-0.005859375,0.955078125,0.30517578125,-0.91552734375,-1.03759765625,-0.2197265625,17.5506591796875,-164.6575927734375
1758179709.7976017,-0.2958984375,-0.009765625,0.9560546875,0.54931640625,-0.9765625,-1.220703125,-0.2197265625,17.545166015625,-164.674072265625
1758179709.8076441,-0.2958984375,-0.009765625,0.9560546875,0.54931640625,-0.9765625,-1.220703125,-0.2142333984375,17.5341796875,-164.68505859375
1758179709.8175955,-0.30615234375,-0.00439453125,0.95166015625,0.54931640625,-0.9765625,-1.15966796875,-0.2142333984375,17.523193359375,-164.7015380859375
1758179709.8276324,-0.30615234375,-0.00439453125,0.95166015625,0.54931640625,-0.9765625,-1.15966796875,-0.2142333984375,17.5177001953125,-164.718017578125
1758179709.837681,-0.30615234375,-0.0029296875,0.951171875,0.54931640625,-0.9765625,-0.91552734375,-0.208740234375,17.5067138671875,-164.72900390625
1758179709.84762,-0.30615234375,-0.0029296875,0.951171875,0.54931640625,-0.9765625,-0.91552734375,-0.208740234375,17.501220703125,-164.739990234375
1758179709.8576074,-0.298828125,-0.00341796875,0.955078125,-0.06103515625,-0.9765625,-0.67138671875,-0.208740234375,17.490234375,-164.7509765625
1758179709.8676171,-0.298828125,-0.00341796875,0.955078125,-0.06103515625,-0.9765625,-0.67138671875,-0.2142333984375,17.4847412109375,-164.7564697265625
1758179709.8776217,-0.298828125,-0.00341796875,0.95556640625,-0.244140625,-0.91552734375,-0.54931640625,-0.2142333984375,17.4737548828125,-164.7674560546875
1758179709.8876371,-0.298828125,-0.00341796875,0.95556640625,-0.244140625,-0.91552734375,-0.54931640625,-0.2197265625,17.46826171875,-164.77294921875
1758179709.8976595,-0.30419921875,-0.00390625,0.9541015625,-0.3662109375,-0.732421875,-0.6103515625,-0.2252197265625,17.4627685546875,-164.783935546875
1758179709.9076982,-0.30419921875,-0.00390625,0.9541015625,-0.3662109375,-0.732421875,-0.6103515625,-0.230712890625,17.4517822265625,-164.7894287109375
1758179709.9176822,-0.3115234375,-0.0048828125,0.9521484375,-0.06103515625,-0.48828125,-0.732421875,-0.2362060546875,17.4517822265625,-164.8004150390625
1758179709.9276943,-0.3115234375,-0.0048828125,0.9521484375,-0.06103515625,-0.48828125,-0.732421875,-0.2362060546875,17.4462890625,-164.8114013671875
1758179709.9377031,-0.3154296875,-0.00537109375,0.9501953125,0.18310546875,-0.18310546875,-0.67138671875,-0.2362060546875,17.4462890625,-164.81689453125
1758179709.9477396,-0.3154296875,-0.00537109375,0.9501953125,0.18310546875,-0.18310546875,-0.67138671875,-0.2362060546875,17.4462890625,-164.827880859375
1758179709.9577365,-0.306640625,-0.00439453125,0.95458984375,0.3662109375,0.0,-0.6103515625,-0.2362060546875,17.4517822265625,-164.8333740234375
1758179709.9677396,-0.306640625,-0.00439453125,0.95458984375,0.3662109375,0.0,-0.6103515625,-0.2362060546875,17.4517822265625,-164.8443603515625
1758179709.9777622,-0.30224609375,-0.00439453125,0.95556640625,0.244140625,0.244140625,-0.48828125,-0.2362060546875,17.457275390625,-164.849853515625
1758179709.9877727,-0.30224609375,-0.00439453125,0.95556640625,0.244140625,0.244140625,-0.48828125,-0.230712890625,17.4627685546875,-164.8553466796875
1758179709.997787,-0.30224609375,-0.00439453125,0.95556640625,0.0,0.42724609375,-0.3662109375,-0.2362060546875,17.46826171875,-164.86083984375
1758179710.0077994,-0.30615234375,-0.00341796875,0.95166015625,0.0,0.42724609375,-0.3662109375,-0.2362060546875,17.4737548828125,-164.8663330078125
1758179710.017805,-0.30419921875,-0.00341796875,0.955078125,-0.18310546875,0.48828125,-0.30517578125,-0.2362060546875,17.479248046875,-164.871826171875
1758179710.0278292,-0.30419921875,-0.00341796875,0.955078125,-0.18310546875,0.48828125,-0.30517578125,-0.24169921875,17.4847412109375,-164.8773193359375
1758179710.037839,-0.298828125,-0.00732421875,0.955078125,-0.42724609375,0.79345703125,-0.30517578125,-0.2471923828125,17.4957275390625,-164.8828125
1758179710.0478425,-0.298828125,-0.00732421875,0.955078125,-0.42724609375,0.79345703125,-0.30517578125,-0.252685546875,17.5067138671875,-164.8883056640625
1758179710.0578454,-0.30615234375,-0.01025390625,0.955078125,0.3662109375,1.03759765625,-0.06103515625,-0.2471923828125,17.5177001953125,-164.893798828125
1758179710.067865,-0.30615234375,-0.01025390625,0.955078125,0.3662109375,1.03759765625,-0.06103515625,-0.2471923828125,17.5286865234375,-164.893798828125
1758179710.0778883,-0.3076171875,-0.00732421875,0.94921875,0.30517578125,1.15966796875,0.244140625,-0.24169921875,17.5396728515625,-164.893798828125
1758179710.0878842,-0.3076171875,-0.00732421875,0.94921875,0.30517578125,1.15966796875,0.244140625,-0.24169921875,17.55615234375,-164.893798828125
1758179710.0979192,-0.29931640625,-0.00244140625,0.95458984375,-0.06103515625,1.15966796875,0.48828125,-0.2362060546875,17.567138671875,-164.893798828125
1758179710.1079288,-0.29931640625,-0.00244140625,0.95458984375,-0.06103515625,1.15966796875,0.48828125,-0.2362060546875,17.578125,-164.8883056640625
1758179710.117948,-0.29150390625,-0.00341796875,0.9541015625,-0.3662109375,0.9765625,0.732421875,-0.24169921875,17.589111328125,-164.8828125
1758179710.1279864,-0.29150390625,-0.00341796875,0.9541015625,-0.3662109375,0.9765625,0.732421875,-0.24169921875,17.60009765625,-164.8828125
1758179710.13853,-0.29345703125,-0.0078125,0.955078125,-0.18310546875,0.67138671875,0.8544921875,-0.24169921875,17.6055908203125,-164.8773193359375
1758179710.1479735,-0.29345703125,-0.0078125,0.955078125,-0.18310546875,0.67138671875,0.8544921875,-0.24169921875,17.611083984375,-164.871826171875
1758179710.1581616,-0.3046875,-0.00634765625,0.94775390625,-0.06103515625,0.3662109375,0.79345703125,-0.24169921875,17.6165771484375,-164.8663330078125
1758179710.1679988,-0.3046875,-0.00634765625,0.94775390625,-0.06103515625,0.3662109375,0.79345703125,-0.2362060546875,17.6165771484375,-164.86083984375
1758179710.1780295,-0.30615234375,-0.0009765625,0.951171875,-0.91552734375,0.1220703125,0.79345703125,-0.2471923828125,17.6165771484375,-164.8553466796875
1758179710.1880217,-0.30615234375,-0.0009765625,0.951171875,-0.91552734375,0.1220703125,0.79345703125,-0.252685546875,17.6165771484375,-164.849853515625
1758179710.1980739,-0.3076171875,0.0,0.95263671875,-1.3427734375,0.244140625,0.91552734375,-0.263671875,17.6220703125,-164.8388671875
1758179710.2080727,-0.3076171875,0.0,0.95263671875,-1.3427734375,0.244140625,0.91552734375,-0.274658203125,17.6220703125,-164.8333740234375
1758179710.2180645,-0.30810546875,-0.0078125,0.95361328125,-0.79345703125,0.54931640625,1.03759765625,-0.2801513671875,17.6275634765625,-164.8223876953125
1758179710.2280989,-0.30810546875,-0.0078125,0.95361328125,-0.79345703125,0.54931640625,1.03759765625,-0.2801513671875,17.633056640625,-164.81689453125
1758179710.2380867,-0.298828125,-0.01171875,0.95263671875,0.0,0.732421875,1.03759765625,-0.2801513671875,17.64404296875,-164.805908203125
1758179710.2481985,-0.298828125,-0.01171875,0.95263671875,0.0,0.732421875,1.03759765625,-0.274658203125,17.6495361328125,-164.8004150390625
1758179710.258255,-0.2890625,-0.0048828125,0.955078125,0.8544921875,0.54931640625,0.91552734375,-0.263671875,17.655029296875,-164.7894287109375
1758179710.2682252,-0.2890625,-0.0048828125,0.955078125,0.8544921875,0.54931640625,0.91552734375,-0.252685546875,17.6605224609375,-164.783935546875
1758179710.2782085,-0.298828125,-0.00146484375,0.953125,-0.1220703125,0.244140625,0.67138671875,-0.252685546875,17.6605224609375,-164.7784423828125
1758179710.2882402,-0.298828125,-0.00146484375,0.953125,-0.1220703125,0.244140625,0.67138671875,-0.252685546875,17.666015625,-164.7784423828125
1758179710.2982101,-0.30078125,0.00146484375,0.951171875,-0.42724609375,0.30517578125,0.732421875,-0.252685546875,17.666015625,-164.77294921875
1758179710.3112116,-0.30078125,0.00146484375,0.951171875,-0.42724609375,0.30517578125,0.732421875,-0.2581787109375,17.666015625,-164.7674560546875
1758179710.3182666,-0.29345703125,-0.00634765625,0.9560546875,0.48828125,0.244140625,0.8544921875,-0.2471923828125,17.666015625,-164.761962890625
1758179710.3282306,-0.29345703125,-0.00634765625,0.9560546875,0.48828125,0.244140625,0.8544921875,-0.24169921875,17.6715087890625,-164.7564697265625
1758179710.34461,-0.28564453125,-0.00634765625,0.9560546875,-0.18310546875,-0.06103515625,0.6103515625,-0.24169921875,17.666015625,-164.7509765625
1758179710.3511662,-0.28564453125,-0.00634765625,0.9560546875,-0.18310546875,-0.06103515625,0.6103515625,-0.24169921875,17.666015625,-164.7454833984375
1758179710.358228,-0.29541015625,0.00146484375,0.9580078125,-0.6103515625,-0.06103515625,0.30517578125,-0.2471923828125,17.6605224609375,-164.7454833984375
1758179710.3682795,-0.29541015625,0.00146484375,0.9580078125,-0.6103515625,-0.06103515625,0.30517578125,-0.252685546875,17.6605224609375,-164.7454833984375
1758179710.3857229,-0.2998046875,-0.00048828125,0.953125,0.18310546875,0.06103515625,0.244140625,-0.2471923828125,17.655029296875,-164.7509765625
1758179710.3918772,-0.2998046875,-0.00048828125,0.953125,0.18310546875,0.06103515625,0.244140625,-0.2471923828125,17.655029296875,-164.7509765625
1758179710.3983436,-0.29833984375,-0.00634765625,0.95751953125,0.732421875,0.3662109375,0.06103515625,-0.2362060546875,17.655029296875,-164.7509765625
1758179710.413676,-0.2958984375,-0.00927734375,0.9521484375,0.9765625,0.3662109375,0.06103515625,-0.230712890625,17.655029296875,-164.7564697265625
1758179710.419696,-0.2958984375,-0.00927734375,0.9521484375,0.9765625,0.3662109375,0.06103515625,-0.2197265625,17.6605224609375,-164.7564697265625
1758179710.4284153,-0.29541015625,-0.005859375,0.9560546875,1.03759765625,0.244140625,0.18310546875,-0.208740234375,17.6605224609375,-164.761962890625
1758179710.4413476,-0.29541015625,-0.005859375,0.9560546875,1.03759765625,0.244140625,0.18310546875,-0.19775390625,17.6605224609375,-164.761962890625
1758179710.448373,-0.3017578125,-0.0009765625,0.94921875,0.9765625,0.1220703125,0.3662109375,-0.186767578125,17.6605224609375,-164.761962890625
1758179710.4644299,-0.3017578125,-0.0009765625,0.94921875,0.9765625,0.1220703125,0.3662109375,-0.17578125,17.6605224609375,-164.761962890625
1758179710.4706242,-0.30615234375,0.00146484375,0.95263671875,0.54931640625,0.06103515625,0.3662109375,-0.1702880859375,17.655029296875,-164.761962890625
1758179710.4783967,-0.30615234375,0.00146484375,0.95263671875,0.54931640625,0.06103515625,0.3662109375,-0.164794921875,17.655029296875,-164.761962890625
1758179710.4883752,-0.30615234375,-0.00048828125,0.95166015625,0.06103515625,0.0,0.18310546875,-0.1593017578125,17.655029296875,-164.761962890625
1758179710.5022461,-0.30615234375,-0.00048828125,0.95166015625,0.06103515625,0.0,0.18310546875,-0.1593017578125,17.655029296875,-164.761962890625
1758179710.508485,-0.302734375,-0.00439453125,0.953125,0.1220703125,0.06103515625,0.1220703125,-0.1593017578125,17.655029296875,-164.761962890625
1758179710.5188334,-0.302734375,-0.00439453125,0.953125,0.1220703125,0.06103515625,0.1220703125,-0.15380859375,17.655029296875,-164.761962890625
1758179710.5345926,-0.30224609375,-0.005859375,0.953125,0.48828125,0.0,0.244140625,-0.15380859375,17.655029296875,-164.7674560546875
1758179710.540625,-0.30224609375,-0.005859375,0.953125,0.48828125,0.0,0.244140625,-0.1483154296875,17.6495361328125,-164.7674560546875
1758179710.548588,-0.30419921875,-0.0048828125,0.9501953125,0.91552734375,-0.06103515625,0.3662109375,-0.1373291015625,17.6495361328125,-164.761962890625
1758179710.5648165,-0.30419921875,-0.0048828125,0.9501953125,0.91552734375,-0.06103515625,0.3662109375,-0.1263427734375,17.6495361328125,-164.761962890625
1758179710.5720682,-0.3095703125,-0.0009765625,0.951171875,0.8544921875,-0.244140625,0.48828125,-0.120849609375,17.6495361328125,-164.761962890625
1758179710.578688,-0.3095703125,-0.0009765625,0.951171875,0.8544921875,-0.244140625,0.48828125,-0.10986328125,17.64404296875,-164.761962890625
1758179710.5891995,-0.3076171875,-0.00146484375,0.94873046875,0.79345703125,-0.244140625,0.48828125,-0.098876953125,17.64404296875,-164.7564697265625
1758179710.6021817,-0.3076171875,-0.00146484375,0.94873046875,0.79345703125,-0.244140625,0.48828125,-0.0933837890625,17.6385498046875,-164.7564697265625
1758179710.6085591,-0.30517578125,0.001953125,0.94970703125,1.64794921875,-0.244140625,0.67138671875,-0.076904296875,17.6385498046875,-164.7509765625
1758179710.6185434,-0.30517578125,0.001953125,0.94970703125,1.64794921875,-0.244140625,0.67138671875,-0.0604248046875,17.6385498046875,-164.7454833984375
1758179710.6343875,-0.30908203125,-0.005859375,0.95849609375,1.52587890625,-0.3662109375,0.79345703125,-0.0439453125,17.633056640625,-164.739990234375
1758179710.6404197,-0.30908203125,-0.005859375,0.95849609375,1.52587890625,-0.3662109375,0.79345703125,-0.0274658203125,17.633056640625,-164.7344970703125
1758179710.648663,-0.30419921875,0.00048828125,0.947265625,0.42724609375,-0.48828125,0.79345703125,-0.010986328125,17.6275634765625,-164.72900390625
1758179710.6589313,-0.30419921875,0.00048828125,0.947265625,0.42724609375,-0.48828125,0.79345703125,-0.0054931640625,17.6220703125,-164.7235107421875
1758179710.668796,-0.30615234375,0.0009765625,0.955078125,1.03759765625,-0.48828125,1.03759765625,0.0,17.6220703125,-164.7125244140625
1758179710.6786256,-0.30615234375,0.0009765625,0.955078125,1.03759765625,-0.48828125,1.03759765625,0.010986328125,17.6165771484375,-164.70703125
1758179710.688644,-0.2998046875,-0.00146484375,0.953125,0.91552734375,-0.54931640625,1.220703125,0.02197265625,17.611083984375,-164.696044921875
1758179710.6991687,-0.2998046875,-0.00146484375,0.953125,0.91552734375,-0.54931640625,1.220703125,0.032958984375,17.6055908203125,-164.68505859375
1758179710.7086384,-0.302734375,0.00048828125,0.953125,1.0986328125,-0.54931640625,1.220703125,0.0494384765625,17.60009765625,-164.674072265625
1758179710.7187588,-0.302734375,0.00048828125,0.953125,1.0986328125,-0.54931640625,1.220703125,0.0604248046875,17.60009765625,-164.6630859375
1758179710.7290208,-0.31005859375,0.00146484375,0.951171875,1.40380859375,-0.6103515625,1.220703125,0.076904296875,17.5946044921875,-164.652099609375
1758179710.73889,-0.31005859375,0.00146484375,0.951171875,1.40380859375,-0.6103515625,1.220703125,0.0933837890625,17.589111328125,-164.64111328125
1758179710.7487574,-0.31396484375,0.0107421875,0.94970703125,1.0986328125,-0.3662109375,1.220703125,0.10986328125,17.5836181640625,-164.630126953125
1758179710.7590625,-0.31396484375,0.0107421875,0.94970703125,1.0986328125,-0.3662109375,1.220703125,0.1263427734375,17.5836181640625,-164.619140625
1758179710.7688334,-0.3134765625,0.0126953125,0.95166015625,1.64794921875,-0.1220703125,1.28173828125,0.142822265625,17.578125,-164.6026611328125
1758179710.778777,-0.3134765625,0.0126953125,0.95166015625,1.64794921875,-0.1220703125,1.28173828125,0.164794921875,17.5836181640625,-164.5916748046875
1758179710.7887332,-0.3076171875,0.00146484375,0.95556640625,-0.91552734375,0.0,1.40380859375,0.1702880859375,17.5836181640625,-164.5751953125
1758179710.7992122,-0.3076171875,0.00146484375,0.95556640625,-0.91552734375,0.0,1.40380859375,0.164794921875,17.5836181640625,-164.564208984375
1758179710.8088045,-0.30615234375,-0.00732421875,0.95068359375,-0.91552734375,0.1220703125,1.28173828125,0.1593017578125,17.589111328125,-164.5477294921875
1758179710.8190715,-0.30615234375,-0.00732421875,0.95068359375,-0.91552734375,0.1220703125,1.28173828125,0.15380859375,17.589111328125,-164.5367431640625
1758179710.8289526,-0.3076171875,-0.0078125,0.95068359375,1.953125,0.244140625,1.03759765625,0.164794921875,17.5946044921875,-164.5257568359375
1758179710.8387952,-0.3076171875,-0.0078125,0.95068359375,1.953125,0.244140625,1.03759765625,0.186767578125,17.60009765625,-164.5147705078125
1758179710.8488834,-0.30224609375,0.00244140625,0.955078125,2.5634765625,0.244140625,0.8544921875,0.208740234375,17.60009765625,-164.5037841796875
1758179710.8590307,-0.30224609375,0.00244140625,0.955078125,2.5634765625,0.244140625,0.8544921875,0.2362060546875,17.6055908203125,-164.498291015625
1758179710.8688965,-0.302734375,0.017578125,0.94970703125,1.46484375,0.18310546875,0.91552734375,0.2581787109375,17.611083984375,-164.4873046875
1758179710.8789146,-0.302734375,0.017578125,0.94970703125,1.46484375,0.18310546875,0.91552734375,0.274658203125,17.611083984375,-164.4818115234375
1758179710.8889153,-0.30810546875,0.01708984375,0.95361328125,0.6103515625,0.30517578125,1.03759765625,0.28564453125,17.6165771484375,-164.4708251953125
1758179710.8993702,-0.30810546875,0.01708984375,0.95361328125,0.6103515625,0.30517578125,1.03759765625,0.296630859375,17.6220703125,-164.4598388671875
1758179710.9089565,-0.30517578125,0.00439453125,0.95263671875,-0.54931640625,0.48828125,1.28173828125,0.3021240234375,17.6275634765625,-164.4488525390625
1758179710.9190288,-0.30517578125,0.00439453125,0.95263671875,-0.54931640625,0.48828125,1.28173828125,0.3021240234375,17.633056640625,-164.432373046875
1758179710.9291193,-0.30419921875,-0.00439453125,0.95458984375,0.244140625,0.54931640625,1.0986328125,0.3021240234375,17.6385498046875,-164.42138671875
1758179710.938938,-0.30419921875,-0.00439453125,0.95458984375,0.244140625,0.54931640625,1.0986328125,0.3076171875,17.64404296875,-164.410400390625
1758179710.949054,-0.3017578125,-0.001953125,0.95263671875,1.89208984375,0.732421875,0.79345703125,0.3240966796875,17.6495361328125,-164.3994140625
1758179710.9591017,-0.3017578125,-0.001953125,0.95263671875,1.89208984375,0.732421875,0.79345703125,0.340576171875,17.6605224609375,-164.3939208984375
1758179710.969076,-0.3017578125,-0.001953125,0.95263671875,2.38037109375,0.79345703125,0.67138671875,0.362548828125,17.666015625,-164.388427734375
1758179710.979031,-0.29833984375,0.009765625,0.953125,2.38037109375,0.79345703125,0.67138671875,0.3900146484375,17.677001953125,-164.3829345703125
1758179710.9890804,-0.296875,0.0166015625,0.9560546875,1.77001953125,0.67138671875,0.79345703125,0.4119873046875,17.6824951171875,-164.3719482421875
1758179710.999486,-0.296875,0.0166015625,0.9560546875,1.77001953125,0.67138671875,0.79345703125,0.4339599609375,17.68798828125,-164.366455078125
1758179711.00907,-0.30224609375,0.01904296875,0.9541015625,0.54931640625,0.6103515625,0.9765625,0.4449462890625,17.6934814453125,-164.35546875
1758179711.0192482,-0.30224609375,0.01904296875,0.9541015625,0.54931640625,0.6103515625,0.9765625,0.4559326171875,17.698974609375,-164.3499755859375
1758179711.0300639,-0.3046875,0.00927734375,0.95068359375,-0.18310546875,0.67138671875,1.03759765625,0.46142578125,17.7044677734375,-164.3389892578125
1758179711.0394719,-0.3046875,0.00927734375,0.95068359375,-0.18310546875,0.67138671875,1.03759765625,0.46142578125,17.7099609375,-164.3280029296875
1758179711.049158,-0.2958984375,0.00390625,0.9541015625,0.0,0.6103515625,0.9765625,0.4669189453125,17.7154541015625,-164.3170166015625
1758179711.0590672,-0.2958984375,0.00390625,0.9541015625,0.0,0.6103515625,0.9765625,0.4669189453125,17.720947265625,-164.3115234375
1758179711.070206,-0.29443359375,0.005859375,0.95556640625,0.48828125,0.42724609375,0.91552734375,0.472412109375,17.7264404296875,-164.300537109375
1758179711.079258,-0.29443359375,0.005859375,0.95556640625,0.48828125,0.42724609375,0.91552734375,0.4833984375,17.73193359375,-164.2950439453125
1758179711.0891457,-0.2958984375,0.02783203125,0.95654296875,0.48828125,0.30517578125,1.0986328125,0.4888916015625,17.73193359375,-164.2840576171875
1758179711.0998077,-0.2958984375,0.02783203125,0.95654296875,0.48828125,0.30517578125,1.0986328125,0.4998779296875,17.73193359375,-164.2730712890625
1758179711.1092165,-0.3095703125,0.01171875,0.94873046875,-0.67138671875,0.30517578125,1.220703125,0.4998779296875,17.73193359375,-164.2620849609375
1758179711.119286,-0.3095703125,0.01171875,0.94873046875,-0.67138671875,0.30517578125,1.220703125,0.4998779296875,17.7374267578125,-164.2510986328125
1758179711.129491,-0.29833984375,0.0185546875,0.9580078125,-1.953125,0.42724609375,1.0986328125,0.494384765625,17.7374267578125,-164.2401123046875
1758179711.1391993,-0.29833984375,0.0185546875,0.9580078125,-1.953125,0.42724609375,1.0986328125,0.4779052734375,17.742919921875,-164.2291259765625
1758179711.1493688,-0.30078125,0.001953125,0.94921875,-0.9765625,0.54931640625,1.0986328125,0.4669189453125,17.742919921875,-164.2181396484375
1758179711.1591825,-0.30078125,0.001953125,0.94921875,-0.9765625,0.54931640625,1.0986328125,0.46142578125,17.7484130859375,-164.2071533203125
1758179711.1697083,-0.2958984375,0.00830078125,0.958984375,-0.9765625,0.6103515625,1.0986328125,0.4559326171875,17.75390625,-164.1961669921875
1758179711.1792243,-0.2958984375,0.00830078125,0.958984375,-0.9765625,0.6103515625,1.0986328125,0.450439453125,17.75390625,-164.1851806640625
1758179711.1893952,-0.29931640625,0.01220703125,0.95068359375,-1.40380859375,0.42724609375,1.0986328125,0.4449462890625,17.7593994140625,-164.1796875
1758179711.1996143,-0.29931640625,0.01220703125,0.95068359375,-1.40380859375,0.42724609375,1.0986328125,0.4339599609375,17.7593994140625,-164.168701171875
1758179711.2093914,-0.30029296875,0.0146484375,0.95458984375,-2.01416015625,0.3662109375,1.03759765625,0.4229736328125,17.764892578125,-164.15771484375
1758179711.219667,-0.30029296875,0.0146484375,0.95458984375,-2.01416015625,0.3662109375,1.03759765625,0.406494140625,17.764892578125,-164.146728515625
1758179711.2295773,-0.30615234375,0.009765625,0.9462890625,-1.8310546875,0.30517578125,0.9765625,0.3955078125,17.764892578125,-164.1357421875
1758179711.239352,-0.30615234375,0.009765625,0.9462890625,-1.8310546875,0.30517578125,0.9765625,0.3790283203125,17.7703857421875,-164.1302490234375
1758179711.2495062,-0.3076171875,0.00439453125,0.95556640625,-2.13623046875,0.3662109375,0.8544921875,0.3680419921875,17.7703857421875,-164.1192626953125
1758179711.2593353,-0.3076171875,0.00439453125,0.95556640625,-2.13623046875,0.3662109375,0.8544921875,0.3460693359375,17.7703857421875,-164.1082763671875
1758179711.2699077,-0.310546875,0.0068359375,0.9462890625,-2.197265625,0.48828125,0.79345703125,0.32958984375,17.77587890625,-164.102783203125
1758179711.2793477,-0.310546875,0.0068359375,0.9462890625,-2.197265625,0.48828125,0.79345703125,0.3131103515625,17.7813720703125,-164.0972900390625
1758179711.2893865,-0.31005859375,0.005859375,0.9521484375,-2.25830078125,0.6103515625,0.8544921875,0.296630859375,17.786865234375,-164.0863037109375
1758179711.2996838,-0.31005859375,0.005859375,0.9521484375,-2.25830078125,0.6103515625,0.8544921875,0.274658203125,17.7923583984375,-164.0753173828125
1758179711.309418,-0.30517578125,0.0078125,0.94970703125,-2.13623046875,0.54931640625,0.91552734375,0.2581787109375,17.7978515625,-164.06982421875
1758179711.319575,-0.30517578125,0.0078125,0.94970703125,-2.13623046875,0.54931640625,0.91552734375,0.24169921875,17.8033447265625,-164.058837890625
1758179711.329553,-0.302734375,0.01220703125,0.94873046875,-1.77001953125,0.42724609375,0.8544921875,0.2252197265625,17.808837890625,-164.0478515625
1758179711.3394337,-0.302734375,0.01220703125,0.94873046875,-1.77001953125,0.42724609375,0.8544921875,0.2142333984375,17.808837890625,-164.036865234375
1758179711.3495114,-0.31689453125,0.00048828125,0.94970703125,-1.5869140625,0.30517578125,0.67138671875,0.2032470703125,17.8143310546875,-164.0313720703125
1758179711.3594718,-0.31689453125,0.00048828125,0.94970703125,-1.5869140625,0.30517578125,0.67138671875,0.1922607421875,17.8143310546875,-164.02587890625
1758179711.3700821,-0.314453125,0.00048828125,0.9482421875,-1.46484375,0.244140625,0.48828125,0.17578125,17.81982421875,-164.014892578125
1758179711.3794684,-0.314453125,0.00048828125,0.9482421875,-1.46484375,0.244140625,0.48828125,0.164794921875,17.8253173828125,-164.0093994140625
1758179711.3894699,-0.3193359375,0.001953125,0.94677734375,-0.30517578125,0.30517578125,0.48828125,0.1593017578125,17.8253173828125,-164.00390625
1758179711.3999245,-0.3193359375,0.001953125,0.94677734375,-0.30517578125,0.30517578125,0.48828125,0.1593017578125,17.830810546875,-163.9984130859375
1758179711.4094589,-0.31591796875,0.00390625,0.947265625,0.0,0.30517578125,0.48828125,0.1593017578125,17.8363037109375,-163.992919921875
1758179711.419546,-0.31591796875,0.00390625,0.947265625,0.0,0.30517578125,0.48828125,0.164794921875,17.841796875,-163.9874267578125
1758179711.429803,-0.31005859375,0.009765625,0.94775390625,0.30517578125,0.244140625,0.42724609375,0.164794921875,17.8472900390625,-163.98193359375
1758179711.4395735,-0.31005859375,0.009765625,0.94775390625,0.30517578125,0.244140625,0.42724609375,0.1702880859375,17.8472900390625,-163.9764404296875
1758179711.4498923,-0.32177734375,0.0048828125,0.94775390625,0.9765625,0.244140625,0.18310546875,0.186767578125,17.852783203125,-163.9764404296875
1758179711.459568,-0.32177734375,0.0048828125,0.94775390625,0.9765625,0.244140625,0.18310546875,0.19775390625,17.8582763671875,-163.970947265625
1758179711.4701917,-0.3193359375,0.0029296875,0.94921875,0.244140625,0.244140625,0.0,0.19775390625,17.86376953125,-163.970947265625
1758179711.4795434,-0.3193359375,0.0029296875,0.94921875,0.244140625,0.244140625,0.0,0.2032470703125,17.8692626953125,-163.9654541015625
1758179711.4896972,-0.31201171875,0.00537109375,0.94580078125,0.6103515625,0.244140625,0.06103515625,0.208740234375,17.874755859375,-163.9654541015625
1758179711.5000038,-0.31201171875,0.00537109375,0.94580078125,0.6103515625,0.244140625,0.06103515625,0.2142333984375,17.8802490234375,-163.9599609375
1758179711.5097506,-0.3095703125,0.00390625,0.9521484375,0.91552734375,0.18310546875,0.18310546875,0.2252197265625,17.8857421875,-163.9599609375
1758179711.5196726,-0.3095703125,0.00390625,0.9521484375,0.91552734375,0.18310546875,0.18310546875,0.2362060546875,17.8857421875,-163.9544677734375
1758179711.5298498,-0.31298828125,0.00732421875,0.94580078125,0.91552734375,0.1220703125,0.06103515625,0.2471923828125,17.8912353515625,-163.9544677734375
1758179711.5397997,-0.31298828125,0.00732421875,0.94580078125,0.91552734375,0.1220703125,0.06103515625,0.252685546875,17.896728515625,-163.948974609375
1758179711.5501714,-0.318359375,0.00537109375,0.9482421875,2.5634765625,0.0,-0.1220703125,0.2801513671875,17.896728515625,-163.948974609375
1758179711.5597146,-0.318359375,0.00537109375,0.9482421875,2.5634765625,0.0,-0.1220703125,0.3076171875,17.896728515625,-163.948974609375
1758179711.5699804,-0.310546875,0.00244140625,0.9501953125,2.5634765625,-0.06103515625,-0.42724609375,0.32958984375,17.9022216796875,-163.9544677734375
1758179711.5798419,-0.310546875,0.00244140625,0.9501953125,2.5634765625,-0.06103515625,-0.42724609375,0.3515625,17.9022216796875,-163.9599609375
1758179711.589716,-0.31298828125,0.0107421875,0.94970703125,1.77001953125,-0.18310546875,-0.6103515625,0.3680419921875,17.9022216796875,-163.9599609375
1758179711.6001134,-0.31298828125,0.0107421875,0.94970703125,1.77001953125,-0.18310546875,-0.6103515625,0.384521484375,17.9022216796875,-163.9654541015625
1758179711.6098094,-0.31591796875,0.01806640625,0.947265625,0.91552734375,-0.244140625,-0.48828125,0.3955078125,17.9022216796875,-163.970947265625
1758179711.6197777,-0.31591796875,0.01806640625,0.947265625,0.91552734375,-0.244140625,-0.48828125,0.4010009765625,17.9022216796875,-163.970947265625
1758179711.6304924,-0.31201171875,0.013671875,0.951171875,0.54931640625,-0.244140625,-0.67138671875,0.406494140625,17.9022216796875,-163.9764404296875
1758179711.6401722,-0.31201171875,0.013671875,0.951171875,0.54931640625,-0.244140625,-0.67138671875,0.406494140625,17.9022216796875,-163.98193359375
1758179711.6500096,-0.30908203125,0.00537109375,0.943359375,1.28173828125,-0.244140625,-0.79345703125,0.41748046875,17.9022216796875,-163.9874267578125
1758179711.659849,-0.30908203125,0.00537109375,0.943359375,1.28173828125,-0.244140625,-0.79345703125,0.428466796875,17.9022216796875,-163.992919921875
1758179711.6701038,-0.3173828125,-0.00146484375,0.95263671875,2.99072265625,-0.18310546875,-1.03759765625,0.4559326171875,17.9022216796875,-164.00390625
1758179711.679863,-0.3173828125,-0.00146484375,0.95263671875,2.99072265625,-0.18310546875,-1.03759765625,0.4833984375,17.9022216796875,-164.0093994140625
1758179711.689809,-0.318359375,0.00830078125,0.94873046875,1.708984375,-0.18310546875,-1.03759765625,0.494384765625,17.9022216796875,-164.0203857421875
1758179711.700274,-0.318359375,0.00830078125,0.94873046875,1.708984375,-0.18310546875,-1.03759765625,0.5108642578125,17.90771484375,-164.0313720703125
1758179711.7098815,-0.31787109375,0.02392578125,0.94873046875,0.30517578125,-0.1220703125,-0.732421875,0.5108642578125,17.90771484375,-164.036865234375
1758179711.7200468,-0.31787109375,0.02392578125,0.94873046875,0.30517578125,-0.1220703125,-0.732421875,0.5108642578125,17.90771484375,-164.0423583984375
1758179711.7299166,-0.3173828125,0.017578125,0.94873046875,-0.06103515625,-0.06103515625,-0.6103515625,0.5108642578125,17.9132080078125,-164.0423583984375
1758179711.7399225,-0.3173828125,0.017578125,0.94873046875,-0.06103515625,-0.06103515625,-0.6103515625,0.5108642578125,17.9132080078125,-164.0478515625
1758179711.750231,-0.32177734375,0.0048828125,0.94580078125,-0.732421875,-0.06103515625,-0.54931640625,0.4998779296875,17.9132080078125,-164.0478515625
1758179711.7599957,-0.32177734375,0.0048828125,0.94580078125,-0.732421875,-0.06103515625,-0.54931640625,0.494384765625,17.918701171875,-164.0533447265625
1758179711.770172,-0.32470703125,0.00244140625,0.94677734375,-0.48828125,0.0,-0.42724609375,0.4833984375,17.9241943359375,-164.0533447265625
1758179711.7805636,-0.32470703125,0.00244140625,0.94677734375,-0.48828125,0.0,-0.42724609375,0.4779052734375,17.9241943359375,-164.058837890625
1758179711.7899816,-0.32421875,0.005859375,0.94775390625,-0.3662109375,0.0,-0.06103515625,0.4779052734375,17.9296875,-164.0533447265625
1758179711.800543,-0.32421875,0.005859375,0.94775390625,-0.3662109375,0.0,-0.06103515625,0.472412109375,17.9351806640625,-164.0533447265625
1758179711.8099985,-0.318359375,0.00927734375,0.9443359375,-0.91552734375,0.0,0.244140625,0.4669189453125,17.9351806640625,-164.0478515625
1758179711.82022,-0.318359375,0.00927734375,0.9443359375,-0.91552734375,0.0,0.244140625,0.4559326171875,17.940673828125,-164.0423583984375
1758179711.8300703,-0.31298828125,0.0087890625,0.95166015625,-0.9765625,0.0,0.54931640625,0.450439453125,17.9461669921875,-164.0313720703125
1758179711.8401654,-0.31298828125,0.0087890625,0.95166015625,-0.9765625,0.0,0.54931640625,0.439453125,17.9461669921875,-164.02587890625
1758179711.8504798,-0.3212890625,0.00390625,0.9453125,0.18310546875,0.0,0.8544921875,0.4449462890625,17.95166015625,-164.014892578125
1758179711.860091,-0.3212890625,0.00390625,0.9453125,0.18310546875,0.0,0.8544921875,0.450439453125,17.9571533203125,-164.00390625
1758179711.8704007,-0.32177734375,0.00146484375,0.95263671875,-0.6103515625,0.0,1.03759765625,0.450439453125,17.9571533203125,-163.9874267578125
1758179711.8801277,-0.32177734375,0.00146484375,0.95263671875,-0.6103515625,0.0,1.03759765625,0.4449462890625,17.962646484375,-163.9764404296875
1758179711.8900707,-0.31884765625,0.009765625,0.94189453125,-1.3427734375,0.1220703125,1.0986328125,0.4339599609375,17.9681396484375,-163.9599609375
1758179711.9007509,-0.31884765625,0.009765625,0.94189453125,-1.3427734375,0.1220703125,1.0986328125,0.4229736328125,17.9736328125,-163.948974609375
1758179711.910121,-0.3115234375,0.0107421875,0.95361328125,-0.79345703125,0.1220703125,1.220703125,0.4229736328125,17.9791259765625,-163.9324951171875
1758179711.9204767,-0.3115234375,0.0107421875,0.95361328125,-0.79345703125,0.1220703125,1.220703125,0.41748046875,17.984619140625,-163.916015625
1758179711.9312243,-0.3115234375,0.0087890625,0.9462890625,-1.28173828125,0.0,1.15966796875,0.406494140625,17.984619140625,-163.905029296875
1758179711.9407432,-0.3115234375,0.0087890625,0.9462890625,-1.28173828125,0.0,1.15966796875,0.4010009765625,17.9901123046875,-163.8885498046875
1758179711.9503179,-0.3134765625,0.0087890625,0.953125,-1.3427734375,0.06103515625,1.03759765625,0.3900146484375,17.9901123046875,-163.8775634765625
1758179711.9603164,-0.3134765625,0.0087890625,0.953125,-1.3427734375,0.06103515625,1.03759765625,0.3790283203125,17.99560546875,-163.861083984375
1758179711.9704947,-0.3134765625,0.0087890625,0.953125,-0.8544921875,0.0,0.9765625,0.3790283203125,17.99560546875,-163.85009765625
1758179711.9803488,-0.31884765625,0.0068359375,0.9453125,-0.8544921875,0.0,0.9765625,0.37353515625,18.0010986328125,-163.839111328125
1758179711.9902284,-0.3173828125,0.0078125,0.94970703125,-1.03759765625,0.06103515625,0.91552734375,0.362548828125,18.0010986328125,-163.828125
1758179712.0012865,-0.3173828125,0.0078125,0.94970703125,-1.03759765625,0.06103515625,0.91552734375,0.3570556640625,18.006591796875,-163.817138671875
1758179712.0102968,-0.30908203125,0.02490234375,0.94482421875,-1.15966796875,0.30517578125,1.220703125,0.3515625,18.0120849609375,-163.8006591796875
1758179712.0203524,-0.30908203125,0.02490234375,0.94482421875,-1.15966796875,0.30517578125,1.220703125,0.3460693359375,18.017578125,-163.7896728515625
1758179712.030358,-0.30712890625,0.00341796875,0.9609375,-1.52587890625,0.3662109375,1.28173828125,0.3350830078125,18.0230712890625,-163.773193359375
1758179712.0403283,-0.30712890625,0.00341796875,0.9609375,-1.52587890625,0.3662109375,1.28173828125,0.32958984375,18.028564453125,-163.7567138671875
1758179712.0506582,-0.30517578125,0.00244140625,0.94921875,-2.13623046875,0.3662109375,0.91552734375,0.3076171875,18.0340576171875,-163.7457275390625
1758179712.060311,-0.30517578125,0.00244140625,0.94921875,-2.13623046875,0.3662109375,0.91552734375,0.2911376953125,18.03955078125,-163.7347412109375
1758179712.0705016,-0.31591796875,0.0048828125,0.94873046875,-0.79345703125,0.3662109375,0.6103515625,0.28564453125,18.03955078125,-163.729248046875
1758179712.0803986,-0.31591796875,0.0048828125,0.94873046875,-0.79345703125,0.3662109375,0.6103515625,0.28564453125,18.0450439453125,-163.71826171875
1758179712.0903845,-0.3173828125,0.00439453125,0.947265625,-0.244140625,0.54931640625,0.54931640625,0.28564453125,18.0560302734375,-163.7127685546875
1758179712.1007147,-0.3173828125,0.00439453125,0.947265625,-0.244140625,0.54931640625,0.54931640625,0.28564453125,18.0615234375,-163.707275390625
1758179712.11043,-0.30908203125,0.01171875,0.95068359375,-0.42724609375,0.6103515625,0.48828125,0.2801513671875,18.0670166015625,-163.7017822265625
1758179712.1204424,-0.30908203125,0.01171875,0.95068359375,-0.42724609375,0.6103515625,0.48828125,0.2801513671875,18.072509765625,-163.6907958984375
1758179712.130477,-0.3046875,0.00830078125,0.951171875,-0.54931640625,0.42724609375,0.54931640625,0.2801513671875,18.0780029296875,-163.685302734375
1758179712.1404326,-0.3046875,0.00830078125,0.951171875,-0.54931640625,0.42724609375,0.54931640625,0.274658203125,18.08349609375,-163.6798095703125
1758179712.1504643,-0.30517578125,0.00634765625,0.951171875,-1.3427734375,0.244140625,0.54931640625,0.263671875,18.0889892578125,-163.67431640625
1758179712.1604428,-0.30517578125,0.00634765625,0.951171875,-1.3427734375,0.244140625,0.54931640625,0.252685546875,18.0889892578125,-163.6688232421875
1758179712.1705523,-0.3125,0.0068359375,0.94921875,-1.28173828125,0.1220703125,0.48828125,0.2471923828125,18.0889892578125,-163.6578369140625
1758179712.1805584,-0.3125,0.0068359375,0.94921875,-1.28173828125,0.1220703125,0.48828125,0.2362060546875,18.0889892578125,-163.65234375
1758179712.1904862,-0.30810546875,0.0068359375,0.94873046875,-0.54931640625,0.1220703125,0.42724609375,0.230712890625,18.094482421875,-163.6468505859375
1758179712.200894,-0.30810546875,0.0068359375,0.94873046875,-0.54931640625,0.1220703125,0.42724609375,0.230712890625,18.094482421875,-163.6468505859375
1758179712.2105668,-0.3046875,0.00390625,0.9521484375,-0.1220703125,0.0,0.18310546875,0.230712890625,18.094482421875,-163.641357421875
1758179712.22074,-0.3046875,0.00390625,0.9521484375,-0.1220703125,0.0,0.18310546875,0.230712890625,18.094482421875,-163.641357421875
1758179712.230617,-0.3046875,0.00390625,0.9521484375,-0.42724609375,-0.1220703125,0.06103515625,0.2252197265625,18.0889892578125,-163.641357421875
1758179712.241421,-0.30908203125,0.0048828125,0.9482421875,-0.42724609375,-0.1220703125,0.06103515625,0.2252197265625,18.0889892578125,-163.6358642578125
1758179712.2508063,-0.31298828125,0.0078125,0.94970703125,-1.03759765625,-0.244140625,0.1220703125,0.2142333984375,18.0889892578125,-163.6358642578125
1758179712.2605913,-0.31298828125,0.0078125,0.94970703125,-1.03759765625,-0.244140625,0.1220703125,0.208740234375,18.08349609375,-163.6358642578125
1758179712.274081,-0.31298828125,0.0078125,0.94921875,-1.40380859375,-0.18310546875,0.244140625,0.1922607421875,18.08349609375,-163.63037109375
1758179712.280769,-0.31298828125,0.0078125,0.94921875,-1.40380859375,-0.18310546875,0.244140625,0.1812744140625,18.08349609375,-163.6248779296875
1758179712.2911022,-0.3095703125,0.00439453125,0.9521484375,-0.79345703125,-0.18310546875,0.30517578125,0.17578125,18.0780029296875,-163.6248779296875
1758179712.3036711,-0.3095703125,0.00439453125,0.9521484375,-0.79345703125,-0.18310546875,0.30517578125,0.1702880859375,18.0780029296875,-163.619384765625
1758179712.3107092,-0.31396484375,-0.0009765625,0.9443359375,1.15966796875,-0.06103515625,0.18310546875,0.186767578125,18.0780029296875,-163.6138916015625
1758179712.32073,-0.31396484375,-0.0009765625,0.9443359375,1.15966796875,-0.06103515625,0.18310546875,0.19775390625,18.0780029296875,-163.6138916015625
1758179712.3364556,-0.31103515625,-0.001953125,0.95849609375,-1.03759765625,-0.06103515625,0.30517578125,0.186767578125,18.0780029296875,-163.6083984375
1758179712.3426,-0.31103515625,-0.001953125,0.95849609375,-1.03759765625,-0.06103515625,0.30517578125,0.1812744140625,18.0780029296875,-163.6083984375
1758179712.3507445,-0.3134765625,0.00244140625,0.9423828125,-1.708984375,-0.18310546875,0.244140625,0.164794921875,18.072509765625,-163.6029052734375
1758179712.3633337,-0.3134765625,0.00244140625,0.9423828125,-1.708984375,-0.18310546875,0.244140625,0.1483154296875,18.072509765625,-163.6029052734375
1758179712.3714375,-0.31494140625,0.001953125,0.95263671875,-0.06103515625,-0.18310546875,0.1220703125,0.1483154296875,18.072509765625,-163.597412109375
1758179712.3811598,-0.31494140625,0.001953125,0.95263671875,-0.06103515625,-0.18310546875,0.1220703125,0.1483154296875,18.072509765625,-163.597412109375
1758179712.390945,-0.31103515625,0.00390625,0.947265625,-0.6103515625,-0.18310546875,0.1220703125,0.142822265625,18.0670166015625,-163.597412109375
1758179712.4015617,-0.31103515625,0.00390625,0.947265625,-0.6103515625,-0.18310546875,0.1220703125,0.1373291015625,18.0670166015625,-163.5919189453125
1758179712.410928,-0.31005859375,0.00439453125,0.95263671875,-0.48828125,-0.1220703125,0.244140625,0.1318359375,18.0670166015625,-163.5919189453125
1758179712.4212337,-0.31005859375,0.00439453125,0.95263671875,-0.48828125,-0.1220703125,0.244140625,0.1318359375,18.0670166015625,-163.58642578125
1758179712.4317555,-0.310546875,0.00048828125,0.94921875,-0.244140625,-0.1220703125,0.3662109375,0.1263427734375,18.0670166015625,-163.5809326171875
1758179712.441217,-0.310546875,0.00048828125,0.94921875,-0.244140625,-0.1220703125,0.3662109375,0.1263427734375,18.0670166015625,-163.5809326171875
1758179712.4511793,-0.30810546875,0.0009765625,0.95166015625,-0.67138671875,-0.06103515625,0.48828125,0.120849609375,18.0670166015625,-163.575439453125
1758179712.461239,-0.30419921875,0.001953125,0.95263671875,-0.54931640625,-0.06103515625,0.6103515625,0.120849609375,18.0670166015625,-163.564453125
1758179712.4714541,-0.30419921875,0.001953125,0.95263671875,-0.54931640625,-0.06103515625,0.6103515625,0.1153564453125,18.0670166015625,-163.5589599609375
1758179712.4813852,-0.306640625,0.00048828125,0.95166015625,-0.3662109375,-0.06103515625,0.67138671875,0.1153564453125,18.0615234375,-163.553466796875
1758179712.4910538,-0.306640625,0.00048828125,0.95166015625,-0.3662109375,-0.06103515625,0.67138671875,0.10986328125,18.0615234375,-163.54248046875
1758179712.5017543,-0.3076171875,0.00390625,0.95166015625,-0.48828125,0.0,0.67138671875,0.10986328125,18.0615234375,-163.5369873046875
1758179712.51099,-0.3076171875,0.00390625,0.95166015625,-0.48828125,0.0,0.67138671875,0.10986328125,18.0615234375,-163.531494140625
1758179712.5213394,-0.31005859375,0.00439453125,0.953125,-0.3662109375,0.0,0.54931640625,0.1043701171875,18.0615234375,-163.5260009765625
1758179712.5315318,-0.31005859375,0.00439453125,0.953125,-0.3662109375,0.0,0.54931640625,0.1043701171875,18.0615234375,-163.5150146484375
1758179712.541523,-0.31494140625,0.00341796875,0.94775390625,0.0,0.06103515625,0.48828125,0.1043701171875,18.0615234375,-163.509521484375
1758179712.5509515,-0.31494140625,0.00341796875,0.94775390625,0.0,0.06103515625,0.48828125,0.1043701171875,18.0615234375,-163.5040283203125
1758179712.5633345,-0.31640625,-0.0009765625,0.94873046875,0.1220703125,0.1220703125,0.48828125,0.10986328125,18.0615234375,-163.49853515625
1758179712.5717747,-0.31640625,-0.0009765625,0.94873046875,0.1220703125,0.1220703125,0.48828125,0.10986328125,18.0615234375,-163.4930419921875
1758179712.5813844,-0.3076171875,0.00048828125,0.951171875,0.0,0.18310546875,0.67138671875,0.1153564453125,18.0670166015625,-163.487548828125
1758179712.591181,-0.3076171875,0.00048828125,0.951171875,0.0,0.18310546875,0.67138671875,0.1153564453125,18.0670166015625,-163.4820556640625
1758179712.6017787,-0.30322265625,0.00390625,0.955078125,-0.18310546875,0.1220703125,0.8544921875,0.120849609375,18.0670166015625,-163.4710693359375
1758179712.6111376,-0.30322265625,0.00390625,0.955078125,-0.18310546875,0.1220703125,0.8544921875,0.120849609375,18.072509765625,-163.4600830078125
1758179712.621431,-0.30908203125,0.00927734375,0.94970703125,-0.79345703125,0.06103515625,0.9765625,0.1153564453125,18.072509765625,-163.45458984375
1758179712.6314414,-0.30908203125,0.00927734375,0.94970703125,-0.79345703125,0.06103515625,0.9765625,0.1153564453125,18.072509765625,-163.443603515625
1758179712.6415215,-0.31298828125,0.00390625,0.94873046875,-0.6103515625,0.06103515625,0.91552734375,0.10986328125,18.072509765625,-163.4326171875
1758179712.651222,-0.31298828125,0.00390625,0.94873046875,-0.6103515625,0.06103515625,0.91552734375,0.10986328125,18.072509765625,-163.421630859375
1758179712.6614766,-0.3115234375,-0.00146484375,0.95068359375,-0.48828125,0.06103515625,0.79345703125,0.1043701171875,18.072509765625,-163.41064453125
1758179712.671648,-0.3115234375,-0.00146484375,0.95068359375,-0.48828125,0.06103515625,0.79345703125,0.1043701171875,18.072509765625,-163.4051513671875
1758179712.6815298,-0.30859375,0.001953125,0.95166015625,-0.244140625,0.06103515625,0.79345703125,0.1043701171875,18.072509765625,-163.3941650390625
1758179712.691176,-0.30859375,0.001953125,0.95166015625,-0.244140625,0.06103515625,0.79345703125,0.1043701171875,18.072509765625,-163.3831787109375
1758179712.7025998,-0.30908203125,0.00341796875,0.9501953125,-0.06103515625,0.18310546875,0.79345703125,0.1043701171875,18.072509765625,-163.377685546875
1758179712.7113652,-0.30908203125,0.00341796875,0.9501953125,-0.06103515625,0.18310546875,0.79345703125,0.1043701171875,18.0780029296875,-163.36669921875
1758179712.7216392,-0.30810546875,0.00634765625,0.953125,-0.79345703125,0.18310546875,0.8544921875,0.1043701171875,18.0780029296875,-163.3612060546875
1758179712.731728,-0.30810546875,0.00634765625,0.953125,-0.79345703125,0.18310546875,0.8544921875,0.098876953125,18.0780029296875,-163.3502197265625
1758179712.741598,-0.30810546875,0.00634765625,0.953125,-0.732421875,0.18310546875,0.79345703125,0.098876953125,18.08349609375,-163.3392333984375
1758179712.751321,-0.30908203125,0.00439453125,0.95068359375,-0.732421875,0.18310546875,0.79345703125,0.0933837890625,18.08349609375,-163.333740234375
1758179712.7615526,-0.3134765625,0.0,0.9482421875,0.1220703125,0.18310546875,0.54931640625,0.0933837890625,18.08349609375,-163.32275390625
1758179712.7717683,-0.3134765625,0.0,0.9482421875,0.1220703125,0.18310546875,0.54931640625,0.0933837890625,18.08349609375,-163.3172607421875
1758179712.78168,-0.3134765625,0.00146484375,0.94677734375,-0.06103515625,0.0,0.3662109375,0.098876953125,18.0889892578125,-163.311767578125
1758179712.7913806,-0.3134765625,0.00146484375,0.94677734375,-0.06103515625,0.0,0.3662109375,0.098876953125,18.0889892578125,-163.3062744140625
1758179712.8021693,-0.310546875,0.0068359375,0.94970703125,-0.30517578125,-0.06103515625,0.30517578125,0.098876953125,18.0889892578125,-163.3062744140625
1758179712.8113925,-0.310546875,0.0068359375,0.94970703125,-0.30517578125,-0.06103515625,0.30517578125,0.098876953125,18.08349609375,-163.30078125
1758179712.8216376,-0.30908203125,0.0283203125,0.93408203125,0.244140625,0.0,0.67138671875,0.098876953125,18.08349609375,-163.2952880859375
1758179712.8339798,-0.30908203125,0.0283203125,0.93408203125,0.244140625,0.0,0.67138671875,0.1043701171875,18.0889892578125,-163.2843017578125
1758179712.8436038,-0.31396484375,-0.0029296875,0.96484375,0.244140625,0.0,0.6103515625,0.10986328125,18.0889892578125,-163.27880859375
1758179712.8514752,-0.31396484375,-0.0029296875,0.96484375,0.244140625,0.0,0.6103515625,0.120849609375,18.0889892578125,-163.267822265625
1758179712.8641448,-0.3037109375,-0.0029296875,0.94921875,-1.64794921875,0.0,0.30517578125,0.1153564453125,18.0889892578125,-163.2623291015625
1758179712.8720615,-0.3037109375,-0.0029296875,0.94921875,-1.64794921875,0.0,0.30517578125,0.098876953125,18.0889892578125,-163.2568359375
1758179712.88177,-0.30615234375,0.00244140625,0.94921875,-0.54931640625,0.0,0.3662109375,0.0933837890625,18.0889892578125,-163.2568359375
1758179712.8914633,-0.30615234375,0.00244140625,0.94921875,-0.54931640625,0.0,0.3662109375,0.087890625,18.0889892578125,-163.2513427734375
1758179712.9021697,-0.31103515625,0.00244140625,0.95361328125,0.30517578125,-0.06103515625,0.3662109375,0.087890625,18.08349609375,-163.245849609375
1758179712.9114587,-0.31103515625,0.00244140625,0.95361328125,0.30517578125,-0.06103515625,0.3662109375,0.0933837890625,18.08349609375,-163.2403564453125
1758179712.921828,-0.31591796875,0.005859375,0.943359375,-0.18310546875,-0.1220703125,0.18310546875,0.0933837890625,18.08349609375,-163.23486328125
1758179712.9318476,-0.31591796875,0.005859375,0.943359375,-0.18310546875,-0.1220703125,0.18310546875,0.0933837890625,18.08349609375,-163.23486328125
1758179712.941836,-0.31494140625,0.00634765625,0.9521484375,-0.3662109375,0.0,0.244140625,0.0933837890625,18.08349609375,-163.2293701171875
1758179712.9516141,-0.31494140625,0.00634765625,0.9521484375,-0.3662109375,0.0,0.244140625,0.0933837890625,18.08349609375,-163.2293701171875
1758179712.961808,-0.31201171875,0.00341796875,0.94775390625,-0.54931640625,0.06103515625,0.244140625,0.087890625,18.08349609375,-163.223876953125
1758179712.9717991,-0.31201171875,0.00341796875,0.94775390625,-0.54931640625,0.06103515625,0.244140625,0.087890625,18.08349609375,-163.2183837890625
1758179712.98177,-0.30908203125,0.00048828125,0.95458984375,-0.3662109375,0.1220703125,0.1220703125,0.0823974609375,18.08349609375,-163.2183837890625
1758179712.9915714,-0.30908203125,0.00048828125,0.95458984375,-0.3662109375,0.1220703125,0.1220703125,0.0823974609375,18.0889892578125,-163.212890625
1758179713.002136,-0.31201171875,0.00146484375,0.951171875,-0.1220703125,0.18310546875,0.0,0.076904296875,18.0889892578125,-163.212890625
1758179713.0116298,-0.31201171875,0.00146484375,0.951171875,-0.1220703125,0.18310546875,0.0,0.076904296875,18.0889892578125,-163.212890625
1758179713.0218837,-0.31787109375,0.00390625,0.9453125,0.48828125,0.18310546875,-0.244140625,0.0823974609375,18.094482421875,-163.212890625
1758179713.0319707,-0.31787109375,0.00390625,0.9453125,0.48828125,0.18310546875,-0.244140625,0.087890625,18.094482421875,-163.212890625
1758179713.041882,-0.3212890625,0.00537109375,0.9482421875,0.54931640625,0.244140625,-0.42724609375,0.0933837890625,18.0999755859375,-163.2183837890625
1758179713.0516944,-0.3212890625,0.00537109375,0.9482421875,0.54931640625,0.244140625,-0.42724609375,0.0933837890625,18.0999755859375,-163.2183837890625
1758179713.063107,-0.322265625,0.00537109375,0.9443359375,0.1220703125,0.18310546875,-0.48828125,0.098876953125,18.10546875,-163.223876953125
1758179713.0719838,-0.322265625,0.00537109375,0.9443359375,0.1220703125,0.18310546875,-0.48828125,0.098876953125,18.1109619140625,-163.223876953125
1758179713.0818303,-0.3173828125,0.0029296875,0.94677734375,-0.67138671875,0.06103515625,-0.42724609375,0.0933837890625,18.1109619140625,-163.2293701171875
1758179713.0916426,-0.3173828125,0.0029296875,0.94677734375,-0.67138671875,0.06103515625,-0.42724609375,0.087890625,18.116455078125,-163.2293701171875
1758179713.1023602,-0.3095703125,0.00390625,0.94921875,-1.3427734375,0.0,-0.3662109375,0.076904296875,18.116455078125,-163.23486328125
1758179713.1117425,-0.3095703125,0.00390625,0.94921875,-1.3427734375,0.0,-0.3662109375,0.06591796875,18.116455078125,-163.23486328125
1758179713.1221564,-0.30517578125,0.00439453125,0.95263671875,-0.67138671875,-0.06103515625,-0.30517578125,0.054931640625,18.116455078125,-163.23486328125
1758179713.1320212,-0.30517578125,0.00439453125,0.95263671875,-0.67138671875,-0.06103515625,-0.30517578125,0.0494384765625,18.1219482421875,-163.23486328125
1758179713.1419523,-0.31201171875,-0.001953125,0.9501953125,0.0,-0.1220703125,-0.48828125,0.0439453125,18.1219482421875,-163.2403564453125
1758179713.1517782,-0.31201171875,-0.001953125,0.9501953125,0.0,-0.1220703125,-0.48828125,0.0439453125,18.116455078125,-163.2403564453125
1758179713.16195,-0.3173828125,0.0009765625,0.94775390625,-0.3662109375,-0.06103515625,-0.79345703125,0.0384521484375,18.116455078125,-163.245849609375
1758179713.1720812,-0.3173828125,0.0009765625,0.94775390625,-0.3662109375,-0.06103515625,-0.79345703125,0.032958984375,18.116455078125,-163.2568359375
1758179713.1818492,-0.314453125,0.0029296875,0.94677734375,0.06103515625,-0.06103515625,-0.79345703125,0.032958984375,18.1219482421875,-163.2623291015625
1758179713.1928225,-0.314453125,0.0029296875,0.94677734375,0.06103515625,-0.06103515625,-0.79345703125,0.0274658203125,18.1219482421875,-163.267822265625
1758179713.2023916,-0.3056640625,0.0,0.95263671875,0.1220703125,0.0,-0.79345703125,0.0274658203125,18.1219482421875,-163.2733154296875
1758179713.2117877,-0.3056640625,0.0,0.95263671875,0.1220703125,0.0,-0.79345703125,0.0274658203125,18.1219482421875,-163.2843017578125
1758179713.2221286,-0.30517578125,0.021484375,0.9443359375,0.54931640625,0.06103515625,-0.54931640625,0.0274658203125,18.1219482421875,-163.289794921875
1758179713.2323134,-0.30517578125,0.021484375,0.9443359375,0.54931640625,0.06103515625,-0.54931640625,0.032958984375,18.1219482421875,-163.2952880859375
1758179713.2420225,-0.30908203125,-0.0048828125,0.97216796875,-0.6103515625,0.1220703125,-0.54931640625,0.032958984375,18.1219482421875,-163.30078125
1758179713.251933,-0.30908203125,-0.0048828125,0.97216796875,-0.6103515625,0.1220703125,-0.54931640625,0.0274658203125,18.12744140625,-163.30078125
1758179713.2619781,-0.30712890625,0.00146484375,0.94091796875,-2.197265625,0.18310546875,-0.91552734375,0.010986328125,18.12744140625,-163.311767578125
1758179713.2722173,-0.30712890625,0.00146484375,0.94091796875,-2.197265625,0.18310546875,-0.91552734375,-0.0054931640625,18.12744140625,-163.3172607421875
1758179713.281926,-0.30810546875,-0.0048828125,0.95703125,0.42724609375,0.42724609375,-1.15966796875,-0.0164794921875,18.12744140625,-163.3282470703125
1758179713.2921822,-0.30810546875,-0.0048828125,0.95703125,0.42724609375,0.42724609375,-1.15966796875,-0.0164794921875,18.1329345703125,-163.3392333984375
1758179713.3026173,-0.3037109375,-0.0029296875,0.9501953125,0.9765625,0.54931640625,-1.40380859375,-0.010986328125,18.138427734375,-163.355712890625
1758179713.3119645,-0.3037109375,-0.0029296875,0.9501953125,0.9765625,0.54931640625,-1.40380859375,-0.0054931640625,18.1439208984375,-163.3721923828125
1758179713.3222072,-0.30615234375,0.00390625,0.95068359375,0.48828125,0.48828125,-1.52587890625,-0.0054931640625,18.1439208984375,-163.3831787109375
1758179713.3322697,-0.30615234375,0.00390625,0.95068359375,0.48828125,0.48828125,-1.52587890625,-0.0054931640625,18.1494140625,-163.399658203125
1758179713.342118,-0.30908203125,0.00439453125,0.95166015625,0.18310546875,0.3662109375,-1.3427734375,-0.0054931640625,18.1549072265625,-163.4161376953125
1758179713.3519225,-0.30908203125,0.00439453125,0.95166015625,0.18310546875,0.3662109375,-1.3427734375,-0.0054931640625,18.1549072265625,-163.4326171875
1758179713.3620405,-0.31103515625,0.00439453125,0.9482421875,-0.9765625,0.3662109375,-1.220703125,-0.010986328125,18.160400390625,-163.443603515625
1758179713.372291,-0.31103515625,0.00439453125,0.9482421875,-0.9765625,0.3662109375,-1.220703125,-0.0274658203125,18.160400390625,-163.45458984375
1758179713.382009,-0.3076171875,0.0068359375,0.9521484375,-0.732421875,0.42724609375,-0.9765625,-0.0384521484375,18.1658935546875,-163.465576171875
1758179713.3931594,-0.3076171875,0.0068359375,0.9521484375,-0.732421875,0.42724609375,-0.9765625,-0.0439453125,18.1658935546875,-163.4765625
1758179713.402547,-0.31005859375,-0.00927734375,0.94921875,0.06103515625,0.3662109375,-0.9765625,-0.0494384765625,18.17138671875,-163.487548828125
1758179713.4120073,-0.31005859375,-0.00927734375,0.94921875,0.06103515625,0.3662109375,-0.9765625,-0.054931640625,18.17138671875,-163.49853515625
1758179713.4222841,-0.31640625,-0.0078125,0.94677734375,0.30517578125,0.244140625,-1.0986328125,-0.054931640625,18.17138671875,-163.509521484375
1758179713.4344513,-0.31640625,-0.0078125,0.94677734375,0.30517578125,0.244140625,-1.0986328125,-0.054931640625,18.1768798828125,-163.5205078125
1758179713.445247,-0.3193359375,-0.0009765625,0.94482421875,0.9765625,0.1220703125,-1.03759765625,-0.0494384765625,18.1768798828125,-163.531494140625
1758179713.4520829,-0.3193359375,-0.0009765625,0.94482421875,0.9765625,0.1220703125,-1.03759765625,-0.0439453125,18.1768798828125,-163.54248046875
1758179713.4625282,-0.3173828125,0.00048828125,0.94921875,0.6103515625,0.18310546875,-0.79345703125,-0.0384521484375,18.182373046875,-163.553466796875
1758179713.472426,-0.3173828125,0.00048828125,0.94921875,0.6103515625,0.18310546875,-0.79345703125,-0.0384521484375,18.182373046875,-163.564453125
1758179713.4820993,-0.3154296875,0.0048828125,0.951171875,-0.54931640625,0.244140625,-0.6103515625,-0.0384521484375,18.182373046875,-163.5699462890625
1758179713.4921675,-0.3154296875,0.0048828125,0.951171875,-0.54931640625,0.244140625,-0.6103515625,-0.0439453125,18.1878662109375,-163.575439453125
1758179713.502836,-0.3173828125,0.00244140625,0.947265625,-0.48828125,0.30517578125,-0.3662109375,-0.0494384765625,18.1878662109375,-163.5809326171875
1758179713.5122242,-0.3173828125,0.00244140625,0.947265625,-0.48828125,0.30517578125,-0.3662109375,-0.054931640625,18.193359375,-163.5809326171875
1758179713.5222852,-0.31591796875,-0.00439453125,0.94921875,-0.67138671875,0.30517578125,-0.30517578125,-0.06591796875,18.1988525390625,-163.58642578125
1758179713.5331004,-0.31591796875,-0.00439453125,0.94921875,-0.67138671875,0.30517578125,-0.30517578125,-0.0714111328125,18.204345703125,-163.58642578125
1758179713.542375,-0.3173828125,-0.0048828125,0.947265625,-0.6103515625,0.1220703125,-0.244140625,-0.076904296875,18.204345703125,-163.5919189453125
1758179713.5521677,-0.3173828125,-0.0048828125,0.947265625,-0.6103515625,0.1220703125,-0.244140625,-0.0823974609375,18.204345703125,-163.5919189453125
1758179713.5624552,-0.31494140625,-0.00439453125,0.94384765625,-0.06103515625,0.06103515625,-0.18310546875,-0.087890625,18.2098388671875,-163.597412109375
1758179713.572397,-0.31494140625,-0.00439453125,0.94384765625,-0.06103515625,0.06103515625,-0.18310546875,-0.087890625,18.2098388671875,-163.597412109375
1758179713.58222,-0.31005859375,-0.001953125,0.95458984375,-0.1220703125,0.06103515625,-0.1220703125,-0.087890625,18.2098388671875,-163.597412109375
1758179713.5934985,-0.31005859375,-0.001953125,0.95458984375,-0.1220703125,0.06103515625,-0.1220703125,-0.087890625,18.2098388671875,-163.597412109375
1758179713.6027882,-0.31201171875,0.0048828125,0.9482421875,-0.79345703125,0.0,0.0,-0.098876953125,18.2098388671875,-163.597412109375
1758179713.6122196,-0.31201171875,0.0048828125,0.9482421875,-0.79345703125,0.0,0.0,-0.1043701171875,18.21533203125,-163.597412109375
1758179713.6224308,-0.3134765625,0.0,0.95068359375,-0.9765625,0.06103515625,0.0,-0.1153564453125,18.21533203125,-163.597412109375
1758179713.6330087,-0.3134765625,0.0,0.95068359375,-0.9765625,0.06103515625,0.0,-0.1263427734375,18.21533203125,-163.597412109375
1758179713.6424704,-0.31640625,0.0,0.9482421875,-0.42724609375,0.1220703125,-0.1220703125,-0.1263427734375,18.21533203125,-163.597412109375
1758179713.652264,-0.31640625,0.0,0.9482421875,-0.42724609375,0.1220703125,-0.1220703125,-0.1318359375,18.2208251953125,-163.597412109375
1758179713.6624699,-0.3193359375,-0.001953125,0.94775390625,-0.06103515625,0.1220703125,-0.30517578125,-0.1318359375,18.2208251953125,-163.6029052734375
1758179713.6729302,-0.3193359375,-0.001953125,0.94775390625,-0.06103515625,0.1220703125,-0.30517578125,-0.1318359375,18.2208251953125,-163.6029052734375
1758179713.6822798,-0.3154296875,-0.00244140625,0.94677734375,-0.06103515625,0.0,-0.42724609375,-0.1373291015625,18.2208251953125,-163.6083984375
1758179713.6924157,-0.3154296875,-0.00244140625,0.94677734375,-0.06103515625,0.0,-0.42724609375,-0.1373291015625,18.226318359375,-163.6083984375
1758179713.7030005,-0.31298828125,-0.00146484375,0.94873046875,-0.18310546875,-0.06103515625,-0.42724609375,-0.1373291015625,18.226318359375,-163.6138916015625
1758179713.7124016,-0.31298828125,-0.00146484375,0.94873046875,-0.18310546875,-0.06103515625,-0.42724609375,-0.142822265625,18.226318359375,-163.619384765625
1758179713.722784,-0.3134765625,0.001953125,0.953125,-0.91552734375,-0.1220703125,-0.30517578125,-0.15380859375,18.226318359375,-163.6248779296875
1758179713.734768,-0.3134765625,0.001953125,0.953125,-0.91552734375,-0.1220703125,-0.30517578125,-0.1593017578125,18.2208251953125,-163.6248779296875
1758179713.7452383,-0.3134765625,0.001953125,0.953125,-1.8310546875,-0.244140625,-0.42724609375,-0.1812744140625,18.2208251953125,-163.63037109375
1758179713.752327,-0.32080078125,0.00439453125,0.943359375,-1.8310546875,-0.244140625,-0.42724609375,-0.19775390625,18.2208251953125,-163.63037109375
1758179713.7640092,-0.318359375,0.013671875,0.935546875,-0.79345703125,-0.06103515625,-0.244140625,-0.2032470703125,18.2208251953125,-163.6358642578125
1758179713.7730045,-0.318359375,0.013671875,0.935546875,-0.79345703125,-0.06103515625,-0.244140625,-0.2142333984375,18.2208251953125,-163.6358642578125
1758179713.78247,-0.3134765625,-0.013671875,0.962890625,-0.244140625,-0.1220703125,-0.30517578125,-0.2142333984375,18.2208251953125,-163.6358642578125
1758179713.792472,-0.3134765625,-0.013671875,0.962890625,-0.244140625,-0.1220703125,-0.30517578125,-0.2142333984375,18.2208251953125,-163.641357421875
1758179713.8032665,-0.31201171875,-0.0107421875,0.94384765625,-1.46484375,-0.18310546875,-0.48828125,-0.230712890625,18.2208251953125,-163.6468505859375
1758179713.8123846,-0.31201171875,-0.0107421875,0.94384765625,-1.46484375,-0.18310546875,-0.48828125,-0.2471923828125,18.2208251953125,-163.65234375
1758179713.822747,-0.3154296875,-0.0009765625,0.94921875,-1.0986328125,-0.30517578125,-0.30517578125,-0.2581787109375,18.2208251953125,-163.65234375
1758179713.8332849,-0.3154296875,-0.0009765625,0.94921875,-1.0986328125,-0.30517578125,-0.30517578125,-0.2691650390625,18.21533203125,-163.6578369140625
1758179713.8428411,-0.31787109375,-0.00146484375,0.9453125,-1.3427734375,-0.42724609375,-0.06103515625,-0.2801513671875,18.21533203125,-163.6578369140625
1758179713.8525097,-0.31787109375,-0.00146484375,0.9453125,-1.3427734375,-0.42724609375,-0.06103515625,-0.296630859375,18.2098388671875,-163.6578369140625
1758179713.862915,-0.318359375,-0.00244140625,0.94580078125,-2.13623046875,-0.48828125,0.0,-0.3131103515625,18.204345703125,-163.6578369140625
1758179713.8731284,-0.318359375,-0.00244140625,0.94580078125,-2.13623046875,-0.48828125,0.0,-0.3350830078125,18.204345703125,-163.65234375
1758179713.8824606,-0.31884765625,-0.00634765625,0.95263671875,-1.77001953125,-0.54931640625,0.0,-0.3515625,18.1988525390625,-163.65234375
1758179713.8924642,-0.31884765625,-0.00634765625,0.95263671875,-1.77001953125,-0.54931640625,0.0,-0.3680419921875,18.193359375,-163.65234375
1758179713.903324,-0.3232421875,-0.01025390625,0.9453125,-1.708984375,-0.54931640625,0.1220703125,-0.384521484375,18.193359375,-163.65234375
1758179713.9124572,-0.3232421875,-0.01025390625,0.9453125,-1.708984375,-0.54931640625,0.1220703125,-0.4010009765625,18.1878662109375,-163.6468505859375
1758179713.9228938,-0.3212890625,-0.00927734375,0.94482421875,-1.708984375,-0.48828125,0.244140625,-0.4119873046875,18.1878662109375,-163.641357421875
1758179713.9335063,-0.3212890625,-0.00927734375,0.94482421875,-1.708984375,-0.48828125,0.244140625,-0.428466796875,18.182373046875,-163.641357421875
1758179713.942807,-0.31640625,-0.00830078125,0.95068359375,-1.77001953125,-0.48828125,0.42724609375,-0.4449462890625,18.182373046875,-163.6358642578125
1758179713.9525366,-0.31640625,-0.00830078125,0.95068359375,-1.77001953125,-0.48828125,0.42724609375,-0.46142578125,18.1768798828125,-163.6248779296875
1758179713.963173,-0.314453125,-0.005859375,0.951171875,-1.8310546875,-0.48828125,0.54931640625,-0.4779052734375,18.1768798828125,-163.619384765625
1758179713.9732203,-0.314453125,-0.005859375,0.951171875,-1.8310546875,-0.48828125,0.54931640625,-0.494384765625,18.17138671875,-163.6138916015625
1758179713.982657,-0.31787109375,-0.0068359375,0.9501953125,-2.01416015625,-0.30517578125,0.54931640625,-0.5108642578125,18.17138671875,-163.6083984375
1758179713.992556,-0.31787109375,-0.0068359375,0.9501953125,-2.01416015625,-0.30517578125,0.54931640625,-0.52734375,18.17138671875,-163.597412109375
1758179714.0027761,-0.318359375,-0.01171875,0.94775390625,-1.708984375,-0.1220703125,0.42724609375,-0.5438232421875,18.17138671875,-163.5919189453125
1758179714.0125635,-0.318359375,-0.01171875,0.94775390625,-1.708984375,-0.1220703125,0.42724609375,-0.5548095703125,18.17138671875,-163.58642578125
1758179714.022542,-0.31494140625,-0.009765625,0.951171875,-1.40380859375,0.0,0.3662109375,-0.5657958984375,18.17138671875,-163.58642578125
1758179714.032628,-0.31494140625,-0.009765625,0.951171875,-1.40380859375,0.0,0.3662109375,-0.582275390625,18.1768798828125,-163.5809326171875
1758179714.0425832,-0.31201171875,-0.0107421875,0.94970703125,-1.15966796875,0.0,0.42724609375,-0.5877685546875,18.1768798828125,-163.575439453125
1758179714.0525944,-0.31201171875,-0.0107421875,0.94970703125,-1.15966796875,0.0,0.42724609375,-0.5987548828125,18.1768798828125,-163.5699462890625
1758179714.0629559,-0.31005859375,-0.01904296875,0.9453125,-1.40380859375,0.06103515625,0.30517578125,-0.6097412109375,18.182373046875,-163.564453125
1758179714.0726995,-0.31005859375,-0.01904296875,0.9453125,-1.40380859375,0.06103515625,0.30517578125,-0.626220703125,18.182373046875,-163.5589599609375
1758179714.0826535,-0.31982421875,-0.0048828125,0.95263671875,-0.67138671875,0.06103515625,0.1220703125,-0.6317138671875,18.182373046875,-163.5589599609375
1758179714.0926797,-0.31982421875,-0.0048828125,0.95263671875,-0.67138671875,0.06103515625,0.1220703125,-0.63720703125,18.1878662109375,-163.553466796875
1758179714.1027017,-0.31591796875,-0.0078125,0.94775390625,-1.03759765625,0.1220703125,0.06103515625,-0.648193359375,18.1878662109375,-163.553466796875
1758179714.1126494,-0.31591796875,-0.0078125,0.94775390625,-1.03759765625,0.1220703125,0.06103515625,-0.6536865234375,18.193359375,-163.553466796875
1758179714.1226928,-0.31494140625,-0.00927734375,0.9482421875,-1.03759765625,0.1220703125,0.0,-0.6646728515625,18.193359375,-163.553466796875
1758179714.1328425,-0.31494140625,-0.00927734375,0.9482421875,-1.03759765625,0.1220703125,0.0,-0.6756591796875,18.1988525390625,-163.5479736328125
1758179714.1427174,-0.31103515625,-0.015625,0.94873046875,-0.79345703125,0.18310546875,-0.06103515625,-0.68115234375,18.1988525390625,-163.5479736328125
1758179714.1526937,-0.31103515625,-0.015625,0.94873046875,-0.79345703125,0.18310546875,-0.06103515625,-0.692138671875,18.204345703125,-163.5479736328125
1758179714.1631484,-0.31103515625,-0.01025390625,0.951171875,-1.220703125,0.0,-0.1220703125,-0.703125,18.204345703125,-163.553466796875
1758179714.1728256,-0.31103515625,-0.01025390625,0.951171875,-1.220703125,0.0,-0.1220703125,-0.714111328125,18.204345703125,-163.553466796875
1758179714.182755,-0.30908203125,-0.00732421875,0.94873046875,-1.52587890625,-0.1220703125,-0.06103515625,-0.7305908203125,18.204345703125,-163.553466796875
1758179714.1929812,-0.30908203125,-0.00732421875,0.94873046875,-1.52587890625,-0.1220703125,-0.06103515625,-0.7415771484375,18.204345703125,-163.553466796875
1758179714.202843,-0.30859375,-0.01123046875,0.9482421875,-2.01416015625,-0.244140625,-0.06103515625,-0.7635498046875,18.1988525390625,-163.553466796875
1758179714.212808,-0.30859375,-0.01123046875,0.9482421875,-2.01416015625,-0.244140625,-0.06103515625,-0.780029296875,18.1988525390625,-163.553466796875
1758179714.2228506,-0.310546875,-0.0146484375,0.95068359375,-2.13623046875,-0.3662109375,0.0,-0.802001953125,18.193359375,-163.553466796875
1758179714.232844,-0.310546875,-0.0146484375,0.95068359375,-2.13623046875,-0.3662109375,0.0,-0.823974609375,18.1878662109375,-163.553466796875
1758179714.2427979,-0.30712890625,-0.0166015625,0.951171875,-1.89208984375,-0.42724609375,0.0,-0.8404541015625,18.1878662109375,-163.553466796875
1758179714.252854,-0.30712890625,-0.0166015625,0.951171875,-1.89208984375,-0.42724609375,0.0,-0.85693359375,18.182373046875,-163.553466796875
1758179714.263256,-0.30859375,-0.0146484375,0.95166015625,-1.953125,-0.54931640625,0.06103515625,-0.87890625,18.1768798828125,-163.553466796875
1758179714.2728918,-0.30859375,-0.0146484375,0.95166015625,-1.953125,-0.54931640625,0.06103515625,-0.8953857421875,18.17138671875,-163.553466796875
1758179714.2827978,-0.31640625,-0.017578125,0.94482421875,-1.5869140625,-0.48828125,0.0,-0.911865234375,18.1658935546875,-163.553466796875
1758179714.2928476,-0.31640625,-0.017578125,0.94482421875,-1.5869140625,-0.48828125,0.0,-0.9228515625,18.160400390625,-163.553466796875
1758179714.3029063,-0.3154296875,-0.01416015625,0.95166015625,-0.91552734375,-0.48828125,-0.18310546875,-0.933837890625,18.1549072265625,-163.5589599609375
1758179714.3129578,-0.3154296875,-0.01416015625,0.95166015625,-0.91552734375,-0.48828125,-0.18310546875,-0.94482421875,18.1494140625,-163.5589599609375
1758179714.3229465,-0.31201171875,-0.009765625,0.94921875,-1.28173828125,-0.48828125,-0.1220703125,-0.955810546875,18.1439208984375,-163.5589599609375
1758179714.3332279,-0.31201171875,-0.009765625,0.94921875,-1.28173828125,-0.48828125,-0.1220703125,-0.966796875,18.1439208984375,-163.564453125
1758179714.3431115,-0.31591796875,-0.01220703125,0.94970703125,-1.953125,-0.42724609375,-0.06103515625,-0.98876953125,18.138427734375,-163.564453125
1758179714.3529277,-0.31591796875,-0.01220703125,0.94970703125,-1.953125,-0.42724609375,-0.06103515625,-1.0052490234375,18.1329345703125,-163.564453125
1758179714.3630276,-0.3095703125,-0.02685546875,0.94189453125,-2.13623046875,-0.48828125,-0.1220703125,-1.0272216796875,18.12744140625,-163.564453125
1758179714.3732889,-0.3095703125,-0.02685546875,0.94189453125,-2.13623046875,-0.48828125,-0.1220703125,-1.043701171875,18.12744140625,-163.564453125
1758179714.3829398,-0.310546875,-0.0205078125,0.95361328125,-0.79345703125,-0.42724609375,-0.06103515625,-1.0546875,18.1219482421875,-163.564453125
1758179714.3930063,-0.310546875,-0.0205078125,0.95361328125,-0.79345703125,-0.42724609375,-0.06103515625,-1.0601806640625,18.116455078125,-163.564453125
1758179714.403126,-0.30712890625,-0.0244140625,0.9560546875,-0.54931640625,-0.67138671875,-0.06103515625,-1.065673828125,18.1109619140625,-163.564453125
1758179714.4130929,-0.30712890625,-0.0244140625,0.9560546875,-0.54931640625,-0.67138671875,-0.06103515625,-1.0711669921875,18.10546875,-163.564453125
1758179714.4231343,-0.3125,-0.01513671875,0.94384765625,-1.3427734375,-0.732421875,-0.18310546875,-1.087646484375,18.0999755859375,-163.5699462890625
1758179714.4332628,-0.3125,-0.01513671875,0.94384765625,-1.3427734375,-0.732421875,-0.18310546875,-1.0986328125,18.0889892578125,-163.5699462890625
1758179714.4431744,-0.31396484375,-0.0107421875,0.95458984375,-1.5869140625,-0.732421875,-0.06103515625,-1.1151123046875,18.08349609375,-163.5699462890625
1758179714.4532578,-0.31396484375,-0.0107421875,0.95458984375,-1.5869140625,-0.732421875,-0.06103515625,-1.131591796875,18.0780029296875,-163.5699462890625
1758179714.4635134,-0.314453125,-0.01513671875,0.9482421875,-1.89208984375,-0.54931640625,-0.18310546875,-1.1480712890625,18.072509765625,-163.575439453125
1758179714.473206,-0.314453125,-0.01513671875,0.9482421875,-1.89208984375,-0.54931640625,-0.18310546875,-1.16455078125,18.0670166015625,-163.575439453125
1758179714.4831932,-0.3125,-0.02783203125,0.951171875,-1.220703125,-0.3662109375,-0.3662109375,-1.1810302734375,18.0670166015625,-163.5809326171875
1758179714.4932206,-0.3125,-0.02783203125,0.951171875,-1.220703125,-0.3662109375,-0.3662109375,-1.1920166015625,18.0615234375,-163.5809326171875
1758179714.5032678,-0.31298828125,-0.0234375,0.94873046875,0.0,-0.06103515625,-0.42724609375,-1.1920166015625,18.0615234375,-163.58642578125
1758179714.5132382,-0.31298828125,-0.0234375,0.94873046875,0.0,-0.06103515625,-0.42724609375,-1.1920166015625,18.0615234375,-163.5919189453125
1758179714.5232494,-0.31005859375,-0.02294921875,0.9580078125,-0.54931640625,0.0,-0.42724609375,-1.2030029296875,18.0615234375,-163.597412109375
1758179714.5332873,-0.31005859375,-0.02294921875,0.9580078125,-0.54931640625,0.0,-0.42724609375,-1.20849609375,18.0615234375,-163.597412109375
1758179714.5432317,-0.3125,-0.0146484375,0.9443359375,-1.708984375,0.06103515625,-0.244140625,-1.2249755859375,18.0670166015625,-163.6029052734375
1758179714.5532389,-0.310546875,-0.01904296875,0.95458984375,-1.40380859375,0.18310546875,0.0,-1.241455078125,18.0670166015625,-163.6029052734375
1758179714.563552,-0.310546875,-0.01904296875,0.95458984375,-1.40380859375,0.18310546875,0.0,-1.25244140625,18.0670166015625,-163.6029052734375
1758179714.57332,-0.3095703125,-0.0302734375,0.94873046875,-1.40380859375,0.1220703125,0.06103515625,-1.2689208984375,18.072509765625,-163.6029052734375
1758179714.583239,-0.3095703125,-0.0302734375,0.94873046875,-1.40380859375,0.1220703125,0.06103515625,-1.2799072265625,18.072509765625,-163.6029052734375
1758179714.5932643,-0.30908203125,-0.02734375,0.95068359375,-1.0986328125,0.0,0.06103515625,-1.2908935546875,18.072509765625,-163.597412109375
1758179714.6033092,-0.30908203125,-0.02734375,0.95068359375,-1.0986328125,0.0,0.06103515625,-1.3018798828125,18.072509765625,-163.597412109375
1758179714.6132855,-0.31298828125,-0.02587890625,0.9482421875,-0.54931640625,-0.1220703125,0.244140625,-1.3128662109375,18.072509765625,-163.597412109375
1758179714.623308,-0.31298828125,-0.02587890625,0.9482421875,-0.54931640625,-0.1220703125,0.244140625,-1.318359375,18.072509765625,-163.5919189453125
1758179714.6334188,-0.3154296875,-0.02001953125,0.9482421875,-1.220703125,-0.244140625,0.30517578125,-1.3238525390625,18.072509765625,-163.5919189453125
1758179714.6434543,-0.3154296875,-0.02001953125,0.9482421875,-1.220703125,-0.244140625,0.30517578125,-1.3348388671875,18.0670166015625,-163.58642578125
1758179714.6534498,-0.30908203125,-0.02099609375,0.94970703125,-1.64794921875,-0.18310546875,0.48828125,-1.351318359375,18.0670166015625,-163.5809326171875
1758179714.664028,-0.30908203125,-0.02099609375,0.94970703125,-1.64794921875,-0.18310546875,0.48828125,-1.3623046875,18.0670166015625,-163.575439453125
1758179714.6734421,-0.30419921875,-0.02783203125,0.955078125,-1.03759765625,-0.06103515625,0.48828125,-1.373291015625,18.0670166015625,-163.5699462890625
1758179714.683447,-0.30419921875,-0.02783203125,0.955078125,-1.03759765625,-0.06103515625,0.48828125,-1.38427734375,18.0670166015625,-163.564453125
1758179714.6934574,-0.3095703125,-0.03271484375,0.9482421875,-0.244140625,0.0,0.3662109375,-1.3897705078125,18.0670166015625,-163.5589599609375
1758179714.7034578,-0.3095703125,-0.03271484375,0.9482421875,-0.244140625,0.0,0.3662109375,-1.3897705078125,18.0670166015625,-163.5589599609375
1758179714.7134697,-0.31689453125,-0.02197265625,0.9482421875,1.03759765625,0.06103515625,0.244140625,-1.3897705078125,18.0670166015625,-163.553466796875
1758179714.7234435,-0.31689453125,-0.02197265625,0.9482421875,1.03759765625,0.06103515625,0.244140625,-1.3787841796875,18.0670166015625,-163.553466796875
1758179714.7335567,-0.30810546875,-0.02001953125,0.9599609375,-0.732421875,0.1220703125,0.30517578125,-1.373291015625,18.0670166015625,-163.5479736328125
1758179714.7435422,-0.30810546875,-0.02001953125,0.9599609375,-0.732421875,0.1220703125,0.30517578125,-1.3787841796875,18.0670166015625,-163.5479736328125
1758179714.7535408,-0.302734375,-0.01904296875,0.9453125,-1.0986328125,0.244140625,0.3662109375,-1.3897705078125,18.072509765625,-163.54248046875
1758179714.7636416,-0.302734375,-0.01904296875,0.9453125,-1.0986328125,0.244140625,0.3662109375,-1.4007568359375,18.072509765625,-163.5369873046875
1758179714.773538,-0.3037109375,-0.0322265625,0.9560546875,0.48828125,0.30517578125,0.30517578125,-1.4007568359375,18.0780029296875,-163.5369873046875
1758179714.7835543,-0.3037109375,-0.0322265625,0.9560546875,0.48828125,0.30517578125,0.30517578125,-1.395263671875,18.0780029296875,-163.531494140625
1758179714.7935371,-0.3095703125,-0.02978515625,0.9443359375,0.732421875,0.1220703125,0.06103515625,-1.3897705078125,18.0780029296875,-163.531494140625
1758179714.803546,-0.3095703125,-0.02978515625,0.9443359375,0.732421875,0.1220703125,0.06103515625,-1.38427734375,18.0780029296875,-163.531494140625
1758179714.8135023,-0.30810546875,-0.02001953125,0.953125,0.732421875,0.0,0.0,-1.3787841796875,18.0780029296875,-163.531494140625
1758179714.8235643,-0.30810546875,-0.02001953125,0.953125,0.732421875,0.0,0.0,-1.3677978515625,18.0780029296875,-163.531494140625
1758179714.8337271,-0.30615234375,-0.0166015625,0.95068359375,0.79345703125,-0.06103515625,0.0,-1.3623046875,18.0780029296875,-163.5260009765625
1758179714.8435228,-0.30615234375,-0.0166015625,0.95068359375,0.79345703125,-0.06103515625,0.0,-1.3568115234375,18.0780029296875,-163.5260009765625
1758179714.853596,-0.3095703125,-0.02294921875,0.951171875,0.6103515625,-0.06103515625,-0.06103515625,-1.3458251953125,18.0780029296875,-163.5260009765625
1758179714.8637068,-0.3095703125,-0.02294921875,0.951171875,0.6103515625,-0.06103515625,-0.06103515625,-1.34033203125,18.072509765625,-163.531494140625
1758179714.8736863,-0.30712890625,-0.02734375,0.95068359375,0.79345703125,-0.06103515625,-0.1220703125,-1.3348388671875,18.072509765625,-163.531494140625
1758179714.883668,-0.30712890625,-0.02734375,0.95068359375,0.79345703125,-0.06103515625,-0.1220703125,-1.329345703125,18.072509765625,-163.531494140625
1758179714.893685,-0.30859375,-0.02294921875,0.94921875,1.03759765625,-0.06103515625,-0.18310546875,-1.318359375,18.072509765625,-163.5369873046875
1758179714.904132,-0.30859375,-0.02294921875,0.94921875,1.03759765625,-0.06103515625,-0.18310546875,-1.3128662109375,18.0670166015625,-163.5369873046875
1758179714.9136684,-0.30322265625,-0.025390625,0.95068359375,0.9765625,-0.1220703125,-0.18310546875,-1.3018798828125,18.0670166015625,-163.54248046875
1758179714.9237094,-0.30322265625,-0.025390625,0.95068359375,0.9765625,-0.1220703125,-0.18310546875,-1.29638671875,18.0670166015625,-163.54248046875
1758179714.9339142,-0.30419921875,-0.02001953125,0.94970703125,1.220703125,-0.18310546875,-0.06103515625,-1.285400390625,18.0615234375,-163.5479736328125
1758179714.9436634,-0.30419921875,-0.02001953125,0.94970703125,1.220703125,-0.18310546875,-0.06103515625,-1.2744140625,18.0615234375,-163.5479736328125
1758179714.9537475,-0.29736328125,-0.0244140625,0.94482421875,1.953125,-0.244140625,0.0,-1.2579345703125,18.0560302734375,-163.5479736328125
1758179714.9638357,-0.29736328125,-0.0244140625,0.94482421875,1.953125,-0.244140625,0.0,-1.241455078125,18.050537109375,-163.5479736328125
1758179714.9737377,-0.29736328125,-0.0244140625,0.94482421875,2.25830078125,-0.30517578125,0.0,-1.219482421875,18.050537109375,-163.5479736328125
1758179714.9836922,-0.30712890625,-0.0224609375,0.95556640625,2.25830078125,-0.30517578125,0.0,-1.197509765625,18.0450439453125,-163.5479736328125
1758179714.9938133,-0.3046875,-0.02099609375,0.95703125,1.0986328125,-0.244140625,0.18310546875,-1.1810302734375,18.03955078125,-163.5479736328125
1758179715.004225,-0.3046875,-0.02099609375,0.95703125,1.0986328125,-0.244140625,0.18310546875,-1.175537109375,18.0340576171875,-163.5479736328125
1758179715.0138593,-0.30908203125,-0.02001953125,0.94580078125,2.13623046875,-0.06103515625,0.244140625,-1.1590576171875,18.0340576171875,-163.5479736328125
1758179715.0238364,-0.30908203125,-0.02001953125,0.94580078125,2.13623046875,-0.06103515625,0.244140625,-1.1370849609375,18.028564453125,-163.5479736328125
1758179715.0340464,-0.30517578125,-0.02490234375,0.9599609375,2.99072265625,0.1220703125,0.244140625,-1.109619140625,18.028564453125,-163.54248046875
1758179715.0438192,-0.30517578125,-0.02490234375,0.9599609375,2.99072265625,0.1220703125,0.244140625,-1.0821533203125,18.028564453125,-163.54248046875
1758179715.0540845,-0.3115234375,-0.021484375,0.94873046875,3.11279296875,0.30517578125,0.18310546875,-1.0546875,18.028564453125,-163.54248046875
1758179715.0639486,-0.3115234375,-0.021484375,0.94873046875,3.11279296875,0.30517578125,0.18310546875,-1.021728515625,18.0340576171875,-163.54248046875
1758179715.0740898,-0.31982421875,-0.00927734375,0.9482421875,3.2958984375,0.30517578125,0.18310546875,-0.9942626953125,18.0340576171875,-163.54248046875
1758179715.0839093,-0.31982421875,-0.00927734375,0.9482421875,3.2958984375,0.30517578125,0.18310546875,-0.9613037109375,18.03955078125,-163.54248046875
1758179715.093849,-0.3232421875,-0.0087890625,0.9453125,2.74658203125,0.30517578125,0.18310546875,-0.933837890625,18.03955078125,-163.54248046875
1758179715.1043754,-0.3232421875,-0.0087890625,0.9453125,2.74658203125,0.30517578125,0.18310546875,-0.9063720703125,18.0450439453125,-163.54248046875
1758179715.1139464,-0.32177734375,-0.01123046875,0.94775390625,2.01416015625,0.3662109375,0.18310546875,-0.87890625,18.050537109375,-163.5369873046875
1758179715.1239536,-0.32177734375,-0.01123046875,0.94775390625,2.01416015625,0.3662109375,0.18310546875,-0.8624267578125,18.0560302734375,-163.5369873046875
1758179715.1390479,-0.3173828125,-0.01513671875,0.94873046875,2.25830078125,0.42724609375,0.18310546875,-0.8404541015625,18.0560302734375,-163.5369873046875
1758179715.145305,-0.3173828125,-0.01513671875,0.94873046875,2.25830078125,0.42724609375,0.18310546875,-0.8184814453125,18.0670166015625,-163.5369873046875
1758179715.153973,-0.31640625,-0.0166015625,0.94873046875,2.25830078125,0.3662109375,0.18310546875,-0.7965087890625,18.072509765625,-163.531494140625
1758179715.1698513,-0.31640625,-0.0166015625,0.94873046875,2.25830078125,0.3662109375,0.18310546875,-0.7745361328125,18.072509765625,-163.531494140625
1758179715.176721,-0.314453125,-0.00830078125,0.94775390625,2.01416015625,0.244140625,0.244140625,-0.7525634765625,18.0780029296875,-163.531494140625
1758179715.1840122,-0.314453125,-0.00830078125,0.94775390625,2.01416015625,0.244140625,0.244140625,-0.736083984375,18.08349609375,-163.5260009765625
1758179715.1940353,-0.31982421875,-0.00927734375,0.9462890625,2.0751953125,0.06103515625,0.30517578125,-0.714111328125,18.0889892578125,-163.5260009765625
1758179715.2069626,-0.31982421875,-0.00927734375,0.9462890625,2.0751953125,0.06103515625,0.30517578125,-0.692138671875,18.0889892578125,-163.5205078125
1758179715.2140682,-0.322265625,-0.009765625,0.9453125,1.708984375,0.0,0.3662109375,-0.6756591796875,18.094482421875,-163.5150146484375
1758179715.2240841,-0.322265625,-0.009765625,0.9453125,1.708984375,0.0,0.3662109375,-0.6591796875,18.094482421875,-163.5150146484375
1758179715.242083,-0.32177734375,-0.009765625,0.94677734375,1.52587890625,0.0,0.30517578125,-0.6427001953125,18.094482421875,-163.509521484375
1758179715.2492137,-0.32177734375,-0.009765625,0.94677734375,1.52587890625,0.0,0.30517578125,-0.626220703125,18.0999755859375,-163.5040283203125
1758179715.2554724,-0.3173828125,-0.0078125,0.9453125,1.03759765625,0.06103515625,0.42724609375,-0.6097412109375,18.0999755859375,-163.49853515625
1758179715.2641437,-0.3173828125,-0.0078125,0.9453125,1.03759765625,0.06103515625,0.42724609375,-0.5987548828125,18.10546875,-163.4930419921875
1758179715.2741892,-0.32177734375,-0.00146484375,0.951171875,2.01416015625,0.06103515625,0.54931640625,-0.582275390625,18.1109619140625,-163.487548828125
1758179715.2841356,-0.32177734375,-0.00146484375,0.951171875,2.01416015625,0.06103515625,0.54931640625,-0.560302734375,18.1109619140625,-163.4820556640625
1758179715.2941651,-0.31884765625,-0.009765625,0.9501953125,0.06103515625,-0.06103515625,0.48828125,-0.54931640625,18.116455078125,-163.4765625
1758179715.3042097,-0.31884765625,-0.009765625,0.9501953125,0.06103515625,-0.06103515625,0.48828125,-0.54931640625,18.116455078125,-163.4710693359375
1758179715.3141842,-0.32080078125,-0.01318359375,0.9404296875,0.6103515625,-0.244140625,0.3662109375,-0.5438232421875,18.116455078125,-163.465576171875
1758179715.324209,-0.32080078125,-0.01318359375,0.9404296875,0.6103515625,-0.244140625,0.3662109375,-0.538330078125,18.116455078125,-163.4600830078125
1758179715.334257,-0.31787109375,-0.009765625,0.95361328125,1.3427734375,-0.30517578125,0.42724609375,-0.52734375,18.116455078125,-163.45458984375
1758179715.3442788,-0.31787109375,-0.009765625,0.95361328125,1.3427734375,-0.30517578125,0.42724609375,-0.5108642578125,18.116455078125,-163.4490966796875
1758179715.3541856,-0.31640625,-0.00439453125,0.94580078125,0.79345703125,-0.18310546875,0.3662109375,-0.4998779296875,18.116455078125,-163.443603515625
1758179715.3651524,-0.31640625,-0.00439453125,0.94580078125,0.79345703125,-0.18310546875,0.3662109375,-0.494384765625,18.1219482421875,-163.4381103515625
1758179715.3743365,-0.31689453125,-0.001953125,0.95166015625,0.8544921875,-0.06103515625,0.42724609375,-0.4833984375,18.1219482421875,-163.4326171875
1758179715.3843167,-0.31689453125,-0.001953125,0.95166015625,0.8544921875,-0.06103515625,0.42724609375,-0.472412109375,18.1219482421875,-163.4271240234375
1758179715.3942435,-0.31591796875,-0.00341796875,0.9462890625,0.42724609375,0.0,0.30517578125,-0.4669189453125,18.12744140625,-163.4271240234375
1758179715.4047077,-0.31591796875,-0.00341796875,0.9462890625,0.42724609375,0.0,0.30517578125,-0.46142578125,18.12744140625,-163.421630859375
1758179715.4142642,-0.3095703125,-0.00634765625,0.95361328125,0.244140625,0.0,0.244140625,-0.4559326171875,18.12744140625,-163.4161376953125
1758179715.4243016,-0.3095703125,-0.00634765625,0.95361328125,0.244140625,0.0,0.244140625,-0.450439453125,18.1329345703125,-163.4161376953125
1758179715.4343333,-0.3095703125,-0.00927734375,0.95166015625,0.6103515625,0.06103515625,0.3662109375,-0.4449462890625,18.1329345703125,-163.41064453125
1758179715.4443514,-0.3095703125,-0.00927734375,0.95166015625,0.6103515625,0.06103515625,0.3662109375,-0.439453125,18.138427734375,-163.41064453125
1758179715.454326,-0.31005859375,-0.00537109375,0.951171875,0.48828125,0.18310546875,0.244140625,-0.4339599609375,18.138427734375,-163.4051513671875
1758179715.4644685,-0.31005859375,-0.00537109375,0.951171875,0.48828125,0.18310546875,0.244140625,-0.428466796875,18.1439208984375,-163.4051513671875
1758179715.4743264,-0.3076171875,-0.0029296875,0.95263671875,0.54931640625,0.244140625,0.30517578125,-0.4229736328125,18.1439208984375,-163.399658203125
1758179715.4844291,-0.3076171875,-0.0029296875,0.95263671875,0.54931640625,0.244140625,0.30517578125,-0.41748046875,18.1494140625,-163.399658203125
1758179715.4943914,-0.30419921875,-0.005859375,0.9521484375,0.732421875,0.30517578125,0.3662109375,-0.406494140625,18.1494140625,-163.3941650390625
1758179715.5049925,-0.30419921875,-0.005859375,0.9521484375,0.732421875,0.30517578125,0.3662109375,-0.4010009765625,18.1549072265625,-163.3941650390625
1758179715.5143719,-0.30126953125,-0.01171875,0.9521484375,0.9765625,0.30517578125,0.42724609375,-0.3900146484375,18.1549072265625,-163.388671875
1758179715.5245104,-0.30126953125,-0.01171875,0.9521484375,0.9765625,0.30517578125,0.42724609375,-0.3790283203125,18.160400390625,-163.388671875
1758179715.53493,-0.298828125,-0.00537109375,0.955078125,0.3662109375,0.244140625,0.67138671875,-0.3680419921875,18.160400390625,-163.3831787109375
1758179715.5451238,-0.298828125,-0.00537109375,0.955078125,0.3662109375,0.244140625,0.67138671875,-0.362548828125,18.160400390625,-163.377685546875
1758179715.5546143,-0.3076171875,-0.0009765625,0.9521484375,0.18310546875,0.244140625,0.91552734375,-0.3570556640625,18.160400390625,-163.36669921875
1758179715.5646386,-0.3076171875,-0.0009765625,0.9521484375,0.18310546875,0.244140625,0.91552734375,-0.3515625,18.1658935546875,-163.3612060546875
1758179715.5758402,-0.3134765625,-0.00390625,0.947265625,0.0,0.244140625,0.91552734375,-0.3515625,18.1658935546875,-163.3502197265625
1758179715.5844715,-0.3134765625,-0.00390625,0.947265625,0.0,0.244140625,0.91552734375,-0.3460693359375,18.1658935546875,-163.3447265625
1758179715.5944896,-0.31298828125,-0.005859375,0.95166015625,0.3662109375,0.30517578125,0.8544921875,-0.340576171875,18.1658935546875,-163.333740234375
1758179715.6053565,-0.31298828125,-0.005859375,0.95166015625,0.3662109375,0.30517578125,0.8544921875,-0.3350830078125,18.17138671875,-163.3282470703125
1758179715.6145332,-0.3134765625,-0.00830078125,0.94873046875,0.91552734375,0.3662109375,0.732421875,-0.3240966796875,18.17138671875,-163.3172607421875
1758179715.6246023,-0.3134765625,-0.00830078125,0.94873046875,0.91552734375,0.3662109375,0.732421875,-0.3131103515625,18.1768798828125,-163.311767578125
1758179715.634622,-0.31591796875,0.0009765625,0.95068359375,0.732421875,0.42724609375,0.67138671875,-0.3021240234375,18.182373046875,-163.3062744140625
1758179715.644666,-0.31591796875,0.0009765625,0.95068359375,0.732421875,0.42724609375,0.67138671875,-0.2911376953125,18.182373046875,-163.30078125
1758179715.6546106,-0.31591796875,0.00146484375,0.94580078125,0.30517578125,0.48828125,0.6103515625,-0.28564453125,18.1878662109375,-163.2952880859375
1758179715.664593,-0.31591796875,0.00146484375,0.94580078125,0.30517578125,0.48828125,0.6103515625,-0.28564453125,18.193359375,-163.2843017578125
1758179715.674916,-0.3076171875,0.0009765625,0.95263671875,-0.244140625,0.42724609375,0.6103515625,-0.2801513671875,18.1988525390625,-163.27880859375
1758179715.6846807,-0.3076171875,0.0009765625,0.95263671875,-0.244140625,0.42724609375,0.6103515625,-0.2801513671875,18.204345703125,-163.2733154296875
1758179715.6947784,-0.30224609375,-0.00537109375,0.9521484375,0.18310546875,0.3662109375,0.732421875,-0.2801513671875,18.204345703125,-163.267822265625
1758179715.7054026,-0.30224609375,-0.00537109375,0.9521484375,0.18310546875,0.3662109375,0.732421875,-0.274658203125,18.2098388671875,-163.2568359375
1758179715.7145991,-0.3056640625,-0.00927734375,0.95703125,0.42724609375,0.30517578125,0.67138671875,-0.263671875,18.2098388671875,-163.2513427734375
1758179715.7248182,-0.3056640625,-0.00927734375,0.95703125,0.42724609375,0.30517578125,0.67138671875,-0.2581787109375,18.2098388671875,-163.245849609375
1758179715.7347202,-0.3203125,-0.0029296875,0.9423828125,0.732421875,0.30517578125,0.6103515625,-0.252685546875,18.21533203125,-163.2403564453125
1758179715.7447073,-0.3203125,-0.0029296875,0.9423828125,0.732421875,0.30517578125,0.6103515625,-0.24169921875,18.21533203125,-163.23486328125
1758179715.7547061,-0.31640625,0.0078125,0.95263671875,0.244140625,0.42724609375,0.42724609375,-0.2362060546875,18.2208251953125,-163.23486328125
1758179715.7647173,-0.31640625,0.0078125,0.95263671875,0.244140625,0.42724609375,0.42724609375,-0.230712890625,18.2208251953125,-163.2293701171875
1758179715.7750475,-0.30810546875,0.001953125,0.94677734375,0.30517578125,0.30517578125,0.244140625,-0.2252197265625,18.226318359375,-163.2293701171875
1758179715.784708,-0.30810546875,0.001953125,0.94677734375,0.30517578125,0.30517578125,0.244140625,-0.2252197265625,18.226318359375,-163.223876953125
1758179715.7947388,-0.3017578125,-0.00732421875,0.9521484375,0.3662109375,0.18310546875,0.244140625,-0.2197265625,18.2318115234375,-163.223876953125
1758179715.8050733,-0.3017578125,-0.00732421875,0.9521484375,0.3662109375,0.18310546875,0.244140625,-0.2142333984375,18.2318115234375,-163.223876953125
1758179715.8147104,-0.3056640625,-0.005859375,0.9521484375,0.06103515625,-0.06103515625,0.244140625,-0.208740234375,18.226318359375,-163.223876953125
1758179715.8247736,-0.3056640625,-0.005859375,0.9521484375,0.06103515625,-0.06103515625,0.244140625,-0.208740234375,18.226318359375,-163.2183837890625
1758179715.834779,-0.31396484375,0.0029296875,0.9462890625,-0.1220703125,-0.18310546875,0.30517578125,-0.208740234375,18.2208251953125,-163.2183837890625
1758179715.8448262,-0.31396484375,0.0029296875,0.9462890625,-0.1220703125,-0.18310546875,0.30517578125,-0.208740234375,18.2208251953125,-163.2183837890625
1758179715.8548427,-0.31298828125,0.00244140625,0.95068359375,0.244140625,-0.18310546875,0.244140625,-0.2032470703125,18.21533203125,-163.212890625
1758179715.8648143,-0.31298828125,0.00244140625,0.95068359375,0.244140625,-0.18310546875,0.244140625,-0.2032470703125,18.21533203125,-163.212890625
1758179715.875065,-0.310546875,-0.00439453125,0.9482421875,0.42724609375,-0.18310546875,0.1220703125,-0.19775390625,18.21533203125,-163.212890625
1758179715.8848317,-0.310546875,-0.00439453125,0.9482421875,0.42724609375,-0.18310546875,0.1220703125,-0.1922607421875,18.2098388671875,-163.212890625
1758179715.8948627,-0.3046875,-0.0048828125,0.9501953125,0.48828125,-0.30517578125,0.06103515625,-0.186767578125,18.204345703125,-163.212890625
1758179715.9051902,-0.3046875,-0.0048828125,0.9501953125,0.48828125,-0.30517578125,0.06103515625,-0.1812744140625,18.204345703125,-163.212890625
1758179715.9148417,-0.30419921875,-0.001953125,0.95361328125,0.42724609375,-0.48828125,0.06103515625,-0.17578125,18.1988525390625,-163.212890625
1758179715.9249218,-0.30419921875,-0.001953125,0.95361328125,0.42724609375,-0.48828125,0.06103515625,-0.1702880859375,18.1878662109375,-163.212890625
1758179715.9348884,-0.31103515625,0.00146484375,0.94775390625,-0.30517578125,-0.67138671875,0.18310546875,-0.1702880859375,18.182373046875,-163.212890625
1758179715.9449265,-0.31103515625,0.00146484375,0.94775390625,-0.30517578125,-0.67138671875,0.18310546875,-0.17578125,18.1768798828125,-163.212890625
1758179715.954893,-0.302734375,0.00341796875,0.95166015625,-0.8544921875,-0.67138671875,0.30517578125,-0.1812744140625,18.1658935546875,-163.2073974609375
1758179715.9648838,-0.302734375,0.00341796875,0.95166015625,-0.8544921875,-0.67138671875,0.30517578125,-0.186767578125,18.160400390625,-163.2073974609375
1758179715.9753687,-0.302734375,0.00341796875,0.95166015625,-0.54931640625,-0.732421875,0.48828125,-0.1922607421875,18.1494140625,-163.201904296875
1758179715.9849503,-0.2978515625,-0.0048828125,0.95654296875,-0.54931640625,-0.732421875,0.48828125,-0.1922607421875,18.138427734375,-163.1964111328125
1758179715.995177,-0.30322265625,-0.00830078125,0.95166015625,-0.48828125,-0.79345703125,0.6103515625,-0.19775390625,18.1329345703125,-163.19091796875
1758179716.0052626,-0.30322265625,-0.00830078125,0.95166015625,-0.48828125,-0.79345703125,0.6103515625,-0.19775390625,18.1219482421875,-163.19091796875
1758179716.014986,-0.31298828125,-0.00146484375,0.94873046875,-0.30517578125,-0.732421875,0.732421875,-0.19775390625,18.1109619140625,-163.179931640625
1758179716.0250342,-0.31298828125,-0.00146484375,0.94873046875,-0.30517578125,-0.732421875,0.732421875,-0.19775390625,18.10546875,-163.1744384765625
1758179716.0350358,-0.31396484375,0.00048828125,0.94775390625,-0.42724609375,-0.67138671875,0.79345703125,-0.2032470703125,18.094482421875,-163.1689453125
1758179716.045024,-0.31396484375,0.00048828125,0.94775390625,-0.42724609375,-0.67138671875,0.79345703125,-0.2032470703125,18.0889892578125,-163.157958984375
1758179716.0550597,-0.30419921875,-0.00341796875,0.953125,-0.3662109375,-0.6103515625,0.8544921875,-0.2032470703125,18.08349609375,-163.1524658203125
1758179716.0650163,-0.30419921875,-0.00341796875,0.953125,-0.3662109375,-0.6103515625,0.8544921875,-0.2032470703125,18.072509765625,-163.14697265625
1758179716.0757637,-0.3017578125,-0.0048828125,0.955078125,0.0,-0.48828125,0.91552734375,-0.19775390625,18.0670166015625,-163.135986328125
1758179716.0850272,-0.3017578125,-0.0048828125,0.955078125,0.0,-0.48828125,0.91552734375,-0.19775390625,18.0615234375,-163.1304931640625
1758179716.0953445,-0.3046875,-0.00244140625,0.953125,-0.18310546875,-0.3662109375,0.91552734375,-0.1922607421875,18.0560302734375,-163.1195068359375
1758179716.1055863,-0.3046875,-0.00244140625,0.953125,-0.18310546875,-0.3662109375,0.91552734375,-0.1922607421875,18.050537109375,-163.114013671875
1758179716.1150908,-0.3076171875,0.00634765625,0.9521484375,-0.54931640625,-0.18310546875,0.8544921875,-0.19775390625,18.050537109375,-163.10302734375
1758179716.1253355,-0.3076171875,0.00634765625,0.9521484375,-0.54931640625,-0.18310546875,0.8544921875,-0.19775390625,18.0450439453125,-163.0975341796875
1758179716.135617,-0.31005859375,0.0029296875,0.95166015625,-0.30517578125,0.0,0.91552734375,-0.19775390625,18.0450439453125,-163.0865478515625
1758179716.1451979,-0.31005859375,0.0029296875,0.95166015625,-0.30517578125,0.0,0.91552734375,-0.19775390625,18.0450439453125,-163.0755615234375
1758179716.1551402,-0.30859375,-0.0048828125,0.9501953125,0.0,0.0,0.6103515625,-0.1922607421875,18.0450439453125,-163.070068359375
1758179716.1651576,-0.30859375,-0.0048828125,0.9501953125,0.0,0.0,0.6103515625,-0.1922607421875,18.03955078125,-163.0645751953125
1758179716.175613,-0.3017578125,-0.00048828125,0.951171875,-0.06103515625,0.0,0.3662109375,-0.186767578125,18.03955078125,-163.0645751953125
1758179716.1854944,-0.3017578125,-0.00048828125,0.951171875,-0.06103515625,0.0,0.3662109375,-0.186767578125,18.03955078125,-163.05908203125
1758179716.1953032,-0.29736328125,-0.00146484375,0.95361328125,-0.3662109375,-0.244140625,0.3662109375,-0.186767578125,18.0340576171875,-163.05908203125
1758179716.2055104,-0.29736328125,-0.00146484375,0.95361328125,-0.3662109375,-0.244140625,0.3662109375,-0.1922607421875,18.0340576171875,-163.0535888671875
1758179716.215259,-0.3046875,0.00048828125,0.9501953125,-0.54931640625,-0.3662109375,0.42724609375,-0.1922607421875,18.028564453125,-163.048095703125
1758179716.2252996,-0.3046875,0.00048828125,0.9501953125,-0.54931640625,-0.3662109375,0.42724609375,-0.19775390625,18.0230712890625,-163.048095703125
1758179716.2357662,-0.30712890625,-0.00390625,0.9501953125,-0.30517578125,-0.48828125,0.244140625,-0.19775390625,18.0120849609375,-163.0426025390625
1758179716.2452857,-0.30712890625,-0.00390625,0.9501953125,-0.30517578125,-0.48828125,0.244140625,-0.19775390625,18.006591796875,-163.0426025390625
1758179716.2555072,-0.31005859375,0.0009765625,0.95263671875,-0.3662109375,-0.42724609375,0.1220703125,-0.2032470703125,18.0010986328125,-163.0426025390625
1758179716.2654045,-0.31005859375,0.0009765625,0.95263671875,-0.3662109375,-0.42724609375,0.1220703125,-0.2032470703125,17.99560546875,-163.0426025390625
1758179716.2754261,-0.30322265625,0.0009765625,0.94873046875,-0.3662109375,-0.30517578125,0.06103515625,-0.208740234375,17.99560546875,-163.0426025390625
1758179716.2853987,-0.30322265625,0.0009765625,0.94873046875,-0.3662109375,-0.30517578125,0.06103515625,-0.208740234375,17.9901123046875,-163.0426025390625
1758179716.295372,-0.29345703125,-0.00244140625,0.96044921875,-0.1220703125,-0.244140625,0.06103515625,-0.208740234375,17.984619140625,-163.0426025390625
1758179716.3055851,-0.29345703125,-0.00244140625,0.96044921875,-0.1220703125,-0.244140625,0.06103515625,-0.208740234375,17.9791259765625,-163.0426025390625
1758179716.3153818,-0.2978515625,-0.0048828125,0.95556640625,-0.244140625,-0.244140625,0.18310546875,-0.208740234375,17.9791259765625,-163.0426025390625
1758179716.3256583,-0.2978515625,-0.0048828125,0.95556640625,-0.244140625,-0.244140625,0.18310546875,-0.2142333984375,17.9736328125,-163.0426025390625
1758179716.335833,-0.30908203125,-0.00146484375,0.95068359375,-0.30517578125,-0.1220703125,0.244140625,-0.2142333984375,17.9681396484375,-163.0426025390625
1758179716.3454037,-0.30908203125,-0.00146484375,0.95068359375,-0.30517578125,-0.1220703125,0.244140625,-0.2142333984375,17.9681396484375,-163.0426025390625
1758179716.3555756,-0.3134765625,-0.0009765625,0.9501953125,-0.1220703125,0.0,0.18310546875,-0.2142333984375,17.962646484375,-163.0426025390625
1758179716.365433,-0.3134765625,-0.0009765625,0.9501953125,-0.1220703125,0.0,0.18310546875,-0.2142333984375,17.962646484375,-163.0426025390625
1758179716.3755646,-0.30908203125,-0.00341796875,0.951171875,0.06103515625,0.1220703125,0.1220703125,-0.2142333984375,17.962646484375,-163.0426025390625
1758179716.3854597,-0.30908203125,-0.00341796875,0.951171875,0.06103515625,0.1220703125,0.1220703125,-0.2142333984375,17.962646484375,-163.0426025390625
1758179716.3954012,-0.3076171875,-0.009765625,0.9521484375,0.244140625,0.244140625,0.18310546875,-0.208740234375,17.962646484375,-163.0426025390625
1758179716.4057631,-0.3076171875,-0.009765625,0.9521484375,0.244140625,0.244140625,0.18310546875,-0.2032470703125,17.9681396484375,-163.037109375
1758179716.4154537,-0.31494140625,0.001953125,0.95166015625,-0.06103515625,0.244140625,0.3662109375,-0.2032470703125,17.9681396484375,-163.037109375
1758179716.4254918,-0.31494140625,0.001953125,0.95166015625,-0.06103515625,0.244140625,0.3662109375,-0.2032470703125,17.9681396484375,-163.0316162109375
1758179716.4357328,-0.32275390625,0.00244140625,0.9462890625,-0.18310546875,0.42724609375,0.48828125,-0.2032470703125,17.9736328125,-163.026123046875
1758179716.44559,-0.32275390625,0.00244140625,0.9462890625,-0.18310546875,0.42724609375,0.48828125,-0.2032470703125,17.9791259765625,-163.0206298828125
1758179716.455539,-0.32373046875,-0.005859375,0.94677734375,0.1220703125,0.67138671875,0.30517578125,-0.19775390625,17.9901123046875,-163.01513671875
1758179716.4656181,-0.32373046875,-0.005859375,0.94677734375,0.1220703125,0.67138671875,0.30517578125,-0.19775390625,17.99560546875,-163.0096435546875
1758179716.4758804,-0.3173828125,-0.00048828125,0.94921875,-0.1220703125,0.732421875,0.42724609375,-0.19775390625,18.006591796875,-163.0096435546875
1758179716.4855936,-0.3173828125,-0.00048828125,0.94921875,-0.1220703125,0.732421875,0.42724609375,-0.19775390625,18.0120849609375,-163.004150390625
1758179716.4955573,-0.31201171875,-0.00390625,0.951171875,-0.67138671875,0.54931640625,0.48828125,-0.2032470703125,18.0230712890625,-162.9986572265625
1758179716.506027,-0.31201171875,-0.00390625,0.951171875,-0.67138671875,0.54931640625,0.48828125,-0.2032470703125,18.028564453125,-162.9931640625
1758179716.5155623,-0.32861328125,0.005859375,0.9453125,-0.3662109375,0.3662109375,0.48828125,-0.208740234375,18.0340576171875,-162.9876708984375
1758179716.526239,-0.32861328125,0.005859375,0.9453125,-0.3662109375,0.3662109375,0.48828125,-0.208740234375,18.03955078125,-162.9766845703125
1758179716.5360503,-0.341796875,-0.00146484375,0.93505859375,-0.30517578125,0.30517578125,0.6103515625,-0.208740234375,18.0450439453125,-162.97119140625
1758179716.5460584,-0.341796875,-0.00146484375,0.93505859375,-0.30517578125,0.30517578125,0.6103515625,-0.208740234375,18.050537109375,-162.960205078125
1758179716.5558581,-0.32568359375,-0.001953125,0.94677734375,-1.0986328125,0.48828125,0.48828125,-0.2142333984375,18.0615234375,-162.9547119140625
1758179716.5657988,-0.32568359375,-0.001953125,0.94677734375,-1.0986328125,0.48828125,0.48828125,-0.2252197265625,18.072509765625,-162.94921875
1758179716.5758111,-0.3154296875,-0.001953125,0.951171875,-0.91552734375,0.54931640625,0.48828125,-0.230712890625,18.0780029296875,-162.9437255859375
1758179716.5856879,-0.3154296875,-0.001953125,0.951171875,-0.91552734375,0.54931640625,0.48828125,-0.2362060546875,18.0889892578125,-162.9327392578125
1758179716.5957184,-0.31591796875,-0.00439453125,0.94921875,0.1220703125,0.42724609375,0.42724609375,-0.2362060546875,18.094482421875,-162.92724609375
1758179716.6062386,-0.31982421875,-0.00146484375,0.94677734375,0.244140625,0.48828125,0.30517578125,-0.230712890625,18.10546875,-162.92724609375
1758179716.6156845,-0.31982421875,-0.00146484375,0.94677734375,0.244140625,0.48828125,0.30517578125,-0.2252197265625,18.1109619140625,-162.9217529296875
1758179716.6257515,-0.31689453125,-0.00390625,0.95166015625,0.06103515625,0.54931640625,0.1220703125,-0.2252197265625,18.1219482421875,-162.916259765625
1758179716.6359422,-0.31689453125,-0.00390625,0.95166015625,0.06103515625,0.54931640625,0.1220703125,-0.2197265625,18.12744140625,-162.916259765625
1758179716.6457636,-0.3125,0.00244140625,0.9501953125,0.48828125,0.67138671875,0.18310546875,-0.2197265625,18.138427734375,-162.916259765625
1758179716.6557732,-0.3125,0.00244140625,0.9501953125,0.48828125,0.67138671875,0.18310546875,-0.2142333984375,18.1494140625,-162.9107666015625
1758179716.6658792,-0.31396484375,0.00244140625,0.947265625,0.244140625,0.42724609375,0.30517578125,-0.208740234375,18.1549072265625,-162.9107666015625
1758179716.675927,-0.31396484375,0.00244140625,0.947265625,0.244140625,0.42724609375,0.30517578125,-0.2032470703125,18.160400390625,-162.9052734375
1758179716.6858163,-0.31689453125,0.0009765625,0.9462890625,-1.15966796875,0.18310546875,0.42724609375,-0.2032470703125,18.1658935546875,-162.8997802734375
1758179716.695821,-0.31689453125,0.0009765625,0.9462890625,-1.15966796875,0.18310546875,0.42724609375,-0.2142333984375,18.17138671875,-162.894287109375
1758179716.7061827,-0.314453125,0.00048828125,0.9501953125,-1.28173828125,0.244140625,0.48828125,-0.2252197265625,18.1768798828125,-162.8887939453125
1758179716.7158284,-0.314453125,0.00048828125,0.9501953125,-1.28173828125,0.244140625,0.48828125,-0.230712890625,18.1768798828125,-162.88330078125
1758179716.7259097,-0.30810546875,-0.00732421875,0.95361328125,-0.91552734375,0.48828125,0.48828125,-0.24169921875,18.182373046875,-162.8778076171875
1758179716.7362545,-0.30810546875,-0.00732421875,0.95361328125,-0.91552734375,0.48828125,0.48828125,-0.2471923828125,18.193359375,-162.872314453125
1758179716.745877,-0.30224609375,-0.0126953125,0.9541015625,-0.6103515625,0.732421875,0.42724609375,-0.252685546875,18.1988525390625,-162.8668212890625
1758179716.7560704,-0.30224609375,-0.0126953125,0.9541015625,-0.6103515625,0.732421875,0.42724609375,-0.2581787109375,18.204345703125,-162.8668212890625
1758179716.7660618,-0.306640625,-0.00244140625,0.9541015625,0.9765625,0.732421875,0.42724609375,-0.252685546875,18.21533203125,-162.861328125
1758179716.7760236,-0.306640625,-0.00244140625,0.9541015625,0.9765625,0.732421875,0.42724609375,-0.24169921875,18.2208251953125,-162.8558349609375
1758179716.7860067,-0.30712890625,0.00048828125,0.9482421875,0.54931640625,0.67138671875,0.54931640625,-0.230712890625,18.226318359375,-162.850341796875
1758179716.7959256,-0.30712890625,0.00048828125,0.9482421875,0.54931640625,0.67138671875,0.54931640625,-0.2252197265625,18.2318115234375,-162.8448486328125
1758179716.8063285,-0.30419921875,0.00732421875,0.95703125,-1.28173828125,0.8544921875,0.79345703125,-0.2252197265625,18.2373046875,-162.83935546875
1758179716.8159928,-0.30419921875,0.00732421875,0.95703125,-1.28173828125,0.8544921875,0.79345703125,-0.2362060546875,18.248291015625,-162.8338623046875
1758179716.8261266,-0.30615234375,0.0,0.95068359375,-0.79345703125,0.79345703125,0.91552734375,-0.24169921875,18.2537841796875,-162.8228759765625
1758179716.8365042,-0.30615234375,0.0,0.95068359375,-0.79345703125,0.79345703125,0.91552734375,-0.2471923828125,18.25927734375,-162.8173828125
1758179716.8460116,-0.31298828125,-0.01025390625,0.9443359375,-0.48828125,0.67138671875,0.732421875,-0.2471923828125,18.2647705078125,-162.806396484375
1758179716.856218,-0.31298828125,-0.01025390625,0.9443359375,-0.48828125,0.67138671875,0.732421875,-0.2471923828125,18.270263671875,-162.8009033203125
1758179716.8661208,-0.3056640625,-0.00390625,0.94970703125,-0.30517578125,0.3662109375,0.48828125,-0.252685546875,18.2757568359375,-162.79541015625
1758179716.8761322,-0.3056640625,-0.00390625,0.94970703125,-0.30517578125,0.3662109375,0.48828125,-0.252685546875,18.2757568359375,-162.7899169921875
1758179716.8860526,-0.2958984375,0.00146484375,0.9541015625,-0.30517578125,0.0,0.42724609375,-0.252685546875,18.2757568359375,-162.7899169921875
1758179716.8960772,-0.2958984375,0.00146484375,0.9541015625,-0.30517578125,0.0,0.42724609375,-0.252685546875,18.2757568359375,-162.784423828125
1758179716.906432,-0.2998046875,0.00048828125,0.953125,-0.79345703125,-0.1220703125,0.42724609375,-0.2581787109375,18.270263671875,-162.784423828125
1758179716.9161067,-0.2998046875,0.00048828125,0.953125,-0.79345703125,-0.1220703125,0.42724609375,-0.263671875,18.270263671875,-162.7789306640625
1758179716.9262576,-0.31494140625,-0.00537109375,0.9482421875,-1.0986328125,-0.1220703125,0.3662109375,-0.2691650390625,18.2647705078125,-162.7789306640625
1758179716.9365115,-0.31494140625,-0.00537109375,0.9482421875,-1.0986328125,-0.1220703125,0.3662109375,-0.2801513671875,18.25927734375,-162.7734375
1758179716.9460638,-0.31396484375,0.00146484375,0.94970703125,-0.54931640625,-0.1220703125,0.18310546875,-0.28564453125,18.25927734375,-162.7734375
1758179716.9562757,-0.31396484375,0.00146484375,0.94970703125,-0.54931640625,-0.1220703125,0.18310546875,-0.2911376953125,18.2537841796875,-162.7734375
1758179716.9661896,-0.30810546875,0.0029296875,0.94921875,-0.18310546875,-0.244140625,0.0,-0.2911376953125,18.248291015625,-162.7734375
1758179716.9761825,-0.30810546875,0.0029296875,0.94921875,-0.18310546875,-0.244140625,0.0,-0.2911376953125,18.248291015625,-162.7734375
1758179716.9861083,-0.3095703125,-0.00634765625,0.94873046875,-0.244140625,-0.3662109375,-0.244140625,-0.2911376953125,18.2427978515625,-162.7734375
1758179716.9961257,-0.3095703125,-0.00634765625,0.94873046875,-0.244140625,-0.3662109375,-0.244140625,-0.296630859375,18.2373046875,-162.7789306640625
1758179717.006479,-0.31201171875,-0.00146484375,0.94775390625,-0.48828125,-0.42724609375,-0.3662109375,-0.296630859375,18.2318115234375,-162.784423828125
1758179717.0162108,-0.31201171875,-0.00146484375,0.94775390625,-0.48828125,-0.42724609375,-0.3662109375,-0.3021240234375,18.226318359375,-162.7899169921875
1758179717.0262449,-0.30859375,-0.00634765625,0.9541015625,-0.06103515625,-0.3662109375,-0.42724609375,-0.3076171875,18.2208251953125,-162.7899169921875
1758179717.0371346,-0.30859375,-0.00634765625,0.9541015625,-0.06103515625,-0.3662109375,-0.42724609375,-0.3076171875,18.21533203125,-162.79541015625
1758179717.0464478,-0.3154296875,-0.00244140625,0.94580078125,0.1220703125,-0.3662109375,-0.48828125,-0.3076171875,18.2098388671875,-162.8009033203125
1758179717.0562937,-0.3154296875,-0.00244140625,0.94580078125,0.1220703125,-0.3662109375,-0.48828125,-0.3076171875,18.204345703125,-162.806396484375
1758179717.0663595,-0.3173828125,0.0,0.94921875,-0.30517578125,-0.3662109375,-0.48828125,-0.3076171875,18.204345703125,-162.8118896484375
1758179717.0763674,-0.3173828125,0.0,0.94921875,-0.30517578125,-0.3662109375,-0.48828125,-0.3131103515625,18.1988525390625,-162.8173828125
1758179717.0862224,-0.31787109375,-0.0009765625,0.947265625,-0.732421875,-0.42724609375,-0.48828125,-0.318603515625,18.193359375,-162.8228759765625
1758179717.0962706,-0.31787109375,-0.0009765625,0.947265625,-0.732421875,-0.42724609375,-0.48828125,-0.3240966796875,18.1878662109375,-162.828369140625
1758179717.1066804,-0.31787109375,-0.0029296875,0.94677734375,-0.91552734375,-0.42724609375,-0.6103515625,-0.3350830078125,18.1878662109375,-162.8338623046875
1758179717.116298,-0.31787109375,-0.0029296875,0.94677734375,-0.91552734375,-0.42724609375,-0.6103515625,-0.340576171875,18.182373046875,-162.83935546875
1758179717.126494,-0.31640625,-0.0078125,0.947265625,-0.18310546875,-0.42724609375,-0.732421875,-0.3515625,18.1768798828125,-162.8448486328125
1758179717.1364644,-0.31640625,-0.0078125,0.947265625,-0.18310546875,-0.42724609375,-0.732421875,-0.3515625,18.1768798828125,-162.8558349609375
1758179717.1463373,-0.31591796875,-0.00927734375,0.9501953125,0.30517578125,-0.42724609375,-0.732421875,-0.3515625,18.17138671875,-162.861328125
1758179717.1564078,-0.31591796875,-0.00927734375,0.9501953125,0.30517578125,-0.42724609375,-0.732421875,-0.3515625,18.1658935546875,-162.872314453125
1758179717.1665103,-0.3154296875,-0.00341796875,0.94921875,0.0,-0.3662109375,-0.67138671875,-0.3515625,18.1658935546875,-162.8778076171875
1758179717.1763966,-0.3154296875,-0.00341796875,0.94921875,0.0,-0.3662109375,-0.67138671875,-0.3515625,18.160400390625,-162.88330078125
1758179717.1863644,-0.310546875,0.0107421875,0.94921875,-0.1220703125,-0.30517578125,-0.42724609375,-0.3570556640625,18.160400390625,-162.8887939453125
1758179717.1978505,-0.310546875,0.0107421875,0.94921875,-0.1220703125,-0.30517578125,-0.42724609375,-0.3570556640625,18.160400390625,-162.894287109375
1758179717.2078402,-0.31298828125,-0.0078125,0.95068359375,-0.244140625,-0.244140625,-0.42724609375,-0.3570556640625,18.1549072265625,-162.894287109375
1758179717.2170577,-0.31298828125,-0.0078125,0.95068359375,-0.244140625,-0.244140625,-0.42724609375,-0.362548828125,18.1549072265625,-162.8997802734375
1758179717.2264292,-0.3134765625,-0.01123046875,0.94775390625,-0.48828125,-0.30517578125,-0.54931640625,-0.362548828125,18.1549072265625,-162.9052734375
1758179717.2365835,-0.3134765625,-0.01123046875,0.94775390625,-0.48828125,-0.30517578125,-0.54931640625,-0.3680419921875,18.1494140625,-162.9107666015625
1758179717.246505,-0.31494140625,-0.0087890625,0.94775390625,0.06103515625,-0.3662109375,-0.42724609375,-0.37353515625,18.1494140625,-162.916259765625
1758179717.2565303,-0.31494140625,-0.0087890625,0.94775390625,0.06103515625,-0.3662109375,-0.42724609375,-0.37353515625,18.1439208984375,-162.9217529296875
1758179717.2666554,-0.31494140625,-0.0029296875,0.94970703125,0.18310546875,-0.3662109375,-0.18310546875,-0.37353515625,18.1439208984375,-162.92724609375
1758179717.2765439,-0.31494140625,-0.0029296875,0.94970703125,0.18310546875,-0.3662109375,-0.18310546875,-0.37353515625,18.138427734375,-162.92724609375
1758179717.2865143,-0.314453125,-0.00390625,0.94921875,-0.3662109375,-0.30517578125,0.0,-0.37353515625,18.138427734375,-162.92724609375
1758179717.2965014,-0.314453125,-0.00390625,0.94921875,-0.3662109375,-0.30517578125,0.0,-0.37353515625,18.1329345703125,-162.92724609375
1758179717.3068347,-0.31640625,-0.00537109375,0.94921875,-0.42724609375,-0.18310546875,0.1220703125,-0.3790283203125,18.1329345703125,-162.92724609375
1758179717.3165243,-0.31640625,-0.00537109375,0.94921875,-0.42724609375,-0.18310546875,0.1220703125,-0.3790283203125,18.1329345703125,-162.92724609375
1758179717.326467,-0.3125,-0.00732421875,0.94970703125,0.0,-0.18310546875,0.0,-0.384521484375,18.1329345703125,-162.9217529296875
1758179717.3371902,-0.3125,-0.00732421875,0.94970703125,0.0,-0.18310546875,0.0,-0.384521484375,18.1329345703125,-162.92724609375
1758179717.3466377,-0.3076171875,-0.0009765625,0.9521484375,0.48828125,-0.18310546875,0.0,-0.3790283203125,18.1329345703125,-162.92724609375
1758179717.3565137,-0.3076171875,-0.0009765625,0.9521484375,0.48828125,-0.18310546875,0.0,-0.37353515625,18.1329345703125,-162.92724609375
1758179717.3673978,-0.31103515625,-0.005859375,0.9482421875,0.732421875,-0.06103515625,0.1220703125,-0.3680419921875,18.12744140625,-162.92724609375
1758179717.376582,-0.31103515625,-0.005859375,0.9482421875,0.732421875,-0.06103515625,0.1220703125,-0.3570556640625,18.12744140625,-162.9217529296875
1758179717.386536,-0.31201171875,-0.0048828125,0.95556640625,-0.30517578125,-0.06103515625,0.1220703125,-0.3570556640625,18.12744140625,-162.9217529296875
1758179717.3966203,-0.31201171875,-0.0048828125,0.95556640625,-0.30517578125,-0.06103515625,0.1220703125,-0.3570556640625,18.12744140625,-162.9217529296875
1758179717.4069889,-0.31298828125,-0.0009765625,0.94287109375,-0.54931640625,-0.1220703125,0.18310546875,-0.362548828125,18.12744140625,-162.9217529296875
1758179717.4166446,-0.31298828125,-0.0009765625,0.94287109375,-0.54931640625,-0.1220703125,0.18310546875,-0.362548828125,18.12744140625,-162.916259765625
1758179717.4266462,-0.306640625,-0.00390625,0.953125,-0.06103515625,-0.1220703125,0.06103515625,-0.3680419921875,18.12744140625,-162.916259765625
1758179717.4367197,-0.306640625,-0.00390625,0.953125,-0.06103515625,-0.1220703125,0.06103515625,-0.3680419921875,18.12744140625,-162.916259765625
1758179717.4466136,-0.2998046875,-0.01318359375,0.95458984375,0.79345703125,-0.30517578125,0.0,-0.362548828125,18.12744140625,-162.916259765625
1758179717.4566734,-0.2998046875,-0.01318359375,0.95458984375,0.79345703125,-0.30517578125,0.0,-0.3515625,18.1219482421875,-162.916259765625
1758179717.4668756,-0.3134765625,-0.0078125,0.947265625,1.28173828125,-0.30517578125,0.0,-0.3460693359375,18.116455078125,-162.916259765625
1758179717.4769487,-0.3134765625,-0.0078125,0.947265625,1.28173828125,-0.30517578125,0.0,-0.32958984375,18.116455078125,-162.916259765625
1758179717.4866478,-0.3134765625,-0.0078125,0.947265625,0.06103515625,-0.30517578125,0.06103515625,-0.3240966796875,18.1109619140625,-162.916259765625
1758179717.49667,-0.3056640625,0.0009765625,0.95458984375,0.06103515625,-0.30517578125,0.06103515625,-0.3240966796875,18.10546875,-162.916259765625
1758179717.5069575,-0.30712890625,0.00146484375,0.9482421875,-0.30517578125,-0.30517578125,0.30517578125,-0.3240966796875,18.10546875,-162.916259765625
1758179717.5166883,-0.30712890625,0.00146484375,0.9482421875,-0.30517578125,-0.30517578125,0.30517578125,-0.3240966796875,18.0999755859375,-162.9107666015625
1758179717.5267797,-0.3046875,-0.0068359375,0.95703125,-0.3662109375,-0.42724609375,0.30517578125,-0.32958984375,18.094482421875,-162.9107666015625
1758179717.5368104,-0.3046875,-0.0068359375,0.95703125,-0.3662109375,-0.42724609375,0.30517578125,-0.32958984375,18.0889892578125,-162.9052734375
1758179717.546771,-0.3095703125,-0.01220703125,0.94921875,0.1220703125,-0.30517578125,0.18310546875,-0.32958984375,18.0889892578125,-162.9052734375
1758179717.5568085,-0.3095703125,-0.01220703125,0.94921875,0.1220703125,-0.30517578125,0.18310546875,-0.32958984375,18.08349609375,-162.8997802734375
1758179717.5670786,-0.3076171875,-0.00537109375,0.9521484375,0.91552734375,-0.1220703125,0.18310546875,-0.3240966796875,18.0780029296875,-162.8997802734375
1758179717.5771654,-0.3076171875,-0.00537109375,0.9521484375,0.91552734375,-0.1220703125,0.18310546875,-0.3131103515625,18.0780029296875,-162.8997802734375
1758179717.5867627,-0.318359375,-0.001953125,0.95068359375,1.5869140625,0.0,0.1220703125,-0.296630859375,18.0780029296875,-162.8997802734375
1758179717.5968242,-0.318359375,-0.001953125,0.95068359375,1.5869140625,0.0,0.1220703125,-0.2801513671875,18.0780029296875,-162.8997802734375
1758179717.6073573,-0.322265625,-0.00048828125,0.9482421875,0.91552734375,0.06103515625,0.0,-0.2691650390625,18.0780029296875,-162.8997802734375
1758179717.6168246,-0.322265625,-0.00048828125,0.9482421875,0.91552734375,0.06103515625,0.0,-0.263671875,18.0780029296875,-162.8997802734375
1758179717.6268306,-0.32373046875,0.0009765625,0.9453125,0.67138671875,0.18310546875,0.0,-0.252685546875,18.0780029296875,-162.8997802734375
1758179717.6369092,-0.32373046875,0.0009765625,0.9453125,0.67138671875,0.18310546875,0.0,-0.2471923828125,18.08349609375,-162.8997802734375
1758179717.6468031,-0.3125,0.01708984375,0.9501953125,0.244140625,0.3662109375,0.18310546875,-0.24169921875,18.0889892578125,-162.8997802734375
1758179717.656865,-0.3125,0.01708984375,0.9501953125,0.244140625,0.3662109375,0.18310546875,-0.2362060546875,18.094482421875,-162.894287109375
1758179717.667225,-0.318359375,0.0,0.94677734375,0.91552734375,0.48828125,0.244140625,-0.2252197265625,18.0999755859375,-162.894287109375
1758179717.677173,-0.318359375,0.0,0.94677734375,0.91552734375,0.48828125,0.244140625,-0.2142333984375,18.10546875,-162.8887939453125
1758179717.6869085,-0.30419921875,-0.017578125,0.958984375,-0.67138671875,0.54931640625,0.30517578125,-0.2197265625,18.1109619140625,-162.8887939453125
1758179717.696925,-0.30419921875,-0.017578125,0.958984375,-0.67138671875,0.54931640625,0.30517578125,-0.2252197265625,18.116455078125,-162.88330078125
