timestamp,acc_x,acc_y,acc_z,gyro_x,gyro_y,gyro_z,angle_x,angle_y,angle_z
1760966462.0694973,-0.669921875,-0.00927734375,0.7578125,-2.685546875,-0.54931640625,1.46484375,0.076904296875,41.66015625,-77.98095703125
1760966462.0798147,-0.669921875,-0.00927734375,0.7578125,-2.685546875,-0.54931640625,1.46484375,0.0604248046875,41.649169921875,-77.958984375
1760966462.0921504,-0.67333984375,-0.00048828125,0.73486328125,-1.03759765625,-0.6103515625,1.40380859375,0.054931640625,41.6436767578125,-77.9315185546875
1760966462.103959,-0.67333984375,-0.00048828125,0.73486328125,-1.03759765625,-0.6103515625,1.40380859375,0.054931640625,41.63818359375,-77.9095458984375
1760966462.1152642,-0.68408203125,-0.00146484375,0.72900390625,-1.28173828125,-0.6103515625,1.3427734375,0.054931640625,41.627197265625,-77.8875732421875
1760966462.1248562,-0.68408203125,-0.00146484375,0.72900390625,-1.28173828125,-0.6103515625,1.3427734375,0.054931640625,41.6217041015625,-77.8656005859375
1760966462.1331947,-0.6875,0.0,0.7333984375,-0.8544921875,-0.42724609375,1.220703125,0.054931640625,41.6217041015625,-77.8436279296875
1760966462.1414618,-0.6875,0.0,0.7333984375,-0.8544921875,-0.42724609375,1.220703125,0.054931640625,41.6162109375,-77.8216552734375
1760966462.149907,-0.68798828125,0.001953125,0.73974609375,-0.6103515625,-0.18310546875,1.15966796875,0.054931640625,41.6162109375,-77.7996826171875
1760966462.1581748,-0.68798828125,0.001953125,0.73974609375,-0.6103515625,-0.18310546875,1.15966796875,0.0604248046875,41.6217041015625,-77.7777099609375
1760966462.1666229,-0.68212890625,-0.00390625,0.72998046875,0.1220703125,0.0,1.03759765625,0.06591796875,41.6217041015625,-77.76123046875
1760966462.1746397,-0.68212890625,-0.00390625,0.72998046875,0.1220703125,0.0,1.03759765625,0.076904296875,41.627197265625,-77.7447509765625
1760966462.184637,-0.67529296875,-0.0068359375,0.73974609375,1.3427734375,-0.1220703125,1.03759765625,0.087890625,41.627197265625,-77.7227783203125
1760966462.1946635,-0.67529296875,-0.0068359375,0.73974609375,1.3427734375,-0.1220703125,1.03759765625,0.10986328125,41.6326904296875,-77.706298828125
1760966462.2048783,-0.6640625,-0.00537109375,0.75244140625,0.67138671875,-0.244140625,1.28173828125,0.1263427734375,41.63818359375,-77.684326171875
1760966462.214692,-0.6640625,-0.00537109375,0.75244140625,0.67138671875,-0.244140625,1.28173828125,0.142822265625,41.63818359375,-77.6678466796875
1760966462.2247183,-0.66845703125,0.0048828125,0.77197265625,1.15966796875,-0.244140625,1.220703125,0.164794921875,41.63818359375,-77.6458740234375
1760966462.234865,-0.66845703125,0.0048828125,0.77197265625,1.15966796875,-0.244140625,1.220703125,0.1812744140625,41.63818359375,-77.6239013671875
1760966462.2450318,-0.6669921875,0.0107421875,0.734375,0.54931640625,-0.30517578125,0.91552734375,0.19775390625,41.63818359375,-77.607421875
1760966462.2547157,-0.6669921875,0.0107421875,0.734375,0.54931640625,-0.30517578125,0.91552734375,0.2142333984375,41.63818359375,-77.5909423828125
1760966462.2647197,-0.67333984375,0.00244140625,0.74072265625,-0.48828125,-0.6103515625,0.8544921875,0.2197265625,41.6326904296875,-77.574462890625
1760966462.274716,-0.67333984375,0.00244140625,0.74072265625,-0.48828125,-0.6103515625,0.8544921875,0.2197265625,41.627197265625,-77.5579833984375
1760966462.284732,-0.669921875,-0.00048828125,0.7568359375,0.06103515625,-0.67138671875,0.67138671875,0.2252197265625,41.627197265625,-77.54150390625
1760966462.2947369,-0.669921875,-0.00048828125,0.7568359375,0.06103515625,-0.67138671875,0.67138671875,0.230712890625,41.6217041015625,-77.5250244140625
1760966462.3047454,-0.66943359375,0.0126953125,0.740234375,0.42724609375,-0.732421875,0.30517578125,0.2362060546875,41.6162109375,-77.5140380859375
1760966462.3147628,-0.66943359375,0.0126953125,0.740234375,0.42724609375,-0.732421875,0.30517578125,0.24169921875,41.6107177734375,-77.508544921875
1760966462.324751,-0.66796875,0.00732421875,0.7548828125,-0.244140625,-0.6103515625,0.0,0.24169921875,41.605224609375,-77.49755859375
1760966462.3347435,-0.66796875,0.00732421875,0.7548828125,-0.244140625,-0.6103515625,0.0,0.24169921875,41.605224609375,-77.4920654296875
1760966462.3447902,-0.66552734375,0.00244140625,0.75390625,-0.732421875,-0.54931640625,-0.1220703125,0.2362060546875,41.5997314453125,-77.486572265625
1760966462.3547833,-0.66552734375,0.00244140625,0.75390625,-0.732421875,-0.54931640625,-0.1220703125,0.230712890625,41.59423828125,-77.4810791015625
1760966462.364783,-0.66455078125,-0.0029296875,0.75146484375,-1.46484375,-0.54931640625,0.0,0.2197265625,41.5887451171875,-77.4755859375
1760966462.3747866,-0.66455078125,-0.0029296875,0.75146484375,-1.46484375,-0.54931640625,0.0,0.2032470703125,41.583251953125,-77.4700927734375
1760966462.3848257,-0.66259765625,-0.0029296875,0.74658203125,-1.0986328125,-0.48828125,0.18310546875,0.1922607421875,41.583251953125,-77.464599609375
1760966462.394828,-0.66259765625,-0.0029296875,0.74658203125,-1.0986328125,-0.48828125,0.18310546875,0.1812744140625,41.5777587890625,-77.45361328125
1760966462.4048533,-0.658203125,-0.00439453125,0.76171875,-1.0986328125,-0.3662109375,0.3662109375,0.1702880859375,41.572265625,-77.4481201171875
1760966462.4153528,-0.658203125,-0.00439453125,0.76171875,-1.0986328125,-0.3662109375,0.3662109375,0.164794921875,41.572265625,-77.4371337890625
1760966462.424878,-0.65625,0.0,0.76611328125,-0.91552734375,-0.30517578125,0.54931640625,0.15380859375,41.5667724609375,-77.4261474609375
1760966462.434862,-0.65625,0.0,0.76611328125,-0.91552734375,-0.30517578125,0.54931640625,0.1483154296875,41.561279296875,-77.4151611328125
1760966462.4448783,-0.65576171875,0.0029296875,0.76513671875,-1.77001953125,-0.1220703125,0.6103515625,0.142822265625,41.561279296875,-77.4041748046875
1760966462.454871,-0.65576171875,0.0029296875,0.76513671875,-1.77001953125,-0.1220703125,0.6103515625,0.1318359375,41.5557861328125,-77.3876953125
1760966462.464886,-0.65283203125,0.00244140625,0.75,-2.99072265625,0.0,0.67138671875,0.10986328125,41.5557861328125,-77.376708984375
1760966462.4750493,-0.65283203125,0.00244140625,0.75,-2.99072265625,0.0,0.67138671875,0.087890625,41.55029296875,-77.3602294921875
1760966462.4848957,-0.6513671875,0.00146484375,0.77490234375,-3.7841796875,0.0,0.6103515625,0.0604248046875,41.55029296875,-77.3492431640625
1760966462.4949114,-0.6513671875,0.00146484375,0.77490234375,-3.7841796875,0.0,0.6103515625,0.0274658203125,41.5447998046875,-77.332763671875
1760966462.504926,-0.64892578125,0.005859375,0.76611328125,-4.39453125,0.3662109375,0.67138671875,-0.0054931640625,41.5447998046875,-77.3162841796875
1760966462.514932,-0.64892578125,0.005859375,0.76611328125,-4.39453125,0.3662109375,0.67138671875,-0.0384521484375,41.5447998046875,-77.3052978515625
1760966462.524944,-0.65234375,-0.00732421875,0.74755859375,-3.90625,0.1220703125,0.30517578125,-0.076904296875,41.5447998046875,-77.288818359375
1760966462.5349479,-0.65234375,-0.00732421875,0.74755859375,-3.90625,0.1220703125,0.30517578125,-0.10986328125,41.539306640625,-77.27783203125
1760966462.5449476,-0.66015625,0.00244140625,0.76806640625,-4.638671875,0.0,0.06103515625,-0.1483154296875,41.539306640625,-77.2723388671875
1760966462.5550478,-0.66015625,0.00244140625,0.76806640625,-4.638671875,0.0,0.06103515625,-0.19775390625,41.5338134765625,-77.2613525390625
1760966462.5650449,-0.65576171875,0.001953125,0.76025390625,-3.96728515625,-0.244140625,-0.42724609375,-0.2362060546875,41.5283203125,-77.255859375
1760966462.5750527,-0.65576171875,0.001953125,0.76025390625,-3.96728515625,-0.244140625,-0.42724609375,-0.2801513671875,41.5228271484375,-77.255859375
1760966462.5852678,-0.65087890625,-0.0029296875,0.76171875,-5.0048828125,-0.3662109375,-0.732421875,-0.32958984375,41.5118408203125,-77.255859375
1760966462.595033,-0.65087890625,-0.0029296875,0.76171875,-5.0048828125,-0.3662109375,-0.732421875,-0.3790283203125,41.50634765625,-77.255859375
1760966462.6054008,-0.6484375,-0.00146484375,0.76953125,-5.43212890625,-0.30517578125,-0.9765625,-0.439453125,41.5008544921875,-77.2613525390625
1760966462.615099,-0.6484375,-0.00146484375,0.76953125,-5.43212890625,-0.30517578125,-0.9765625,-0.4998779296875,41.4898681640625,-77.266845703125
1760966462.6251678,-0.65087890625,-0.005859375,0.7734375,-7.14111328125,-0.1220703125,-0.9765625,-0.5657958984375,41.484375,-77.266845703125
1760966462.6350877,-0.65087890625,-0.005859375,0.7734375,-7.14111328125,-0.1220703125,-0.9765625,-0.6427001953125,41.4788818359375,-77.2723388671875
1760966462.6451058,-0.65869140625,-0.01123046875,0.7548828125,-5.9814453125,0.0,-0.732421875,-0.714111328125,41.4678955078125,-77.2723388671875
1760966462.6553097,-0.65869140625,-0.01123046875,0.7548828125,-5.9814453125,0.0,-0.732421875,-0.7745361328125,41.4678955078125,-77.2723388671875
1760966462.6654377,-0.6708984375,-0.01953125,0.7412109375,-3.60107421875,0.06103515625,-0.91552734375,-0.8294677734375,41.46240234375,-77.27783203125
1760966462.67513,-0.6708984375,-0.01953125,0.7412109375,-3.60107421875,0.06103515625,-0.91552734375,-0.867919921875,41.4569091796875,-77.27783203125
1760966462.6854165,-0.68408203125,-0.0166015625,0.75,-1.52587890625,0.0,-0.8544921875,-0.90087890625,41.4569091796875,-77.2833251953125
1760966462.6952202,-0.68408203125,-0.0166015625,0.75,-1.52587890625,0.0,-0.8544921875,-0.9173583984375,41.451416015625,-77.2833251953125
1760966462.7057278,-0.6953125,-0.00146484375,0.71142578125,-0.244140625,0.244140625,-1.220703125,-0.933837890625,41.451416015625,-77.288818359375
1760966462.7151694,-0.6953125,-0.00146484375,0.71142578125,-0.244140625,0.244140625,-1.220703125,-0.94482421875,41.4569091796875,-77.2998046875
1760966462.7253208,-0.7060546875,-0.0146484375,0.70947265625,-3.41796875,0.3662109375,-1.03759765625,-0.9722900390625,41.46240234375,-77.3052978515625
1760966462.7352452,-0.7060546875,-0.0146484375,0.70947265625,-3.41796875,0.3662109375,-1.03759765625,-1.0107421875,41.4678955078125,-77.310791015625
1760966462.7453258,-0.6728515625,-0.03369140625,0.7412109375,-3.173828125,0.244140625,-1.03759765625,-1.0546875,41.4788818359375,-77.32177734375
1760966462.758269,-0.6728515625,-0.03369140625,0.7412109375,-3.173828125,0.244140625,-1.03759765625,-1.0931396484375,41.484375,-77.3272705078125
1760966462.7658648,-0.69140625,-0.0322265625,0.7734375,-0.79345703125,0.42724609375,-0.91552734375,-1.12060546875,41.4898681640625,-77.3382568359375
1760966462.7766912,-0.69140625,-0.0322265625,0.7734375,-0.79345703125,0.42724609375,-0.91552734375,-1.1370849609375,41.5008544921875,-77.34375
1760966462.785373,-0.697265625,-0.0146484375,0.6875,0.42724609375,0.6103515625,-1.03759765625,-1.1480712890625,41.5118408203125,-77.354736328125
1760966462.797698,-0.697265625,-0.0146484375,0.6875,0.42724609375,0.6103515625,-1.03759765625,-1.153564453125,41.5228271484375,-77.36572265625
1760966462.8098679,-0.68310546875,-0.02392578125,0.72705078125,1.52587890625,0.54931640625,-1.15966796875,-1.153564453125,41.5338134765625,-77.376708984375
1760966462.8163283,-0.68310546875,-0.02392578125,0.72705078125,1.52587890625,0.54931640625,-1.15966796875,-1.153564453125,41.55029296875,-77.3876953125
1760966462.825359,-0.669921875,-0.01953125,0.783203125,0.48828125,0.91552734375,-1.03759765625,-1.153564453125,41.561279296875,-77.398681640625
1760966462.836617,-0.669921875,-0.01953125,0.783203125,0.48828125,0.91552734375,-1.03759765625,-1.1590576171875,41.5777587890625,-77.40966796875
1760966462.8456552,-0.658203125,-0.0185546875,0.74951171875,0.0,0.9765625,-0.91552734375,-1.16455078125,41.59423828125,-77.420654296875
1760966462.8553853,-0.658203125,-0.0185546875,0.74951171875,0.0,0.9765625,-0.91552734375,-1.175537109375,41.605224609375,-77.431640625
1760966462.865483,-0.65234375,-0.0166015625,0.75830078125,0.54931640625,0.8544921875,-0.91552734375,-1.1810302734375,41.6162109375,-77.4371337890625
1760966462.876755,-0.65234375,-0.0166015625,0.75830078125,0.54931640625,0.8544921875,-0.91552734375,-1.1865234375,41.627197265625,-77.4481201171875
1760966462.8856509,-0.6455078125,-0.013671875,0.76806640625,-0.06103515625,0.79345703125,-0.9765625,-1.1920166015625,41.63818359375,-77.4591064453125
1760966462.8953989,-0.6455078125,-0.013671875,0.76806640625,-0.06103515625,0.79345703125,-0.9765625,-1.2030029296875,41.6436767578125,-77.464599609375
1760966462.9054997,-0.6474609375,-0.02197265625,0.76611328125,-0.06103515625,0.54931640625,-0.9765625,-1.2139892578125,41.649169921875,-77.4755859375
1760966462.9179876,-0.6474609375,-0.02197265625,0.76611328125,-0.06103515625,0.54931640625,-0.9765625,-1.2249755859375,41.6546630859375,-77.4810791015625
1760966462.9254322,-0.63330078125,-0.0283203125,0.78564453125,-0.54931640625,0.18310546875,-0.91552734375,-1.241455078125,41.649169921875,-77.486572265625
1760966462.9355264,-0.63330078125,-0.0283203125,0.78564453125,-0.54931640625,0.18310546875,-0.91552734375,-1.25244140625,41.649169921875,-77.49755859375
1760966462.9454384,-0.63623046875,-0.00732421875,0.78076171875,-0.18310546875,0.0,-1.03759765625,-1.2689208984375,41.6436767578125,-77.5030517578125
1760966462.9559112,-0.63623046875,-0.00732421875,0.78076171875,-0.18310546875,0.0,-1.03759765625,-1.2799072265625,41.63818359375,-77.5140380859375
1760966462.9655714,-0.6416015625,-0.01220703125,0.755859375,-2.5634765625,0.0,-0.9765625,-1.3128662109375,41.6326904296875,-77.51953125
1760966462.9757977,-0.6416015625,-0.01220703125,0.755859375,-2.5634765625,0.0,-0.9765625,-1.3458251953125,41.6217041015625,-77.5250244140625
1760966462.988841,-0.650390625,-0.0234375,0.76953125,-2.99072265625,-0.244140625,-1.03759765625,-1.38427734375,41.6162109375,-77.530517578125
1760966462.9955828,-0.650390625,-0.0234375,0.76953125,-2.99072265625,-0.244140625,-1.03759765625,-1.4227294921875,41.605224609375,-77.5360107421875
1760966463.006336,-0.64990234375,-0.029296875,0.77294921875,-2.74658203125,-0.42724609375,-1.03759765625,-1.4556884765625,41.59423828125,-77.54150390625
1760966463.0183957,-0.64990234375,-0.029296875,0.77294921875,-2.74658203125,-0.42724609375,-1.03759765625,-1.494140625,41.583251953125,-77.5469970703125
1760966463.0268414,-0.65478515625,-0.0263671875,0.7490234375,-2.197265625,-0.54931640625,-1.0986328125,-1.527099609375,41.5667724609375,-77.5579833984375
1760966463.04655,-0.65478515625,-0.0263671875,0.7490234375,-2.197265625,-0.54931640625,-1.0986328125,-1.56005859375,41.5557861328125,-77.5634765625
1760966463.0623112,-0.658203125,-0.021484375,0.755859375,0.8544921875,-0.91552734375,-1.3427734375,-1.56005859375,41.539306640625,-77.574462890625
1760966463.0689404,-0.658203125,-0.021484375,0.755859375,0.8544921875,-0.91552734375,-1.3427734375,-1.5655517578125,41.5283203125,-77.58544921875
1760966463.0756392,-0.65869140625,-0.02099609375,0.767578125,0.67138671875,-0.9765625,-1.46484375,-1.571044921875,41.5118408203125,-77.596435546875
1760966463.0824497,-0.65869140625,-0.02099609375,0.767578125,0.67138671875,-0.9765625,-1.46484375,-1.5765380859375,41.495361328125,-77.607421875
1760966463.0889826,-0.6611328125,-0.0224609375,0.74755859375,-0.9765625,-1.03759765625,-1.3427734375,-1.5985107421875,41.4788818359375,-77.618408203125
1760966463.0956347,-0.6611328125,-0.0224609375,0.74755859375,-0.9765625,-1.03759765625,-1.3427734375,-1.6204833984375,41.46240234375,-77.62939453125
1760966463.1059723,-0.662109375,-0.0302734375,0.748046875,-0.18310546875,-1.0986328125,-1.3427734375,-1.6314697265625,41.451416015625,-77.640380859375
1760966463.1161544,-0.662109375,-0.0302734375,0.748046875,-0.18310546875,-1.0986328125,-1.3427734375,-1.64794921875,41.4349365234375,-77.6568603515625
1760966463.1266701,-0.6796875,-0.0341796875,0.7373046875,2.3193359375,-1.03759765625,-1.46484375,-1.636962890625,41.4239501953125,-77.6678466796875
1760966463.1359785,-0.6796875,-0.0341796875,0.7373046875,2.3193359375,-1.03759765625,-1.46484375,-1.6259765625,41.407470703125,-77.684326171875
1760966463.1527827,-0.67578125,-0.033203125,0.7353515625,4.94384765625,-1.03759765625,-1.5869140625,-1.593017578125,41.396484375,-77.7008056640625
1760966463.1603816,-0.67578125,-0.033203125,0.7353515625,4.94384765625,-1.03759765625,-1.5869140625,-1.56005859375,41.385498046875,-77.71728515625
1760966463.1667838,-0.677734375,-0.03076171875,0.7607421875,7.50732421875,-0.9765625,-1.64794921875,-1.505126953125,41.3800048828125,-77.7337646484375
1760966463.1761413,-0.677734375,-0.03076171875,0.7607421875,7.50732421875,-0.9765625,-1.64794921875,-1.4447021484375,41.3690185546875,-77.7557373046875
1760966463.1864188,-0.66845703125,-0.0224609375,0.7294921875,7.50732421875,-1.0986328125,-1.52587890625,-1.3897705078125,41.3580322265625,-77.772216796875
1760966463.2162747,-0.66845703125,-0.0224609375,0.7294921875,7.50732421875,-1.0986328125,-1.52587890625,-1.329345703125,41.3470458984375,-77.7886962890625
1760966463.223656,-0.6708984375,-0.0185546875,0.74267578125,6.2255859375,-1.3427734375,-1.46484375,-1.285400390625,41.3360595703125,-77.80517578125
1760966463.230837,-0.6708984375,-0.0185546875,0.74267578125,6.2255859375,-1.3427734375,-1.46484375,-1.241455078125,41.3250732421875,-77.8216552734375
1760966463.237821,-0.6689453125,-0.0185546875,0.74755859375,5.67626953125,-1.220703125,-1.40380859375,-1.197509765625,41.3140869140625,-77.838134765625
1760966463.2443757,-0.6689453125,-0.0185546875,0.74755859375,5.67626953125,-1.220703125,-1.40380859375,-1.1590576171875,41.30859375,-77.8546142578125
1760966463.250392,-0.6689453125,-0.0185546875,0.74755859375,6.04248046875,-0.732421875,-1.0986328125,-1.109619140625,41.3031005859375,-77.8656005859375
1760966463.2569973,-0.6708984375,-0.01806640625,0.7529296875,6.04248046875,-0.732421875,-1.0986328125,-1.065673828125,41.297607421875,-77.882080078125
1760966463.265774,-0.671875,-0.0078125,0.75634765625,5.43212890625,-0.54931640625,-1.0986328125,-1.021728515625,41.2921142578125,-77.89306640625
1760966463.275902,-0.671875,-0.0078125,0.75634765625,5.43212890625,-0.54931640625,-1.0986328125,-0.9832763671875,41.2921142578125,-77.904052734375
1760966463.2865703,-0.67919921875,-0.00830078125,0.74169921875,3.23486328125,-0.42724609375,-0.8544921875,-0.9613037109375,41.2921142578125,-77.9095458984375
1760966463.2957885,-0.67919921875,-0.00830078125,0.74169921875,3.23486328125,-0.42724609375,-0.8544921875,-0.9393310546875,41.28662109375,-77.9150390625
1760966463.305944,-0.6962890625,0.0,0.71240234375,2.50244140625,-0.48828125,-0.8544921875,-0.9228515625,41.28662109375,-77.926025390625
1760966463.3164291,-0.6962890625,0.0,0.71240234375,2.50244140625,-0.48828125,-0.8544921875,-0.9063720703125,41.2921142578125,-77.9315185546875
1760966463.3259242,-0.7080078125,-0.00537109375,0.7158203125,0.18310546875,-0.6103515625,-1.0986328125,-0.9173583984375,41.2921142578125,-77.9425048828125
1760966463.3358514,-0.7080078125,-0.00537109375,0.7158203125,0.18310546875,-0.6103515625,-1.0986328125,-0.9228515625,41.2921142578125,-77.947998046875
1760966463.3659878,-0.71044921875,-0.0166015625,0.70654296875,-2.9296875,-0.1220703125,-1.0986328125,-0.9613037109375,41.3031005859375,-77.958984375
1760966463.371982,-0.71044921875,-0.0166015625,0.70654296875,-2.9296875,-0.1220703125,-1.0986328125,-0.999755859375,41.30859375,-77.969970703125
1760966463.381082,-0.70166015625,-0.025390625,0.7177734375,-1.8310546875,0.0,-1.03759765625,-1.03271484375,41.3250732421875,-77.98095703125
1760966463.387615,-0.70166015625,-0.025390625,0.7177734375,-1.8310546875,0.0,-1.03759765625,-1.0601806640625,41.3360595703125,-77.991943359375
1760966463.394168,-0.69580078125,-0.015625,0.732421875,-0.3662109375,0.1220703125,-0.9765625,-1.0711669921875,41.3470458984375,-77.9974365234375
1760966463.4009538,-0.69580078125,-0.015625,0.732421875,-0.3662109375,0.1220703125,-0.9765625,-1.087646484375,41.363525390625,-78.0084228515625
1760966463.407371,-0.68359375,-0.02001953125,0.72705078125,-1.03759765625,0.244140625,-0.79345703125,-1.1041259765625,41.37451171875,-78.013916015625
1760966463.4159777,-0.68359375,-0.02001953125,0.72705078125,-1.03759765625,0.244140625,-0.79345703125,-1.12060546875,41.3909912109375,-78.02490234375
1760966463.4264605,-0.671875,-0.0234375,0.75341796875,-1.708984375,0.244140625,-0.732421875,-1.1480712890625,41.4019775390625,-78.0303955078125
1760966463.4360874,-0.671875,-0.0234375,0.75341796875,-1.708984375,0.244140625,-0.732421875,-1.1700439453125,41.41845703125,-78.035888671875
1760966463.4458728,-0.669921875,-0.015625,0.7578125,-0.91552734375,0.244140625,-0.732421875,-1.1865234375,41.429443359375,-78.046875
1760966463.456299,-0.669921875,-0.015625,0.7578125,-0.91552734375,0.244140625,-0.732421875,-1.2030029296875,41.4404296875,-78.0523681640625
1760966463.466084,-0.6611328125,-0.01318359375,0.73388671875,-1.15966796875,0.30517578125,-0.732421875,-1.2249755859375,41.451416015625,-78.057861328125
1760966463.4759886,-0.6611328125,-0.01318359375,0.73388671875,-1.15966796875,0.30517578125,-0.732421875,-1.241455078125,41.46240234375,-78.0633544921875
1760966463.533746,-0.66357421875,-0.02490234375,0.7744140625,-0.42724609375,0.42724609375,-0.732421875,-1.25244140625,41.4678955078125,-78.0743408203125
1760966463.5414817,-0.66357421875,-0.02490234375,0.7744140625,-0.42724609375,0.42724609375,-0.732421875,-1.263427734375,41.4788818359375,-78.079833984375
1760966463.5481164,-0.650390625,-0.03076171875,0.75390625,-0.30517578125,0.3662109375,-0.67138671875,-1.2744140625,41.484375,-78.0853271484375
1760966463.562961,-0.650390625,-0.03076171875,0.75390625,-0.30517578125,0.3662109375,-0.67138671875,-1.285400390625,41.495361328125,-78.0908203125
1760966463.5781367,-0.6591796875,-0.017578125,0.7626953125,0.91552734375,0.244140625,-0.732421875,-1.285400390625,41.495361328125,-78.0963134765625
1760966463.5853508,-0.6591796875,-0.017578125,0.7626953125,0.91552734375,0.244140625,-0.732421875,-1.285400390625,41.5008544921875,-78.101806640625
1760966463.626364,-0.6572265625,-0.01904296875,0.7548828125,1.64794921875,0.0,-0.8544921875,-1.2744140625,41.5008544921875,-78.1072998046875
1760966463.6727338,-0.6572265625,-0.01904296875,0.7548828125,1.64794921875,0.0,-0.8544921875,-1.2689208984375,41.5008544921875,-78.11279296875
1760966463.678952,-0.66796875,-0.02490234375,0.7587890625,2.0751953125,-0.06103515625,-1.03759765625,-1.2579345703125,41.5008544921875,-78.123779296875
1760966463.6968412,-0.66796875,-0.02490234375,0.7587890625,2.0751953125,-0.06103515625,-1.03759765625,-1.25244140625,41.5008544921875,-78.134765625
1760966463.7050254,-0.6650390625,-0.021484375,0.751953125,2.25830078125,-0.18310546875,-1.0986328125,-1.241455078125,41.5008544921875,-78.145751953125
1760966463.7175033,-0.6650390625,-0.021484375,0.751953125,2.25830078125,-0.18310546875,-1.0986328125,-1.23046875,41.5008544921875,-78.15673828125
1760966463.7257612,-0.673828125,-0.0166015625,0.74365234375,2.50244140625,-0.18310546875,-1.220703125,-1.2139892578125,41.495361328125,-78.167724609375
1760966463.7324114,-0.673828125,-0.0166015625,0.74365234375,2.50244140625,-0.18310546875,-1.220703125,-1.2030029296875,41.495361328125,-78.1787109375
1760966463.7460861,-0.68505859375,-0.0146484375,0.72900390625,2.38037109375,-0.244140625,-1.220703125,-1.1920166015625,41.495361328125,-78.189697265625
1760966463.7773912,-0.68505859375,-0.0146484375,0.72900390625,2.38037109375,-0.244140625,-1.220703125,-1.1810302734375,41.495361328125,-78.20068359375
1760966463.8157938,-0.70263671875,-0.009765625,0.73486328125,3.0517578125,-0.18310546875,-1.40380859375,-1.16455078125,41.495361328125,-78.2171630859375
1760966463.8223515,-0.70263671875,-0.009765625,0.73486328125,3.0517578125,-0.18310546875,-1.40380859375,-1.1480712890625,41.5008544921875,-78.2281494140625
1760966463.828772,-0.7021484375,-0.01806640625,0.69580078125,0.67138671875,0.06103515625,-1.28173828125,-1.153564453125,41.50634765625,-78.24462890625
1760966463.8349159,-0.7021484375,-0.01806640625,0.69580078125,0.67138671875,0.06103515625,-1.28173828125,-1.1590576171875,41.5118408203125,-78.255615234375
1760966463.842062,-0.697265625,-0.0185546875,0.7294921875,1.0986328125,0.30517578125,-1.28173828125,-1.1590576171875,41.5228271484375,-78.2666015625
1760966463.8484445,-0.697265625,-0.0185546875,0.7294921875,1.0986328125,0.30517578125,-1.28173828125,-1.16455078125,41.5338134765625,-78.2830810546875
1760966463.8549855,-0.66943359375,-0.0166015625,0.7548828125,0.54931640625,0.18310546875,-1.28173828125,-1.1700439453125,41.5447998046875,-78.2940673828125
1760966463.8612008,-0.66943359375,-0.0166015625,0.7548828125,0.54931640625,0.18310546875,-1.28173828125,-1.175537109375,41.5557861328125,-78.310546875
1760966463.8675048,-0.66943359375,-0.017578125,0.7333984375,-0.1220703125,0.732421875,-1.03759765625,-1.1865234375,41.5667724609375,-78.3160400390625
1760966463.8740714,-0.66943359375,-0.017578125,0.7333984375,-0.1220703125,0.732421875,-1.03759765625,-1.2030029296875,41.583251953125,-78.3270263671875
1760966463.8803759,-0.6640625,-0.0302734375,0.7666015625,0.42724609375,0.6103515625,-0.732421875,-1.2030029296875,41.59423828125,-78.33251953125
1760966463.8873112,-0.6640625,-0.0302734375,0.7666015625,0.42724609375,0.6103515625,-0.732421875,-1.20849609375,41.605224609375,-78.3380126953125
1760966463.894263,-0.66064453125,-0.03125,0.76806640625,0.91552734375,0.8544921875,-0.3662109375,-1.2030029296875,41.6162109375,-78.343505859375
1760966463.9007125,-0.66064453125,-0.03125,0.76806640625,0.91552734375,0.8544921875,-0.3662109375,-1.2030029296875,41.627197265625,-78.343505859375
1760966463.9068892,-0.6640625,-0.01611328125,0.7548828125,1.77001953125,0.79345703125,-0.30517578125,-1.1920166015625,41.63818359375,-78.343505859375
1760966463.9132385,-0.6640625,-0.01611328125,0.7548828125,1.77001953125,0.79345703125,-0.30517578125,-1.175537109375,41.649169921875,-78.3489990234375
1760966463.919892,-0.69384765625,-0.009765625,0.73046875,1.40380859375,1.15966796875,-0.30517578125,-1.1700439453125,41.66015625,-78.3489990234375
1760966463.9269443,-0.69384765625,-0.009765625,0.73046875,1.40380859375,1.15966796875,-0.30517578125,-1.1590576171875,41.6766357421875,-78.3489990234375
1760966463.9334471,-0.6328125,-0.01220703125,0.70166015625,0.42724609375,0.91552734375,-0.6103515625,-1.16455078125,41.6876220703125,-78.3544921875
1760966463.9407613,-0.6328125,-0.01220703125,0.70166015625,0.42724609375,0.91552734375,-0.6103515625,-1.16455078125,41.6986083984375,-78.3599853515625
1760966463.9471076,-0.66845703125,-0.01513671875,0.8720703125,0.732421875,0.91552734375,-0.6103515625,-1.16455078125,41.7095947265625,-78.365478515625
1760966463.9535062,-0.66845703125,-0.01513671875,0.8720703125,0.732421875,0.91552734375,-0.6103515625,-1.16455078125,41.715087890625,-78.365478515625
1760966463.9598224,-0.63330078125,-0.00830078125,0.71875,-0.8544921875,0.67138671875,-0.54931640625,-1.175537109375,41.7205810546875,-78.3709716796875
1760966463.9667115,-0.650390625,-0.02294921875,0.76904296875,-1.708984375,0.18310546875,-0.732421875,-1.197509765625,41.7205810546875,-78.3709716796875
1760966463.9736512,-0.650390625,-0.02294921875,0.76904296875,-1.708984375,0.18310546875,-0.732421875,-1.219482421875,41.715087890625,-78.37646484375
1760966463.980026,-0.63720703125,-0.02294921875,0.7890625,-1.46484375,0.0,-0.8544921875,-1.241455078125,41.715087890625,-78.3819580078125
1760966463.9862137,-0.63720703125,-0.02294921875,0.7890625,-1.46484375,0.0,-0.8544921875,-1.263427734375,41.7095947265625,-78.387451171875
1760966463.9922805,-0.64111328125,-0.01904296875,0.763671875,-0.732421875,-0.1220703125,-1.03759765625,-1.285400390625,41.6986083984375,-78.3929443359375
1760966463.9986491,-0.64111328125,-0.01904296875,0.763671875,-0.732421875,-0.1220703125,-1.03759765625,-1.3018798828125,41.693115234375,-78.3984375
1760966464.0056672,-0.654296875,-0.00830078125,0.7548828125,-1.3427734375,-0.244140625,-1.15966796875,-1.3238525390625,41.68212890625,-78.409423828125
1760966464.0122828,-0.654296875,-0.00830078125,0.7548828125,-1.3427734375,-0.244140625,-1.15966796875,-1.3458251953125,41.6766357421875,-78.4149169921875
1760966464.018581,-0.66455078125,-0.01611328125,0.77099609375,-3.0517578125,-0.18310546875,-1.15966796875,-1.3787841796875,41.6656494140625,-78.4259033203125
1760966464.0246983,-0.66455078125,-0.01611328125,0.77099609375,-3.0517578125,-0.18310546875,-1.15966796875,-1.417236328125,41.66015625,-78.431396484375
1760966464.0312731,-0.67333984375,-0.02392578125,0.72412109375,-2.5634765625,-0.06103515625,-1.46484375,-1.4556884765625,41.649169921875,-78.4423828125
1760966464.0378137,-0.67333984375,-0.02392578125,0.72412109375,-2.5634765625,-0.06103515625,-1.46484375,-1.494140625,41.6436767578125,-78.453369140625
1760966464.0441964,-0.68310546875,-0.0263671875,0.74462890625,-1.77001953125,-0.06103515625,-1.5869140625,-1.527099609375,41.63818359375,-78.4698486328125
1760966464.0524771,-0.68310546875,-0.0263671875,0.74462890625,-1.77001953125,-0.06103515625,-1.5869140625,-1.56005859375,41.63818359375,-78.4808349609375
1760966464.0586772,-0.69091796875,-0.0283203125,0.72509765625,-0.67138671875,0.0,-1.64794921875,-1.58203125,41.6326904296875,-78.497314453125
1760966464.064996,-0.69091796875,-0.0283203125,0.72509765625,-0.67138671875,0.0,-1.64794921875,-1.60400390625,41.6326904296875,-78.5137939453125
1760966464.0715373,-0.69580078125,-0.0234375,0.71875,0.30517578125,-0.30517578125,-1.64794921875,-1.6204833984375,41.6326904296875,-78.5302734375
1760966464.0793343,-0.69580078125,-0.0234375,0.71875,0.30517578125,-0.30517578125,-1.64794921875,-1.6314697265625,41.6326904296875,-78.5467529296875
1760966464.0857782,-0.712890625,-0.02294921875,0.70166015625,-0.8544921875,-0.18310546875,-1.77001953125,-1.6534423828125,41.6326904296875,-78.563232421875
1760966464.0982962,-0.712890625,-0.02294921875,0.70166015625,-0.8544921875,-0.18310546875,-1.77001953125,-1.6754150390625,41.63818359375,-78.585205078125
1760966464.1044261,-0.70751953125,-0.02099609375,0.7099609375,0.67138671875,-0.06103515625,-1.77001953125,-1.69189453125,41.6436767578125,-78.6016845703125
1760966464.1106892,-0.70751953125,-0.02099609375,0.7099609375,0.67138671875,-0.06103515625,-1.77001953125,-1.702880859375,41.649169921875,-78.6236572265625
1760966464.1192071,-0.70068359375,-0.03466796875,0.73486328125,-0.79345703125,0.3662109375,-1.5869140625,-1.7193603515625,41.66015625,-78.64013671875
1760966464.1312852,-0.70068359375,-0.03466796875,0.73486328125,-0.79345703125,0.3662109375,-1.5869140625,-1.7413330078125,41.671142578125,-78.6566162109375
1760966464.1383498,-0.69873046875,-0.02490234375,0.72216796875,0.3662109375,0.67138671875,-1.46484375,-1.7578125,41.6876220703125,-78.673095703125
1760966464.1508377,-0.69873046875,-0.02490234375,0.72216796875,0.3662109375,0.67138671875,-1.46484375,-1.768798828125,41.7041015625,-78.6895751953125
1760966464.1573815,-0.68603515625,-0.02783203125,0.71142578125,0.42724609375,0.67138671875,-1.46484375,-1.77978515625,41.715087890625,-78.7005615234375
1760966464.1837127,-0.68603515625,-0.02783203125,0.71142578125,0.42724609375,0.67138671875,-1.46484375,-1.7852783203125,41.737060546875,-78.717041015625
1760966464.1899867,-0.6767578125,-0.03515625,0.75146484375,0.18310546875,0.54931640625,-1.3427734375,-1.7962646484375,41.748046875,-78.7335205078125
1760966464.1962593,-0.6767578125,-0.03515625,0.75146484375,0.18310546875,0.54931640625,-1.3427734375,-1.8072509765625,41.7645263671875,-78.75
1760966464.2110624,-0.6650390625,-0.0302734375,0.74853515625,1.89208984375,0.54931640625,-1.46484375,-1.812744140625,41.7755126953125,-78.760986328125
1760966464.226318,-0.6650390625,-0.0302734375,0.74853515625,1.89208984375,0.54931640625,-1.46484375,-1.812744140625,41.7919921875,-78.7774658203125
1760966464.2327957,-0.66259765625,-0.02783203125,0.7626953125,1.89208984375,0.48828125,-1.52587890625,-1.8072509765625,41.802978515625,-78.7994384765625
1760966464.2390027,-0.66259765625,-0.02783203125,0.7626953125,1.89208984375,0.48828125,-1.52587890625,-1.8017578125,41.81396484375,-78.81591796875
1760966464.2581308,-0.6650390625,-0.02685546875,0.755859375,3.0517578125,0.6103515625,-1.5869140625,-1.7962646484375,41.8194580078125,-78.8323974609375
1760966464.2647738,-0.6650390625,-0.02685546875,0.755859375,3.0517578125,0.6103515625,-1.5869140625,-1.77978515625,41.8304443359375,-78.848876953125
1760966464.2711632,-0.66162109375,-0.0322265625,0.7529296875,3.2958984375,0.54931640625,-1.708984375,-1.768798828125,41.8359375,-78.8653564453125
1760966464.2772684,-0.66162109375,-0.0322265625,0.7529296875,3.2958984375,0.54931640625,-1.708984375,-1.7523193359375,41.846923828125,-78.8873291015625
1760966464.2935147,-0.6640625,-0.025390625,0.75537109375,4.0283203125,0.79345703125,-1.77001953125,-1.7303466796875,41.8524169921875,-78.9093017578125
1760966464.3001213,-0.6640625,-0.025390625,0.75537109375,4.0283203125,0.79345703125,-1.77001953125,-1.7083740234375,41.8634033203125,-78.92578125
1760966464.306739,-0.6650390625,-0.02001953125,0.748046875,4.7607421875,0.91552734375,-2.0751953125,-1.6864013671875,41.868896484375,-78.9532470703125
1760966464.3182056,-0.6650390625,-0.02001953125,0.748046875,4.7607421875,0.91552734375,-2.0751953125,-1.658935546875,41.8798828125,-78.9752197265625
1760966464.3256996,-0.66015625,-0.01953125,0.7724609375,2.62451171875,0.67138671875,-1.89208984375,-1.6424560546875,41.8853759765625,-78.9971923828125
1760966464.3434656,-0.66015625,-0.01953125,0.7724609375,2.62451171875,0.67138671875,-1.89208984375,-1.636962890625,41.890869140625,-79.0191650390625
1760966464.349686,-0.6611328125,-0.01904296875,0.76318359375,2.44140625,0.6103515625,-2.0751953125,-1.6314697265625,41.8963623046875,-79.0411376953125
1760966464.3687673,-0.6611328125,-0.01904296875,0.76318359375,2.44140625,0.6103515625,-2.0751953125,-1.6259765625,41.8963623046875,-79.0631103515625
1760966464.3754177,-0.658203125,-0.025390625,0.72216796875,4.33349609375,0.06103515625,-2.38037109375,-1.614990234375,41.8963623046875,-79.0850830078125
1760966464.3820987,-0.658203125,-0.025390625,0.72216796875,4.33349609375,0.06103515625,-2.38037109375,-1.593017578125,41.8963623046875,-79.112548828125
1760966464.3905609,-0.66552734375,-0.03271484375,0.76171875,5.7373046875,-0.18310546875,-2.50244140625,-1.5655517578125,41.8963623046875,-79.1400146484375
1760966464.4017615,-0.66552734375,-0.03271484375,0.76171875,5.7373046875,-0.18310546875,-2.50244140625,-1.5325927734375,41.890869140625,-79.16748046875
1760966464.4151366,-0.6611328125,-0.01025390625,0.75537109375,7.62939453125,-0.3662109375,-2.685546875,-1.494140625,41.8853759765625,-79.1949462890625
1760966464.4216018,-0.6611328125,-0.01025390625,0.75537109375,7.62939453125,-0.3662109375,-2.685546875,-1.4447021484375,41.8798828125,-79.2279052734375
1760966464.4348793,-0.6640625,-0.0146484375,0.748046875,7.87353515625,-0.54931640625,-2.86865234375,-1.3897705078125,41.868896484375,-79.2608642578125
1760966464.4515724,-0.6640625,-0.0146484375,0.748046875,7.87353515625,-0.54931640625,-2.86865234375,-1.34033203125,41.8634033203125,-79.2938232421875
1760966464.4580038,-0.681640625,-0.0283203125,0.7568359375,7.4462890625,-0.244140625,-2.9296875,-1.2908935546875,41.85791015625,-79.3267822265625
1760966464.4707394,-0.681640625,-0.0283203125,0.7568359375,7.4462890625,-0.244140625,-2.9296875,-1.2469482421875,41.8524169921875,-79.3597412109375
1760966464.4891906,-0.6748046875,-0.02880859375,0.7255859375,8.48388671875,0.0,-2.74658203125,-1.197509765625,41.846923828125,-79.3927001953125
1760966464.4966052,-0.6748046875,-0.02880859375,0.7255859375,8.48388671875,0.0,-2.74658203125,-1.1370849609375,41.846923828125,-79.4256591796875
1760966464.5086982,-0.67822265625,-0.02490234375,0.76171875,8.23974609375,0.18310546875,-2.44140625,-1.0821533203125,41.846923828125,-79.453125
1760966464.5192993,-0.67822265625,-0.02490234375,0.76171875,8.23974609375,0.18310546875,-2.44140625,-1.0272216796875,41.846923828125,-79.486083984375
1760966464.5374274,-0.68212890625,-0.0009765625,0.73046875,6.591796875,0.3662109375,-1.953125,-0.977783203125,41.8524169921875,-79.5135498046875
1760966464.544746,-0.68212890625,-0.0009765625,0.73046875,6.591796875,0.3662109375,-1.953125,-0.933837890625,41.8524169921875,-79.5355224609375
1760966464.563753,-0.6826171875,0.0,0.71826171875,4.0283203125,0.42724609375,-1.5869140625,-0.90087890625,41.85791015625,-79.552001953125
1760966464.5775309,-0.6826171875,0.0,0.71826171875,4.0283203125,0.42724609375,-1.5869140625,-0.8734130859375,41.8634033203125,-79.5684814453125
1760966464.584919,-0.68115234375,-0.02197265625,0.74560546875,1.5869140625,0.18310546875,-1.46484375,-0.8624267578125,41.868896484375,-79.5849609375
1760966464.597021,-0.68115234375,-0.02197265625,0.74560546875,1.5869140625,0.18310546875,-1.46484375,-0.8624267578125,41.8743896484375,-79.6014404296875
1760966464.6037354,-0.6845703125,-0.02099609375,0.7431640625,1.8310546875,0.1220703125,-1.28173828125,-0.8624267578125,41.8798828125,-79.617919921875
1760966464.623068,-0.6845703125,-0.02099609375,0.7431640625,1.8310546875,0.1220703125,-1.28173828125,-0.85693359375,41.8798828125,-79.62890625
1760966464.6301112,-0.68603515625,-0.02197265625,0.7236328125,1.0986328125,0.06103515625,-0.9765625,-0.85693359375,41.8853759765625,-79.639892578125
1760966464.6380086,-0.68603515625,-0.02197265625,0.7236328125,1.0986328125,0.06103515625,-0.9765625,-0.85693359375,41.890869140625,-79.65087890625
1760966464.6491148,-0.7041015625,-0.01513671875,0.72412109375,0.9765625,0.244140625,-0.91552734375,-0.85693359375,41.8963623046875,-79.661865234375
1760966464.6696968,-0.7041015625,-0.01513671875,0.72412109375,0.9765625,0.244140625,-0.91552734375,-0.8624267578125,41.90185546875,-79.6728515625
1760966464.676211,-0.693359375,-0.01025390625,0.69580078125,0.48828125,0.42724609375,-0.732421875,-0.8624267578125,41.912841796875,-79.6783447265625
1760966464.6897643,-0.693359375,-0.01025390625,0.69580078125,0.48828125,0.42724609375,-0.732421875,-0.867919921875,41.923828125,-79.6893310546875
1760966464.714456,-0.681640625,-0.01220703125,0.755859375,1.64794921875,0.244140625,-0.732421875,-0.867919921875,41.934814453125,-79.69482421875
1760966464.7205884,-0.681640625,-0.01220703125,0.755859375,1.64794921875,0.244140625,-0.732421875,-0.8624267578125,41.94580078125,-79.7003173828125
1760966464.7308753,-0.673828125,-0.00390625,0.74755859375,1.03759765625,0.30517578125,-0.67138671875,-0.85693359375,41.9512939453125,-79.705810546875
1760966464.7378,-0.673828125,-0.00390625,0.74755859375,1.03759765625,0.30517578125,-0.67138671875,-0.8514404296875,41.9622802734375,-79.7113037109375
1760966464.7502644,-0.66552734375,-0.01416015625,0.7470703125,0.1220703125,0.0,-0.48828125,-0.8514404296875,41.9677734375,-79.716796875
1760966464.760045,-0.66552734375,-0.01416015625,0.7470703125,0.1220703125,0.0,-0.48828125,-0.85693359375,41.9732666015625,-79.7222900390625
1760966464.7709537,-0.65625,-0.0205078125,0.7509765625,-0.3662109375,-0.06103515625,-0.48828125,-0.8624267578125,41.978759765625,-79.7222900390625
1760966464.7770884,-0.65625,-0.0205078125,0.7509765625,-0.3662109375,-0.06103515625,-0.48828125,-0.8734130859375,41.978759765625,-79.727783203125
1760966464.791149,-0.65478515625,-0.0224609375,0.7587890625,-0.1220703125,-0.30517578125,-0.48828125,-0.8843994140625,41.978759765625,-79.727783203125
1760966464.8040113,-0.65478515625,-0.0224609375,0.7587890625,-0.1220703125,-0.30517578125,-0.48828125,-0.889892578125,41.978759765625,-79.7332763671875
1760966464.8103044,-0.66015625,-0.01220703125,0.75634765625,1.77001953125,-0.48828125,-0.54931640625,-0.889892578125,41.9732666015625,-79.7332763671875
1760966464.825276,-0.66015625,-0.01220703125,0.75634765625,1.77001953125,-0.48828125,-0.54931640625,-0.87890625,41.9677734375,-79.73876953125
1760966464.8314288,-0.66357421875,-0.01611328125,0.75439453125,3.2958984375,-0.79345703125,-0.48828125,-0.85693359375,41.9622802734375,-79.73876953125
1760966464.8395228,-0.66357421875,-0.01611328125,0.75439453125,3.2958984375,-0.79345703125,-0.48828125,-0.8349609375,41.9512939453125,-79.7442626953125
1760966464.8462782,-0.66455078125,-0.02294921875,0.74755859375,3.41796875,-1.220703125,-0.6103515625,-0.8074951171875,41.9403076171875,-79.7442626953125
1760966464.8582184,-0.66455078125,-0.02294921875,0.74755859375,3.41796875,-1.220703125,-0.6103515625,-0.780029296875,41.9293212890625,-79.749755859375
1760966464.8648472,-0.67333984375,-0.009765625,0.72900390625,4.7607421875,-1.64794921875,-0.91552734375,-0.7470703125,41.912841796875,-79.7552490234375
1760966464.8777666,-0.67333984375,-0.009765625,0.72900390625,4.7607421875,-1.64794921875,-0.91552734375,-0.714111328125,41.8963623046875,-79.7662353515625
1760966464.898947,-0.67431640625,-0.0078125,0.75146484375,5.4931640625,-1.953125,-1.40380859375,-0.6756591796875,41.8798828125,-79.7772216796875
1760966464.9156506,-0.67431640625,-0.0078125,0.75146484375,5.4931640625,-1.953125,-1.40380859375,-0.63720703125,41.85791015625,-79.793701171875
1760966464.9222777,-0.662109375,0.00341796875,0.75439453125,4.94384765625,-2.01416015625,-1.64794921875,-0.5987548828125,41.8359375,-79.8046875
1760966464.95512,-0.662109375,0.00341796875,0.75439453125,4.94384765625,-2.01416015625,-1.64794921875,-0.5657958984375,41.8194580078125,-79.82666015625
1760966464.9743757,-0.66845703125,-0.001953125,0.74755859375,3.90625,-2.0751953125,-1.953125,-0.538330078125,41.7974853515625,-79.8431396484375
1760966464.981242,-0.66845703125,-0.001953125,0.74755859375,3.90625,-2.0751953125,-1.953125,-0.5218505859375,41.7755126953125,-79.8651123046875
1760966464.9981823,-0.6484375,-0.01171875,0.7451171875,6.65283203125,-2.50244140625,-2.3193359375,-0.4888916015625,41.7535400390625,-79.8870849609375
1760966465.0096166,-0.6484375,-0.01171875,0.7451171875,6.65283203125,-2.50244140625,-2.3193359375,-0.4449462890625,41.72607421875,-79.9090576171875
1760966465.0163379,-0.64501953125,-0.00732421875,0.79833984375,7.99560546875,-3.35693359375,-2.38037109375,-0.3900146484375,41.6986083984375,-79.9365234375
1760966465.0360963,-0.64501953125,-0.00732421875,0.79833984375,7.99560546875,-3.35693359375,-2.38037109375,-0.3350830078125,41.66015625,-79.9639892578125
1760966465.0436926,-0.63037109375,0.01123046875,0.7939453125,2.44140625,-3.90625,-2.01416015625,-0.32958984375,41.6217041015625,-79.98046875
1760966465.0644538,-0.63037109375,0.01123046875,0.7939453125,2.44140625,-3.90625,-2.01416015625,-0.3240966796875,41.5777587890625,-80.00244140625
1760966465.0880482,-0.65576171875,0.005859375,0.78271484375,-0.1220703125,-4.21142578125,-1.220703125,-0.3350830078125,41.5283203125,-80.0079345703125
1760966465.1143765,-0.65576171875,0.005859375,0.78271484375,-0.1220703125,-4.21142578125,-1.220703125,-0.3460693359375,41.4788818359375,-80.0189208984375
1760966465.1276662,-0.6748046875,-0.01904296875,0.689453125,-5.67626953125,-3.41796875,-0.67138671875,-0.406494140625,41.4459228515625,-80.0189208984375
1760966465.1350107,-0.6748046875,-0.01904296875,0.689453125,-5.67626953125,-3.41796875,-0.67138671875,-0.472412109375,41.407470703125,-80.0189208984375
1760966465.1558452,-0.693359375,-0.0341796875,0.73828125,-1.40380859375,-3.23486328125,-0.18310546875,-0.4888916015625,41.37451171875,-80.0189208984375
1760966465.162327,-0.693359375,-0.0341796875,0.73828125,-1.40380859375,-3.23486328125,-0.18310546875,-0.50537109375,41.3470458984375,-80.013427734375
1760966465.1703005,-0.685546875,-0.0419921875,0.740234375,2.25830078125,-2.99072265625,0.0,-0.4833984375,41.319580078125,-80.013427734375
1760966465.1780677,-0.685546875,-0.0419921875,0.740234375,2.25830078125,-2.99072265625,0.0,-0.4669189453125,41.2921142578125,-80.013427734375
1760966465.185379,-0.708984375,-0.00341796875,0.732421875,0.42724609375,-2.62451171875,0.3662109375,-0.4669189453125,41.2701416015625,-80.0079345703125
1760966465.2016277,-0.708984375,-0.00341796875,0.732421875,0.42724609375,-2.62451171875,0.3662109375,-0.46142578125,41.2481689453125,-80.00244140625
1760966465.209703,-0.73876953125,0.01416015625,0.67236328125,1.15966796875,-2.13623046875,0.244140625,-0.450439453125,41.2371826171875,-79.9969482421875
1760966465.2172456,-0.73876953125,0.01416015625,0.67236328125,1.15966796875,-2.13623046875,0.244140625,-0.439453125,41.2261962890625,-79.991455078125
1760966465.2245827,-0.74560546875,-0.01025390625,0.67919921875,0.0,-1.5869140625,0.48828125,-0.4339599609375,41.2261962890625,-79.98046875
1760966465.233488,-0.74560546875,-0.01025390625,0.67919921875,0.0,-1.5869140625,0.48828125,-0.4339599609375,41.2261962890625,-79.9749755859375
1760966465.241629,-0.73046875,-0.01025390625,0.708984375,0.18310546875,-0.67138671875,0.244140625,-0.4339599609375,41.2371826171875,-79.969482421875
1760966465.248868,-0.73046875,-0.01025390625,0.708984375,0.18310546875,-0.67138671875,0.244140625,-0.428466796875,41.2481689453125,-79.9639892578125
1760966465.25652,-0.7197265625,-0.00634765625,0.7216796875,1.0986328125,0.1220703125,0.06103515625,-0.41748046875,41.2701416015625,-79.9639892578125
1760966465.2653759,-0.7197265625,-0.00634765625,0.7216796875,1.0986328125,0.1220703125,0.06103515625,-0.4119873046875,41.28662109375,-79.95849609375
1760966465.2725103,-0.70263671875,0.0,0.70654296875,2.62451171875,0.42724609375,-0.244140625,-0.3900146484375,41.3140869140625,-79.9639892578125
1760966465.2800815,-0.70263671875,0.0,0.70654296875,2.62451171875,0.42724609375,-0.244140625,-0.362548828125,41.3360595703125,-79.9639892578125
1760966465.2875957,-0.70068359375,-0.00146484375,0.72900390625,3.72314453125,0.6103515625,-0.54931640625,-0.3350830078125,41.363525390625,-79.969482421875
1760966465.2951007,-0.70068359375,-0.00146484375,0.72900390625,3.72314453125,0.6103515625,-0.54931640625,-0.3021240234375,41.385498046875,-79.9749755859375
1760966465.3020546,-0.69091796875,0.0009765625,0.72900390625,2.13623046875,0.79345703125,-0.6103515625,-0.28564453125,41.4129638671875,-79.98046875
1760966465.3086648,-0.69091796875,0.0009765625,0.72900390625,2.13623046875,0.79345703125,-0.6103515625,-0.274658203125,41.4349365234375,-79.9859619140625
1760966465.3152595,-0.6748046875,-0.0009765625,0.74560546875,1.15966796875,0.67138671875,-0.67138671875,-0.2691650390625,41.4569091796875,-79.991455078125
1760966465.3220713,-0.6748046875,-0.0009765625,0.74560546875,1.15966796875,0.67138671875,-0.67138671875,-0.263671875,41.4788818359375,-79.9969482421875
1760966465.3286662,-0.67041015625,-0.009765625,0.74365234375,2.0751953125,0.54931640625,-0.9765625,-0.252685546875,41.5008544921875,-80.00244140625
1760966465.3368626,-0.67041015625,-0.009765625,0.74365234375,2.0751953125,0.54931640625,-0.9765625,-0.24169921875,41.517333984375,-80.013427734375
1760966465.3492618,-0.666015625,0.0,0.73974609375,2.0751953125,0.18310546875,-0.91552734375,-0.230712890625,41.5283203125,-80.0244140625
1760966465.358768,-0.666015625,0.0,0.73974609375,2.0751953125,0.18310546875,-0.91552734375,-0.2142333984375,41.5447998046875,-80.035400390625
1760966465.3662927,-0.671875,-0.0087890625,0.7666015625,0.48828125,0.0,-0.42724609375,-0.2142333984375,41.55029296875,-80.035400390625
1760966465.3747716,-0.671875,-0.0087890625,0.7666015625,0.48828125,0.0,-0.42724609375,-0.2142333984375,41.561279296875,-80.035400390625
1760966465.381755,-0.6640625,-0.01513671875,0.7333984375,-0.06103515625,-0.42724609375,0.06103515625,-0.2197265625,41.561279296875,-80.035400390625
1760966465.3890069,-0.6640625,-0.01513671875,0.7333984375,-0.06103515625,-0.42724609375,0.06103515625,-0.2197265625,41.5667724609375,-80.0299072265625
1760966465.3974073,-0.6591796875,-0.00634765625,0.74658203125,1.52587890625,-1.40380859375,0.3662109375,-0.2032470703125,41.561279296875,-80.0244140625
1760966465.4059815,-0.6591796875,-0.00634765625,0.74658203125,1.52587890625,-1.40380859375,0.3662109375,-0.186767578125,41.55029296875,-80.013427734375
1760966465.4131768,-0.6611328125,0.005859375,0.75341796875,1.220703125,-2.44140625,0.79345703125,-0.1702880859375,41.5338134765625,-80.00244140625
1760966465.4265497,-0.6611328125,0.005859375,0.75341796875,1.220703125,-2.44140625,0.79345703125,-0.1483154296875,41.5118408203125,-79.9859619140625
1760966465.4338422,-0.67333984375,-0.00830078125,0.73681640625,-2.0751953125,-2.74658203125,1.5869140625,-0.1593017578125,41.4898681640625,-79.95849609375
1760966465.4417634,-0.67333984375,-0.00830078125,0.73681640625,-2.0751953125,-2.74658203125,1.5869140625,-0.164794921875,41.4678955078125,-79.9365234375
1760966465.4523816,-0.66796875,-0.02099609375,0.74755859375,-2.25830078125,-2.8076171875,2.25830078125,-0.1702880859375,41.4459228515625,-79.903564453125
1760966465.4598422,-0.66796875,-0.02099609375,0.74755859375,-2.25830078125,-2.8076171875,2.25830078125,-0.17578125,41.41845703125,-79.87060546875
1760966465.4716635,-0.66943359375,-0.01220703125,0.76123046875,-0.79345703125,-2.50244140625,2.25830078125,-0.164794921875,41.4019775390625,-79.837646484375
1760966465.47817,-0.66943359375,-0.01220703125,0.76123046875,-0.79345703125,-2.50244140625,2.25830078125,-0.1593017578125,41.3800048828125,-79.8101806640625
1760966465.484428,-0.65673828125,0.0,0.75244140625,0.1220703125,-2.62451171875,2.13623046875,-0.142822265625,41.3580322265625,-79.7772216796875
1760966465.491185,-0.65673828125,0.0,0.75244140625,0.1220703125,-2.62451171875,2.13623046875,-0.1263427734375,41.33056640625,-79.749755859375
1760966465.4977896,-0.64697265625,0.00537109375,0.767578125,-0.54931640625,-3.11279296875,1.953125,-0.1153564453125,41.3031005859375,-79.7222900390625
1760966465.506115,-0.64697265625,0.00537109375,0.767578125,-0.54931640625,-3.11279296875,1.953125,-0.1043701171875,41.275634765625,-79.69482421875
1760966465.5149257,-0.6396484375,0.0048828125,0.77099609375,-1.5869140625,-3.662109375,1.64794921875,-0.1043701171875,41.2371826171875,-79.6673583984375
1760966465.5215178,-0.6396484375,0.0048828125,0.77099609375,-1.5869140625,-3.662109375,1.64794921875,-0.10986328125,41.2042236328125,-79.639892578125
1760966465.529508,-0.64453125,0.00732421875,0.7666015625,-1.8310546875,-4.150390625,1.220703125,-0.1153564453125,41.1602783203125,-79.6234130859375
1760966465.5406153,-0.64453125,0.00732421875,0.7666015625,-1.8310546875,-4.150390625,1.220703125,-0.1263427734375,41.121826171875,-79.6014404296875
1760966465.557275,-0.64404296875,0.00537109375,0.76171875,-1.77001953125,-4.45556640625,0.67138671875,-0.1373291015625,41.0723876953125,-79.5849609375
1760966465.5643504,-0.64404296875,0.00537109375,0.76171875,-1.77001953125,-4.45556640625,0.67138671875,-0.1483154296875,41.0284423828125,-79.5684814453125
1760966465.5720503,-0.6396484375,-0.0078125,0.78857421875,-1.15966796875,-4.39453125,0.244140625,-0.15380859375,40.9844970703125,-79.56298828125
1760966465.5792227,-0.6396484375,-0.0078125,0.78857421875,-1.15966796875,-4.39453125,0.244140625,-0.164794921875,40.93505859375,-79.552001953125
1760966465.5873923,-0.619140625,0.0,0.80078125,-0.244140625,-4.33349609375,-0.06103515625,-0.164794921875,40.89111328125,-79.5465087890625
1760966465.6073537,-0.619140625,0.0,0.80078125,-0.244140625,-4.33349609375,-0.06103515625,-0.1702880859375,40.8416748046875,-79.5465087890625
1760966465.6136918,-0.62060546875,0.009765625,0.787109375,-0.9765625,-4.45556640625,-0.54931640625,-0.1812744140625,40.792236328125,-79.5465087890625
1760966465.6206121,-0.62060546875,0.009765625,0.787109375,-0.9765625,-4.45556640625,-0.54931640625,-0.1922607421875,40.7373046875,-79.5465087890625
1760966465.6275046,-0.61962890625,0.00927734375,0.779296875,-1.220703125,-4.82177734375,-1.220703125,-0.2142333984375,40.682373046875,-79.552001953125
1760966465.6413646,-0.61962890625,0.00927734375,0.779296875,-1.220703125,-4.82177734375,-1.220703125,-0.2362060546875,40.62744140625,-79.56298828125
1760966465.6479495,-0.61767578125,0.0029296875,0.787109375,-2.197265625,-5.126953125,-1.52587890625,-0.2691650390625,40.572509765625,-79.573974609375
1760966465.6543763,-0.61767578125,0.0029296875,0.787109375,-2.197265625,-5.126953125,-1.52587890625,-0.296630859375,40.5120849609375,-79.5849609375
1760966465.6606083,-0.625,0.00439453125,0.78564453125,-4.08935546875,-5.79833984375,-1.46484375,-0.3515625,40.4461669921875,-79.5904541015625
1760966465.667584,-0.625,0.00439453125,0.78564453125,-4.08935546875,-5.79833984375,-1.46484375,-0.4010009765625,40.3802490234375,-79.6014404296875
1760966465.6812363,-0.646484375,-0.0185546875,0.75927734375,-5.31005859375,-6.65283203125,-0.67138671875,-0.4559326171875,40.308837890625,-79.6014404296875
1760966465.6881044,-0.646484375,-0.0185546875,0.75927734375,-5.31005859375,-6.65283203125,-0.67138671875,-0.5108642578125,40.23193359375,-79.6014404296875
1760966465.6955075,-0.630859375,-0.01171875,0.73193359375,-3.35693359375,-7.62939453125,-0.244140625,-0.5438232421875,40.155029296875,-79.595947265625
1760966465.703034,-0.630859375,-0.01171875,0.73193359375,-3.35693359375,-7.62939453125,-0.244140625,-0.5767822265625,40.0726318359375,-79.5904541015625
1760966465.7101402,-0.61865234375,-0.01416015625,0.80859375,-2.9296875,-8.1787109375,0.54931640625,-0.5987548828125,39.990234375,-79.5794677734375
1760966465.718045,-0.61865234375,-0.01416015625,0.80859375,-2.9296875,-8.1787109375,0.54931640625,-0.6207275390625,39.90234375,-79.56298828125
1760966465.7367847,-0.63720703125,-0.025390625,0.80029296875,-5.615234375,-7.87353515625,1.52587890625,-0.6591796875,39.8199462890625,-79.5355224609375
1760966465.7440543,-0.63720703125,-0.025390625,0.80029296875,-5.615234375,-7.87353515625,1.52587890625,-0.703125,39.737548828125,-79.508056640625
1760966465.751471,-0.63818359375,-0.02587890625,0.75439453125,-4.2724609375,-7.8125,2.13623046875,-0.72509765625,39.6551513671875,-79.47509765625
1760966465.7584734,-0.63818359375,-0.02587890625,0.75439453125,-4.2724609375,-7.8125,2.13623046875,-0.7525634765625,39.57275390625,-79.442138671875
1760966465.7650263,-0.65087890625,-0.01806640625,0.77978515625,-5.37109375,-7.6904296875,2.3193359375,-0.7855224609375,39.495849609375,-79.4091796875
1760966465.7803414,-0.65087890625,-0.01806640625,0.77978515625,-5.37109375,-7.6904296875,2.3193359375,-0.8184814453125,39.4189453125,-79.376220703125
1760966465.7881057,-0.66455078125,-0.00830078125,0.74169921875,-4.45556640625,-7.26318359375,1.953125,-0.8514404296875,39.3475341796875,-79.3487548828125
1760966465.8012285,-0.66455078125,-0.00830078125,0.74169921875,-4.45556640625,-7.26318359375,1.953125,-0.87890625,39.2816162109375,-79.3157958984375
1760966465.809693,-0.68701171875,-0.0029296875,0.75732421875,-3.662109375,-6.89697265625,1.5869140625,-0.90087890625,39.2156982421875,-79.2938232421875
1760966465.8157816,-0.68701171875,-0.0029296875,0.75732421875,-3.662109375,-6.89697265625,1.5869140625,-0.9228515625,39.1552734375,-79.266357421875
1760966465.8220448,-0.70068359375,-0.00390625,0.75,-5.615234375,-5.67626953125,1.3427734375,-0.966796875,39.1058349609375,-79.244384765625
1760966465.8359795,-0.70068359375,-0.00390625,0.75,-5.615234375,-5.67626953125,1.3427734375,-1.0052490234375,39.056396484375,-79.222412109375
1760966465.842572,-0.7060546875,-0.01953125,0.70068359375,-6.4697265625,-4.82177734375,1.52587890625,-1.0601806640625,39.0234375,-79.200439453125
1760966465.849302,-0.7060546875,-0.01953125,0.70068359375,-6.4697265625,-4.82177734375,1.52587890625,-1.109619140625,38.990478515625,-79.1729736328125
1760966465.8555434,-0.70068359375,-0.0146484375,0.716796875,-4.45556640625,-4.57763671875,0.9765625,-1.142578125,38.9630126953125,-79.156494140625
1760966465.8628507,-0.70068359375,-0.0146484375,0.716796875,-4.45556640625,-4.57763671875,0.9765625,-1.175537109375,38.935546875,-79.1400146484375
1760966465.878819,-0.6806640625,0.00537109375,0.73486328125,-2.5634765625,-4.5166015625,0.1220703125,-1.197509765625,38.9080810546875,-79.134521484375
1760966465.8865268,-0.6806640625,0.00537109375,0.73486328125,-2.5634765625,-4.5166015625,0.1220703125,-1.219482421875,38.8861083984375,-79.1290283203125
1760966465.895575,-0.689453125,0.0029296875,0.76220703125,-5.55419921875,-3.90625,0.6103515625,-1.263427734375,38.8641357421875,-79.112548828125
1760966465.902154,-0.689453125,0.0029296875,0.76220703125,-5.55419921875,-3.90625,0.6103515625,-1.3128662109375,38.84765625,-79.1015625
1760966465.9179046,-0.666015625,-0.05908203125,0.73828125,-7.8125,-3.23486328125,1.953125,-1.3677978515625,38.836669921875,-79.068603515625
1760966465.9255292,-0.666015625,-0.05908203125,0.73828125,-7.8125,-3.23486328125,1.953125,-1.42822265625,38.82568359375,-79.0411376953125
1760966465.932395,-0.62939453125,-0.0888671875,0.76611328125,-0.3662109375,-2.9296875,2.5634765625,-1.4117431640625,38.814697265625,-79.013671875
1760966465.9408894,-0.62939453125,-0.0888671875,0.76611328125,-0.3662109375,-2.9296875,2.5634765625,-1.4007568359375,38.8037109375,-78.980712890625
1760966465.9476461,-0.61474609375,-0.0302734375,0.81591796875,1.28173828125,-2.62451171875,3.47900390625,-1.3623046875,38.792724609375,-78.9422607421875
1760966465.9557273,-0.61474609375,-0.0302734375,0.81591796875,1.28173828125,-2.62451171875,3.47900390625,-1.329345703125,38.78173828125,-78.90380859375
1760966465.9709127,-0.60400390625,-0.00341796875,0.79541015625,0.8544921875,-2.50244140625,3.84521484375,-1.2908935546875,38.7652587890625,-78.8543701171875
1760966465.9782765,-0.60107421875,-0.015625,0.79443359375,-1.953125,-2.62451171875,3.96728515625,-1.2689208984375,38.748779296875,-78.8104248046875
1760966465.9855328,-0.60107421875,-0.015625,0.79443359375,-1.953125,-2.62451171875,3.96728515625,-1.263427734375,38.7322998046875,-78.760986328125
1760966465.9917805,-0.6044921875,-0.0263671875,0.8076171875,-2.5634765625,-2.50244140625,4.0283203125,-1.25244140625,38.7103271484375,-78.7115478515625
1760966465.9980044,-0.6044921875,-0.0263671875,0.8076171875,-2.5634765625,-2.50244140625,4.0283203125,-1.25244140625,38.69384765625,-78.6566162109375
1760966466.0053253,-0.58740234375,-0.0224609375,0.818359375,-1.220703125,-3.23486328125,3.7841796875,-1.241455078125,38.6663818359375,-78.607177734375
1760966466.0200663,-0.58740234375,-0.0224609375,0.818359375,-1.220703125,-3.23486328125,3.7841796875,-1.2249755859375,38.6334228515625,-78.563232421875
1760966466.0281677,-0.59765625,-0.00048828125,0.81103515625,-2.13623046875,-3.84521484375,3.60107421875,-1.2139892578125,38.6004638671875,-78.5137939453125
1760966466.0358307,-0.59765625,-0.00048828125,0.81103515625,-2.13623046875,-3.84521484375,3.60107421875,-1.20849609375,38.56201171875,-78.46435546875
1760966466.0424638,-0.59765625,-0.00048828125,0.81103515625,-4.45556640625,-4.33349609375,3.5400390625,-1.2139892578125,38.51806640625,-78.42041015625
1760966466.0495288,-0.61181640625,0.009765625,0.79248046875,-4.45556640625,-4.33349609375,3.5400390625,-1.23046875,38.47412109375,-78.3709716796875
1760966466.069114,-0.6337890625,-0.00634765625,0.7900390625,-7.32421875,-4.39453125,3.35693359375,-1.2579345703125,38.43017578125,-78.321533203125
1760966466.0770073,-0.6337890625,-0.00634765625,0.7900390625,-7.32421875,-4.39453125,3.35693359375,-1.3018798828125,38.3807373046875,-78.2720947265625
1760966466.0837805,-0.6435546875,-0.02783203125,0.7734375,-6.2255859375,-4.150390625,3.41796875,-1.34033203125,38.34228515625,-78.22265625
1760966466.0920346,-0.6435546875,-0.02783203125,0.7734375,-6.2255859375,-4.150390625,3.41796875,-1.373291015625,38.29833984375,-78.1732177734375
1760966466.1065784,-0.673828125,-0.04150390625,0.75634765625,-3.84521484375,-3.72314453125,3.84521484375,-1.395263671875,38.265380859375,-78.123779296875
1760966466.1143522,-0.673828125,-0.04150390625,0.75634765625,-3.84521484375,-3.72314453125,3.84521484375,-1.4007568359375,38.232421875,-78.0743408203125
1760966466.1213648,-0.673828125,-0.04052734375,0.72998046875,-2.685546875,-3.7841796875,4.0283203125,-1.4007568359375,38.199462890625,-78.0194091796875
1760966466.1285994,-0.673828125,-0.04052734375,0.72998046875,-2.685546875,-3.7841796875,4.0283203125,-1.4007568359375,38.1719970703125,-77.969970703125
1760966466.1354482,-0.69287109375,-0.02734375,0.7421875,-1.708984375,-3.41796875,4.08935546875,-1.3897705078125,38.14453125,-77.9205322265625
1760966466.1497035,-0.69287109375,-0.02734375,0.7421875,-1.708984375,-3.41796875,4.08935546875,-1.3787841796875,38.12255859375,-77.87109375
1760966466.1565888,-0.6728515625,-0.01123046875,0.7314453125,-0.06103515625,-3.41796875,3.662109375,-1.3568115234375,38.1060791015625,-77.8216552734375
1760966466.163233,-0.6728515625,-0.01123046875,0.7314453125,-0.06103515625,-3.41796875,3.662109375,-1.329345703125,38.0841064453125,-77.7777099609375
1760966466.1698034,-0.658203125,-0.00732421875,0.77294921875,0.67138671875,-3.173828125,3.173828125,-1.3018798828125,38.067626953125,-77.7392578125
1760966466.1775603,-0.658203125,-0.00732421875,0.77294921875,0.67138671875,-3.173828125,3.173828125,-1.2744140625,38.056640625,-77.7008056640625
1760966466.1846437,-0.6435546875,-0.01123046875,0.77783203125,0.79345703125,-2.50244140625,2.99072265625,-1.241455078125,38.045654296875,-77.662353515625
1760966466.2009552,-0.6435546875,-0.01123046875,0.77783203125,0.79345703125,-2.50244140625,2.99072265625,-1.20849609375,38.03466796875,-77.6239013671875
1760966466.209513,-0.62353515625,-0.0166015625,0.78662109375,-0.244140625,-2.01416015625,3.0517578125,-1.1865234375,38.0291748046875,-77.5909423828125
1760966466.2181678,-0.62353515625,-0.0166015625,0.78662109375,-0.244140625,-2.01416015625,3.0517578125,-1.16455078125,38.0181884765625,-77.552490234375
1760966466.2252598,-0.611328125,-0.01904296875,0.80810546875,-0.8544921875,-1.52587890625,3.11279296875,-1.1480712890625,38.0126953125,-77.5140380859375
1760966466.2329586,-0.611328125,-0.01904296875,0.80810546875,-0.8544921875,-1.52587890625,3.11279296875,-1.131591796875,38.0126953125,-77.4755859375
1760966466.2397118,-0.61279296875,-0.0234375,0.80029296875,-1.40380859375,-1.0986328125,3.35693359375,-1.1151123046875,38.0072021484375,-77.4371337890625
1760966466.2479017,-0.61279296875,-0.0234375,0.80029296875,-1.40380859375,-1.0986328125,3.35693359375,-1.1041259765625,38.0072021484375,-77.3931884765625
1760966466.263907,-0.61669921875,-0.0185546875,0.77880859375,-2.62451171875,-0.91552734375,3.41796875,-1.1041259765625,38.001708984375,-77.354736328125
1760966466.2713377,-0.61669921875,-0.0185546875,0.77880859375,-2.62451171875,-0.91552734375,3.41796875,-1.1041259765625,38.001708984375,-77.310791015625
1760966466.2777317,-0.62060546875,-0.01708984375,0.78564453125,-2.197265625,-1.03759765625,3.173828125,-1.1041259765625,37.9962158203125,-77.2723388671875
1760966466.285057,-0.62060546875,-0.01708984375,0.78564453125,-2.197265625,-1.03759765625,3.173828125,-1.0986328125,37.99072265625,-77.23388671875
1760966466.2914371,-0.61474609375,-0.01611328125,0.7998046875,-1.3427734375,-1.28173828125,2.8076171875,-1.0986328125,37.9852294921875,-77.1954345703125
1760966466.3057377,-0.61474609375,-0.01611328125,0.7998046875,-1.3427734375,-1.28173828125,2.8076171875,-1.087646484375,37.979736328125,-77.1624755859375
1760966466.3126216,-0.61572265625,-0.01513671875,0.79443359375,-0.79345703125,-1.3427734375,2.44140625,-1.0821533203125,37.96875,-77.1295166015625
1760966466.3186533,-0.61572265625,-0.01513671875,0.79443359375,-0.79345703125,-1.3427734375,2.44140625,-1.0711669921875,37.9632568359375,-77.10205078125
1760966466.3260405,-0.62841796875,-0.0068359375,0.787109375,-0.244140625,-1.0986328125,1.953125,-1.0601806640625,37.9522705078125,-77.0745849609375
1760966466.3330166,-0.62841796875,-0.0068359375,0.787109375,-0.244140625,-1.0986328125,1.953125,-1.0491943359375,37.94677734375,-77.047119140625
1760966466.340625,-0.6240234375,-0.00830078125,0.779296875,0.06103515625,-0.732421875,1.28173828125,-1.0382080078125,37.9412841796875,-77.025146484375
1760966466.3472948,-0.6240234375,-0.00830078125,0.779296875,0.06103515625,-0.732421875,1.28173828125,-1.0272216796875,37.935791015625,-77.0086669921875
1760966466.3541706,-0.60205078125,-0.00927734375,0.81005859375,0.1220703125,-0.48828125,0.8544921875,-1.0162353515625,37.9302978515625,-76.9976806640625
1760966466.3614593,-0.60205078125,-0.00927734375,0.81005859375,0.1220703125,-0.48828125,0.8544921875,-1.0107421875,37.9302978515625,-76.9866943359375
1760966466.3696413,-0.578125,-0.01220703125,0.82958984375,-0.1220703125,-0.54931640625,0.6103515625,-1.0052490234375,37.9248046875,-76.9757080078125
1760966466.379385,-0.578125,-0.01220703125,0.82958984375,-0.1220703125,-0.54931640625,0.6103515625,-0.999755859375,37.9193115234375,-76.9647216796875
1760966466.3950784,-0.57958984375,-0.01123046875,0.822265625,-0.30517578125,-0.732421875,0.6103515625,-0.9942626953125,37.9083251953125,-76.959228515625
1760966466.4023416,-0.57958984375,-0.01123046875,0.822265625,-0.30517578125,-0.732421875,0.6103515625,-0.9942626953125,37.8973388671875,-76.9482421875
1760966466.4099898,-0.580078125,-0.0146484375,0.80615234375,-1.46484375,-1.0986328125,0.732421875,-0.9942626953125,37.8863525390625,-76.937255859375
1760966466.4191058,-0.580078125,-0.0146484375,0.80615234375,-1.46484375,-1.0986328125,0.732421875,-1.0052490234375,37.869873046875,-76.9207763671875
1760966466.4391594,-0.5869140625,-0.01416015625,0.8310546875,-2.99072265625,-1.3427734375,0.9765625,-1.021728515625,37.8533935546875,-76.9097900390625
1760966466.44559,-0.5869140625,-0.01416015625,0.8310546875,-2.99072265625,-1.3427734375,0.9765625,-1.043701171875,37.8314208984375,-76.893310546875
1760966466.4574602,-0.5869140625,-0.0146484375,0.80908203125,-4.5166015625,-1.3427734375,1.220703125,-1.0711669921875,37.8094482421875,-76.8768310546875
1760966466.4649355,-0.5869140625,-0.0146484375,0.80908203125,-4.5166015625,-1.3427734375,1.220703125,-1.1041259765625,37.7874755859375,-76.8603515625
1760966466.4841518,-0.6181640625,-0.0234375,0.79833984375,-4.0283203125,-1.15966796875,1.15966796875,-1.1370849609375,37.77099609375,-76.83837890625
1760966466.4910178,-0.6181640625,-0.0234375,0.79833984375,-4.0283203125,-1.15966796875,1.15966796875,-1.16455078125,37.7490234375,-76.8218994140625
1760966466.5121665,-0.62548828125,-0.017578125,0.78515625,-3.41796875,-1.03759765625,0.9765625,-1.197509765625,37.7325439453125,-76.805419921875
1760966466.52347,-0.62548828125,-0.017578125,0.78515625,-3.41796875,-1.03759765625,0.9765625,-1.219482421875,37.716064453125,-76.79443359375
1760966466.5301793,-0.6162109375,-0.02001953125,0.78564453125,-3.173828125,-0.79345703125,0.6103515625,-1.2469482421875,37.705078125,-76.7779541015625
1760966466.5384052,-0.6162109375,-0.02001953125,0.78564453125,-3.173828125,-0.79345703125,0.6103515625,-1.2744140625,37.694091796875,-76.7724609375
1760966466.5552974,-0.6201171875,-0.0126953125,0.79296875,-2.74658203125,-0.42724609375,0.06103515625,-1.29638671875,37.6885986328125,-76.761474609375
1760966466.5614185,-0.6201171875,-0.0126953125,0.79296875,-2.74658203125,-0.42724609375,0.06103515625,-1.3238525390625,37.6776123046875,-76.761474609375
1760966466.568861,-0.615234375,-0.01318359375,0.78564453125,-1.5869140625,-0.30517578125,-0.54931640625,-1.3458251953125,37.672119140625,-76.761474609375
1760966466.575739,-0.615234375,-0.01318359375,0.78564453125,-1.5869140625,-0.30517578125,-0.54931640625,-1.3677978515625,37.672119140625,-76.761474609375
1760966466.5819573,-0.6015625,-0.02490234375,0.806640625,-0.732421875,-0.30517578125,-1.0986328125,-1.38427734375,37.6666259765625,-76.7724609375
1760966466.5884259,-0.6015625,-0.02490234375,0.806640625,-0.732421875,-0.30517578125,-1.0986328125,-1.395263671875,37.6611328125,-76.783447265625
1760966466.5955515,-0.5888671875,-0.01904296875,0.8173828125,-0.732421875,-0.244140625,-1.40380859375,-1.4117431640625,37.6556396484375,-76.79443359375
1760966466.6099696,-0.5888671875,-0.01904296875,0.8173828125,-0.732421875,-0.244140625,-1.40380859375,-1.42822265625,37.650146484375,-76.8109130859375
1760966466.620322,-0.58544921875,-0.00634765625,0.81005859375,-1.8310546875,0.0,-1.708984375,-1.4501953125,37.6446533203125,-76.8218994140625
1760966466.62973,-0.58544921875,-0.00634765625,0.81005859375,-1.8310546875,0.0,-1.708984375,-1.483154296875,37.63916015625,-76.8438720703125
1760966466.6373482,-0.5908203125,-0.01318359375,0.81689453125,-1.15966796875,0.0,-2.0751953125,-1.5106201171875,37.6336669921875,-76.8603515625
1760966466.6451678,-0.5908203125,-0.01318359375,0.81689453125,-1.15966796875,0.0,-2.0751953125,-1.5325927734375,37.628173828125,-76.88232421875
1760966466.660322,-0.5966796875,-0.037109375,0.80859375,0.48828125,0.0,-2.44140625,-1.5545654296875,37.6226806640625,-76.904296875
1760966466.6694412,-0.5966796875,-0.037109375,0.80859375,0.48828125,0.0,-2.44140625,-1.5655517578125,37.6171875,-76.9317626953125
1760966466.6780872,-0.59765625,-0.033203125,0.7998046875,0.9765625,-0.18310546875,-2.8076171875,-1.5765380859375,37.606201171875,-76.959228515625
1760966466.6846979,-0.59765625,-0.033203125,0.7998046875,0.9765625,-0.18310546875,-2.8076171875,-1.5875244140625,37.6007080078125,-76.9921875
1760966466.7002392,-0.58447265625,0.0,0.81298828125,-0.3662109375,-0.1220703125,-3.47900390625,-1.6094970703125,37.5897216796875,-77.025146484375
1760966466.7077515,-0.58447265625,0.0,0.81298828125,-0.3662109375,-0.1220703125,-3.47900390625,-1.636962890625,37.584228515625,-77.0635986328125
1760966466.714443,-0.57861328125,-0.0087890625,0.8291015625,-0.1220703125,0.0,-4.08935546875,-1.6644287109375,37.5732421875,-77.1075439453125
1760966466.7207425,-0.57861328125,-0.0087890625,0.8291015625,-0.1220703125,0.0,-4.08935546875,-1.69189453125,37.562255859375,-77.1514892578125
1760966466.7292888,-0.58056640625,-0.037109375,0.82373046875,1.64794921875,-0.06103515625,-4.39453125,-1.7138671875,37.5567626953125,-77.1954345703125
1760966466.7483165,-0.58056640625,-0.037109375,0.82373046875,1.64794921875,-0.06103515625,-4.39453125,-1.7303466796875,37.5457763671875,-77.244873046875
1760966466.7553146,-0.59326171875,-0.04541015625,0.80224609375,3.662109375,0.0,-4.5166015625,-1.73583984375,37.5347900390625,-77.2943115234375
1760966466.7629077,-0.59326171875,-0.04541015625,0.80224609375,3.662109375,0.0,-4.5166015625,-1.73583984375,37.5238037109375,-77.34375
1760966466.7693138,-0.611328125,-0.015625,0.80078125,2.01416015625,-0.1220703125,-4.57763671875,-1.7413330078125,37.5128173828125,-77.398681640625
1760966466.7805123,-0.611328125,-0.015625,0.80078125,2.01416015625,-0.1220703125,-4.57763671875,-1.7523193359375,37.5018310546875,-77.4481201171875
1760966466.8009024,-0.62939453125,-0.00927734375,0.80517578125,2.62451171875,-0.244140625,-5.0048828125,-1.768798828125,37.4908447265625,-77.5030517578125
1760966466.8084927,-0.62939453125,-0.00927734375,0.80517578125,2.62451171875,-0.244140625,-5.0048828125,-1.77978515625,37.4798583984375,-77.5634765625
1760966466.8167489,-0.64208984375,-0.02001953125,0.7568359375,4.08935546875,-0.1220703125,-5.06591796875,-1.77978515625,37.474365234375,-77.618408203125
1760966466.8236196,-0.64208984375,-0.02001953125,0.7568359375,4.08935546875,-0.1220703125,-5.06591796875,-1.7742919921875,37.4688720703125,-77.67333984375
1760966466.8315964,-0.6708984375,-0.03515625,0.755859375,1.03759765625,0.06103515625,-5.06591796875,-1.7852783203125,37.46337890625,-77.7337646484375
1760966466.8477206,-0.6708984375,-0.03515625,0.755859375,1.03759765625,0.06103515625,-5.06591796875,-1.812744140625,37.4688720703125,-77.794189453125
1760966466.854129,-0.66552734375,-0.0263671875,0.736328125,-0.42724609375,0.6103515625,-4.638671875,-1.845703125,37.474365234375,-77.84912109375
1760966466.8621202,-0.66552734375,-0.0263671875,0.736328125,-0.42724609375,0.6103515625,-4.638671875,-1.8896484375,37.4853515625,-77.904052734375
1760966466.8691602,-0.6435546875,-0.04296875,0.7724609375,-0.244140625,0.9765625,-4.39453125,-1.922607421875,37.496337890625,-77.958984375
1760966466.892231,-0.6435546875,-0.04296875,0.7724609375,-0.244140625,0.9765625,-4.39453125,-1.9610595703125,37.518310546875,-78.013916015625
1760966466.9003334,-0.625,-0.0380859375,0.7978515625,-0.1220703125,1.46484375,-3.7841796875,-1.9940185546875,37.5347900390625,-78.0633544921875
1760966466.9074855,-0.625,-0.0380859375,0.7978515625,-0.1220703125,1.46484375,-3.7841796875,-2.0269775390625,37.5567626953125,-78.1072998046875
1760966466.9347093,-0.6005859375,-0.037109375,0.79150390625,0.244140625,1.46484375,-3.23486328125,-2.054443359375,37.5787353515625,-78.1512451171875
1760966466.9424748,-0.6005859375,-0.037109375,0.79150390625,0.244140625,1.46484375,-3.23486328125,-2.076416015625,37.59521484375,-78.189697265625
1760966466.95018,-0.58935546875,-0.03759765625,0.8154296875,-0.54931640625,1.220703125,-2.50244140625,-2.1038818359375,37.6116943359375,-78.22265625
1760966466.956884,-0.58935546875,-0.03759765625,0.8154296875,-0.54931640625,1.220703125,-2.50244140625,-2.13134765625,37.628173828125,-78.2501220703125
1760966466.963971,-0.5751953125,-0.04541015625,0.8095703125,-1.5869140625,0.79345703125,-1.64794921875,-2.1588134765625,37.6336669921875,-78.2720947265625
1760966466.98321,-0.5751953125,-0.04541015625,0.8095703125,-1.5869140625,0.79345703125,-1.64794921875,-2.1917724609375,37.6446533203125,-78.28857421875
1760966466.9896479,-0.583984375,-0.04248046875,0.83447265625,-1.15966796875,0.3662109375,-1.46484375,-2.2137451171875,37.6446533203125,-78.3050537109375
1760966466.995873,-0.583984375,-0.04248046875,0.83447265625,-1.15966796875,0.3662109375,-1.46484375,-2.2412109375,37.6446533203125,-78.321533203125
1760966467.0021899,-0.583984375,-0.04248046875,0.83447265625,-2.74658203125,0.244140625,-1.15966796875,-2.2796630859375,37.6446533203125,-78.3380126953125
1760966467.008611,-0.60009765625,-0.02783203125,0.79443359375,-2.74658203125,0.244140625,-1.15966796875,-2.3126220703125,37.6446533203125,-78.3489990234375
1760966467.0221386,-0.62744140625,-0.017578125,0.78564453125,-3.72314453125,0.30517578125,-1.0986328125,-2.362060546875,37.63916015625,-78.3599853515625
1760966467.0288036,-0.62744140625,-0.017578125,0.78564453125,-3.72314453125,0.30517578125,-1.0986328125,-2.406005859375,37.6446533203125,-78.365478515625
1760966467.0351582,-0.6416015625,-0.04248046875,0.7763671875,-4.08935546875,0.42724609375,-0.9765625,-2.4554443359375,37.6446533203125,-78.37646484375
1760966467.041479,-0.6416015625,-0.04248046875,0.7763671875,-4.08935546875,0.42724609375,-0.9765625,-2.4993896484375,37.650146484375,-78.3819580078125
1760966467.0640562,-0.66748046875,-0.04541015625,0.77099609375,-3.35693359375,0.6103515625,-0.8544921875,-2.5433349609375,37.6556396484375,-78.387451171875
1760966467.0766947,-0.66748046875,-0.04541015625,0.77099609375,-3.35693359375,0.6103515625,-0.8544921875,-2.581787109375,37.6666259765625,-78.3984375
1760966467.083384,-0.64794921875,-0.0458984375,0.7412109375,-1.64794921875,0.6103515625,-1.15966796875,-2.6092529296875,37.6776123046875,-78.409423828125
1760966467.0898068,-0.64794921875,-0.0458984375,0.7412109375,-1.64794921875,0.6103515625,-1.15966796875,-2.6312255859375,37.6885986328125,-78.42041015625
1760966467.0968347,-0.6552734375,-0.04541015625,0.7841796875,-1.220703125,0.732421875,-0.91552734375,-2.6531982421875,37.705078125,-78.431396484375
1760966467.1107411,-0.6552734375,-0.04541015625,0.7841796875,-1.220703125,0.732421875,-0.91552734375,-2.6751708984375,37.7215576171875,-78.4423828125
1760966467.1175148,-0.65234375,-0.05029296875,0.76025390625,-0.18310546875,0.67138671875,-0.54931640625,-2.6806640625,37.7325439453125,-78.4478759765625
1760966467.1239705,-0.65234375,-0.05029296875,0.76025390625,-0.18310546875,0.67138671875,-0.54931640625,-2.691650390625,37.7490234375,-78.453369140625
1760966467.1302502,-0.67431640625,-0.048828125,0.76611328125,-0.3662109375,0.67138671875,-0.18310546875,-2.6971435546875,37.7655029296875,-78.4588623046875
1760966467.1394737,-0.67431640625,-0.048828125,0.76611328125,-0.3662109375,0.67138671875,-0.18310546875,-2.7081298828125,37.781982421875,-78.4588623046875
1760966467.1560028,-0.61083984375,-0.0419921875,0.68994140625,-0.244140625,0.48828125,-0.54931640625,-2.713623046875,37.7984619140625,-78.46435546875
1760966467.1628375,-0.61083984375,-0.0419921875,0.68994140625,-0.244140625,0.48828125,-0.54931640625,-2.724609375,37.8204345703125,-78.475341796875
1760966467.1691825,-0.64599609375,-0.04736328125,0.88671875,-0.30517578125,0.244140625,0.0,-2.7301025390625,37.8314208984375,-78.475341796875
1760966467.179215,-0.64599609375,-0.04736328125,0.88671875,-0.30517578125,0.244140625,0.0,-2.735595703125,37.8424072265625,-78.475341796875
1760966467.1980917,-0.611328125,-0.03857421875,0.734375,0.18310546875,0.18310546875,-0.06103515625,-2.735595703125,37.8533935546875,-78.475341796875
1760966467.2057765,-0.611328125,-0.03857421875,0.734375,0.18310546875,0.18310546875,-0.06103515625,-2.7410888671875,37.8643798828125,-78.475341796875
1760966467.213065,-0.62744140625,-0.05126953125,0.80322265625,0.6103515625,0.0,0.06103515625,-2.735595703125,37.869873046875,-78.475341796875
1760966467.2214918,-0.62744140625,-0.05126953125,0.80322265625,0.6103515625,0.0,0.06103515625,-2.7301025390625,37.880859375,-78.475341796875
1760966467.2439497,-0.60107421875,-0.0458984375,0.8203125,-1.0986328125,0.1220703125,0.3662109375,-2.7410888671875,37.8863525390625,-78.4698486328125
1760966467.2522156,-0.60107421875,-0.0458984375,0.8203125,-1.0986328125,0.1220703125,0.3662109375,-2.7520751953125,37.891845703125,-78.46435546875
1760966467.2600808,-0.60546875,-0.0380859375,0.79931640625,-1.953125,0.18310546875,0.6103515625,-2.7685546875,37.8973388671875,-78.453369140625
1760966467.2682934,-0.60546875,-0.0380859375,0.79931640625,-1.953125,0.18310546875,0.6103515625,-2.79052734375,37.90283203125,-78.4478759765625
1760966467.2991846,-0.61474609375,-0.029296875,0.7958984375,-1.220703125,0.06103515625,0.42724609375,-2.7960205078125,37.90283203125,-78.4368896484375
1760966467.3072588,-0.61474609375,-0.029296875,0.7958984375,-1.220703125,0.06103515625,0.42724609375,-2.8070068359375,37.9083251953125,-78.431396484375
1760966467.3136308,-0.6181640625,-0.03564453125,0.798828125,-0.8544921875,0.06103515625,0.244140625,-2.8179931640625,37.9083251953125,-78.4259033203125
1760966467.3201182,-0.6181640625,-0.03564453125,0.798828125,-0.8544921875,0.06103515625,0.244140625,-2.823486328125,37.9083251953125,-78.42041015625
1760966467.3268902,-0.6123046875,-0.04833984375,0.79296875,-1.0986328125,-0.06103515625,0.18310546875,-2.83447265625,37.9083251953125,-78.409423828125
1760966467.3525326,-0.6123046875,-0.04833984375,0.79296875,-1.0986328125,-0.06103515625,0.18310546875,-2.845458984375,37.9083251953125,-78.4039306640625
1760966467.3605568,-0.623046875,-0.0439453125,0.7802734375,-0.79345703125,-0.1220703125,0.18310546875,-2.8509521484375,37.9083251953125,-78.3984375
1760966467.3682668,-0.623046875,-0.0439453125,0.7802734375,-0.79345703125,-0.1220703125,0.18310546875,-2.8564453125,37.9083251953125,-78.3929443359375
1760966467.3828723,-0.63232421875,-0.0400390625,0.7744140625,-1.8310546875,-0.1220703125,0.3662109375,-2.8729248046875,37.9083251953125,-78.387451171875
1760966467.3920105,-0.63232421875,-0.0400390625,0.7744140625,-1.8310546875,-0.1220703125,0.3662109375,-2.889404296875,37.9083251953125,-78.3819580078125
1760966467.4005845,-0.6328125,-0.0380859375,0.7900390625,-0.732421875,-0.1220703125,0.18310546875,-2.8948974609375,37.913818359375,-78.37646484375
1760966467.4078007,-0.6328125,-0.0380859375,0.7900390625,-0.732421875,-0.1220703125,0.18310546875,-2.900390625,37.913818359375,-78.3709716796875
1760966467.423315,-0.6328125,-0.0439453125,0.77197265625,-1.220703125,0.0,0.244140625,-2.911376953125,37.913818359375,-78.365478515625
1760966467.4308755,-0.6328125,-0.0439453125,0.77197265625,-1.220703125,0.0,0.244140625,-2.92236328125,37.9193115234375,-78.3599853515625
1760966467.43808,-0.626953125,-0.04736328125,0.77294921875,-2.44140625,0.0,0.30517578125,-2.9498291015625,37.9248046875,-78.3544921875
1760966467.4445002,-0.626953125,-0.04736328125,0.77294921875,-2.44140625,0.0,0.30517578125,-2.9718017578125,37.9302978515625,-78.3489990234375
1760966467.451022,-0.62255859375,-0.05126953125,0.779296875,-3.2958984375,-0.06103515625,0.30517578125,-2.999267578125,37.9302978515625,-78.343505859375
1760966467.4578168,-0.62255859375,-0.05126953125,0.779296875,-3.2958984375,-0.06103515625,0.30517578125,-3.0322265625,37.935791015625,-78.3380126953125
1760966467.4801,-0.61962890625,-0.05078125,0.79150390625,-2.3193359375,-0.18310546875,0.18310546875,-3.05419921875,37.935791015625,-78.33251953125
1760966467.4878573,-0.61962890625,-0.05078125,0.79150390625,-2.3193359375,-0.18310546875,0.18310546875,-3.0816650390625,37.9412841796875,-78.3270263671875
1760966467.49513,-0.62109375,-0.046875,0.78173828125,-0.9765625,-0.30517578125,0.0,-3.0926513671875,37.9412841796875,-78.3270263671875
1760966467.5014596,-0.62109375,-0.046875,0.78173828125,-0.9765625,-0.30517578125,0.0,-3.1036376953125,37.9412841796875,-78.321533203125
1760966467.510279,-0.6279296875,-0.04248046875,0.7900390625,0.0,-0.30517578125,-0.244140625,-3.1036376953125,37.9412841796875,-78.3270263671875
1760966467.5239074,-0.6279296875,-0.04248046875,0.7900390625,0.0,-0.30517578125,-0.244140625,-3.109130859375,37.9412841796875,-78.3270263671875
1760966467.5307198,-0.626953125,-0.04443359375,0.77734375,0.54931640625,-0.42724609375,-0.42724609375,-3.1036376953125,37.9412841796875,-78.3270263671875
1760966467.5389016,-0.626953125,-0.04443359375,0.77734375,0.54931640625,-0.42724609375,-0.42724609375,-3.1036376953125,37.935791015625,-78.33251953125
1760966467.5458946,-0.634765625,-0.05126953125,0.7841796875,2.38037109375,-0.42724609375,-0.54931640625,-3.087158203125,37.935791015625,-78.33251953125
1760966467.5532014,-0.634765625,-0.05126953125,0.7841796875,2.38037109375,-0.42724609375,-0.54931640625,-3.0706787109375,37.935791015625,-78.3380126953125
1760966467.5695536,-0.638671875,-0.04638671875,0.767578125,1.40380859375,-0.30517578125,-0.48828125,-3.0596923828125,37.935791015625,-78.343505859375
1760966467.576434,-0.638671875,-0.04638671875,0.767578125,1.40380859375,-0.30517578125,-0.48828125,-3.05419921875,37.9412841796875,-78.3489990234375
1760966467.5834928,-0.63916015625,-0.03759765625,0.7705078125,1.52587890625,-0.30517578125,-0.6103515625,-3.043212890625,37.9412841796875,-78.3544921875
1760966467.5898185,-0.63916015625,-0.03759765625,0.7705078125,1.52587890625,-0.30517578125,-0.6103515625,-3.0322265625,37.94677734375,-78.3599853515625
1760966467.5964694,-0.6376953125,-0.04345703125,0.78173828125,0.8544921875,-0.244140625,-0.6103515625,-3.0322265625,37.94677734375,-78.365478515625
1760966467.6029835,-0.6376953125,-0.04345703125,0.78173828125,0.8544921875,-0.244140625,-0.6103515625,-3.0267333984375,37.9522705078125,-78.3709716796875
1760966467.6162634,-0.62841796875,-0.04443359375,0.77587890625,0.91552734375,-0.244140625,-0.67138671875,-3.0267333984375,37.9522705078125,-78.37646484375
1760966467.6236541,-0.62841796875,-0.04443359375,0.77587890625,0.91552734375,-0.244140625,-0.67138671875,-3.021240234375,37.957763671875,-78.3819580078125
1760966467.6309075,-0.62451171875,-0.0546875,0.79248046875,1.28173828125,-0.18310546875,-0.54931640625,-3.0157470703125,37.9632568359375,-78.387451171875
1760966467.6399155,-0.62451171875,-0.0546875,0.79248046875,1.28173828125,-0.18310546875,-0.54931640625,-3.01025390625,37.9632568359375,-78.3929443359375
1760966467.6507933,-0.61962890625,-0.05029296875,0.78369140625,2.13623046875,-0.06103515625,-0.48828125,-2.9937744140625,37.96875,-78.3984375
1760966467.664696,-0.61962890625,-0.05029296875,0.78369140625,2.13623046875,-0.06103515625,-0.48828125,-2.9827880859375,37.9742431640625,-78.4039306640625
1760966467.6733751,-0.60986328125,-0.046875,0.7900390625,2.5634765625,-0.18310546875,-0.42724609375,-2.9608154296875,37.9742431640625,-78.409423828125
1760966467.6807954,-0.60986328125,-0.046875,0.7900390625,2.5634765625,-0.18310546875,-0.42724609375,-2.9388427734375,37.9742431640625,-78.4149169921875
1760966467.689698,-0.607421875,-0.04248046875,0.80859375,3.23486328125,-0.30517578125,-0.42724609375,-2.9168701171875,37.9742431640625,-78.42041015625
1760966467.7073975,-0.607421875,-0.04248046875,0.80859375,3.23486328125,-0.30517578125,-0.42724609375,-2.889404296875,37.9742431640625,-78.4259033203125
1760966467.713872,-0.6015625,-0.03515625,0.79833984375,3.173828125,-0.42724609375,-0.48828125,-2.8619384765625,37.96875,-78.431396484375
1760966467.7205675,-0.6015625,-0.03515625,0.79833984375,3.173828125,-0.42724609375,-0.48828125,-2.8399658203125,37.96875,-78.431396484375
1760966467.7297935,-0.60595703125,-0.0380859375,0.80224609375,1.89208984375,-0.48828125,-0.6103515625,-2.823486328125,37.9632568359375,-78.4368896484375
1760966467.7446818,-0.60595703125,-0.0380859375,0.80224609375,1.89208984375,-0.48828125,-0.6103515625,-2.8125,37.957763671875,-78.4423828125
1760966467.751962,-0.60400390625,-0.0458984375,0.80224609375,1.77001953125,-0.54931640625,-0.6103515625,-2.801513671875,37.94677734375,-78.4478759765625
1760966467.7598598,-0.60400390625,-0.0458984375,0.80224609375,1.77001953125,-0.54931640625,-0.6103515625,-2.79052734375,37.9412841796875,-78.4478759765625
1760966467.770179,-0.61279296875,-0.033203125,0.80712890625,2.197265625,-0.6103515625,-0.67138671875,-2.7740478515625,37.9302978515625,-78.453369140625
1760966467.786288,-0.61279296875,-0.033203125,0.80712890625,2.197265625,-0.6103515625,-0.67138671875,-2.757568359375,37.9248046875,-78.4588623046875
1760966467.7937016,-0.62109375,-0.0302734375,0.78515625,2.0751953125,-0.54931640625,-0.79345703125,-2.74658203125,37.913818359375,-78.46435546875
1760966467.8004296,-0.62109375,-0.0302734375,0.78515625,2.0751953125,-0.54931640625,-0.79345703125,-2.7301025390625,37.9083251953125,-78.475341796875
1760966467.8101506,-0.6240234375,-0.04345703125,0.77490234375,1.52587890625,-0.42724609375,-0.79345703125,-2.724609375,37.90283203125,-78.4808349609375
1760966467.825145,-0.6240234375,-0.04345703125,0.77490234375,1.52587890625,-0.42724609375,-0.79345703125,-2.713623046875,37.8973388671875,-78.486328125
1760966467.8337955,-0.62646484375,-0.05517578125,0.80078125,2.197265625,-0.42724609375,-0.67138671875,-2.6971435546875,37.891845703125,-78.4918212890625
1760966467.8407726,-0.62646484375,-0.05517578125,0.80078125,2.197265625,-0.42724609375,-0.67138671875,-2.6861572265625,37.891845703125,-78.497314453125
1760966467.8596907,-0.623046875,-0.03759765625,0.78955078125,3.23486328125,-0.3662109375,-0.732421875,-2.65869140625,37.8863525390625,-78.50830078125
1760966467.8669553,-0.623046875,-0.03759765625,0.78955078125,3.23486328125,-0.3662109375,-0.732421875,-2.63671875,37.880859375,-78.5137939453125
1760966467.8737907,-0.62744140625,-0.0263671875,0.771484375,2.01416015625,-0.3662109375,-0.732421875,-2.625732421875,37.880859375,-78.519287109375
1760966467.88006,-0.62744140625,-0.0263671875,0.771484375,2.01416015625,-0.3662109375,-0.732421875,-2.6092529296875,37.8753662109375,-78.5247802734375
1760966467.889987,-0.619140625,-0.02587890625,0.7919921875,1.28173828125,-0.42724609375,-0.67138671875,-2.603759765625,37.8753662109375,-78.5302734375
1760966467.908428,-0.619140625,-0.02587890625,0.7919921875,1.28173828125,-0.42724609375,-0.67138671875,-2.5982666015625,37.869873046875,-78.5357666015625
1760966467.9177973,-0.61962890625,-0.04833984375,0.79833984375,0.54931640625,-0.3662109375,-0.732421875,-2.5982666015625,37.869873046875,-78.541259765625
1760966467.9252982,-0.61865234375,-0.0517578125,0.7880859375,1.15966796875,-0.30517578125,-0.3662109375,-2.5927734375,37.8643798828125,-78.5467529296875
1760966467.933219,-0.61865234375,-0.0517578125,0.7880859375,1.15966796875,-0.30517578125,-0.3662109375,-2.5872802734375,37.8643798828125,-78.5467529296875
1760966467.9410477,-0.6162109375,-0.0517578125,0.7939453125,1.5869140625,-0.18310546875,-0.54931640625,-2.581787109375,37.8643798828125,-78.55224609375
1760966467.950562,-0.6162109375,-0.0517578125,0.7939453125,1.5869140625,-0.18310546875,-0.54931640625,-2.57080078125,37.8643798828125,-78.5577392578125
1760966467.9825196,-0.6064453125,-0.0263671875,0.7939453125,2.44140625,-0.18310546875,-0.6103515625,-2.559814453125,37.8643798828125,-78.563232421875
1760966468.003454,-0.6064453125,-0.0263671875,0.7939453125,2.44140625,-0.18310546875,-0.6103515625,-2.5433349609375,37.85888671875,-78.5687255859375
1760966468.018159,-0.60205078125,-0.02880859375,0.81884765625,3.47900390625,-0.18310546875,-0.79345703125,-2.515869140625,37.85888671875,-78.57421875
1760966468.0261335,-0.60205078125,-0.02880859375,0.81884765625,3.47900390625,-0.18310546875,-0.79345703125,-2.493896484375,37.8533935546875,-78.585205078125
1760966468.032536,-0.61328125,-0.0263671875,0.7958984375,4.0283203125,-0.18310546875,-0.8544921875,-2.4609375,37.8533935546875,-78.5906982421875
1760966468.0389323,-0.61328125,-0.0263671875,0.7958984375,4.0283203125,-0.18310546875,-0.8544921875,-2.427978515625,37.847900390625,-78.59619140625
1760966468.0582454,-0.6220703125,-0.01318359375,0.771484375,4.39453125,-0.42724609375,-0.9765625,-2.39501953125,37.8424072265625,-78.607177734375
1760966468.0748017,-0.6220703125,-0.01318359375,0.771484375,4.39453125,-0.42724609375,-0.9765625,-2.3565673828125,37.8369140625,-78.6126708984375
1760966468.0852675,-0.62939453125,-0.05078125,0.8037109375,0.79345703125,-0.732421875,-1.46484375,-2.340087890625,37.8314208984375,-78.6236572265625
1760966468.1028514,-0.62939453125,-0.05078125,0.8037109375,0.79345703125,-0.732421875,-1.46484375,-2.3455810546875,37.825927734375,-78.6346435546875
1760966468.1176867,-0.62109375,-0.04638671875,0.7734375,1.953125,-0.91552734375,-1.77001953125,-2.3455810546875,37.81494140625,-78.6566162109375
1760966468.1263142,-0.62109375,-0.04638671875,0.7734375,1.953125,-0.91552734375,-1.77001953125,-2.340087890625,37.803955078125,-78.673095703125
1760966468.1465886,-0.63232421875,-0.04638671875,0.77001953125,4.45556640625,-1.03759765625,-1.77001953125,-2.3236083984375,37.7984619140625,-78.695068359375
1760966468.1531563,-0.63232421875,-0.04638671875,0.77001953125,4.45556640625,-1.03759765625,-1.77001953125,-2.296142578125,37.7874755859375,-78.717041015625
1760966468.1652362,-0.63916015625,-0.02392578125,0.78173828125,2.01416015625,-0.9765625,-1.77001953125,-2.2796630859375,37.781982421875,-78.739013671875
1760966468.172184,-0.63916015625,-0.02392578125,0.78173828125,2.01416015625,-0.9765625,-1.77001953125,-2.274169921875,37.7764892578125,-78.760986328125
1760966468.1918612,-0.6455078125,-0.01953125,0.7685546875,1.3427734375,-0.79345703125,-1.8310546875,-2.274169921875,37.77099609375,-78.782958984375
1760966468.198472,-0.6455078125,-0.01953125,0.7685546875,1.3427734375,-0.79345703125,-1.8310546875,-2.274169921875,37.7655029296875,-78.7994384765625
1760966468.2077813,-0.64794921875,-0.04736328125,0.76806640625,1.15966796875,-0.54931640625,-1.64794921875,-2.2796630859375,37.7655029296875,-78.8214111328125
1760966468.2186267,-0.64794921875,-0.04736328125,0.76806640625,1.15966796875,-0.54931640625,-1.64794921875,-2.2796630859375,37.7655029296875,-78.837890625
1760966468.2273955,-0.6396484375,-0.0537109375,0.7724609375,1.52587890625,-0.1220703125,-1.46484375,-2.2796630859375,37.77099609375,-78.85986328125
1760966468.2431743,-0.6396484375,-0.0537109375,0.7724609375,1.52587890625,-0.1220703125,-1.46484375,-2.2796630859375,37.7764892578125,-78.8763427734375
1760966468.2546647,-0.619140625,-0.0361328125,0.79052734375,2.62451171875,0.1220703125,-1.28173828125,-2.274169921875,37.781982421875,-78.892822265625
1760966468.2631254,-0.619140625,-0.0361328125,0.79052734375,2.62451171875,0.1220703125,-1.28173828125,-2.26318359375,37.7874755859375,-78.9093017578125
1760966468.276694,-0.59765625,-0.03271484375,0.81884765625,2.44140625,0.244140625,-1.03759765625,-2.2467041015625,37.7984619140625,-78.92578125
1760966468.2877579,-0.59765625,-0.03271484375,0.81884765625,2.44140625,0.244140625,-1.03759765625,-2.2357177734375,37.803955078125,-78.9422607421875
1760966468.2939959,-0.58544921875,-0.03466796875,0.8134765625,2.50244140625,0.1220703125,-0.8544921875,-2.21923828125,37.8094482421875,-78.9532470703125
1760966468.3007894,-0.58544921875,-0.03466796875,0.8134765625,2.50244140625,0.1220703125,-0.8544921875,-2.2027587890625,37.8094482421875,-78.958740234375
1760966468.3076425,-0.5869140625,-0.03369140625,0.8271484375,1.77001953125,-0.06103515625,-0.6103515625,-2.1917724609375,37.8094482421875,-78.9697265625
1760966468.3150215,-0.5869140625,-0.03369140625,0.8271484375,1.77001953125,-0.06103515625,-0.6103515625,-2.1807861328125,37.8094482421875,-78.9752197265625
1760966468.3283775,-0.57958984375,-0.03076171875,0.82470703125,0.6103515625,-0.1220703125,-0.48828125,-2.17529296875,37.803955078125,-78.980712890625
1760966468.3356612,-0.57958984375,-0.03076171875,0.82470703125,0.6103515625,-0.1220703125,-0.48828125,-2.17529296875,37.7984619140625,-78.980712890625
1760966468.3439395,-0.58642578125,-0.03759765625,0.814453125,0.6103515625,-0.18310546875,-0.3662109375,-2.17529296875,37.79296875,-78.9862060546875
1760966468.351435,-0.58642578125,-0.03759765625,0.814453125,0.6103515625,-0.18310546875,-0.3662109375,-2.17529296875,37.7874755859375,-78.9862060546875
1760966468.3594437,-0.59765625,-0.03515625,0.810546875,2.74658203125,-0.1220703125,-0.42724609375,-2.164306640625,37.7764892578125,-78.99169921875
1760966468.3681738,-0.59765625,-0.03515625,0.810546875,2.74658203125,-0.1220703125,-0.42724609375,-2.142333984375,37.77099609375,-78.99169921875
1760966468.3760226,-0.59716796875,-0.02685546875,0.80712890625,2.62451171875,-0.18310546875,-0.732421875,-2.120361328125,37.760009765625,-78.9971923828125
1760966468.3841708,-0.59716796875,-0.02685546875,0.80712890625,2.62451171875,-0.18310546875,-0.732421875,-2.1038818359375,37.7545166015625,-79.002685546875
1760966468.392577,-0.5966796875,-0.02392578125,0.79931640625,2.13623046875,-0.244140625,-1.03759765625,-2.08740234375,37.7435302734375,-79.013671875
1760966468.4000888,-0.5966796875,-0.02392578125,0.79931640625,2.13623046875,-0.244140625,-1.03759765625,-2.076416015625,37.7325439453125,-79.0191650390625
1760966468.4071906,-0.5966796875,-0.0205078125,0.79150390625,1.89208984375,-0.48828125,-1.15966796875,-2.0654296875,37.7215576171875,-79.0301513671875
1760966468.4143748,-0.5966796875,-0.0205078125,0.79150390625,1.89208984375,-0.48828125,-1.15966796875,-2.054443359375,37.7105712890625,-79.0411376953125
1760966468.4210541,-0.60498046875,-0.02587890625,0.81103515625,2.5634765625,-0.67138671875,-1.15966796875,-2.04345703125,37.6995849609375,-79.046630859375
1760966468.4296322,-0.60498046875,-0.02587890625,0.81103515625,2.5634765625,-0.67138671875,-1.15966796875,-2.0269775390625,37.6885986328125,-79.0576171875
1760966468.435772,-0.60888671875,-0.03466796875,0.7861328125,2.197265625,-0.48828125,-1.28173828125,-2.010498046875,37.6776123046875,-79.068603515625
1760966468.4426734,-0.60888671875,-0.03466796875,0.7861328125,2.197265625,-0.48828125,-1.28173828125,-1.99951171875,37.6666259765625,-79.07958984375
1760966468.4497862,-0.62353515625,-0.02294921875,0.787109375,3.11279296875,-0.42724609375,-1.0986328125,-1.9830322265625,37.6556396484375,-79.0850830078125
1760966468.4567344,-0.62353515625,-0.02294921875,0.787109375,3.11279296875,-0.42724609375,-1.0986328125,-1.9610595703125,37.6446533203125,-79.0960693359375
1760966468.463817,-0.62353515625,-0.02294921875,0.787109375,2.8076171875,-0.3662109375,-1.220703125,-1.9390869140625,37.63916015625,-79.1070556640625
1760966468.4721446,-0.61865234375,-0.0302734375,0.7666015625,2.8076171875,-0.3662109375,-1.220703125,-1.922607421875,37.6336669921875,-79.1180419921875
1760966468.4898002,-0.62158203125,-0.0244140625,0.79931640625,2.3193359375,-0.42724609375,-0.9765625,-1.9061279296875,37.628173828125,-79.12353515625
1760966468.504054,-0.62158203125,-0.0244140625,0.79931640625,2.3193359375,-0.42724609375,-0.9765625,-1.8951416015625,37.6226806640625,-79.134521484375
1760966468.5183153,-0.62353515625,-0.025390625,0.79150390625,0.48828125,-0.42724609375,-0.91552734375,-1.8841552734375,37.6171875,-79.1400146484375
1760966468.5255773,-0.62353515625,-0.025390625,0.79150390625,0.48828125,-0.42724609375,-0.91552734375,-1.8896484375,37.6171875,-79.1510009765625
1760966468.5335884,-0.62353515625,-0.025390625,0.79150390625,-0.54931640625,-0.732421875,-0.3662109375,-1.8951416015625,37.6116943359375,-79.156494140625
1760966468.5423465,-0.63134765625,-0.03369140625,0.7919921875,-0.54931640625,-0.732421875,-0.3662109375,-1.9061279296875,37.6007080078125,-79.156494140625
1760966468.5487223,-0.65673828125,-0.05615234375,0.775390625,1.15966796875,-0.732421875,0.244140625,-1.900634765625,37.59521484375,-79.1510009765625
1760966468.555091,-0.65673828125,-0.05615234375,0.775390625,1.15966796875,-0.732421875,0.244140625,-1.8896484375,37.59521484375,-79.1510009765625
1760966468.5623305,-0.6552734375,-0.03125,0.712890625,2.38037109375,-0.6103515625,0.30517578125,-1.8731689453125,37.5897216796875,-79.1455078125
1760966468.5688424,-0.6552734375,-0.03125,0.712890625,2.38037109375,-0.6103515625,0.30517578125,-1.8511962890625,37.59521484375,-79.1400146484375
1760966468.575961,-0.66552734375,-0.013671875,0.77880859375,2.62451171875,-0.67138671875,0.18310546875,-1.8292236328125,37.59521484375,-79.1400146484375
1760966468.5829353,-0.66552734375,-0.013671875,0.77880859375,2.62451171875,-0.67138671875,0.18310546875,-1.8017578125,37.6007080078125,-79.1400146484375
1760966468.5894618,-0.6591796875,-0.015625,0.76904296875,-2.38037109375,-0.42724609375,0.48828125,-1.8017578125,37.606201171875,-79.134521484375
1760966468.5966651,-0.6591796875,-0.015625,0.76904296875,-2.38037109375,-0.42724609375,0.48828125,-1.82373046875,37.6116943359375,-79.12353515625
1760966468.6045854,-0.65771484375,-0.0322265625,0.75732421875,-3.60107421875,-0.42724609375,0.42724609375,-1.8511962890625,37.6171875,-79.1180419921875
1760966468.6114383,-0.65771484375,-0.0322265625,0.75732421875,-3.60107421875,-0.42724609375,0.42724609375,-1.8841552734375,37.628173828125,-79.112548828125
1760966468.6209648,-0.65576171875,-0.03759765625,0.75732421875,-1.3427734375,-0.30517578125,0.244140625,-1.9061279296875,37.63916015625,-79.1070556640625
1760966468.6321268,-0.65576171875,-0.03759765625,0.75732421875,-1.3427734375,-0.30517578125,0.244140625,-1.922607421875,37.650146484375,-79.1070556640625
1760966468.641838,-0.6484375,-0.03857421875,0.767578125,0.06103515625,0.0,0.244140625,-1.9281005859375,37.6611328125,-79.1015625
1760966468.652616,-0.6484375,-0.03857421875,0.767578125,0.06103515625,0.0,0.244140625,-1.9281005859375,37.6776123046875,-79.1015625
1760966468.6626916,-0.6328125,-0.02734375,0.78857421875,1.46484375,0.30517578125,0.06103515625,-1.922607421875,37.6885986328125,-79.1015625
1760966468.671609,-0.6328125,-0.02734375,0.78857421875,1.46484375,0.30517578125,0.06103515625,-1.9061279296875,37.705078125,-79.0960693359375
1760966468.6816297,-0.62451171875,-0.01806640625,0.79931640625,-0.244140625,0.48828125,0.06103515625,-1.900634765625,37.7215576171875,-79.0960693359375
1760966468.6907806,-0.62451171875,-0.01806640625,0.79931640625,-0.244140625,0.48828125,0.06103515625,-1.9061279296875,37.738037109375,-79.0960693359375
1760966468.7009642,-0.609375,-0.0224609375,0.78076171875,-0.30517578125,0.42724609375,-0.1220703125,-1.91162109375,37.7545166015625,-79.0960693359375
1760966468.7109904,-0.609375,-0.0224609375,0.78076171875,-0.30517578125,0.42724609375,-0.1220703125,-1.9171142578125,37.7655029296875,-79.0960693359375
1760966468.7217684,-0.611328125,-0.03759765625,0.8115234375,-0.06103515625,0.42724609375,0.0,-1.9171142578125,37.7764892578125,-79.0960693359375
1760966468.7312093,-0.611328125,-0.03759765625,0.8115234375,-0.06103515625,0.42724609375,0.0,-1.922607421875,37.79296875,-79.090576171875
1760966468.741619,-0.6044921875,-0.03271484375,0.80126953125,0.3662109375,0.42724609375,-0.1220703125,-1.922607421875,37.7984619140625,-79.090576171875
1760966468.751888,-0.6044921875,-0.03271484375,0.80126953125,0.3662109375,0.42724609375,-0.1220703125,-1.9171142578125,37.8094482421875,-79.090576171875
1760966468.772884,-0.60205078125,-0.01513671875,0.80517578125,1.03759765625,0.18310546875,-0.3662109375,-1.9171142578125,37.81494140625,-79.090576171875
1760966468.7800214,-0.60205078125,-0.01513671875,0.80517578125,1.03759765625,0.18310546875,-0.3662109375,-1.91162109375,37.8204345703125,-79.0960693359375
1760966468.788985,-0.60302734375,-0.02294921875,0.80224609375,0.0,0.1220703125,-0.48828125,-1.9061279296875,37.8204345703125,-79.0960693359375
1760966468.797066,-0.60302734375,-0.02294921875,0.80224609375,0.0,0.1220703125,-0.48828125,-1.91162109375,37.825927734375,-79.1015625
1760966468.8047485,-0.607421875,-0.0361328125,0.80029296875,0.67138671875,0.06103515625,-0.67138671875,-1.91162109375,37.825927734375,-79.1015625
1760966468.8124764,-0.607421875,-0.0361328125,0.80029296875,0.67138671875,0.06103515625,-0.67138671875,-1.91162109375,37.825927734375,-79.1070556640625
1760966468.8212042,-0.6083984375,-0.02880859375,0.80126953125,2.44140625,0.0,-0.91552734375,-1.900634765625,37.825927734375,-79.112548828125
1760966468.8357434,-0.6083984375,-0.02880859375,0.80126953125,2.44140625,0.0,-0.91552734375,-1.8841552734375,37.825927734375,-79.12353515625
1760966468.843223,-0.6103515625,-0.02099609375,0.79443359375,2.3193359375,-0.1220703125,-1.15966796875,-1.8731689453125,37.8204345703125,-79.134521484375
1760966468.8509328,-0.6103515625,-0.02099609375,0.79443359375,2.3193359375,-0.1220703125,-1.15966796875,-1.856689453125,37.8204345703125,-79.1455078125
1760966468.8612185,-0.6162109375,-0.01904296875,0.7998046875,0.67138671875,-0.244140625,-1.220703125,-1.8511962890625,37.81494140625,-79.156494140625
1760966468.8738294,-0.6162109375,-0.01904296875,0.7998046875,0.67138671875,-0.244140625,-1.220703125,-1.856689453125,37.81494140625,-79.16748046875
1760966468.8872612,-0.6171875,-0.01806640625,0.7880859375,-0.6103515625,-0.30517578125,-1.3427734375,-1.8621826171875,37.8094482421875,-79.178466796875
1760966468.8941011,-0.6171875,-0.01806640625,0.7880859375,-0.6103515625,-0.30517578125,-1.3427734375,-1.878662109375,37.803955078125,-79.189453125
1760966468.9017367,-0.61572265625,-0.0263671875,0.7939453125,-1.8310546875,-0.3662109375,-1.52587890625,-1.91162109375,37.7984619140625,-79.2059326171875
1760966468.9132128,-0.61572265625,-0.0263671875,0.7939453125,-1.8310546875,-0.3662109375,-1.52587890625,-1.9390869140625,37.79296875,-79.2169189453125
1760966468.928893,-0.619140625,-0.02880859375,0.791015625,-1.0986328125,-0.42724609375,-1.708984375,-1.9610595703125,37.7874755859375,-79.2333984375
1760966468.9371326,-0.619140625,-0.02880859375,0.791015625,-1.0986328125,-0.42724609375,-1.708984375,-1.9830322265625,37.7874755859375,-79.2498779296875
1760966468.9436753,-0.6240234375,-0.037109375,0.78173828125,0.1220703125,-0.54931640625,-1.8310546875,-1.99951171875,37.7764892578125,-79.2718505859375
1760966468.9532275,-0.6240234375,-0.037109375,0.78173828125,0.1220703125,-0.54931640625,-1.8310546875,-2.010498046875,37.77099609375,-79.288330078125
1760966468.961653,-0.6201171875,-0.033203125,0.775390625,0.42724609375,-0.67138671875,-1.89208984375,-2.021484375,37.7655029296875,-79.310302734375
1760966468.9767091,-0.6201171875,-0.033203125,0.775390625,0.42724609375,-0.67138671875,-1.89208984375,-2.032470703125,37.760009765625,-79.332275390625
1760966468.9839525,-0.6142578125,-0.02734375,0.79150390625,-0.06103515625,-0.732421875,-1.89208984375,-2.0489501953125,37.7545166015625,-79.3487548828125
1760966468.9913344,-0.6142578125,-0.02734375,0.79150390625,-0.06103515625,-0.732421875,-1.89208984375,-2.0599365234375,37.7490234375,-79.3707275390625
1760966469.0010924,-0.6015625,-0.0234375,0.81787109375,-1.89208984375,-0.79345703125,-1.77001953125,-2.0928955078125,37.7435302734375,-79.38720703125
1760966469.018973,-0.6015625,-0.0234375,0.81787109375,-1.89208984375,-0.79345703125,-1.77001953125,-2.1258544921875,37.7325439453125,-79.4036865234375
1760966469.0269666,-0.5927734375,-0.0244140625,0.828125,-2.74658203125,-0.79345703125,-1.8310546875,-2.164306640625,37.7215576171875,-79.4256591796875
1760966469.0344265,-0.5927734375,-0.0244140625,0.828125,-2.74658203125,-0.79345703125,-1.8310546875,-2.2027587890625,37.7105712890625,-79.442138671875
1760966469.0426738,-0.6025390625,-0.033203125,0.7958984375,-3.41796875,-0.8544921875,-1.77001953125,-2.252197265625,37.6995849609375,-79.453125
1760966469.0531347,-0.6025390625,-0.033203125,0.7958984375,-3.41796875,-0.8544921875,-1.77001953125,-2.296142578125,37.6885986328125,-79.4696044921875
1760966469.0688975,-0.6083984375,-0.04638671875,0.77587890625,-1.46484375,-0.9765625,-1.77001953125,-2.3236083984375,37.6776123046875,-79.486083984375
1760966469.0781147,-0.6083984375,-0.04638671875,0.77587890625,-1.46484375,-0.9765625,-1.77001953125,-2.35107421875,37.6611328125,-79.5025634765625
1760966469.0855875,-0.59765625,-0.05078125,0.810546875,-0.30517578125,-1.03759765625,-1.89208984375,-2.3675537109375,37.650146484375,-79.5245361328125
1760966469.0932145,-0.59765625,-0.05078125,0.810546875,-0.30517578125,-1.03759765625,-1.89208984375,-2.384033203125,37.63916015625,-79.541015625
1760966469.1012995,-0.59521484375,-0.0390625,0.814453125,0.0,-1.0986328125,-2.197265625,-2.406005859375,37.6226806640625,-79.5684814453125
1760966469.1205053,-0.59521484375,-0.0390625,0.814453125,0.0,-1.0986328125,-2.197265625,-2.4224853515625,37.606201171875,-79.5904541015625
1760966469.1275136,-0.60107421875,-0.02001953125,0.79345703125,2.5634765625,-0.91552734375,-2.8076171875,-2.4169921875,37.5897216796875,-79.617919921875
1760966469.1340973,-0.60107421875,-0.02001953125,0.79345703125,2.5634765625,-0.91552734375,-2.8076171875,-2.4114990234375,37.5787353515625,-79.65087890625
1760966469.141692,-0.60400390625,-0.02880859375,0.8056640625,4.2724609375,-0.8544921875,-3.60107421875,-2.39501953125,37.5677490234375,-79.6893310546875
1760966469.1595778,-0.60400390625,-0.02880859375,0.8056640625,4.2724609375,-0.8544921875,-3.60107421875,-2.3785400390625,37.55126953125,-79.727783203125
1760966469.1690254,-0.60693359375,-0.02978515625,0.81640625,5.79833984375,-0.67138671875,-4.21142578125,-2.3565673828125,37.540283203125,-79.7772216796875
1760966469.1782951,-0.60693359375,-0.02978515625,0.81640625,5.79833984375,-0.67138671875,-4.21142578125,-2.3291015625,37.529296875,-79.8211669921875
1760966469.1857426,-0.61376953125,-0.0302734375,0.7763671875,2.3193359375,-0.3662109375,-4.45556640625,-2.340087890625,37.518310546875,-79.87060546875
1760966469.1943629,-0.61376953125,-0.0302734375,0.7763671875,2.3193359375,-0.3662109375,-4.45556640625,-2.35107421875,37.5128173828125,-79.9200439453125
1760966469.201983,-0.61572265625,-0.01318359375,0.78759765625,1.3427734375,-0.42724609375,-4.39453125,-2.3675537109375,37.5018310546875,-79.969482421875
1760966469.2186391,-0.61572265625,-0.01318359375,0.78759765625,1.3427734375,-0.42724609375,-4.39453125,-2.384033203125,37.496337890625,-80.013427734375
1760966469.2262845,-0.61669921875,-0.03564453125,0.80908203125,1.3427734375,-0.244140625,-4.2724609375,-2.4005126953125,37.4908447265625,-80.057373046875
1760966469.2346146,-0.61669921875,-0.03564453125,0.80908203125,1.3427734375,-0.244140625,-4.2724609375,-2.4224853515625,37.4853515625,-80.101318359375
1760966469.241333,-0.63818359375,-0.04931640625,0.7607421875,-0.91552734375,0.1220703125,-3.90625,-2.4554443359375,37.4853515625,-80.145263671875
1760966469.2559462,-0.63818359375,-0.04931640625,0.7607421875,-0.91552734375,0.1220703125,-3.90625,-2.493896484375,37.4853515625,-80.189208984375
1760966469.262723,-0.63134765625,-0.052734375,0.783203125,-0.06103515625,0.3662109375,-3.47900390625,-2.5213623046875,37.4908447265625,-80.22216796875
1760966469.2715209,-0.63134765625,-0.052734375,0.783203125,-0.06103515625,0.3662109375,-3.47900390625,-2.548828125,37.496337890625,-80.26611328125
1760966469.2817986,-0.62841796875,-0.044921875,0.80029296875,0.9765625,0.6103515625,-2.8076171875,-2.5653076171875,37.5018310546875,-80.2935791015625
1760966469.2928753,-0.62841796875,-0.044921875,0.80029296875,0.9765625,0.6103515625,-2.8076171875,-2.5762939453125,37.5128173828125,-80.3265380859375
1760966469.3040774,-0.62744140625,-0.03955078125,0.77294921875,0.91552734375,1.03759765625,-2.38037109375,-2.5872802734375,37.5238037109375,-80.35400390625
1760966469.312064,-0.62744140625,-0.03955078125,0.77294921875,0.91552734375,1.03759765625,-2.38037109375,-2.5982666015625,37.540283203125,-80.3759765625
1760966469.3223474,-0.62353515625,-0.0400390625,0.79150390625,-0.06103515625,1.28173828125,-2.3193359375,-2.6202392578125,37.55126953125,-80.4034423828125
1760966469.3329334,-0.62353515625,-0.0400390625,0.79150390625,-0.06103515625,1.28173828125,-2.3193359375,-2.63671875,37.5677490234375,-80.430908203125
1760966469.3533769,-0.630859375,-0.0458984375,0.7783203125,-0.67138671875,1.708984375,-2.197265625,-2.6641845703125,37.5897216796875,-80.452880859375
1760966469.3640811,-0.630859375,-0.0458984375,0.7783203125,-0.67138671875,1.708984375,-2.197265625,-2.691650390625,37.6116943359375,-80.4803466796875
1760966469.3849926,-0.62939453125,-0.03564453125,0.78955078125,-0.42724609375,1.708984375,-2.13623046875,-2.713623046875,37.628173828125,-80.5078125
1760966469.3923664,-0.62939453125,-0.03564453125,0.78955078125,-0.42724609375,1.708984375,-2.13623046875,-2.735595703125,37.650146484375,-80.52978515625
1760966469.3991106,-0.61865234375,-0.0390625,0.78271484375,-1.77001953125,1.5869140625,-2.3193359375,-2.7685546875,37.672119140625,-80.5572509765625
1760966469.4055262,-0.61865234375,-0.0390625,0.78271484375,-1.77001953125,1.5869140625,-2.3193359375,-2.8070068359375,37.6885986328125,-80.584716796875
1760966469.4125314,-0.61279296875,-0.0390625,0.77880859375,-1.5869140625,1.28173828125,-2.685546875,-2.845458984375,37.705078125,-80.6121826171875
1760966469.4294796,-0.61279296875,-0.0390625,0.77880859375,-1.5869140625,1.28173828125,-2.685546875,-2.8839111328125,37.7215576171875,-80.6396484375
1760966469.4367988,-0.61279296875,-0.0322265625,0.77880859375,-0.42724609375,0.67138671875,-3.5400390625,-2.911376953125,37.72705078125,-80.6781005859375
1760966469.444248,-0.61279296875,-0.0322265625,0.77880859375,-0.42724609375,0.67138671875,-3.5400390625,-2.9443359375,37.738037109375,-80.716552734375
1760966469.4526696,-0.61279296875,-0.0322265625,0.77880859375,0.67138671875,0.06103515625,-4.2724609375,-2.96630859375,37.738037109375,-80.7659912109375
1760966469.4688094,-0.62158203125,-0.02001953125,0.78759765625,0.67138671875,0.06103515625,-4.2724609375,-2.9937744140625,37.738037109375,-80.8099365234375
1760966469.4774015,-0.60205078125,-0.04052734375,0.79541015625,-0.91552734375,-0.6103515625,-4.638671875,-3.0322265625,37.7325439453125,-80.859375
1760966469.4856935,-0.60205078125,-0.04052734375,0.79541015625,-0.91552734375,-0.6103515625,-4.638671875,-3.076171875,37.72705078125,-80.9088134765625
1760966469.4936838,-0.60107421875,-0.09521484375,0.82568359375,-3.173828125,-0.67138671875,-3.72314453125,-3.1365966796875,37.7215576171875,-80.947265625
1760966469.500705,-0.60107421875,-0.09521484375,0.82568359375,-3.173828125,-0.67138671875,-3.72314453125,-3.197021484375,37.7105712890625,-80.9912109375
1760966469.509373,-0.60546875,-0.064453125,0.78955078125,-1.220703125,-0.54931640625,-3.11279296875,-3.2354736328125,37.705078125,-81.024169921875
1760966469.51701,-0.60546875,-0.064453125,0.78955078125,-1.220703125,-0.54931640625,-3.11279296875,-3.27392578125,37.694091796875,-81.05712890625
1760966469.5261881,-0.5986328125,-0.041015625,0.7890625,0.54931640625,-0.3662109375,-2.5634765625,-3.284912109375,37.6885986328125,-81.0845947265625
1760966469.5387478,-0.5986328125,-0.041015625,0.7890625,0.54931640625,-0.3662109375,-2.5634765625,-3.3013916015625,37.68310546875,-81.112060546875
1760966469.5453353,-0.58984375,-0.0498046875,0.82568359375,-1.46484375,-0.18310546875,-2.38037109375,-3.3343505859375,37.6776123046875,-81.1395263671875
1760966469.5531523,-0.58984375,-0.0498046875,0.82568359375,-1.46484375,-0.18310546875,-2.38037109375,-3.3673095703125,37.672119140625,-81.1614990234375
1760966469.5697227,-0.61279296875,-0.04150390625,0.8115234375,-1.52587890625,0.0,-2.5634765625,-3.40576171875,37.6666259765625,-81.1834716796875
1760966469.580055,-0.61279296875,-0.04150390625,0.8115234375,-1.52587890625,0.0,-2.5634765625,-3.438720703125,37.6611328125,-81.2109375
1760966469.5873427,-0.62255859375,-0.03466796875,0.77392578125,-1.40380859375,-0.18310546875,-2.86865234375,-3.4771728515625,37.6556396484375,-81.2384033203125
1760966469.5982127,-0.62255859375,-0.03466796875,0.77392578125,-1.40380859375,-0.18310546875,-2.86865234375,-3.5101318359375,37.650146484375,-81.265869140625
1760966469.6233172,-0.65087890625,-0.0439453125,0.80029296875,-0.1220703125,-0.1220703125,-2.86865234375,-3.5321044921875,37.650146484375,-81.2933349609375
1760966469.6315725,-0.65087890625,-0.0439453125,0.80029296875,-0.1220703125,-0.1220703125,-2.86865234375,-3.5540771484375,37.6446533203125,-81.32080078125
1760966469.6390007,-0.66943359375,-0.05908203125,0.7490234375,-5.859375,0.42724609375,-2.44140625,-3.62548828125,37.650146484375,-81.3427734375
1760966469.6469655,-0.66943359375,-0.05908203125,0.7490234375,-5.859375,0.42724609375,-2.44140625,-3.702392578125,37.6556396484375,-81.36474609375
1760966469.6548653,-0.7060546875,-0.05322265625,0.72705078125,-6.4697265625,0.8544921875,-2.01416015625,-3.7847900390625,37.672119140625,-81.38671875
1760966469.6704369,-0.7060546875,-0.05322265625,0.72705078125,-6.4697265625,0.8544921875,-2.01416015625,-3.8616943359375,37.6885986328125,-81.4031982421875
1760966469.6794329,-0.69970703125,-0.0673828125,0.697265625,-3.23486328125,1.46484375,-2.74658203125,-3.9166259765625,37.716064453125,-81.4361572265625
1760966469.686216,-0.69970703125,-0.0673828125,0.697265625,-3.23486328125,1.46484375,-2.74658203125,-3.9715576171875,37.7435302734375,-81.463623046875
1760966469.6942275,-0.6748046875,-0.07958984375,0.7412109375,0.244140625,1.8310546875,-3.2958984375,-3.9935302734375,37.7764892578125,-81.5020751953125
1760966469.7084322,-0.6748046875,-0.07958984375,0.7412109375,0.244140625,1.8310546875,-3.2958984375,-4.02099609375,37.8094482421875,-81.5460205078125
1760966469.7163959,-0.64697265625,-0.07373046875,0.77197265625,2.5634765625,1.953125,-3.23486328125,-4.02099609375,37.847900390625,-81.58447265625
1760966469.7241182,-0.64697265625,-0.07373046875,0.77197265625,2.5634765625,1.953125,-3.23486328125,-4.0264892578125,37.880859375,-81.6229248046875
1760966469.732083,-0.63330078125,-0.0595703125,0.79541015625,1.64794921875,2.13623046875,-2.5634765625,-4.031982421875,37.913818359375,-81.6558837890625
1760966469.7410834,-0.63330078125,-0.0595703125,0.79541015625,1.64794921875,2.13623046875,-2.5634765625,-4.04296875,37.94677734375,-81.6888427734375
1760966469.7485256,-0.61767578125,-0.05859375,0.79150390625,-0.732421875,2.38037109375,-1.708984375,-4.06494140625,37.9852294921875,-81.705322265625
1760966469.7568624,-0.61767578125,-0.05859375,0.79150390625,-0.732421875,2.38037109375,-1.708984375,-4.0869140625,38.0181884765625,-81.727294921875
1760966469.7641423,-0.6123046875,-0.07470703125,0.81201171875,-1.52587890625,2.74658203125,-0.91552734375,-4.1143798828125,38.0511474609375,-81.73828125
1760966469.7726002,-0.6123046875,-0.07470703125,0.81201171875,-1.52587890625,2.74658203125,-0.91552734375,-4.141845703125,38.089599609375,-81.749267578125
1760966469.7920644,-0.61181640625,-0.068359375,0.78955078125,-1.15966796875,3.2958984375,-0.54931640625,-4.163818359375,38.1280517578125,-81.7547607421875
1760966469.7993314,-0.61181640625,-0.068359375,0.78955078125,-1.15966796875,3.2958984375,-0.54931640625,-4.185791015625,38.16650390625,-81.76025390625
1760966469.806873,-0.61083984375,-0.06494140625,0.80615234375,-2.3193359375,3.35693359375,-0.06103515625,-4.2132568359375,38.199462890625,-81.76025390625
1760966469.8146281,-0.61083984375,-0.06494140625,0.80615234375,-2.3193359375,3.35693359375,-0.06103515625,-4.24072265625,38.2379150390625,-81.76025390625
1760966469.8320208,-0.60009765625,-0.06298828125,0.79638671875,-3.41796875,3.23486328125,0.30517578125,-4.273681640625,38.2708740234375,-81.7547607421875
1760966469.8397686,-0.60009765625,-0.06298828125,0.79638671875,-3.41796875,3.23486328125,0.30517578125,-4.3121337890625,38.3038330078125,-81.749267578125
1760966469.8471594,-0.5908203125,-0.0556640625,0.79736328125,-3.60107421875,2.62451171875,0.3662109375,-4.3450927734375,38.331298828125,-81.73828125
1760966469.8543463,-0.5908203125,-0.0556640625,0.79736328125,-3.60107421875,2.62451171875,0.3662109375,-4.383544921875,38.353271484375,-81.7327880859375
1760966469.8717275,-0.60302734375,-0.05810546875,0.81787109375,-4.2724609375,2.0751953125,0.30517578125,-4.427490234375,38.3697509765625,-81.7218017578125
1760966469.8821075,-0.60302734375,-0.05810546875,0.81787109375,-4.2724609375,2.0751953125,0.30517578125,-4.4659423828125,38.38623046875,-81.71630859375
1760966469.8897078,-0.6083984375,-0.06787109375,0.79052734375,-5.79833984375,1.708984375,0.1220703125,-4.5263671875,38.4027099609375,-81.705322265625
1760966469.8976998,-0.61669921875,-0.07080078125,0.78076171875,-3.84521484375,1.3427734375,-0.3662109375,-4.5758056640625,38.408203125,-81.6998291015625
1760966469.9124355,-0.61669921875,-0.07080078125,0.78076171875,-3.84521484375,1.3427734375,-0.3662109375,-4.6142578125,38.419189453125,-81.6998291015625
1760966469.9230146,-0.61328125,-0.06298828125,0.78857421875,-1.46484375,1.0986328125,-0.9765625,-4.647216796875,38.4246826171875,-81.705322265625
1760966469.9308884,-0.61328125,-0.06298828125,0.78857421875,-1.46484375,1.0986328125,-0.9765625,-4.669189453125,38.4356689453125,-81.7108154296875
1760966469.9392107,-0.61865234375,-0.06201171875,0.78564453125,-3.11279296875,0.9765625,-1.15966796875,-4.7021484375,38.441162109375,-81.71630859375
1760966469.9671278,-0.61865234375,-0.06201171875,0.78564453125,-3.11279296875,0.9765625,-1.15966796875,-4.7406005859375,38.441162109375,-81.7218017578125
1760966469.9743714,-0.61962890625,-0.06884765625,0.791015625,-2.44140625,0.6103515625,-1.220703125,-4.779052734375,38.4466552734375,-81.727294921875
1760966469.9813244,-0.61962890625,-0.06884765625,0.791015625,-2.44140625,0.6103515625,-1.220703125,-4.81201171875,38.4466552734375,-81.73828125
1760966469.989595,-0.62548828125,-0.06884765625,0.7666015625,-1.220703125,0.244140625,-1.3427734375,-4.8394775390625,38.4466552734375,-81.7437744140625
1760966469.9976225,-0.62548828125,-0.06884765625,0.7666015625,-1.220703125,0.244140625,-1.3427734375,-4.8614501953125,38.4466552734375,-81.7547607421875
1760966470.0052743,-0.630859375,-0.0732421875,0.7626953125,1.3427734375,-0.1220703125,-1.64794921875,-4.8724365234375,38.441162109375,-81.7657470703125
1760966470.0170615,-0.630859375,-0.0732421875,0.7626953125,1.3427734375,-0.1220703125,-1.64794921875,-4.8724365234375,38.441162109375,-81.7767333984375
1760966470.0256183,-0.62158203125,-0.08935546875,0.7841796875,2.38037109375,-0.42724609375,-1.708984375,-4.866943359375,38.4356689453125,-81.7877197265625
1760966470.0333586,-0.62158203125,-0.08935546875,0.7841796875,2.38037109375,-0.42724609375,-1.708984375,-4.85595703125,38.43017578125,-81.80419921875
1760966470.040895,-0.62353515625,-0.07421875,0.77978515625,3.2958984375,-0.732421875,-1.5869140625,-4.844970703125,38.419189453125,-81.8206787109375
1760966470.0482106,-0.62353515625,-0.07421875,0.77978515625,3.2958984375,-0.732421875,-1.5869140625,-4.822998046875,38.4136962890625,-81.8316650390625
1760966470.0552638,-0.61865234375,-0.06689453125,0.779296875,3.60107421875,-1.220703125,-1.46484375,-4.8065185546875,38.4027099609375,-81.84814453125
1760966470.0639887,-0.61865234375,-0.06689453125,0.779296875,3.60107421875,-1.220703125,-1.46484375,-4.779052734375,38.38623046875,-81.859130859375
