timestamp,acc_x,acc_y,acc_z,gyro_x,gyro_y,gyro_z,angle_x,angle_y,angle_z
1759066907.3146973,-0.64208984375,0.06884765625,0.755859375,3.90625,0.30517578125,0.30517578125,6.448974609375,39.96826171875,70.64208984375
1759066907.3251393,-0.64697265625,0.07421875,0.767578125,4.57763671875,0.18310546875,0.244140625,6.492919921875,39.9737548828125,70.64208984375
1759066907.335974,-0.64697265625,0.07421875,0.767578125,4.57763671875,0.18310546875,0.244140625,6.536865234375,39.9737548828125,70.6475830078125
1759066907.3457236,-0.63916015625,0.09912109375,0.76318359375,2.62451171875,0.0,0.48828125,6.56982421875,39.979248046875,70.653076171875
1759066907.354008,-0.63916015625,0.09912109375,0.76318359375,2.62451171875,0.0,0.48828125,6.5972900390625,39.979248046875,70.6585693359375
1759066907.3612618,-0.6328125,0.10498046875,0.7646484375,-0.54931640625,-0.18310546875,0.48828125,6.6082763671875,39.9737548828125,70.6640625
1759066907.369469,-0.6328125,0.10498046875,0.7646484375,-0.54931640625,-0.18310546875,0.48828125,6.6082763671875,39.9737548828125,70.6695556640625
1759066907.3795404,-0.640625,0.08837890625,0.7578125,-1.953125,-0.3662109375,0.3662109375,6.5972900390625,39.96826171875,70.675048828125
1759066907.3894072,-0.640625,0.08837890625,0.7578125,-1.953125,-0.3662109375,0.3662109375,6.580810546875,39.96826171875,70.675048828125
1759066907.3996553,-0.64697265625,0.08203125,0.75830078125,-1.953125,-0.6103515625,0.244140625,6.5643310546875,39.9627685546875,70.6805419921875
1759066907.4095614,-0.64697265625,0.08203125,0.75830078125,-1.953125,-0.6103515625,0.244140625,6.5423583984375,39.9517822265625,70.6805419921875
1759066907.4193544,-0.64697265625,0.09130859375,0.75634765625,-0.79345703125,-0.79345703125,0.3662109375,6.5313720703125,39.9462890625,70.68603515625
1759066907.429299,-0.64697265625,0.09130859375,0.75634765625,-0.79345703125,-0.79345703125,0.3662109375,6.52587890625,39.9407958984375,70.6915283203125
1759066907.4392958,-0.64892578125,0.08935546875,0.7607421875,-0.30517578125,-0.732421875,0.244140625,6.5203857421875,39.935302734375,70.6915283203125
1759066907.4521935,-0.64892578125,0.08935546875,0.7607421875,-0.30517578125,-0.732421875,0.244140625,6.5203857421875,39.92431640625,70.6915283203125
1759066907.459408,-0.640625,0.07568359375,0.7724609375,-0.67138671875,-0.6103515625,-0.06103515625,6.514892578125,39.9188232421875,70.6915283203125
1759066907.4693675,-0.640625,0.07568359375,0.7724609375,-0.67138671875,-0.6103515625,-0.06103515625,6.5093994140625,39.913330078125,70.6915283203125
1759066907.479633,-0.6298828125,0.09033203125,0.77099609375,-0.06103515625,-0.06103515625,-0.42724609375,6.50390625,39.913330078125,70.68603515625
1759066907.4903636,-0.6298828125,0.09033203125,0.77099609375,-0.06103515625,-0.06103515625,-0.42724609375,6.4984130859375,39.913330078125,70.6805419921875
1759066907.499337,-0.6357421875,0.10693359375,0.7646484375,-0.244140625,0.48828125,-0.732421875,6.492919921875,39.913330078125,70.675048828125
1759066907.509604,-0.6357421875,0.10693359375,0.7646484375,-0.244140625,0.48828125,-0.732421875,6.48193359375,39.9188232421875,70.6640625
1759066907.5193295,-0.6435546875,0.1025390625,0.7666015625,-2.44140625,0.67138671875,-0.732421875,6.4544677734375,39.92431640625,70.6585693359375
1759066907.5301352,-0.6435546875,0.1025390625,0.7666015625,-2.44140625,0.67138671875,-0.732421875,6.427001953125,39.935302734375,70.653076171875
1759066907.5394573,-0.634765625,0.091796875,0.763671875,-3.7841796875,0.3662109375,-0.30517578125,6.3885498046875,39.935302734375,70.6475830078125
1759066907.549699,-0.634765625,0.091796875,0.763671875,-3.7841796875,0.3662109375,-0.30517578125,6.3555908203125,39.9407958984375,70.6475830078125
1759066907.559481,-0.63623046875,0.06494140625,0.751953125,-2.5634765625,-0.18310546875,-0.1220703125,6.328125,39.935302734375,70.6475830078125
1759066907.5696454,-0.63623046875,0.06494140625,0.751953125,-2.5634765625,-0.18310546875,-0.1220703125,6.3006591796875,39.935302734375,70.64208984375
1759066907.579543,-0.64013671875,0.0625,0.763671875,-0.67138671875,-1.0986328125,0.18310546875,6.295166015625,39.9188232421875,70.6475830078125
1759066907.5896158,-0.64013671875,0.0625,0.763671875,-0.67138671875,-1.0986328125,0.18310546875,6.2896728515625,39.9078369140625,70.6475830078125
1759066907.5994713,-0.63525390625,0.07080078125,0.765625,0.6103515625,-1.8310546875,0.48828125,6.295166015625,39.891357421875,70.653076171875
1759066907.609585,-0.63525390625,0.07080078125,0.765625,0.6103515625,-1.8310546875,0.48828125,6.30615234375,39.869384765625,70.653076171875
1759066907.6194253,-0.64306640625,0.08154296875,0.7587890625,2.0751953125,-2.0751953125,0.67138671875,6.328125,39.847412109375,70.6585693359375
1759066907.6295862,-0.64306640625,0.08154296875,0.7587890625,2.0751953125,-2.0751953125,0.67138671875,6.35009765625,39.825439453125,70.6640625
1759066907.639522,-0.64892578125,0.08642578125,0.76123046875,2.0751953125,-1.77001953125,0.91552734375,6.3720703125,39.8089599609375,70.675048828125
1759066907.6498399,-0.64892578125,0.08642578125,0.76123046875,2.0751953125,-1.77001953125,0.91552734375,6.3995361328125,39.79248046875,70.68603515625
1759066907.6594937,-0.65478515625,0.08447265625,0.75830078125,1.5869140625,-1.03759765625,1.0986328125,6.4215087890625,39.781494140625,70.697021484375
1759066907.6699295,-0.65478515625,0.08447265625,0.75830078125,1.5869140625,-1.03759765625,1.0986328125,6.4434814453125,39.7705078125,70.7135009765625
1759066907.6795125,-0.64892578125,0.0830078125,0.76904296875,0.67138671875,-0.06103515625,1.15966796875,6.4599609375,39.7705078125,70.7244873046875
1759066907.6900084,-0.64892578125,0.0830078125,0.76904296875,0.67138671875,-0.06103515625,1.15966796875,6.470947265625,39.7705078125,70.740966796875
1759066907.6995249,-0.64404296875,0.08056640625,0.77099609375,1.28173828125,0.732421875,1.0986328125,6.492919921875,39.7760009765625,70.7574462890625
1759066907.7099283,-0.64404296875,0.08056640625,0.77099609375,1.28173828125,0.732421875,1.0986328125,6.514892578125,39.7869873046875,70.77392578125
1759066907.7195487,-0.63720703125,0.0908203125,0.76806640625,0.8544921875,1.46484375,0.8544921875,6.52587890625,39.7979736328125,70.784912109375
1759066907.7299352,-0.63720703125,0.0908203125,0.76806640625,0.8544921875,1.46484375,0.8544921875,6.5423583984375,39.814453125,70.8013916015625
1759066907.7395732,-0.6318359375,0.10302734375,0.7666015625,-0.06103515625,1.64794921875,0.6103515625,6.5478515625,39.8309326171875,70.8123779296875
1759066907.7499416,-0.6318359375,0.10302734375,0.7666015625,-0.06103515625,1.64794921875,0.6103515625,6.5533447265625,39.847412109375,70.8233642578125
1759066907.7596097,-0.63916015625,0.10693359375,0.7548828125,-1.52587890625,1.46484375,0.3662109375,6.5423583984375,39.8583984375,70.828857421875
1759066907.7695856,-0.63916015625,0.10693359375,0.7548828125,-1.52587890625,1.46484375,0.3662109375,6.5313720703125,39.8748779296875,70.83984375
1759066907.7796035,-0.65087890625,0.10400390625,0.7568359375,-3.2958984375,1.40380859375,0.06103515625,6.50390625,39.8858642578125,70.83984375
1759066907.7896128,-0.65087890625,0.10400390625,0.7568359375,-3.2958984375,1.40380859375,0.06103515625,6.4764404296875,39.90234375,70.8453369140625
1759066907.7996414,-0.65234375,0.08935546875,0.7587890625,-3.2958984375,1.28173828125,-0.3662109375,6.4434814453125,39.913330078125,70.8453369140625
1759066907.8096638,-0.65234375,0.08935546875,0.7587890625,-3.2958984375,1.28173828125,-0.3662109375,6.4105224609375,39.9298095703125,70.8453369140625
1759066907.8198345,-0.642578125,0.0693359375,0.76171875,-2.3193359375,1.03759765625,-1.03759765625,6.383056640625,39.9407958984375,70.8343505859375
1759066907.8296826,-0.642578125,0.0693359375,0.76171875,-2.3193359375,1.03759765625,-1.03759765625,6.3555908203125,39.9517822265625,70.8233642578125
1759066907.8398743,-0.64501953125,0.07568359375,0.7509765625,-0.06103515625,0.79345703125,-1.46484375,6.3446044921875,39.9627685546875,70.806884765625
1759066907.8522053,-0.64501953125,0.07568359375,0.7509765625,-0.06103515625,0.79345703125,-1.46484375,6.3336181640625,39.9737548828125,70.784912109375
1759066907.8609812,-0.64892578125,0.08740234375,0.75634765625,1.8310546875,0.79345703125,-1.46484375,6.339111328125,39.9847412109375,70.7684326171875
1759066907.869824,-0.64892578125,0.08740234375,0.75634765625,1.8310546875,0.79345703125,-1.46484375,6.35009765625,39.9957275390625,70.751953125
1759066907.8803527,-0.6474609375,0.09033203125,0.75927734375,1.708984375,0.8544921875,-0.8544921875,6.361083984375,40.001220703125,70.7464599609375
1759066907.8899193,-0.6474609375,0.09033203125,0.75927734375,1.708984375,0.8544921875,-0.8544921875,6.3720703125,40.01220703125,70.7354736328125
1759066907.9008598,-0.6455078125,0.087890625,0.76904296875,0.48828125,0.9765625,-0.42724609375,6.3720703125,40.023193359375,70.72998046875
1759066907.9104455,-0.6455078125,0.087890625,0.76904296875,0.48828125,0.9765625,-0.42724609375,6.3775634765625,40.0341796875,70.72998046875
1759066907.9205565,-0.65283203125,0.0732421875,0.7509765625,0.18310546875,1.3427734375,-0.06103515625,6.383056640625,40.0506591796875,70.72998046875
1759066907.930275,-0.65283203125,0.0732421875,0.7509765625,0.18310546875,1.3427734375,-0.06103515625,6.383056640625,40.067138671875,70.72998046875
1759066907.9404154,-0.6513671875,0.0703125,0.75439453125,1.220703125,1.46484375,0.732421875,6.3995361328125,40.078125,70.740966796875
1759066907.952077,-0.6513671875,0.0703125,0.75439453125,1.220703125,1.46484375,0.732421875,6.4215087890625,40.0946044921875,70.751953125
1759066907.9605181,-0.64501953125,0.0810546875,0.759765625,0.732421875,1.64794921875,1.40380859375,6.43798828125,40.111083984375,70.77392578125
1759066907.9700902,-0.64501953125,0.0810546875,0.759765625,0.732421875,1.64794921875,1.40380859375,6.4599609375,40.1275634765625,70.7904052734375
1759066907.981542,-0.6435546875,0.0849609375,0.75927734375,-0.06103515625,1.64794921875,1.77001953125,6.470947265625,40.14404296875,70.81787109375
1759066907.9901977,-0.6435546875,0.0849609375,0.75927734375,-0.06103515625,1.64794921875,1.77001953125,6.4874267578125,40.155029296875,70.8453369140625
1759066908.0011356,-0.64404296875,0.08056640625,0.76123046875,-0.9765625,1.5869140625,2.01416015625,6.492919921875,40.1715087890625,70.872802734375
1759066908.0108612,-0.64404296875,0.08056640625,0.76123046875,-0.9765625,1.5869140625,2.01416015625,6.4984130859375,40.18798828125,70.9002685546875
1759066908.0216691,-0.6455078125,0.07958984375,0.7568359375,-1.3427734375,1.5869140625,2.0751953125,6.50390625,40.198974609375,70.927734375
1759066908.0302472,-0.6455078125,0.07958984375,0.7568359375,-1.3427734375,1.5869140625,2.0751953125,6.50390625,40.2154541015625,70.960693359375
1759066908.0409138,-0.6435546875,0.083984375,0.759765625,-1.708984375,1.46484375,1.953125,6.50390625,40.2264404296875,70.9881591796875
1759066908.0522184,-0.6435546875,0.083984375,0.759765625,-1.708984375,1.46484375,1.953125,6.50390625,40.2374267578125,71.015625
1759066908.0611713,-0.64599609375,0.08447265625,0.75439453125,-1.46484375,1.28173828125,1.64794921875,6.50390625,40.2484130859375,71.03759765625
1759066908.070922,-0.64599609375,0.08447265625,0.75439453125,-1.46484375,1.28173828125,1.64794921875,6.4984130859375,40.2593994140625,71.0595703125
1759066908.0820112,-0.64892578125,0.08251953125,0.75341796875,-1.0986328125,0.9765625,1.5869140625,6.50390625,40.264892578125,71.08154296875
1759066908.0903735,-0.64892578125,0.08251953125,0.75341796875,-1.0986328125,0.9765625,1.5869140625,6.50390625,40.27587890625,71.103515625
1759066908.1020184,-0.64599609375,0.08984375,0.7578125,-0.79345703125,0.67138671875,1.46484375,6.5093994140625,40.2813720703125,71.12548828125
1759066908.1108956,-0.64599609375,0.08984375,0.7578125,-0.79345703125,0.67138671875,1.46484375,6.5093994140625,40.286865234375,71.1474609375
1759066908.1211812,-0.64404296875,0.09130859375,0.75537109375,-0.54931640625,0.3662109375,1.15966796875,6.514892578125,40.286865234375,71.158447265625
1759066908.130661,-0.64404296875,0.09130859375,0.75537109375,-0.54931640625,0.3662109375,1.15966796875,6.5203857421875,40.2923583984375,71.1749267578125
1759066908.1428072,-0.6484375,0.08740234375,0.7529296875,-0.244140625,0.1220703125,0.91552734375,6.52587890625,40.2923583984375,71.19140625
1759066908.1503255,-0.6484375,0.08740234375,0.7529296875,-0.244140625,0.1220703125,0.91552734375,6.5313720703125,40.2923583984375,71.202392578125
1759066908.1603491,-0.64990234375,0.0908203125,0.75341796875,0.18310546875,-0.06103515625,0.67138671875,6.536865234375,40.2923583984375,71.21337890625
1759066908.171346,-0.64990234375,0.0908203125,0.75341796875,0.18310546875,-0.06103515625,0.67138671875,6.5423583984375,40.286865234375,71.224365234375
1759066908.1801896,-0.6533203125,0.09423828125,0.75634765625,0.67138671875,-0.30517578125,0.48828125,6.5533447265625,40.286865234375,71.2298583984375
1759066908.1902514,-0.6533203125,0.09423828125,0.75634765625,0.67138671875,-0.30517578125,0.48828125,6.5643310546875,40.2813720703125,71.2353515625
1759066908.2025192,-0.6484375,0.0908203125,0.75439453125,0.48828125,-0.6103515625,0.3662109375,6.5753173828125,40.27587890625,71.2408447265625
1759066908.2108982,-0.6484375,0.0908203125,0.75439453125,0.48828125,-0.6103515625,0.3662109375,6.580810546875,40.2703857421875,71.246337890625
1759066908.2207084,-0.64306640625,0.08447265625,0.759765625,0.732421875,-0.91552734375,0.244140625,6.591796875,40.264892578125,71.246337890625
1759066908.2303846,-0.64306640625,0.08447265625,0.759765625,0.732421875,-0.91552734375,0.244140625,6.5972900390625,40.25390625,71.2518310546875
1759066908.2434216,-0.64013671875,0.08544921875,0.75439453125,0.79345703125,-1.28173828125,0.0,6.602783203125,40.242919921875,71.246337890625
1759066908.2511535,-0.64013671875,0.08544921875,0.75439453125,0.79345703125,-1.28173828125,0.0,6.61376953125,40.23193359375,71.246337890625
1759066908.2609744,-0.62744140625,0.099609375,0.771484375,0.48828125,-0.9765625,-0.30517578125,6.61376953125,40.220947265625,71.2408447265625
1759066908.2708523,-0.62744140625,0.099609375,0.771484375,0.48828125,-0.9765625,-0.30517578125,6.61376953125,40.2099609375,71.2408447265625
1759066908.2809002,-0.62451171875,0.09521484375,0.7802734375,-0.732421875,-0.732421875,-0.244140625,6.6082763671875,40.2044677734375,71.2353515625
1759066908.2905934,-0.62451171875,0.09521484375,0.7802734375,-0.732421875,-0.732421875,-0.244140625,6.5972900390625,40.1934814453125,71.2298583984375
1759066908.3013177,-0.63037109375,0.0869140625,0.75927734375,-0.67138671875,-1.03759765625,-0.18310546875,6.5863037109375,40.1824951171875,71.2298583984375
1759066908.3112116,-0.63037109375,0.0869140625,0.75927734375,-0.67138671875,-1.03759765625,-0.18310546875,6.580810546875,40.166015625,71.2298583984375
1759066908.3207514,-0.62939453125,0.083984375,0.7724609375,-1.03759765625,-1.220703125,-0.30517578125,6.5643310546875,40.155029296875,71.224365234375
1759066908.330543,-0.62939453125,0.083984375,0.7724609375,-1.03759765625,-1.220703125,-0.30517578125,6.5533447265625,40.1385498046875,71.2188720703125
1759066908.3410919,-0.6337890625,0.08837890625,0.7763671875,-1.64794921875,-1.03759765625,-0.54931640625,6.5313720703125,40.1220703125,71.21337890625
1759066908.3510408,-0.6337890625,0.08837890625,0.7763671875,-1.64794921875,-1.03759765625,-0.54931640625,6.5093994140625,40.111083984375,71.202392578125
1759066908.360892,-0.64599609375,0.09326171875,0.77001953125,-1.89208984375,-0.732421875,-0.732421875,6.4874267578125,40.10009765625,71.1968994140625
1759066908.3724356,-0.64599609375,0.09326171875,0.77001953125,-1.89208984375,-0.732421875,-0.732421875,6.4599609375,40.089111328125,71.1859130859375
1759066908.3808525,-0.64501953125,0.09033203125,0.7568359375,-2.01416015625,-0.6103515625,-0.79345703125,6.4324951171875,40.0836181640625,71.1749267578125
1759066908.3911252,-0.64501953125,0.09033203125,0.7568359375,-2.01416015625,-0.6103515625,-0.79345703125,6.4105224609375,40.0726318359375,71.16943359375
1759066908.4018548,-0.640625,0.0888671875,0.763671875,-2.74658203125,-0.42724609375,-0.67138671875,6.3775634765625,40.067138671875,71.158447265625
1759066908.411508,-0.640625,0.0888671875,0.763671875,-2.74658203125,-0.42724609375,-0.67138671875,6.3446044921875,40.0616455078125,71.1529541015625
1759066908.4208512,-0.6396484375,0.07421875,0.7685546875,-2.99072265625,-0.1220703125,-0.30517578125,6.317138671875,40.0616455078125,71.1474609375
1759066908.4334614,-0.6396484375,0.07421875,0.7685546875,-2.99072265625,-0.1220703125,-0.30517578125,6.2841796875,40.05615234375,71.1474609375
1759066908.4413083,-0.63818359375,0.07177734375,0.76904296875,-2.8076171875,0.06103515625,0.18310546875,6.2567138671875,40.05615234375,71.1529541015625
1759066908.4521668,-0.63818359375,0.07177734375,0.76904296875,-2.8076171875,0.06103515625,0.18310546875,6.229248046875,40.05615234375,71.1529541015625
1759066908.460992,-0.6416015625,0.07568359375,0.75927734375,-2.62451171875,0.244140625,0.3662109375,6.207275390625,40.05615234375,71.158447265625
1759066908.4724026,-0.6416015625,0.07568359375,0.75927734375,-2.62451171875,0.244140625,0.3662109375,6.185302734375,40.05615234375,71.16943359375
1759066908.4809787,-0.6396484375,0.08935546875,0.7646484375,-3.35693359375,0.244140625,0.9765625,6.1578369140625,40.0506591796875,71.180419921875
1759066908.4912026,-0.6396484375,0.08935546875,0.7646484375,-3.35693359375,0.244140625,0.9765625,6.1358642578125,40.0506591796875,71.1968994140625
1759066908.5019372,-0.64306640625,0.0830078125,0.7548828125,-4.0283203125,0.18310546875,1.0986328125,6.1029052734375,40.0506591796875,71.2078857421875
1759066908.5127835,-0.64306640625,0.0830078125,0.7548828125,-4.0283203125,0.18310546875,1.0986328125,6.075439453125,40.0506591796875,71.224365234375
1759066908.5209463,-0.6455078125,0.07177734375,0.76416015625,-4.150390625,0.0,1.46484375,6.0479736328125,40.045166015625,71.246337890625
1759066908.5315611,-0.6455078125,0.07177734375,0.76416015625,-4.150390625,0.0,1.46484375,6.0205078125,40.045166015625,71.2628173828125
1759066908.5413396,-0.64501953125,0.07470703125,0.755859375,-3.35693359375,-0.3662109375,1.40380859375,5.99853515625,40.0396728515625,71.2847900390625
1759066908.5508206,-0.6474609375,0.0810546875,0.75634765625,-2.9296875,-0.54931640625,1.52587890625,5.9765625,40.0341796875,71.30126953125
1759066908.561037,-0.6474609375,0.0810546875,0.75634765625,-2.9296875,-0.54931640625,1.52587890625,5.9600830078125,40.023193359375,71.3177490234375
1759066908.5711558,-0.646484375,0.07958984375,0.76318359375,-3.2958984375,-0.54931640625,1.46484375,5.943603515625,40.0177001953125,71.3397216796875
1759066908.5810368,-0.646484375,0.07958984375,0.76318359375,-3.2958984375,-0.54931640625,1.46484375,5.921630859375,40.01220703125,71.356201171875
1759066908.5908403,-0.64208984375,0.07275390625,0.76318359375,-3.173828125,-0.54931640625,1.46484375,5.899658203125,40.0067138671875,71.3726806640625
1759066908.601109,-0.64208984375,0.07275390625,0.76318359375,-3.173828125,-0.54931640625,1.46484375,5.8831787109375,39.9957275390625,71.3946533203125
1759066908.6114528,-0.64306640625,0.0712890625,0.7568359375,-2.13623046875,-0.54931640625,1.15966796875,5.86669921875,39.990234375,71.4111328125
1759066908.62103,-0.64306640625,0.0712890625,0.7568359375,-2.13623046875,-0.54931640625,1.15966796875,5.855712890625,39.9847412109375,71.422119140625
1759066908.6220682,-0.64306640625,0.0712890625,0.7568359375,-2.13623046875,-0.54931640625,1.15966796875,0.010986328125,-109.6875,121.4044189453125
1759066908.6309795,-0.64306640625,0.0712890625,0.7568359375,-1.52587890625,-0.6103515625,0.91552734375,5.8447265625,39.979248046875,71.4385986328125
1759066908.6413186,-0.64453125,0.076171875,0.759765625,-1.52587890625,-0.6103515625,0.91552734375,5.833740234375,39.9737548828125,71.4495849609375
1759066908.6509151,-0.64453125,0.0791015625,0.7646484375,-1.3427734375,-0.67138671875,0.54931640625,5.8282470703125,39.96826171875,71.455078125
1759066908.6611588,-0.64453125,0.0791015625,0.7646484375,-1.3427734375,-0.67138671875,0.54931640625,5.8172607421875,39.957275390625,71.466064453125
1759066908.6712594,-0.63916015625,0.08251953125,0.7607421875,-1.3427734375,-0.79345703125,0.42724609375,5.8062744140625,39.9517822265625,71.4715576171875
1759066908.6811445,-0.63916015625,0.08251953125,0.7607421875,-1.3427734375,-0.79345703125,0.42724609375,5.7952880859375,39.9462890625,71.4715576171875
1759066908.6908991,-0.64306640625,0.08251953125,0.76513671875,-1.40380859375,-1.03759765625,0.1220703125,5.7843017578125,39.935302734375,71.47705078125
1759066908.7012463,-0.64306640625,0.08251953125,0.76513671875,-1.40380859375,-1.03759765625,0.1220703125,5.7733154296875,39.92431640625,71.47705078125
1759066908.7114916,-0.64306640625,0.080078125,0.76220703125,-1.5869140625,-1.03759765625,0.0,5.7568359375,39.913330078125,71.47705078125
1759066908.7212186,-0.64306640625,0.080078125,0.76220703125,-1.5869140625,-1.03759765625,0.0,5.7403564453125,39.9078369140625,71.4715576171875
1759066908.731078,-0.6357421875,0.07568359375,0.76904296875,-1.8310546875,-0.9765625,-0.18310546875,5.723876953125,39.8968505859375,71.4715576171875
1759066908.74296,-0.6357421875,0.07568359375,0.76904296875,-1.8310546875,-0.9765625,-0.18310546875,5.7073974609375,39.8858642578125,71.466064453125
1759066908.7510166,-0.63525390625,0.07275390625,0.765625,-2.13623046875,-1.0986328125,-0.3662109375,5.6854248046875,39.8748779296875,71.4605712890625
1759066908.7615068,-0.63525390625,0.07275390625,0.765625,-2.13623046875,-1.0986328125,-0.3662109375,5.657958984375,39.8638916015625,71.455078125
1759066908.77142,-0.63671875,0.06884765625,0.76513671875,-2.44140625,-1.3427734375,-0.48828125,5.6304931640625,39.8529052734375,71.4495849609375
1759066908.7818391,-0.63671875,0.06884765625,0.76513671875,-2.44140625,-1.3427734375,-0.48828125,5.60302734375,39.8419189453125,71.4385986328125
1759066908.7909963,-0.640625,0.07421875,0.7646484375,-2.62451171875,-1.46484375,-0.42724609375,5.5755615234375,39.825439453125,71.43310546875
1759066908.802276,-0.640625,0.07421875,0.7646484375,-2.62451171875,-1.46484375,-0.42724609375,5.5426025390625,39.814453125,71.422119140625
1759066908.8115034,-0.6416015625,0.07421875,0.76318359375,-3.23486328125,-1.46484375,-0.42724609375,5.5096435546875,39.7979736328125,71.4166259765625
1759066908.8216236,-0.6416015625,0.07421875,0.76318359375,-3.23486328125,-1.46484375,-0.42724609375,5.4766845703125,39.7869873046875,71.4111328125
1759066908.8321621,-0.642578125,0.068359375,0.76806640625,-3.41796875,-1.46484375,-0.48828125,5.438232421875,39.7705078125,71.400146484375
1759066908.843114,-0.642578125,0.068359375,0.76806640625,-3.41796875,-1.46484375,-0.48828125,5.3997802734375,39.759521484375,71.3946533203125
1759066908.8511724,-0.640625,0.06494140625,0.76513671875,-2.5634765625,-1.5869140625,-0.48828125,5.3668212890625,39.7430419921875,71.3836669921875
1759066908.86187,-0.640625,0.06494140625,0.76513671875,-2.5634765625,-1.5869140625,-0.48828125,5.3338623046875,39.7265625,71.378173828125
1759066908.8714411,-0.6435546875,0.06103515625,0.765625,-0.8544921875,-1.5869140625,-0.6103515625,5.3118896484375,39.715576171875,71.3671875
1759066908.8819158,-0.6435546875,0.06103515625,0.765625,-0.8544921875,-1.5869140625,-0.6103515625,5.29541015625,39.6990966796875,71.356201171875
1759066908.891103,-0.640625,0.06396484375,0.76318359375,0.48828125,-1.46484375,-0.67138671875,5.2899169921875,39.6881103515625,71.3507080078125
1759066908.9030135,-0.640625,0.06396484375,0.76318359375,0.48828125,-1.46484375,-0.67138671875,5.284423828125,39.671630859375,71.3397216796875
1759066908.9122758,-0.640625,0.06787109375,0.76318359375,1.220703125,-1.28173828125,-0.67138671875,5.2899169921875,39.66064453125,71.3287353515625
1759066908.9214451,-0.640625,0.06787109375,0.76318359375,1.220703125,-1.28173828125,-0.67138671875,5.2899169921875,39.649658203125,71.3177490234375
1759066908.9315162,-0.63916015625,0.0693359375,0.76806640625,0.9765625,-1.15966796875,-0.6103515625,5.29541015625,39.638671875,71.3067626953125
1759066908.941871,-0.63916015625,0.0693359375,0.76806640625,0.9765625,-1.15966796875,-0.6103515625,5.3009033203125,39.6331787109375,71.2957763671875
1759066908.951314,-0.64111328125,0.07275390625,0.7666015625,1.03759765625,-1.0986328125,-0.732421875,5.3009033203125,39.6221923828125,71.2847900390625
1759066908.9615238,-0.64111328125,0.07275390625,0.7666015625,1.03759765625,-1.0986328125,-0.732421875,5.306396484375,39.6112060546875,71.2738037109375
1759066908.9716916,-0.63916015625,0.07275390625,0.767578125,0.91552734375,-1.03759765625,-0.6103515625,5.306396484375,39.605712890625,71.268310546875
1759066908.9815407,-0.63916015625,0.07275390625,0.767578125,0.91552734375,-1.03759765625,-0.6103515625,5.3118896484375,39.5947265625,71.25732421875
1759066908.991288,-0.63818359375,0.068359375,0.77099609375,1.0986328125,-0.9765625,-0.48828125,5.3118896484375,39.583740234375,71.246337890625
1759066909.0016215,-0.63818359375,0.068359375,0.77099609375,1.0986328125,-0.9765625,-0.48828125,5.3173828125,39.5782470703125,71.2408447265625
1759066909.0123177,-0.63671875,0.06640625,0.767578125,0.732421875,-0.9765625,-0.42724609375,5.3228759765625,39.5672607421875,71.2298583984375
1759066909.021479,-0.63671875,0.06640625,0.767578125,0.732421875,-0.9765625,-0.42724609375,5.328369140625,39.561767578125,71.224365234375
1759066909.033401,-0.6396484375,0.06884765625,0.763671875,0.67138671875,-0.9765625,-0.48828125,5.328369140625,39.55078125,71.2188720703125
1759066909.0420818,-0.6396484375,0.06884765625,0.763671875,0.67138671875,-0.9765625,-0.48828125,5.328369140625,39.5452880859375,71.2078857421875
1759066909.0514584,-0.63916015625,0.0712890625,0.76513671875,0.3662109375,-0.8544921875,-0.6103515625,5.328369140625,39.539794921875,71.202392578125
1759066909.061589,-0.63916015625,0.0712890625,0.76513671875,0.3662109375,-0.8544921875,-0.6103515625,5.3228759765625,39.52880859375,71.19140625
1759066909.0722406,-0.6337890625,0.07275390625,0.7685546875,-0.1220703125,-0.8544921875,-0.48828125,5.3173828125,39.5233154296875,71.180419921875
1759066909.0815566,-0.6337890625,0.07275390625,0.7685546875,-0.1220703125,-0.8544921875,-0.48828125,5.3118896484375,39.517822265625,71.1749267578125
1759066909.0914488,-0.6328125,0.0712890625,0.771484375,-0.54931640625,-0.8544921875,-0.42724609375,5.306396484375,39.5068359375,71.16943359375
1759066909.1015756,-0.6328125,0.0712890625,0.771484375,-0.54931640625,-0.8544921875,-0.42724609375,5.29541015625,39.5013427734375,71.1639404296875
1759066909.1129432,-0.634765625,0.0703125,0.76806640625,-0.8544921875,-0.9765625,-0.18310546875,5.284423828125,39.495849609375,71.158447265625
1759066909.1216133,-0.634765625,0.0703125,0.76806640625,-0.8544921875,-0.9765625,-0.18310546875,5.2734375,39.48486328125,71.1529541015625
1759066909.1322403,-0.6357421875,0.068359375,0.76708984375,-1.220703125,-1.03759765625,-0.18310546875,5.262451171875,39.473876953125,71.1474609375
1759066909.1427722,-0.6357421875,0.068359375,0.76708984375,-1.220703125,-1.03759765625,-0.18310546875,5.2459716796875,39.4683837890625,71.1419677734375
1759066909.152537,-0.6337890625,0.0673828125,0.77001953125,-1.5869140625,-1.15966796875,-0.1220703125,5.2294921875,39.4573974609375,71.1419677734375
1759066909.1620274,-0.6337890625,0.0673828125,0.77001953125,-1.5869140625,-1.15966796875,-0.1220703125,5.2130126953125,39.4464111328125,71.136474609375
1759066909.1730814,-0.6318359375,0.06396484375,0.77490234375,-1.40380859375,-1.3427734375,-0.06103515625,5.196533203125,39.4354248046875,71.136474609375
1759066909.1817338,-0.6318359375,0.06396484375,0.77490234375,-1.40380859375,-1.3427734375,-0.06103515625,5.1800537109375,39.4189453125,71.1309814453125
1759066909.1925719,-0.6318359375,0.06396484375,0.77490234375,-0.3662109375,-1.40380859375,-0.06103515625,5.1690673828125,39.407958984375,71.12548828125
1759066909.2016647,-0.634765625,0.0654296875,0.76904296875,-0.3662109375,-1.40380859375,-0.06103515625,5.16357421875,39.3914794921875,71.12548828125
1759066909.214078,-0.63720703125,0.06787109375,0.7666015625,0.18310546875,-1.46484375,-0.18310546875,5.1580810546875,39.3804931640625,71.1199951171875
1759066909.2217526,-0.63720703125,0.06787109375,0.7666015625,0.18310546875,-1.46484375,-0.18310546875,5.1580810546875,39.364013671875,71.114501953125
1759066909.232709,-0.63671875,0.0654296875,0.76611328125,0.1220703125,-1.40380859375,-0.244140625,5.152587890625,39.35302734375,71.1090087890625
1759066909.2452931,-0.63671875,0.0654296875,0.76611328125,0.1220703125,-1.40380859375,-0.244140625,5.152587890625,39.3365478515625,71.103515625
1759066909.251758,-0.6357421875,0.06201171875,0.76953125,0.18310546875,-1.40380859375,-0.30517578125,5.152587890625,39.3255615234375,71.0980224609375
1759066909.261538,-0.6357421875,0.06201171875,0.76953125,0.18310546875,-1.40380859375,-0.30517578125,5.1470947265625,39.3145751953125,71.092529296875
1759066909.2716937,-0.6337890625,0.06103515625,0.7705078125,0.732421875,-1.40380859375,-0.244140625,5.1470947265625,39.298095703125,71.0870361328125
1759066909.2815206,-0.6337890625,0.06103515625,0.7705078125,0.732421875,-1.40380859375,-0.244140625,5.1470947265625,39.287109375,71.08154296875
1759066909.2917085,-0.63232421875,0.0625,0.77197265625,1.40380859375,-1.46484375,-0.48828125,5.152587890625,39.276123046875,71.070556640625
1759066909.3015015,-0.63232421875,0.0625,0.77197265625,1.40380859375,-1.46484375,-0.48828125,5.16357421875,39.2596435546875,71.0650634765625
1759066909.3122892,-0.62939453125,0.06396484375,0.7724609375,1.3427734375,-1.40380859375,-0.48828125,5.1690673828125,39.2486572265625,71.0540771484375
1759066909.3215063,-0.62939453125,0.06396484375,0.7724609375,1.3427734375,-1.40380859375,-0.48828125,5.174560546875,39.2376708984375,71.0430908203125
1759066909.3327835,-0.6298828125,0.06591796875,0.77392578125,0.9765625,-1.40380859375,-0.6103515625,5.1800537109375,39.22119140625,71.03759765625
1759066909.3466074,-0.6298828125,0.06591796875,0.77392578125,0.9765625,-1.40380859375,-0.6103515625,5.1800537109375,39.210205078125,71.026611328125
1759066909.3527653,-0.630859375,0.06103515625,0.77734375,0.42724609375,-1.40380859375,-0.67138671875,5.1800537109375,39.19921875,71.015625
1759066909.3619423,-0.630859375,0.06103515625,0.77734375,0.42724609375,-1.40380859375,-0.67138671875,5.174560546875,39.1827392578125,71.004638671875
1759066909.3716645,-0.630859375,0.0595703125,0.7744140625,0.732421875,-1.40380859375,-0.79345703125,5.1690673828125,39.1717529296875,70.9881591796875
1759066909.3815777,-0.630859375,0.0595703125,0.7744140625,0.732421875,-1.40380859375,-0.79345703125,5.1690673828125,39.1607666015625,70.9771728515625
1759066909.3916337,-0.630859375,0.0625,0.771484375,0.1220703125,-1.3427734375,-0.8544921875,5.16357421875,39.144287109375,70.960693359375
1759066909.4015737,-0.630859375,0.0625,0.771484375,0.1220703125,-1.3427734375,-0.8544921875,5.152587890625,39.13330078125,70.94970703125
1759066909.411931,-0.6318359375,0.06201171875,0.7744140625,-1.15966796875,-1.3427734375,-0.8544921875,5.1361083984375,39.122314453125,70.9332275390625
1759066909.4215941,-0.6318359375,0.06201171875,0.7744140625,-1.15966796875,-1.3427734375,-0.8544921875,5.1141357421875,39.111328125,70.9222412109375
1759066909.4316945,-0.63134765625,0.0576171875,0.7744140625,-2.685546875,-1.28173828125,-0.91552734375,5.0811767578125,39.100341796875,70.90576171875
1759066909.44192,-0.63134765625,0.0576171875,0.7744140625,-2.685546875,-1.28173828125,-0.91552734375,5.042724609375,39.08935546875,70.894775390625
1759066909.45163,-0.6337890625,0.0537109375,0.76953125,-2.8076171875,-1.40380859375,-0.9765625,5.0042724609375,39.0728759765625,70.8782958984375
1759066909.4616663,-0.6337890625,0.0537109375,0.76953125,-2.8076171875,-1.40380859375,-0.9765625,4.9658203125,39.0618896484375,70.86181640625
1759066909.47177,-0.63623046875,0.05419921875,0.76904296875,-1.8310546875,-1.40380859375,-1.03759765625,4.932861328125,39.0509033203125,70.8453369140625
1759066909.4816873,-0.63623046875,0.05419921875,0.76904296875,-1.8310546875,-1.40380859375,-1.03759765625,4.89990234375,39.0399169921875,70.828857421875
1759066909.491783,-0.63818359375,0.04931640625,0.76513671875,-0.3662109375,-1.40380859375,-1.28173828125,4.8779296875,39.0289306640625,70.8123779296875
1759066909.5016842,-0.63818359375,0.04931640625,0.76513671875,-0.3662109375,-1.40380859375,-1.28173828125,4.85595703125,39.0179443359375,70.7904052734375
1759066909.5122275,-0.63671875,0.052734375,0.767578125,1.28173828125,-1.52587890625,-1.3427734375,4.8504638671875,39.0069580078125,70.77392578125
1759066909.5217178,-0.63671875,0.052734375,0.767578125,1.28173828125,-1.52587890625,-1.3427734375,4.844970703125,38.9959716796875,70.751953125
1759066909.5317402,-0.630859375,0.0576171875,0.77099609375,3.173828125,-1.5869140625,-1.40380859375,4.8504638671875,38.9794921875,70.72998046875
1759066909.5418096,-0.630859375,0.0576171875,0.77099609375,3.173828125,-1.5869140625,-1.40380859375,4.866943359375,38.968505859375,70.7080078125
1759066909.55175,-0.6279296875,0.06689453125,0.7763671875,4.45556640625,-1.77001953125,-1.28173828125,4.888916015625,38.95751953125,70.68603515625
1759066909.5618052,-0.6279296875,0.06689453125,0.7763671875,4.45556640625,-1.77001953125,-1.28173828125,4.9163818359375,38.9410400390625,70.6695556640625
1759066909.5718093,-0.6318359375,0.083984375,0.77490234375,4.08935546875,-1.89208984375,-1.03759765625,4.9493408203125,38.924560546875,70.6475830078125
1759066909.5818691,-0.6318359375,0.083984375,0.77490234375,4.08935546875,-1.89208984375,-1.03759765625,4.976806640625,38.91357421875,70.631103515625
1759066909.591868,-0.62939453125,0.09375,0.7705078125,1.5869140625,-1.953125,-0.54931640625,4.9822998046875,38.8916015625,70.6201171875
1759066909.6017978,-0.62939453125,0.09375,0.7705078125,1.5869140625,-1.953125,-0.54931640625,4.9932861328125,38.8751220703125,70.6146240234375
1759066909.6123402,-0.625,0.09033203125,0.77490234375,-0.8544921875,-2.01416015625,-0.18310546875,4.9822998046875,38.858642578125,70.609130859375
1759066909.6218863,-0.625,0.09033203125,0.77490234375,-0.8544921875,-2.01416015625,-0.18310546875,4.976806640625,38.8421630859375,70.6036376953125
1759066909.631855,-0.625,0.09033203125,0.77490234375,-2.3193359375,-1.89208984375,0.06103515625,4.954833984375,38.82568359375,70.59814453125
1759066909.6418633,-0.62548828125,0.08251953125,0.78076171875,-2.3193359375,-1.89208984375,0.06103515625,4.932861328125,38.8037109375,70.59814453125
1759066909.6518896,-0.6279296875,0.07763671875,0.7783203125,-3.0517578125,-1.8310546875,0.244140625,4.9053955078125,38.7872314453125,70.59814453125
1759066909.6620576,-0.6279296875,0.07763671875,0.7783203125,-3.0517578125,-1.8310546875,0.244140625,4.8779296875,38.770751953125,70.59814453125
1759066909.671976,-0.62744140625,0.07421875,0.77587890625,-4.150390625,-1.77001953125,0.30517578125,4.844970703125,38.7542724609375,70.59814453125
1759066909.6820343,-0.62744140625,0.07421875,0.77587890625,-4.150390625,-1.77001953125,0.30517578125,4.8065185546875,38.73779296875,70.59814453125
1759066909.6923347,-0.6240234375,0.0732421875,0.78369140625,-5.06591796875,-1.708984375,0.42724609375,4.7625732421875,38.7213134765625,70.59814453125
1759066909.702104,-0.6240234375,0.0732421875,0.78369140625,-5.06591796875,-1.708984375,0.42724609375,4.7186279296875,38.704833984375,70.6036376953125
1759066909.712629,-0.6181640625,0.0732421875,0.77978515625,-5.615234375,-1.64794921875,0.6103515625,4.6746826171875,38.6883544921875,70.609130859375
1759066909.722115,-0.6181640625,0.0732421875,0.77978515625,-5.615234375,-1.64794921875,0.6103515625,4.625244140625,38.671875,70.6146240234375
1759066909.7321038,-0.6201171875,0.0751953125,0.78076171875,-5.55419921875,-1.8310546875,0.79345703125,4.581298828125,38.6553955078125,70.6201171875
1759066909.7425182,-0.6201171875,0.0751953125,0.78076171875,-5.55419921875,-1.8310546875,0.79345703125,4.537353515625,38.6334228515625,70.631103515625
1759066909.751983,-0.623046875,0.068359375,0.77734375,-5.7373046875,-1.708984375,1.0986328125,4.4879150390625,38.616943359375,70.64208984375
1759066909.762008,-0.623046875,0.068359375,0.77734375,-5.7373046875,-1.708984375,1.0986328125,4.4439697265625,38.6004638671875,70.653076171875
1759066909.7720873,-0.62451171875,0.0634765625,0.78173828125,-5.92041015625,-1.52587890625,1.28173828125,4.4000244140625,38.583984375,70.6640625
1759066909.782024,-0.62451171875,0.0634765625,0.78173828125,-5.92041015625,-1.52587890625,1.28173828125,4.3560791015625,38.5675048828125,70.6805419921875
1759066909.792032,-0.62353515625,0.05712890625,0.78173828125,-5.43212890625,-1.40380859375,1.3427734375,4.317626953125,38.551025390625,70.6915283203125
1759066909.8020463,-0.62353515625,0.05712890625,0.78173828125,-5.43212890625,-1.40380859375,1.3427734375,4.2791748046875,38.5400390625,70.7080078125
1759066909.812529,-0.623046875,0.056640625,0.7783203125,-4.57763671875,-1.3427734375,1.3427734375,4.2462158203125,38.5235595703125,70.718994140625
1759066909.8220398,-0.623046875,0.056640625,0.7783203125,-4.57763671875,-1.3427734375,1.3427734375,4.2132568359375,38.5125732421875,70.7354736328125
1759066909.8320909,-0.62646484375,0.0517578125,0.77734375,-4.21142578125,-1.220703125,1.28173828125,4.185791015625,38.49609375,70.7464599609375
1759066909.842509,-0.62646484375,0.0517578125,0.77734375,-4.21142578125,-1.220703125,1.28173828125,4.1583251953125,38.485107421875,70.762939453125
1759066909.8521032,-0.625,0.04931640625,0.77880859375,-4.08935546875,-1.15966796875,1.220703125,4.1253662109375,38.47412109375,70.77392578125
1759066909.8621314,-0.625,0.04931640625,0.77880859375,-4.08935546875,-1.15966796875,1.220703125,4.097900390625,38.463134765625,70.784912109375
1759066909.872301,-0.62646484375,0.048828125,0.7705078125,-3.7841796875,-1.0986328125,1.0986328125,4.0704345703125,38.4521484375,70.7958984375
1759066909.882147,-0.62646484375,0.048828125,0.7705078125,-3.7841796875,-1.0986328125,1.0986328125,4.04296875,38.441162109375,70.806884765625
1759066909.892203,-0.62451171875,0.046875,0.77978515625,-3.60107421875,-1.15966796875,0.91552734375,4.0155029296875,38.43017578125,70.8123779296875
1759066909.9026937,-0.62451171875,0.046875,0.77978515625,-3.60107421875,-1.15966796875,0.91552734375,3.988037109375,38.419189453125,70.8233642578125
1759066909.9128077,-0.6240234375,0.04638671875,0.77880859375,-2.9296875,-1.220703125,0.79345703125,3.9605712890625,38.408203125,70.828857421875
1759066909.9221606,-0.6240234375,0.04638671875,0.77880859375,-2.9296875,-1.220703125,0.79345703125,3.9385986328125,38.397216796875,70.8343505859375
1759066909.933491,-0.626953125,0.04638671875,0.78173828125,-2.197265625,-1.220703125,0.732421875,3.922119140625,38.3917236328125,70.83984375
1759066909.9430182,-0.626953125,0.04638671875,0.78173828125,-2.197265625,-1.220703125,0.732421875,3.9056396484375,38.3807373046875,70.8453369140625
1759066909.9524446,-0.623046875,0.0478515625,0.7802734375,-1.77001953125,-1.3427734375,0.54931640625,3.8946533203125,38.3642578125,70.850830078125
1759066909.9622416,-0.623046875,0.0478515625,0.7802734375,-1.77001953125,-1.3427734375,0.54931640625,3.878173828125,38.353271484375,70.850830078125
1759066909.9725888,-0.61962890625,0.0478515625,0.77978515625,-0.8544921875,-1.3427734375,0.48828125,3.8726806640625,38.34228515625,70.8563232421875
1759066909.9824743,-0.61962890625,0.0478515625,0.77978515625,-0.8544921875,-1.3427734375,0.48828125,3.8671875,38.331298828125,70.8563232421875
1759066909.9923196,-0.61962890625,0.046875,0.77880859375,-0.18310546875,-1.46484375,0.42724609375,3.8671875,38.3203125,70.8563232421875
1759066910.0023065,-0.61962890625,0.046875,0.77880859375,-0.18310546875,-1.46484375,0.42724609375,3.8671875,38.3038330078125,70.86181640625
1759066910.013011,-0.61767578125,0.05029296875,0.7822265625,0.42724609375,-1.5869140625,0.48828125,3.8726806640625,38.287353515625,70.86181640625
1759066910.0222938,-0.61767578125,0.05029296875,0.7822265625,0.42724609375,-1.5869140625,0.48828125,3.878173828125,38.2763671875,70.86181640625
1759066910.0324252,-0.6181640625,0.05126953125,0.7841796875,1.15966796875,-1.77001953125,0.48828125,3.8946533203125,38.2598876953125,70.8673095703125
1759066910.0422878,-0.6181640625,0.05126953125,0.7841796875,1.15966796875,-1.77001953125,0.48828125,3.9056396484375,38.243408203125,70.8673095703125
1759066910.0524926,-0.62548828125,0.0576171875,0.783203125,1.89208984375,-1.708984375,0.42724609375,3.9276123046875,38.2269287109375,70.8673095703125
1759066910.0623324,-0.62548828125,0.0576171875,0.783203125,1.89208984375,-1.708984375,0.42724609375,3.944091796875,38.21044921875,70.872802734375
1759066910.0726838,-0.62548828125,0.06103515625,0.78125,2.44140625,-1.5869140625,0.3662109375,3.9715576171875,38.1939697265625,70.872802734375
1759066910.082416,-0.62548828125,0.06103515625,0.78125,2.44140625,-1.5869140625,0.3662109375,3.9990234375,38.1829833984375,70.872802734375
1759066910.0925565,-0.6181640625,0.0615234375,0.78369140625,2.99072265625,-1.52587890625,0.30517578125,4.031982421875,38.16650390625,70.872802734375
1759066910.1025083,-0.6181640625,0.0615234375,0.78369140625,2.99072265625,-1.52587890625,0.30517578125,4.0594482421875,38.155517578125,70.872802734375
1759066910.1129992,-0.61474609375,0.05810546875,0.78369140625,3.0517578125,-1.46484375,0.244140625,4.0924072265625,38.1390380859375,70.872802734375
1759066910.1224294,-0.61474609375,0.05810546875,0.78369140625,3.0517578125,-1.46484375,0.244140625,4.1253662109375,38.1280517578125,70.872802734375
1759066910.1324766,-0.6171875,0.06103515625,0.7822265625,2.62451171875,-1.46484375,0.3662109375,4.15283203125,38.1170654296875,70.872802734375
1759066910.1429293,-0.6171875,0.06103515625,0.7822265625,2.62451171875,-1.46484375,0.3662109375,4.1802978515625,38.1005859375,70.872802734375
1759066910.1524668,-0.6171875,0.06396484375,0.78857421875,1.708984375,-1.52587890625,0.42724609375,4.19677734375,38.0841064453125,70.872802734375
1759066910.16254,-0.6171875,0.06396484375,0.78857421875,1.708984375,-1.52587890625,0.42724609375,4.21875,38.0731201171875,70.8782958984375
1759066910.1725922,-0.6162109375,0.06591796875,0.7861328125,0.30517578125,-1.64794921875,0.48828125,4.2242431640625,38.056640625,70.8782958984375
1759066910.1825397,-0.6162109375,0.06591796875,0.7861328125,0.30517578125,-1.64794921875,0.48828125,4.229736328125,38.0401611328125,70.8837890625
1759066910.1925795,-0.6162109375,0.06591796875,0.7861328125,-1.15966796875,-1.77001953125,0.54931640625,4.2242431640625,38.023681640625,70.8837890625
1759066910.2024996,-0.615234375,0.0654296875,0.78515625,-1.15966796875,-1.77001953125,0.54931640625,4.21875,38.0072021484375,70.8892822265625
1759066910.2128859,-0.62255859375,0.06201171875,0.78515625,-2.86865234375,-1.953125,0.6103515625,4.1912841796875,37.99072265625,70.894775390625
1759066910.2225482,-0.62255859375,0.06201171875,0.78515625,-2.86865234375,-1.953125,0.6103515625,4.1693115234375,37.96875,70.9002685546875
1759066910.2343998,-0.6240234375,0.0537109375,0.779296875,-4.82177734375,-2.0751953125,0.732421875,4.1253662109375,37.9522705078125,70.90576171875
1759066910.2436755,-0.6240234375,0.0537109375,0.779296875,-4.82177734375,-2.0751953125,0.732421875,4.0869140625,37.9302978515625,70.9112548828125
1759066910.2529101,-0.62451171875,0.0517578125,0.7763671875,-5.67626953125,-2.0751953125,0.79345703125,4.0374755859375,37.913818359375,70.916748046875
1759066910.262757,-0.62451171875,0.0517578125,0.7763671875,-5.67626953125,-2.0751953125,0.79345703125,3.9825439453125,37.891845703125,70.9222412109375
1759066910.272998,-0.6220703125,0.0498046875,0.78564453125,-5.859375,-2.01416015625,0.8544921875,3.93310546875,37.8753662109375,70.927734375
1759066910.2828577,-0.6220703125,0.0498046875,0.78564453125,-5.859375,-2.01416015625,0.8544921875,3.8836669921875,37.85888671875,70.9332275390625
1759066910.2929368,-0.62109375,0.044921875,0.78173828125,-6.103515625,-1.77001953125,0.79345703125,3.8287353515625,37.8424072265625,70.938720703125
1759066910.30267,-0.62109375,0.044921875,0.78173828125,-6.103515625,-1.77001953125,0.79345703125,3.7738037109375,37.825927734375,70.9442138671875
1759066910.313329,-0.62109375,0.04345703125,0.78125,-6.53076171875,-1.5869140625,0.67138671875,3.71337890625,37.81494140625,70.94970703125
1759066910.3226767,-0.62109375,0.04345703125,0.78125,-6.53076171875,-1.5869140625,0.67138671875,3.6529541015625,37.803955078125,70.9552001953125
1759066910.3327186,-0.61669921875,0.04541015625,0.78515625,-7.14111328125,-1.46484375,0.732421875,3.5870361328125,37.7874755859375,70.960693359375
1759066910.344743,-0.61669921875,0.04541015625,0.78515625,-7.14111328125,-1.46484375,0.732421875,3.5211181640625,37.7764892578125,70.9661865234375
1759066910.3530374,-0.61279296875,0.0419921875,0.7880859375,-7.14111328125,-1.46484375,0.67138671875,3.4552001953125,37.7655029296875,70.9716796875
1759066910.3629532,-0.61279296875,0.0419921875,0.7880859375,-7.14111328125,-1.46484375,0.67138671875,3.3892822265625,37.7545166015625,70.9716796875
1759066910.373069,-0.61328125,0.0390625,0.7861328125,-6.8359375,-1.3427734375,0.67138671875,3.328857421875,37.7435302734375,70.9771728515625
1759066910.3830137,-0.61328125,0.0390625,0.7861328125,-6.8359375,-1.3427734375,0.67138671875,3.2684326171875,37.7325439453125,70.982666015625
1759066910.3930295,-0.611328125,0.03466796875,0.787109375,-6.65283203125,-1.28173828125,0.6103515625,3.2025146484375,37.7215576171875,70.9881591796875
1759066910.4029675,-0.611328125,0.03466796875,0.787109375,-6.65283203125,-1.28173828125,0.6103515625,3.14208984375,37.7105712890625,70.99365234375
1759066910.4134367,-0.60888671875,0.03076171875,0.78662109375,-6.16455078125,-1.220703125,0.42724609375,3.087158203125,37.6995849609375,70.99365234375
1759066910.42291,-0.60888671875,0.03076171875,0.78662109375,-6.16455078125,-1.220703125,0.42724609375,3.0267333984375,37.6885986328125,70.9991455078125
1759066910.4331634,-0.60888671875,0.02978515625,0.79150390625,-4.8828125,-1.220703125,0.244140625,2.977294921875,37.6776123046875,70.9991455078125
1759066910.4436915,-0.60888671875,0.02978515625,0.79150390625,-4.8828125,-1.220703125,0.244140625,2.933349609375,37.672119140625,70.9991455078125
1759066910.4535034,-0.60498046875,0.029296875,0.79296875,-3.90625,-1.15966796875,0.06103515625,2.8948974609375,37.6611328125,70.99365234375
1759066910.4630213,-0.60498046875,0.029296875,0.79296875,-3.90625,-1.15966796875,0.06103515625,2.8509521484375,37.650146484375,70.99365234375
1759066910.473121,-0.60400390625,0.03076171875,0.79443359375,-3.41796875,-1.15966796875,-0.30517578125,2.8179931640625,37.63916015625,70.9881591796875
1759066910.4839756,-0.60400390625,0.03076171875,0.79443359375,-3.41796875,-1.15966796875,-0.30517578125,2.779541015625,37.628173828125,70.9771728515625
1759066910.4931676,-0.6123046875,0.03466796875,0.78857421875,-3.2958984375,-1.28173828125,-0.54931640625,2.7410888671875,37.6171875,70.9716796875
1759066910.5031075,-0.6123046875,0.03466796875,0.78857421875,-3.2958984375,-1.28173828125,-0.54931640625,2.70263671875,37.606201171875,70.960693359375
1759066910.5135078,-0.615234375,0.03125,0.7861328125,-2.5634765625,-1.46484375,-0.732421875,2.669677734375,37.5897216796875,70.94970703125
1759066910.523404,-0.615234375,0.03125,0.7861328125,-2.5634765625,-1.46484375,-0.732421875,2.63671875,37.5787353515625,70.9332275390625
1759066910.5332122,-0.6123046875,0.0283203125,0.7890625,-1.52587890625,-1.64794921875,-0.8544921875,2.61474609375,37.562255859375,70.9222412109375
1759066910.54389,-0.6123046875,0.0283203125,0.7890625,-1.52587890625,-1.64794921875,-0.8544921875,2.5927734375,37.5457763671875,70.90576171875
1759066910.553296,-0.61669921875,0.03271484375,0.7890625,-1.3427734375,-1.77001953125,-0.9765625,2.57080078125,37.5347900390625,70.8892822265625
1759066910.5630918,-0.61669921875,0.03271484375,0.7890625,-1.3427734375,-1.77001953125,-0.9765625,2.548828125,37.518310546875,70.872802734375
1759066910.5733762,-0.6220703125,0.037109375,0.7841796875,-1.708984375,-1.64794921875,-1.15966796875,2.5213623046875,37.5018310546875,70.8563232421875
1759066910.5836847,-0.6220703125,0.037109375,0.7841796875,-1.708984375,-1.64794921875,-1.15966796875,2.493896484375,37.4908447265625,70.83984375
1759066910.5932765,-0.61865234375,0.03466796875,0.78759765625,-2.01416015625,-1.52587890625,-1.15966796875,2.4664306640625,37.4798583984375,70.81787109375
1759066910.6037102,-0.61865234375,0.03466796875,0.78759765625,-2.01416015625,-1.52587890625,-1.15966796875,2.4334716796875,37.4688720703125,70.8013916015625
1759066910.6137004,-0.61865234375,0.03515625,0.78759765625,-2.44140625,-1.46484375,-1.0986328125,2.4005126953125,37.452392578125,70.784912109375
1759066910.6231868,-0.61865234375,0.03515625,0.78759765625,-2.44140625,-1.46484375,-1.0986328125,2.3675537109375,37.4468994140625,70.7684326171875
1759066910.633474,-0.61865234375,0.03515625,0.78759765625,-3.47900390625,-1.46484375,-0.8544921875,2.3291015625,37.4359130859375,70.751953125
1759066910.644724,-0.6240234375,0.03076171875,0.78564453125,-3.72314453125,-1.3427734375,-0.6103515625,2.2906494140625,37.4249267578125,70.7354736328125
1759066910.6533575,-0.6240234375,0.03076171875,0.78564453125,-3.72314453125,-1.3427734375,-0.6103515625,2.2467041015625,37.4139404296875,70.7244873046875
1759066910.6631348,-0.61767578125,0.02197265625,0.7841796875,-3.23486328125,-1.3427734375,-0.42724609375,2.208251953125,37.4029541015625,70.7135009765625
1759066910.6735303,-0.61767578125,0.02197265625,0.7841796875,-3.23486328125,-1.3427734375,-0.42724609375,2.17529296875,37.3974609375,70.7080078125
1759066910.6835372,-0.6083984375,0.02197265625,0.794921875,-1.8310546875,-1.28173828125,-0.42724609375,2.1478271484375,37.386474609375,70.697021484375
1759066910.6934595,-0.6083984375,0.02197265625,0.794921875,-1.8310546875,-1.28173828125,-0.42724609375,2.1258544921875,37.3809814453125,70.68603515625
1759066910.7031584,-0.6083984375,0.02197265625,0.794921875,-0.91552734375,-1.15966796875,-0.244140625,2.109375,37.3699951171875,70.6805419921875
1759066910.7137995,-0.61181640625,0.02099609375,0.79443359375,-0.91552734375,-1.15966796875,-0.244140625,2.098388671875,37.364501953125,70.6695556640625
1759066910.7233887,-0.62158203125,0.0234375,0.7890625,-0.48828125,-0.9765625,-0.30517578125,2.08740234375,37.353515625,70.6640625
1759066910.7334428,-0.62158203125,0.0234375,0.7890625,-0.48828125,-0.9765625,-0.30517578125,2.0819091796875,37.3480224609375,70.6585693359375
1759066910.7446718,-0.6162109375,0.02685546875,0.78466796875,-1.03759765625,-0.8544921875,-0.244140625,2.0709228515625,37.342529296875,70.653076171875
1759066910.7534745,-0.6162109375,0.02685546875,0.78466796875,-1.03759765625,-0.8544921875,-0.244140625,2.054443359375,37.3370361328125,70.64208984375
1759066910.7633514,-0.607421875,0.025390625,0.796875,-1.77001953125,-0.79345703125,-0.3662109375,2.0379638671875,37.3370361328125,70.6365966796875
1759066910.7735748,-0.607421875,0.025390625,0.796875,-1.77001953125,-0.79345703125,-0.3662109375,2.0159912109375,37.33154296875,70.6256103515625
1759066910.7835934,-0.60791015625,0.01611328125,0.7919921875,-1.28173828125,-0.79345703125,-0.42724609375,1.99951171875,37.3260498046875,70.6201171875
1759066910.793571,-0.60791015625,0.01611328125,0.7919921875,-1.28173828125,-0.79345703125,-0.42724609375,1.9830322265625,37.320556640625,70.609130859375
1759066910.8032386,-0.615234375,0.0107421875,0.7890625,0.1220703125,-0.79345703125,-0.6103515625,1.9720458984375,37.3150634765625,70.59814453125
1759066910.8138576,-0.615234375,0.0107421875,0.7890625,0.1220703125,-0.79345703125,-0.6103515625,1.966552734375,37.3150634765625,70.587158203125
1759066910.8234322,-0.6162109375,0.01416015625,0.78857421875,1.5869140625,-0.79345703125,-0.8544921875,1.966552734375,37.3095703125,70.576171875
1759066910.8341293,-0.6162109375,0.01416015625,0.78857421875,1.5869140625,-0.79345703125,-0.8544921875,1.9720458984375,37.3040771484375,70.5596923828125
1759066910.8440785,-0.6162109375,0.0185546875,0.787109375,2.01416015625,-0.8544921875,-0.91552734375,1.9830322265625,37.298583984375,70.543212890625
1759066910.8536174,-0.6162109375,0.0185546875,0.787109375,2.01416015625,-0.8544921875,-0.91552734375,1.988525390625,37.2930908203125,70.5322265625
1759066910.8636563,-0.61279296875,0.02294921875,0.79150390625,2.13623046875,-0.91552734375,-1.03759765625,1.99951171875,37.28759765625,70.5157470703125
1759066910.8737767,-0.61279296875,0.02294921875,0.79150390625,2.13623046875,-0.91552734375,-1.03759765625,2.010498046875,37.2821044921875,70.499267578125
1759066910.8838174,-0.6181640625,0.02294921875,0.78564453125,2.38037109375,-1.03759765625,-1.220703125,2.021484375,37.276611328125,70.477294921875
1759066910.8934798,-0.6181640625,0.02294921875,0.78564453125,2.38037109375,-1.03759765625,-1.220703125,2.032470703125,37.2711181640625,70.4608154296875
1759066910.9033964,-0.61962890625,0.025390625,0.78662109375,3.0517578125,-0.9765625,-1.3427734375,2.0489501953125,37.265625,70.4388427734375
1759066910.914971,-0.61962890625,0.025390625,0.78662109375,3.0517578125,-0.9765625,-1.3427734375,2.0654296875,37.2601318359375,70.4168701171875
1759066910.9235697,-0.61572265625,0.02490234375,0.79150390625,3.5400390625,-0.9765625,-1.40380859375,2.0819091796875,37.254638671875,70.3948974609375
1759066910.9337807,-0.61572265625,0.02490234375,0.79150390625,3.5400390625,-0.9765625,-1.40380859375,2.1038818359375,37.2491455078125,70.3729248046875
1759066910.9449234,-0.61181640625,0.02685546875,0.7900390625,3.35693359375,-0.91552734375,-1.46484375,2.1258544921875,37.2491455078125,70.3509521484375
1759066910.9537578,-0.61181640625,0.02685546875,0.7900390625,3.35693359375,-0.91552734375,-1.46484375,2.1478271484375,37.24365234375,70.3289794921875
1759066910.9640946,-0.615234375,0.03076171875,0.7890625,2.685546875,-0.91552734375,-1.52587890625,2.1588134765625,37.2381591796875,70.3070068359375
1759066910.974125,-0.615234375,0.03076171875,0.7890625,2.685546875,-0.91552734375,-1.52587890625,2.17529296875,37.232666015625,70.2850341796875
1759066910.983629,-0.61669921875,0.0341796875,0.78759765625,1.64794921875,-0.79345703125,-1.52587890625,2.1807861328125,37.232666015625,70.2630615234375
1759066910.9939246,-0.61669921875,0.0341796875,0.78759765625,1.64794921875,-0.79345703125,-1.52587890625,2.186279296875,37.2271728515625,70.235595703125
1759066911.0034146,-0.6142578125,0.029296875,0.78759765625,0.67138671875,-0.8544921875,-1.3427734375,2.1807861328125,37.2216796875,70.213623046875
1759066911.014244,-0.6142578125,0.029296875,0.78759765625,0.67138671875,-0.8544921875,-1.3427734375,2.1807861328125,37.2216796875,70.191650390625
1759066911.0236275,-0.609375,0.0263671875,0.79150390625,0.1220703125,-0.91552734375,-1.03759765625,2.1697998046875,37.2161865234375,70.1751708984375
1759066911.0339322,-0.609375,0.0263671875,0.79150390625,0.1220703125,-0.91552734375,-1.03759765625,2.164306640625,37.210693359375,70.15869140625
1759066911.0447965,-0.6103515625,0.0263671875,0.791015625,0.06103515625,-0.9765625,-0.8544921875,2.1533203125,37.2052001953125,70.1422119140625
1759066911.0540242,-0.6103515625,0.0263671875,0.791015625,0.06103515625,-0.9765625,-0.8544921875,2.1478271484375,37.19970703125,70.125732421875
1759066911.0635445,-0.61376953125,0.02685546875,0.79296875,0.0,-0.9765625,-0.67138671875,2.142333984375,37.1942138671875,70.1092529296875
1759066911.0740361,-0.61376953125,0.02685546875,0.79296875,0.0,-0.9765625,-0.67138671875,2.1368408203125,37.188720703125,70.0982666015625
1759066911.0837386,-0.61572265625,0.0234375,0.78857421875,0.244140625,-0.9765625,-0.54931640625,2.13134765625,37.1832275390625,70.0872802734375
1759066911.0937471,-0.61572265625,0.0234375,0.78857421875,0.244140625,-0.9765625,-0.54931640625,2.1258544921875,37.177734375,70.0762939453125
1759066911.1036336,-0.6103515625,0.025390625,0.7919921875,0.54931640625,-0.79345703125,-0.3662109375,2.1258544921875,37.1722412109375,70.0653076171875
1759066911.1139417,-0.6103515625,0.025390625,0.7919921875,0.54931640625,-0.79345703125,-0.3662109375,2.1258544921875,37.166748046875,70.059814453125
1759066911.123663,-0.60400390625,0.02587890625,0.798828125,0.54931640625,-0.79345703125,-0.3662109375,2.1258544921875,37.166748046875,70.048828125
1759066911.1342933,-0.60400390625,0.02587890625,0.798828125,0.54931640625,-0.79345703125,-0.3662109375,2.13134765625,37.1612548828125,70.0433349609375
1759066911.1441388,-0.60693359375,0.025390625,0.796875,0.3662109375,-0.67138671875,-0.30517578125,2.13134765625,37.15576171875,70.0323486328125
1759066911.153741,-0.60693359375,0.025390625,0.796875,0.3662109375,-0.67138671875,-0.30517578125,2.13134765625,37.1502685546875,70.02685546875
1759066911.163698,-0.611328125,0.02490234375,0.79296875,0.30517578125,-0.48828125,-0.244140625,2.1258544921875,37.1502685546875,70.015869140625
1759066911.1749456,-0.611328125,0.02490234375,0.79296875,0.30517578125,-0.48828125,-0.244140625,2.1258544921875,37.144775390625,70.0103759765625
1759066911.1837807,-0.60986328125,0.02490234375,0.794921875,0.30517578125,-0.244140625,-0.06103515625,2.1258544921875,37.144775390625,70.0048828125
1759066911.1937404,-0.60986328125,0.02490234375,0.794921875,0.30517578125,-0.244140625,-0.06103515625,2.13134765625,37.144775390625,69.9993896484375
1759066911.2037017,-0.6064453125,0.02587890625,0.79541015625,0.244140625,-0.06103515625,0.0,2.13134765625,37.144775390625,69.993896484375
1759066911.214029,-0.6064453125,0.02587890625,0.79541015625,0.244140625,-0.06103515625,0.0,2.13134765625,37.1502685546875,69.993896484375
1759066911.2241597,-0.60986328125,0.0263671875,0.79345703125,0.0,-0.06103515625,0.18310546875,2.13134765625,37.1502685546875,69.9884033203125
1759066911.233742,-0.60986328125,0.0263671875,0.79345703125,0.0,-0.06103515625,0.18310546875,2.13134765625,37.1502685546875,69.9884033203125
1759066911.2442079,-0.6162109375,0.0244140625,0.791015625,-0.42724609375,0.1220703125,0.3662109375,2.1258544921875,37.15576171875,69.9884033203125
1759066911.253766,-0.6162109375,0.0244140625,0.791015625,-0.42724609375,0.1220703125,0.3662109375,2.1258544921875,37.15576171875,69.9884033203125
1759066911.263942,-0.6181640625,0.02587890625,0.7880859375,-0.8544921875,0.244140625,0.42724609375,2.120361328125,37.1612548828125,69.9884033203125
1759066911.2745318,-0.6181640625,0.02587890625,0.7880859375,-0.8544921875,0.244140625,0.42724609375,2.1148681640625,37.166748046875,69.993896484375
1759066911.284198,-0.61962890625,0.02734375,0.7861328125,-1.0986328125,0.3662109375,0.48828125,2.1038818359375,37.1722412109375,69.993896484375
1759066911.2938228,-0.61962890625,0.02734375,0.7861328125,-1.0986328125,0.3662109375,0.48828125,2.098388671875,37.1832275390625,69.9993896484375
1759066911.3038077,-0.6171875,0.02783203125,0.78759765625,-1.220703125,0.42724609375,0.54931640625,2.08740234375,37.188720703125,70.0048828125
1759066911.3141396,-0.6171875,0.02783203125,0.78759765625,-1.220703125,0.42724609375,0.54931640625,2.0819091796875,37.1942138671875,70.0048828125
1759066911.324173,-0.6162109375,0.02783203125,0.78857421875,-1.0986328125,0.30517578125,0.54931640625,2.0709228515625,37.2052001953125,70.0103759765625
1759066911.334146,-0.6162109375,0.02783203125,0.78857421875,-1.0986328125,0.30517578125,0.54931640625,2.0654296875,37.210693359375,70.015869140625
1759066911.3450227,-0.61572265625,0.02685546875,0.7880859375,-0.9765625,0.244140625,0.6103515625,2.054443359375,37.2161865234375,70.015869140625
1759066911.35382,-0.61572265625,0.02685546875,0.7880859375,-0.9765625,0.244140625,0.6103515625,2.0489501953125,37.2216796875,70.0213623046875
1759066911.364292,-0.6171875,0.0244140625,0.7861328125,-0.9765625,0.1220703125,0.48828125,2.04345703125,37.2271728515625,70.02685546875
1759066911.3741345,-0.6171875,0.0244140625,0.7861328125,-0.9765625,0.1220703125,0.48828125,2.0379638671875,37.232666015625,70.02685546875
1759066911.3844712,-0.61865234375,0.0234375,0.78759765625,-0.54931640625,0.0,0.54931640625,2.032470703125,37.2381591796875,70.0323486328125
1759066911.3938627,-0.61865234375,0.0234375,0.78759765625,-0.54931640625,0.0,0.54931640625,2.032470703125,37.24365234375,70.0323486328125
1759066911.4041717,-0.6171875,0.0185546875,0.7890625,-0.30517578125,0.1220703125,0.42724609375,2.0269775390625,37.2491455078125,70.037841796875
1759066911.4141781,-0.6171875,0.0185546875,0.7890625,-0.30517578125,0.1220703125,0.42724609375,2.0269775390625,37.254638671875,70.037841796875
1759066911.42426,-0.6123046875,0.0234375,0.7900390625,0.54931640625,0.06103515625,0.48828125,2.032470703125,37.2601318359375,70.037841796875
1759066911.4339368,-0.6123046875,0.0234375,0.7900390625,0.54931640625,0.06103515625,0.48828125,2.0379638671875,37.2601318359375,70.037841796875
1759066911.444933,-0.607421875,0.02392578125,0.79541015625,0.9765625,0.06103515625,0.3662109375,2.0489501953125,37.265625,70.0433349609375
1759066911.4539537,-0.607421875,0.02392578125,0.79541015625,0.9765625,0.06103515625,0.3662109375,2.0599365234375,37.2711181640625,70.0433349609375
1759066911.4645252,-0.607421875,0.02490234375,0.79296875,0.6103515625,0.06103515625,0.30517578125,2.0654296875,37.276611328125,70.0433349609375
1759066911.4743083,-0.607421875,0.02490234375,0.79296875,0.6103515625,0.06103515625,0.30517578125,2.076416015625,37.276611328125,70.0433349609375
1759066911.4846542,-0.6103515625,0.02490234375,0.791015625,0.0,0.18310546875,0.1220703125,2.076416015625,37.2821044921875,70.0433349609375
1759066911.4940104,-0.6103515625,0.02490234375,0.791015625,0.0,0.18310546875,0.1220703125,2.076416015625,37.28759765625,70.0433349609375
1759066911.5045245,-0.6123046875,0.02099609375,0.7919921875,-0.67138671875,0.244140625,-0.1220703125,2.0709228515625,37.2930908203125,70.037841796875
1759066911.5142708,-0.6123046875,0.02099609375,0.7919921875,-0.67138671875,0.244140625,-0.1220703125,2.0599365234375,37.298583984375,70.037841796875
1759066911.5240195,-0.61328125,0.015625,0.79638671875,-0.54931640625,0.30517578125,-0.3662109375,2.0489501953125,37.3040771484375,70.0323486328125
1759066911.5340722,-0.61328125,0.015625,0.79638671875,-0.54931640625,0.30517578125,-0.3662109375,2.04345703125,37.3095703125,70.0213623046875
1759066911.5443926,-0.61669921875,0.013671875,0.78857421875,0.42724609375,0.42724609375,-0.6103515625,2.032470703125,37.3150634765625,70.015869140625
1759066911.5540812,-0.61669921875,0.013671875,0.78857421875,0.42724609375,0.42724609375,-0.6103515625,2.032470703125,37.320556640625,70.0048828125
1759066911.5641398,-0.615234375,0.017578125,0.787109375,1.3427734375,0.54931640625,-0.8544921875,2.032470703125,37.3260498046875,69.993896484375
1759066911.575583,-0.615234375,0.017578125,0.787109375,1.3427734375,0.54931640625,-0.8544921875,2.032470703125,37.3370361328125,69.98291015625
1759066911.5852385,-0.6162109375,0.0185546875,0.79345703125,1.77001953125,0.67138671875,-1.0986328125,2.0379638671875,37.3480224609375,69.9664306640625
1759066911.594125,-0.6162109375,0.0185546875,0.79345703125,1.77001953125,0.67138671875,-1.0986328125,2.04345703125,37.3590087890625,69.949951171875
1759066911.604685,-0.61474609375,0.0185546875,0.7890625,2.3193359375,0.732421875,-1.220703125,2.054443359375,37.364501953125,69.9334716796875
1759066911.6147912,-0.61474609375,0.0185546875,0.7890625,2.3193359375,0.732421875,-1.220703125,2.0654296875,37.37548828125,69.9169921875
1759066911.6241806,-0.6123046875,0.01953125,0.79248046875,2.99072265625,0.67138671875,-1.220703125,2.076416015625,37.386474609375,69.9005126953125
1759066911.6341417,-0.6123046875,0.01953125,0.79248046875,2.99072265625,0.67138671875,-1.220703125,2.0928955078125,37.3974609375,69.8785400390625
1759066911.6454484,-0.609375,0.02685546875,0.794921875,3.5400390625,0.67138671875,-1.15966796875,2.1148681640625,37.408447265625,69.862060546875
1759066911.654192,-0.609375,0.02685546875,0.794921875,3.5400390625,0.67138671875,-1.15966796875,2.1368408203125,37.4139404296875,69.8455810546875
1759066911.6649704,-0.60546875,0.02880859375,0.794921875,3.5400390625,0.6103515625,-0.9765625,2.1588134765625,37.4249267578125,69.8291015625
1759066911.6753495,-0.60546875,0.02880859375,0.794921875,3.5400390625,0.6103515625,-0.9765625,2.186279296875,37.430419921875,69.818115234375
1759066911.6869044,-0.60205078125,0.02978515625,0.79638671875,3.23486328125,0.54931640625,-0.67138671875,2.208251953125,37.44140625,69.80712890625
1759066911.6943352,-0.60205078125,0.02978515625,0.79638671875,3.23486328125,0.54931640625,-0.67138671875,2.230224609375,37.4468994140625,69.796142578125
1759066911.7042432,-0.6025390625,0.02880859375,0.798828125,3.11279296875,0.54931640625,-0.42724609375,2.2576904296875,37.452392578125,69.78515625
1759066911.716961,-0.6025390625,0.02880859375,0.798828125,3.11279296875,0.54931640625,-0.42724609375,2.28515625,37.4578857421875,69.7796630859375
1759066911.724296,-0.603515625,0.02880859375,0.7958984375,2.99072265625,0.54931640625,-0.18310546875,2.30712890625,37.46337890625,69.774169921875
1759066911.734714,-0.603515625,0.02880859375,0.7958984375,2.99072265625,0.54931640625,-0.18310546875,2.3345947265625,37.4688720703125,69.7686767578125
1759066911.7455192,-0.60791015625,0.0322265625,0.79541015625,2.5634765625,0.67138671875,-0.1220703125,2.3565673828125,37.474365234375,69.7686767578125
1759066911.754354,-0.60791015625,0.0322265625,0.79541015625,2.5634765625,0.67138671875,-0.1220703125,2.3785400390625,37.4798583984375,69.76318359375
1759066911.7648935,-0.611328125,0.03564453125,0.791015625,2.01416015625,0.732421875,-0.1220703125,2.39501953125,37.4908447265625,69.76318359375
1759066911.774716,-0.611328125,0.03564453125,0.791015625,2.01416015625,0.732421875,-0.1220703125,2.4114990234375,37.496337890625,69.7576904296875
1759066911.7858715,-0.6123046875,0.03369140625,0.7900390625,1.77001953125,0.8544921875,-0.06103515625,2.427978515625,37.5018310546875,69.7576904296875
1759066911.7944858,-0.6123046875,0.03369140625,0.7900390625,1.77001953125,0.8544921875,-0.06103515625,2.4444580078125,37.5128173828125,69.7576904296875
1759066911.810674,-0.611328125,0.033203125,0.79052734375,2.38037109375,0.91552734375,-0.1220703125,2.4609375,37.5238037109375,69.752197265625
1759066911.817916,-0.611328125,0.033203125,0.79052734375,2.38037109375,0.91552734375,-0.1220703125,2.48291015625,37.529296875,69.7467041015625
1759066911.8244154,-0.611328125,0.03515625,0.791015625,3.173828125,0.91552734375,-0.30517578125,2.5103759765625,37.540283203125,69.7412109375
1759066911.8353293,-0.611328125,0.03515625,0.791015625,3.173828125,0.91552734375,-0.30517578125,2.537841796875,37.55126953125,69.7357177734375
1759066911.8482287,-0.61083984375,0.03759765625,0.791015625,3.84521484375,0.8544921875,-0.3662109375,2.5762939453125,37.5567626953125,69.730224609375
1759066911.8550072,-0.61083984375,0.03759765625,0.791015625,3.84521484375,0.8544921875,-0.3662109375,2.6092529296875,37.5677490234375,69.7247314453125
1759066911.8644638,-0.6123046875,0.04541015625,0.79345703125,4.8828125,0.732421875,-0.54931640625,2.6531982421875,37.5732421875,69.71923828125
1759066911.8751314,-0.6123046875,0.04541015625,0.79345703125,4.8828125,0.732421875,-0.54931640625,2.6971435546875,37.584228515625,69.708251953125
1759066911.8846064,-0.61376953125,0.04248046875,0.78662109375,5.31005859375,0.67138671875,-0.54931640625,2.74658203125,37.5897216796875,69.7027587890625
1759066911.894828,-0.61376953125,0.04248046875,0.78662109375,5.31005859375,0.67138671875,-0.54931640625,2.79052734375,37.59521484375,69.6917724609375
1759066911.9044552,-0.60986328125,0.04541015625,0.7880859375,4.8828125,0.54931640625,-0.48828125,2.83447265625,37.6007080078125,69.686279296875
1759066911.915428,-0.60986328125,0.04541015625,0.7880859375,4.8828125,0.54931640625,-0.48828125,2.87841796875,37.606201171875,69.6807861328125
1759066911.924567,-0.6083984375,0.04541015625,0.791015625,4.5166015625,0.42724609375,-0.42724609375,2.92236328125,37.6116943359375,69.67529296875
1759066911.9349883,-0.6083984375,0.04541015625,0.791015625,4.5166015625,0.42724609375,-0.42724609375,2.9608154296875,37.6171875,69.664306640625
1759066911.9448388,-0.6123046875,0.04296875,0.78857421875,3.35693359375,0.3662109375,-0.48828125,2.9937744140625,37.6226806640625,69.6588134765625
1759066911.9550958,-0.6123046875,0.04296875,0.78857421875,3.35693359375,0.3662109375,-0.48828125,3.021240234375,37.628173828125,69.6533203125
1759066911.9646354,-0.6123046875,0.04296875,0.7900390625,3.173828125,0.3662109375,-0.30517578125,3.0487060546875,37.628173828125,69.6478271484375
1759066911.976083,-0.6123046875,0.04296875,0.7900390625,3.173828125,0.3662109375,-0.30517578125,3.076171875,37.6336669921875,69.642333984375
1759066911.9856215,-0.60986328125,0.04296875,0.7890625,2.685546875,0.3662109375,-0.244140625,3.1036376953125,37.63916015625,69.6368408203125
1759066911.9945898,-0.60986328125,0.04296875,0.7890625,2.685546875,0.3662109375,-0.244140625,3.1256103515625,37.63916015625,69.63134765625
1759066912.0094,-0.60693359375,0.048828125,0.7958984375,1.5869140625,0.48828125,-0.1220703125,3.14208984375,37.6446533203125,69.63134765625
1759066912.016532,-0.60693359375,0.048828125,0.7958984375,1.5869140625,0.48828125,-0.1220703125,3.1585693359375,37.650146484375,69.6258544921875
1759066912.0247018,-0.60693359375,0.044921875,0.7919921875,1.5869140625,0.54931640625,0.0,3.1695556640625,37.6556396484375,69.6258544921875
1759066912.035491,-0.60693359375,0.044921875,0.7919921875,1.5869140625,0.54931640625,0.0,3.18603515625,37.6611328125,69.6258544921875
1759066912.0482259,-0.6103515625,0.044921875,0.7900390625,1.3427734375,0.54931640625,0.06103515625,3.2025146484375,37.6666259765625,69.6258544921875
1759066912.0547512,-0.6103515625,0.044921875,0.7900390625,1.3427734375,0.54931640625,0.06103515625,3.2135009765625,37.672119140625,69.6258544921875
1759066912.0647395,-0.61279296875,0.04248046875,0.78857421875,1.89208984375,0.6103515625,0.1220703125,3.2354736328125,37.6776123046875,69.63134765625
1759066912.0751693,-0.61279296875,0.04248046875,0.78857421875,1.89208984375,0.6103515625,0.1220703125,3.251953125,37.68310546875,69.63134765625
1759066912.0849636,-0.61376953125,0.041015625,0.7890625,2.62451171875,0.67138671875,0.06103515625,3.2794189453125,37.6885986328125,69.63134765625
1759066912.0946934,-0.61376953125,0.041015625,0.7890625,2.62451171875,0.67138671875,0.06103515625,3.306884765625,37.694091796875,69.63134765625
1759066912.1046922,-0.61376953125,0.04248046875,0.787109375,3.173828125,0.67138671875,0.0,3.3343505859375,37.6995849609375,69.63134765625
1759066912.1149962,-0.61376953125,0.04248046875,0.787109375,3.173828125,0.67138671875,0.0,3.3673095703125,37.7105712890625,69.63134765625
1759066912.1248293,-0.61572265625,0.046875,0.7880859375,3.5400390625,0.54931640625,0.06103515625,3.4002685546875,37.716064453125,69.63134765625
1759066912.1347857,-0.61572265625,0.046875,0.7880859375,3.5400390625,0.54931640625,0.06103515625,3.4332275390625,37.7215576171875,69.63134765625
1759066912.150774,-0.61474609375,0.05224609375,0.78759765625,3.41796875,0.3662109375,0.06103515625,3.4661865234375,37.7215576171875,69.63134765625
1759066912.157265,-0.61474609375,0.05224609375,0.78759765625,3.41796875,0.3662109375,0.06103515625,3.4991455078125,37.72705078125,69.63134765625
1759066912.16484,-0.611328125,0.05126953125,0.78564453125,2.9296875,0.30517578125,0.1220703125,3.5321044921875,37.7325439453125,69.6368408203125
1759066912.1810653,-0.611328125,0.05126953125,0.78564453125,2.9296875,0.30517578125,0.1220703125,3.5595703125,37.7325439453125,69.6368408203125
1759066912.1872246,-0.61328125,0.04736328125,0.7900390625,2.0751953125,0.244140625,0.244140625,3.58154296875,37.738037109375,69.6368408203125
1759066912.1948078,-0.61328125,0.04736328125,0.7900390625,2.0751953125,0.244140625,0.244140625,3.603515625,37.738037109375,69.642333984375
1759066912.209578,-0.61572265625,0.0478515625,0.7880859375,1.64794921875,0.244140625,0.30517578125,3.6199951171875,37.7435302734375,69.642333984375
1759066912.2161934,-0.61572265625,0.0478515625,0.7880859375,1.64794921875,0.244140625,0.30517578125,3.636474609375,37.7435302734375,69.6478271484375
1759066912.2248645,-0.61328125,0.0498046875,0.787109375,1.77001953125,0.30517578125,0.30517578125,3.658447265625,37.7490234375,69.6533203125
1759066912.2348127,-0.61328125,0.0498046875,0.787109375,1.77001953125,0.30517578125,0.30517578125,3.6749267578125,37.7490234375,69.6533203125
1759066912.2451193,-0.61181640625,0.0478515625,0.79150390625,2.86865234375,0.42724609375,0.18310546875,3.702392578125,37.7545166015625,69.6588134765625
1759066912.2548518,-0.61181640625,0.0478515625,0.79150390625,2.86865234375,0.42724609375,0.18310546875,3.7298583984375,37.760009765625,69.6588134765625
1759066912.2649004,-0.6103515625,0.04248046875,0.787109375,4.0283203125,0.48828125,0.244140625,3.7738037109375,37.7655029296875,69.664306640625
1759066912.2754586,-0.6103515625,0.04248046875,0.787109375,4.0283203125,0.48828125,0.244140625,3.812255859375,37.77099609375,69.664306640625
1759066912.2849832,-0.61376953125,0.04443359375,0.78857421875,4.5166015625,0.54931640625,0.244140625,3.856201171875,37.7764892578125,69.6697998046875
1759066912.2949765,-0.61376953125,0.04443359375,0.78857421875,4.5166015625,0.54931640625,0.244140625,3.900146484375,37.781982421875,69.6697998046875
1759066912.3049593,-0.615234375,0.0498046875,0.791015625,4.82177734375,0.732421875,0.18310546875,3.9495849609375,37.7874755859375,69.67529296875
1759066912.315155,-0.615234375,0.0498046875,0.791015625,4.82177734375,0.732421875,0.18310546875,3.9935302734375,37.79296875,69.67529296875
1759066912.3250167,-0.61279296875,0.060546875,0.78857421875,4.8828125,0.91552734375,0.18310546875,4.04296875,37.803955078125,69.6807861328125
1759066912.3349576,-0.61279296875,0.060546875,0.78857421875,4.8828125,0.91552734375,0.18310546875,4.0869140625,37.81494140625,69.6807861328125
1759066912.3451874,-0.61083984375,0.06494140625,0.78857421875,4.21142578125,1.0986328125,0.18310546875,4.130859375,37.825927734375,69.686279296875
1759066912.3549712,-0.61083984375,0.06494140625,0.78857421875,4.21142578125,1.0986328125,0.18310546875,4.1748046875,37.8314208984375,69.686279296875
1759066912.365079,-0.61083984375,0.06298828125,0.7919921875,3.0517578125,1.220703125,0.244140625,4.2022705078125,37.847900390625,69.6917724609375
1759066912.3755264,-0.61083984375,0.06298828125,0.7919921875,3.0517578125,1.220703125,0.244140625,4.2352294921875,37.85888671875,69.697265625
1759066912.3850524,-0.6103515625,0.0654296875,0.79248046875,2.50244140625,1.3427734375,0.30517578125,4.2626953125,37.869873046875,69.7027587890625
1759066912.3950806,-0.6103515625,0.0654296875,0.79248046875,2.50244140625,1.3427734375,0.30517578125,4.2901611328125,37.880859375,69.708251953125
1759066912.4050689,-0.6142578125,0.06640625,0.7900390625,2.01416015625,1.52587890625,0.42724609375,4.3121337890625,37.8973388671875,69.7137451171875
1759066912.4153433,-0.6142578125,0.06640625,0.7900390625,2.01416015625,1.52587890625,0.42724609375,4.3341064453125,37.9083251953125,69.71923828125
1759066912.4250796,-0.61279296875,0.0693359375,0.79150390625,0.244140625,1.708984375,0.54931640625,4.339599609375,37.9248046875,69.730224609375
1759066912.435143,-0.61279296875,0.0693359375,0.79150390625,0.244140625,1.708984375,0.54931640625,4.3505859375,37.9412841796875,69.7412109375
1759066912.4453492,-0.6103515625,0.06494140625,0.7919921875,-0.91552734375,1.89208984375,0.732421875,4.3450927734375,37.957763671875,69.752197265625
1759066912.4550774,-0.6103515625,0.06494140625,0.7919921875,-0.91552734375,1.89208984375,0.732421875,4.3450927734375,37.9742431640625,69.76318359375
1759066912.4651618,-0.60791015625,0.060546875,0.7939453125,-1.77001953125,1.953125,0.8544921875,4.3341064453125,37.99072265625,69.774169921875
1759066912.4755044,-0.60791015625,0.060546875,0.7939453125,-1.77001953125,1.953125,0.8544921875,4.32861328125,38.0072021484375,69.7906494140625
1759066912.485191,-0.60693359375,0.0576171875,0.7890625,-2.3193359375,1.77001953125,1.0986328125,4.3121337890625,38.0181884765625,69.8016357421875
1759066912.4951189,-0.60693359375,0.0576171875,0.7890625,-2.3193359375,1.77001953125,1.0986328125,4.3011474609375,38.03466796875,69.818115234375
1759066912.5052185,-0.609375,0.0576171875,0.7919921875,-2.5634765625,1.64794921875,1.15966796875,4.28466796875,38.045654296875,69.840087890625
1759066912.5154395,-0.609375,0.0576171875,0.7919921875,-2.5634765625,1.64794921875,1.15966796875,4.2681884765625,38.056640625,69.8565673828125
1759066912.5252106,-0.61376953125,0.056640625,0.791015625,-2.5634765625,1.5869140625,1.0986328125,4.251708984375,38.0731201171875,69.873046875
1759066912.5354445,-0.61376953125,0.056640625,0.791015625,-2.5634765625,1.5869140625,1.0986328125,4.24072265625,38.0841064453125,69.8895263671875
1759066912.5455022,-0.61328125,0.05322265625,0.7822265625,-2.197265625,1.5869140625,1.03759765625,4.2242431640625,38.0950927734375,69.9005126953125
1759066912.5552685,-0.61328125,0.05322265625,0.7822265625,-2.197265625,1.5869140625,1.03759765625,4.2132568359375,38.1060791015625,69.9169921875
1759066912.5652807,-0.61474609375,0.0556640625,0.78173828125,-1.5869140625,1.52587890625,0.91552734375,4.2022705078125,38.12255859375,69.9334716796875
1759066912.575724,-0.61474609375,0.0556640625,0.78173828125,-1.5869140625,1.52587890625,0.91552734375,4.19677734375,38.133544921875,69.9444580078125
1759066912.5853682,-0.61865234375,0.05908203125,0.78271484375,-1.52587890625,1.52587890625,0.8544921875,4.1912841796875,38.14453125,69.9609375
1759066912.595261,-0.61865234375,0.05908203125,0.78271484375,-1.52587890625,1.52587890625,0.8544921875,4.1802978515625,38.155517578125,69.971923828125
1759066912.605407,-0.62353515625,0.060546875,0.78466796875,-1.3427734375,1.46484375,0.79345703125,4.1748046875,38.1719970703125,69.98291015625
1759066912.6153312,-0.62353515625,0.060546875,0.78466796875,-1.3427734375,1.46484375,0.79345703125,4.1693115234375,38.1829833984375,69.993896484375
1759066912.6252878,-0.62451171875,0.06103515625,0.77880859375,-0.67138671875,1.40380859375,0.732421875,4.1693115234375,38.1939697265625,70.0103759765625
1759066912.635996,-0.62451171875,0.06103515625,0.77880859375,-0.67138671875,1.40380859375,0.732421875,4.1693115234375,38.2049560546875,70.0213623046875
1759066912.6470926,-0.62451171875,0.05810546875,0.7783203125,0.30517578125,1.3427734375,0.54931640625,4.1802978515625,38.221435546875,70.02685546875
1759066912.6553903,-0.62451171875,0.05810546875,0.7783203125,0.30517578125,1.3427734375,0.54931640625,4.185791015625,38.232421875,70.037841796875
1759066912.6653872,-0.61962890625,0.056640625,0.7734375,0.9765625,1.220703125,0.3662109375,4.2022705078125,38.243408203125,70.0433349609375
1759066912.6756914,-0.61962890625,0.056640625,0.7734375,0.9765625,1.220703125,0.3662109375,4.2132568359375,38.25439453125,70.048828125
1759066912.6854641,-0.62109375,0.05810546875,0.7763671875,1.28173828125,1.03759765625,0.18310546875,4.229736328125,38.265380859375,70.0543212890625
1759066912.6953871,-0.62109375,0.05810546875,0.7763671875,1.28173828125,1.03759765625,0.18310546875,4.2462158203125,38.2763671875,70.059814453125
1759066912.7054973,-0.6259765625,0.06005859375,0.779296875,1.77001953125,0.8544921875,0.06103515625,4.2626953125,38.287353515625,70.059814453125
1759066912.7156646,-0.6259765625,0.06005859375,0.779296875,1.77001953125,0.8544921875,0.06103515625,4.28466796875,38.2928466796875,70.0653076171875
1759066912.7253933,-0.630859375,0.0595703125,0.77978515625,2.38037109375,0.8544921875,0.0,4.306640625,38.3038330078125,70.0653076171875
1759066912.7354226,-0.6298828125,0.06201171875,0.77197265625,2.74658203125,1.0986328125,-0.06103515625,4.3341064453125,38.3148193359375,70.0653076171875
1759066912.745915,-0.6298828125,0.06201171875,0.77197265625,2.74658203125,1.0986328125,-0.06103515625,4.361572265625,38.3258056640625,70.0653076171875
1759066912.755591,-0.6279296875,0.064453125,0.7802734375,2.99072265625,1.3427734375,-0.1220703125,4.3890380859375,38.34228515625,70.0653076171875
1759066912.7655463,-0.6279296875,0.064453125,0.7802734375,2.99072265625,1.3427734375,-0.1220703125,4.41650390625,38.353271484375,70.0653076171875
1759066912.7758713,-0.62939453125,0.06640625,0.77734375,2.44140625,1.5869140625,-0.06103515625,4.4439697265625,38.3697509765625,70.0653076171875
1759066912.7855473,-0.62939453125,0.06640625,0.77734375,2.44140625,1.5869140625,-0.06103515625,4.471435546875,38.3917236328125,70.07080078125
1759066912.7955396,-0.62744140625,0.06396484375,0.77587890625,2.0751953125,1.77001953125,0.06103515625,4.493408203125,38.408203125,70.07080078125
1759066912.8056455,-0.62744140625,0.06396484375,0.77587890625,2.0751953125,1.77001953125,0.06103515625,4.515380859375,38.4246826171875,70.0762939453125
1759066912.8157082,-0.6240234375,0.06201171875,0.7744140625,1.708984375,1.89208984375,0.244140625,4.537353515625,38.4466552734375,70.0762939453125
1759066912.8255482,-0.6240234375,0.06201171875,0.7744140625,1.708984375,1.89208984375,0.244140625,4.559326171875,38.4686279296875,70.081787109375
1759066912.8355136,-0.62060546875,0.060546875,0.77880859375,0.42724609375,1.8310546875,0.3662109375,4.5758056640625,38.485107421875,70.0872802734375
1759066912.8460832,-0.62060546875,0.060546875,0.77880859375,0.42724609375,1.8310546875,0.3662109375,4.581298828125,38.507080078125,70.0982666015625
1759066912.8556168,-0.623046875,0.05859375,0.77734375,0.244140625,1.708984375,0.42724609375,4.5867919921875,38.5235595703125,70.103759765625
1759066912.8656363,-0.623046875,0.05859375,0.77734375,0.244140625,1.708984375,0.42724609375,4.5977783203125,38.5400390625,70.1092529296875
1759066912.875797,-0.62646484375,0.060546875,0.77685546875,0.48828125,1.5869140625,0.67138671875,4.603271484375,38.5565185546875,70.1202392578125
1759066912.8856883,-0.62646484375,0.060546875,0.77685546875,0.48828125,1.5869140625,0.67138671875,4.6142578125,38.572998046875,70.1312255859375
1759066912.896376,-0.62451171875,0.06494140625,0.7783203125,0.3662109375,1.40380859375,0.79345703125,4.625244140625,38.5894775390625,70.1422119140625
1759066912.9072642,-0.62451171875,0.06494140625,0.7783203125,0.3662109375,1.40380859375,0.79345703125,4.63623046875,38.6004638671875,70.1531982421875
1759066912.9157689,-0.6259765625,0.06494140625,0.77734375,-0.18310546875,1.3427734375,0.91552734375,4.6417236328125,38.616943359375,70.169677734375
1759066912.9257016,-0.6259765625,0.06494140625,0.77734375,-0.18310546875,1.3427734375,0.91552734375,4.647216796875,38.6279296875,70.1806640625
1759066912.936003,-0.6259765625,0.06494140625,0.77734375,-0.9765625,1.3427734375,1.03759765625,4.6527099609375,38.6444091796875,70.1971435546875
1759066912.94604,-0.6279296875,0.0615234375,0.775390625,-0.9765625,1.3427734375,1.03759765625,4.647216796875,38.6553955078125,70.213623046875
1759066912.9556897,-0.62548828125,0.06201171875,0.78076171875,-1.708984375,1.40380859375,0.9765625,4.647216796875,38.6663818359375,70.2301025390625
1759066912.9657319,-0.62548828125,0.06201171875,0.78076171875,-1.708984375,1.40380859375,0.9765625,4.63623046875,38.682861328125,70.2410888671875
1759066912.9757884,-0.6220703125,0.064453125,0.783203125,-2.01416015625,1.52587890625,0.79345703125,4.625244140625,38.69384765625,70.257568359375
1759066912.9857557,-0.6220703125,0.064453125,0.783203125,-2.01416015625,1.52587890625,0.79345703125,4.6142578125,38.7103271484375,70.2685546875
1759066912.995831,-0.61767578125,0.06201171875,0.77880859375,-2.13623046875,1.5869140625,0.67138671875,4.5977783203125,38.726806640625,70.2850341796875
1759066913.0059135,-0.61767578125,0.06201171875,0.77880859375,-2.13623046875,1.5869140625,0.67138671875,4.581298828125,38.73779296875,70.2960205078125
1759066913.015862,-0.6142578125,0.0576171875,0.783203125,-2.99072265625,1.708984375,0.6103515625,4.5648193359375,38.7542724609375,70.3070068359375
1759066913.0258553,-0.6142578125,0.0576171875,0.783203125,-2.99072265625,1.708984375,0.6103515625,4.537353515625,38.770751953125,70.3179931640625
1759066913.0358024,-0.611328125,0.0556640625,0.7890625,-3.35693359375,1.708984375,0.54931640625,4.515380859375,38.78173828125,70.3289794921875
1759066913.04608,-0.611328125,0.0556640625,0.7890625,-3.35693359375,1.708984375,0.54931640625,4.4879150390625,38.7982177734375,70.3399658203125
1759066913.0559237,-0.61083984375,0.0517578125,0.79296875,-2.13623046875,1.52587890625,0.48828125,4.46044921875,38.8092041015625,70.3509521484375
1759066913.0660026,-0.61083984375,0.0517578125,0.79296875,-2.13623046875,1.52587890625,0.48828125,4.4439697265625,38.8201904296875,70.3564453125
1759066913.0829215,-0.607421875,0.0498046875,0.78955078125,-1.03759765625,1.40380859375,0.42724609375,4.4329833984375,38.8311767578125,70.367431640625
1759066913.090219,-0.607421875,0.0498046875,0.78955078125,-1.03759765625,1.40380859375,0.42724609375,4.427490234375,38.8421630859375,70.37841796875
1759066913.096197,-0.60888671875,0.05224609375,0.78515625,-0.91552734375,1.28173828125,0.30517578125,4.41650390625,38.84765625,70.3839111328125
1759066913.1064768,-0.60888671875,0.05224609375,0.78515625,-0.91552734375,1.28173828125,0.30517578125,4.4110107421875,38.858642578125,70.3948974609375
1759066913.116022,-0.6123046875,0.0517578125,0.7841796875,-1.03759765625,1.15966796875,0.244140625,4.4000244140625,38.8641357421875,70.400390625
1759066913.1261764,-0.6123046875,0.0517578125,0.7841796875,-1.03759765625,1.15966796875,0.244140625,4.39453125,38.86962890625,70.4058837890625
1759066913.1359003,-0.615234375,0.0517578125,0.7861328125,-0.67138671875,1.0986328125,0.1220703125,4.383544921875,38.8751220703125,70.411376953125
1759066913.147224,-0.615234375,0.0517578125,0.7861328125,-0.67138671875,1.0986328125,0.1220703125,4.3780517578125,38.880615234375,70.4168701171875
1759066913.1559403,-0.6171875,0.05419921875,0.78564453125,0.48828125,1.03759765625,0.06103515625,4.37255859375,38.8861083984375,70.42236328125
1759066913.1662798,-0.6171875,0.05419921875,0.78564453125,0.48828125,1.03759765625,0.06103515625,4.3780517578125,38.8916015625,70.4278564453125
1759066913.1759956,-0.61767578125,0.0576171875,0.78857421875,1.8310546875,0.9765625,0.06103515625,4.3890380859375,38.8970947265625,70.433349609375
1759066913.1864676,-0.61767578125,0.0576171875,0.78857421875,1.8310546875,0.9765625,0.06103515625,4.405517578125,38.902587890625,70.4388427734375
1759066913.196011,-0.6142578125,0.05859375,0.7880859375,2.01416015625,0.8544921875,0.18310546875,4.4219970703125,38.902587890625,70.4443359375
1759066913.2073693,-0.6142578125,0.05859375,0.7880859375,2.01416015625,0.8544921875,0.18310546875,4.4439697265625,38.9080810546875,70.4498291015625
1759066913.2161505,-0.6123046875,0.06298828125,0.787109375,1.64794921875,0.79345703125,0.18310546875,4.46044921875,38.9080810546875,70.455322265625
1759066913.2267387,-0.6123046875,0.06298828125,0.787109375,1.64794921875,0.79345703125,0.18310546875,4.4769287109375,38.91357421875,70.4608154296875
1759066913.2360237,-0.6123046875,0.06689453125,0.791015625,0.91552734375,0.91552734375,0.30517578125,4.493408203125,38.91357421875,70.46630859375
1759066913.247222,-0.6123046875,0.06689453125,0.791015625,0.91552734375,0.91552734375,0.30517578125,4.50439453125,38.9190673828125,70.477294921875
1759066913.2561402,-0.61767578125,0.0673828125,0.78759765625,0.30517578125,1.15966796875,0.42724609375,4.5098876953125,38.9190673828125,70.4827880859375
1759066913.2660935,-0.61767578125,0.0673828125,0.78759765625,0.30517578125,1.15966796875,0.42724609375,4.515380859375,38.924560546875,70.4937744140625
1759066913.2761595,-0.6259765625,0.06396484375,0.7822265625,0.30517578125,1.52587890625,0.48828125,4.5263671875,38.9300537109375,70.5047607421875
1759066913.2861438,-0.6259765625,0.06396484375,0.7822265625,0.30517578125,1.52587890625,0.48828125,4.5318603515625,38.9410400390625,70.5157470703125
1759066913.2961454,-0.626953125,0.0625,0.7763671875,0.18310546875,1.8310546875,0.48828125,4.537353515625,38.9520263671875,70.5267333984375
1759066913.3063545,-0.626953125,0.0625,0.7763671875,0.18310546875,1.8310546875,0.48828125,4.5428466796875,38.9630126953125,70.5377197265625
1759066913.316188,-0.62646484375,0.06689453125,0.77978515625,0.1220703125,2.13623046875,0.42724609375,4.54833984375,38.9794921875,70.543212890625
1759066913.326132,-0.62646484375,0.06689453125,0.77978515625,0.1220703125,2.13623046875,0.42724609375,4.559326171875,38.9959716796875,70.55419921875
1759066913.3361006,-0.62646484375,0.06640625,0.7783203125,0.0,2.38037109375,0.48828125,4.5648193359375,39.012451171875,70.565185546875
1759066913.352193,-0.62646484375,0.06640625,0.7783203125,0.0,2.38037109375,0.48828125,4.5703125,39.034423828125,70.576171875
1759066913.3588772,-0.62841796875,0.06640625,0.7734375,0.18310546875,2.50244140625,0.48828125,4.5758056640625,39.0509033203125,70.587158203125
1759066913.3665648,-0.62841796875,0.06640625,0.7734375,0.18310546875,2.50244140625,0.48828125,4.581298828125,39.0728759765625,70.59814453125
1759066913.3833616,-0.62890625,0.06787109375,0.7724609375,0.3662109375,2.44140625,0.48828125,4.59228515625,39.0948486328125,70.609130859375
1759066913.3906655,-0.62890625,0.06787109375,0.7724609375,0.3662109375,2.44140625,0.48828125,4.603271484375,39.1168212890625,70.6201171875
1759066913.3972747,-0.63232421875,0.07177734375,0.7744140625,0.244140625,2.3193359375,0.54931640625,4.6087646484375,39.13330078125,70.631103515625
1759066913.4116561,-0.63232421875,0.07177734375,0.7744140625,0.244140625,2.3193359375,0.54931640625,4.6197509765625,39.1552734375,70.64208984375
1759066913.41832,-0.63037109375,0.068359375,0.7724609375,-0.91552734375,2.13623046875,0.67138671875,4.625244140625,39.1717529296875,70.6585693359375
1759066913.4262288,-0.63037109375,0.068359375,0.7724609375,-0.91552734375,2.13623046875,0.67138671875,4.625244140625,39.1937255859375,70.6695556640625
1759066913.4362335,-0.62841796875,0.0634765625,0.77197265625,-1.03759765625,1.8310546875,0.732421875,4.625244140625,39.210205078125,70.68603515625
1759066913.4463816,-0.62841796875,0.0634765625,0.77197265625,-1.03759765625,1.8310546875,0.732421875,4.6197509765625,39.22119140625,70.697021484375
1759066913.4562743,-0.62890625,0.0615234375,0.77197265625,-0.6103515625,1.46484375,0.67138671875,4.6197509765625,39.2376708984375,70.7135009765625
1759066913.4662874,-0.62890625,0.0615234375,0.77197265625,-0.6103515625,1.46484375,0.67138671875,4.6197509765625,39.2486572265625,70.7244873046875
1759066913.476379,-0.63037109375,0.06103515625,0.76953125,-0.30517578125,1.03759765625,0.6103515625,4.625244140625,39.2596435546875,70.7354736328125
1759066913.4863675,-0.63037109375,0.06103515625,0.76953125,-0.30517578125,1.03759765625,0.6103515625,4.6307373046875,39.26513671875,70.7464599609375
1759066913.496397,-0.63525390625,0.06396484375,0.76953125,-0.6103515625,0.79345703125,0.54931640625,4.6307373046875,39.2706298828125,70.7574462890625
1759066913.506298,-0.63525390625,0.06396484375,0.76953125,-0.6103515625,0.79345703125,0.54931640625,4.6307373046875,39.276123046875,70.7684326171875
1759066913.5171127,-0.638671875,0.068359375,0.77001953125,-1.220703125,0.67138671875,0.54931640625,4.625244140625,39.2816162109375,70.7794189453125
1759066913.526814,-0.638671875,0.068359375,0.77001953125,-1.220703125,0.67138671875,0.54931640625,4.6197509765625,39.287109375,70.7904052734375
1759066913.538392,-0.638671875,0.06298828125,0.7685546875,-1.28173828125,0.6103515625,0.54931640625,4.6142578125,39.2926025390625,70.7958984375
1759066913.5506947,-0.638671875,0.06298828125,0.7685546875,-1.28173828125,0.6103515625,0.54931640625,4.6087646484375,39.298095703125,70.806884765625
1759066913.558283,-0.63330078125,0.0615234375,0.77099609375,-0.3662109375,0.6103515625,0.48828125,4.603271484375,39.3035888671875,70.81787109375
1759066913.566358,-0.63330078125,0.0615234375,0.77099609375,-0.3662109375,0.6103515625,0.48828125,4.603271484375,39.30908203125,70.828857421875
1759066913.5773118,-0.63037109375,0.0615234375,0.7734375,0.9765625,0.6103515625,0.42724609375,4.6142578125,39.3145751953125,70.8343505859375
1759066913.5866902,-0.63037109375,0.0615234375,0.7734375,0.9765625,0.6103515625,0.42724609375,4.625244140625,39.320068359375,70.8453369140625
1759066913.5967083,-0.63330078125,0.0615234375,0.77685546875,0.48828125,0.54931640625,0.3662109375,4.63623046875,39.3255615234375,70.850830078125
1759066913.6066227,-0.63330078125,0.0615234375,0.77685546875,0.48828125,0.54931640625,0.3662109375,4.647216796875,39.3310546875,70.8563232421875
1759066913.6175833,-0.638671875,0.0634765625,0.76953125,0.48828125,0.54931640625,0.3662109375,4.658203125,39.3310546875,70.8673095703125
1759066913.626429,-0.638671875,0.0634765625,0.76953125,0.48828125,0.54931640625,0.3662109375,4.6636962890625,39.3365478515625,70.872802734375
1759066913.6373577,-0.638671875,0.0634765625,0.76953125,0.1220703125,0.67138671875,0.42724609375,4.669189453125,39.342041015625,70.8837890625
1759066913.6471674,-0.6376953125,0.06689453125,0.76708984375,0.1220703125,0.67138671875,0.42724609375,4.6746826171875,39.3475341796875,70.8892822265625
1759066913.6571596,-0.63671875,0.06201171875,0.77294921875,-0.3662109375,0.79345703125,0.3662109375,4.68017578125,39.35302734375,70.894775390625
1759066913.6665561,-0.63671875,0.06201171875,0.77294921875,-0.3662109375,0.79345703125,0.3662109375,4.68017578125,39.364013671875,70.90576171875
1759066913.6772778,-0.638671875,0.05908203125,0.77099609375,0.0,0.9765625,0.244140625,4.68017578125,39.3695068359375,70.9112548828125
1759066913.6865354,-0.638671875,0.05908203125,0.77099609375,0.0,0.9765625,0.244140625,4.6856689453125,39.3804931640625,70.916748046875
1759066913.697443,-0.6435546875,0.0595703125,0.76318359375,1.03759765625,1.0986328125,0.1220703125,4.691162109375,39.3914794921875,70.9222412109375
1759066913.706503,-0.6435546875,0.0595703125,0.76318359375,1.03759765625,1.0986328125,0.1220703125,4.7021484375,39.4024658203125,70.927734375
1759066913.7169814,-0.640625,0.0615234375,0.76416015625,1.953125,1.0986328125,0.1220703125,4.7186279296875,39.4134521484375,70.9332275390625
1759066913.7265632,-0.640625,0.0615234375,0.76416015625,1.953125,1.0986328125,0.1220703125,4.7406005859375,39.4244384765625,70.938720703125
1759066913.7368896,-0.6337890625,0.0625,0.7646484375,1.89208984375,1.0986328125,0.1220703125,4.757080078125,39.4354248046875,70.938720703125
1759066913.7474818,-0.6337890625,0.0625,0.7646484375,1.89208984375,1.0986328125,0.1220703125,4.779052734375,39.4464111328125,70.9442138671875
1759066913.7566395,-0.6298828125,0.064453125,0.77197265625,1.8310546875,1.03759765625,0.18310546875,4.7955322265625,39.4573974609375,70.94970703125
1759066913.7667556,-0.6298828125,0.064453125,0.77197265625,1.8310546875,1.03759765625,0.18310546875,4.8175048828125,39.4683837890625,70.9552001953125
1759066913.7767355,-0.6328125,0.0673828125,0.7724609375,2.13623046875,0.79345703125,0.06103515625,4.8394775390625,39.4793701171875,70.960693359375
1759066913.7866848,-0.6328125,0.0673828125,0.7724609375,2.13623046875,0.79345703125,0.06103515625,4.8614501953125,39.48486328125,70.9661865234375
1759066913.796955,-0.63671875,0.0673828125,0.76953125,2.38037109375,0.732421875,0.06103515625,4.8834228515625,39.495849609375,70.9661865234375
1759066913.8066096,-0.63671875,0.0673828125,0.76953125,2.38037109375,0.732421875,0.06103515625,4.9053955078125,39.5013427734375,70.9716796875
1759066913.8172596,-0.63671875,0.064453125,0.7646484375,2.8076171875,0.732421875,0.1220703125,4.932861328125,39.5068359375,70.9771728515625
1759066913.8270717,-0.63671875,0.064453125,0.7646484375,2.8076171875,0.732421875,0.1220703125,4.9658203125,39.517822265625,70.982666015625
1759066913.8372886,-0.63720703125,0.064453125,0.76611328125,3.47900390625,0.67138671875,0.06103515625,4.998779296875,39.5233154296875,70.982666015625
1759066913.8482883,-0.63720703125,0.064453125,0.76611328125,3.47900390625,0.67138671875,0.06103515625,5.03173828125,39.52880859375,70.9881591796875
1759066913.856699,-0.64111328125,0.06884765625,0.76953125,4.0283203125,0.67138671875,0.0,5.0701904296875,39.5343017578125,70.9881591796875
1759066913.86678,-0.64111328125,0.06884765625,0.76953125,4.0283203125,0.67138671875,0.0,5.108642578125,39.539794921875,70.99365234375
1759066913.876764,-0.64501953125,0.07373046875,0.76416015625,3.7841796875,0.8544921875,0.0,5.1470947265625,39.55078125,70.99365234375
1759066913.886744,-0.64501953125,0.07373046875,0.76416015625,3.7841796875,0.8544921875,0.0,5.185546875,39.561767578125,70.9991455078125
1759066913.897259,-0.64404296875,0.08154296875,0.7626953125,2.8076171875,0.91552734375,0.0,5.2130126953125,39.5672607421875,70.9991455078125
1759066913.906695,-0.64404296875,0.08154296875,0.7626953125,2.8076171875,0.91552734375,0.0,5.240478515625,39.5782470703125,71.004638671875
1759066913.9173543,-0.6435546875,0.07958984375,0.7646484375,1.708984375,0.9765625,0.06103515625,5.2569580078125,39.5892333984375,71.004638671875
1759066913.9267683,-0.6435546875,0.07958984375,0.7646484375,1.708984375,0.9765625,0.06103515625,5.2789306640625,39.6002197265625,71.0101318359375
1759066913.9370437,-0.6435546875,0.07958984375,0.7646484375,0.54931640625,0.9765625,0.1220703125,5.284423828125,39.6112060546875,71.015625
1759066913.9481733,-0.64111328125,0.07568359375,0.76806640625,0.54931640625,0.9765625,0.1220703125,5.29541015625,39.6221923828125,71.015625
1759066913.9568508,-0.6396484375,0.0751953125,0.76513671875,-0.48828125,0.9765625,0.3662109375,5.2899169921875,39.6331787109375,71.026611328125
1759066913.967208,-0.6396484375,0.0751953125,0.76513671875,-0.48828125,0.9765625,0.3662109375,5.2899169921875,39.638671875,71.0321044921875
1759066913.976972,-0.64111328125,0.0751953125,0.767578125,-0.732421875,1.0986328125,0.3662109375,5.2899169921875,39.6551513671875,71.0430908203125
1759066913.9873993,-0.64111328125,0.0751953125,0.767578125,-0.732421875,1.0986328125,0.3662109375,5.284423828125,39.6661376953125,71.048583984375
1759066913.9971035,-0.63525390625,0.07177734375,0.7744140625,0.1220703125,1.15966796875,0.42724609375,5.29541015625,39.6771240234375,71.0595703125
1759066914.0078506,-0.63525390625,0.07177734375,0.7744140625,0.1220703125,1.15966796875,0.42724609375,5.3009033203125,39.6881103515625,71.0650634765625
1759066914.0173244,-0.6318359375,0.07373046875,0.77392578125,1.15966796875,1.15966796875,0.3662109375,5.3173828125,39.6990966796875,71.0760498046875
1759066914.0272703,-0.6318359375,0.07373046875,0.77392578125,1.15966796875,1.15966796875,0.3662109375,5.3338623046875,39.70458984375,71.08154296875
1759066914.0369847,-0.634765625,0.072265625,0.7685546875,1.28173828125,1.28173828125,0.30517578125,5.350341796875,39.7210693359375,71.092529296875
1759066914.0483356,-0.634765625,0.072265625,0.7685546875,1.28173828125,1.28173828125,0.30517578125,5.3668212890625,39.7320556640625,71.0980224609375
1759066914.0569558,-0.630859375,0.0751953125,0.76416015625,0.244140625,1.28173828125,0.3662109375,5.372314453125,39.7430419921875,71.103515625
1759066914.0673974,-0.630859375,0.0751953125,0.76416015625,0.244140625,1.28173828125,0.3662109375,5.3778076171875,39.7540283203125,71.114501953125
1759066914.077008,-0.6328125,0.07763671875,0.767578125,0.0,1.220703125,0.42724609375,5.38330078125,39.759521484375,71.12548828125
1759066914.0876203,-0.6328125,0.07763671875,0.767578125,0.0,1.220703125,0.42724609375,5.3887939453125,39.7705078125,71.136474609375
1759066914.0975957,-0.63134765625,0.07861328125,0.77197265625,-0.3662109375,1.0986328125,0.6103515625,5.394287109375,39.781494140625,71.1474609375
1759066914.107629,-0.63134765625,0.07861328125,0.77197265625,-0.3662109375,1.0986328125,0.6103515625,5.394287109375,39.7869873046875,71.158447265625
1759066914.1173956,-0.6337890625,0.076171875,0.76806640625,-1.03759765625,0.9765625,0.8544921875,5.394287109375,39.7979736328125,71.1749267578125
1759066914.1276083,-0.6337890625,0.076171875,0.76806640625,-1.03759765625,0.9765625,0.8544921875,5.394287109375,39.803466796875,71.1859130859375
1759066914.137293,-0.63818359375,0.076171875,0.76416015625,-1.220703125,0.8544921875,0.9765625,5.3887939453125,39.8089599609375,71.202392578125
1759066914.1486425,-0.63818359375,0.076171875,0.76416015625,-1.220703125,0.8544921875,0.9765625,5.3887939453125,39.814453125,71.2188720703125
1759066914.1571414,-0.63916015625,0.072265625,0.76513671875,-0.91552734375,0.67138671875,0.91552734375,5.3887939453125,39.814453125,71.2353515625
1759066914.1671312,-0.63916015625,0.072265625,0.76513671875,-0.91552734375,0.67138671875,0.91552734375,5.3887939453125,39.8199462890625,71.2518310546875
1759066914.1771274,-0.638671875,0.072265625,0.763671875,-0.6103515625,0.42724609375,1.03759765625,5.394287109375,39.8199462890625,71.268310546875
1759066914.1871011,-0.638671875,0.072265625,0.763671875,-0.6103515625,0.42724609375,1.03759765625,5.394287109375,39.825439453125,71.2847900390625
1759066914.197704,-0.63623046875,0.0703125,0.7724609375,-0.91552734375,0.244140625,1.03759765625,5.394287109375,39.825439453125,71.30126953125
1759066914.2070758,-0.63623046875,0.0703125,0.7724609375,-0.91552734375,0.244140625,1.03759765625,5.394287109375,39.825439453125,71.3177490234375
1759066914.2175577,-0.6298828125,0.068359375,0.771484375,-1.0986328125,0.0,1.03759765625,5.394287109375,39.8199462890625,71.334228515625
1759066914.227106,-0.6298828125,0.068359375,0.771484375,-1.0986328125,0.0,1.03759765625,5.394287109375,39.8199462890625,71.3507080078125
1759066914.237466,-0.62841796875,0.068359375,0.7685546875,-0.244140625,-0.18310546875,0.9765625,5.3997802734375,39.814453125,71.3616943359375
1759066914.248163,-0.62841796875,0.068359375,0.7685546875,-0.244140625,-0.18310546875,0.9765625,5.4052734375,39.8089599609375,71.378173828125
1759066914.257229,-0.63232421875,0.0673828125,0.7705078125,0.42724609375,-0.30517578125,0.732421875,5.4107666015625,39.803466796875,71.38916015625
1759066914.267209,-0.63232421875,0.0673828125,0.7705078125,0.42724609375,-0.30517578125,0.732421875,5.4217529296875,39.79248046875,71.400146484375
1759066914.277315,-0.634765625,0.0693359375,0.76904296875,0.54931640625,-0.3662109375,0.67138671875,5.4327392578125,39.7869873046875,71.4111328125
1759066914.28723,-0.634765625,0.0693359375,0.76904296875,0.54931640625,-0.3662109375,0.67138671875,5.4437255859375,39.781494140625,71.422119140625
1759066914.2978716,-0.6357421875,0.0703125,0.7705078125,0.18310546875,-0.48828125,0.48828125,5.4437255859375,39.7760009765625,71.4276123046875
1759066914.3071818,-0.6357421875,0.0703125,0.7705078125,0.18310546875,-0.48828125,0.48828125,5.44921875,39.7650146484375,71.4385986328125
1759066914.3175755,-0.63818359375,0.06884765625,0.76904296875,0.1220703125,-0.48828125,0.42724609375,5.4547119140625,39.759521484375,71.444091796875
1759066914.327233,-0.63818359375,0.06884765625,0.76904296875,0.1220703125,-0.48828125,0.42724609375,5.4547119140625,39.74853515625,71.455078125
1759066914.337657,-0.6376953125,0.068359375,0.7666015625,0.18310546875,-0.54931640625,0.42724609375,5.460205078125,39.7430419921875,71.4605712890625
1759066914.3485634,-0.6376953125,0.068359375,0.7666015625,0.18310546875,-0.54931640625,0.42724609375,5.460205078125,39.737548828125,71.466064453125
1759066914.3572798,-0.63818359375,0.06884765625,0.76904296875,0.18310546875,-0.42724609375,0.30517578125,5.4656982421875,39.7320556640625,71.4715576171875
1759066914.367343,-0.63818359375,0.06884765625,0.76904296875,0.18310546875,-0.42724609375,0.30517578125,5.4656982421875,39.7210693359375,71.47705078125
1759066914.3774512,-0.6376953125,0.07080078125,0.77099609375,0.06103515625,-0.42724609375,0.30517578125,5.47119140625,39.715576171875,71.4825439453125
1759066914.3873463,-0.6376953125,0.07080078125,0.77099609375,0.06103515625,-0.42724609375,0.30517578125,5.47119140625,39.7100830078125,71.488037109375
1759066914.3973756,-0.6376953125,0.06787109375,0.7666015625,0.0,-0.3662109375,0.30517578125,5.47119140625,39.70458984375,71.4935302734375
1759066914.4072828,-0.6376953125,0.06787109375,0.7666015625,0.0,-0.3662109375,0.30517578125,5.47119140625,39.6990966796875,71.4990234375
1759066914.418244,-0.63720703125,0.068359375,0.763671875,0.06103515625,-0.30517578125,0.42724609375,5.47119140625,39.6990966796875,71.5045166015625
1759066914.4277964,-0.63720703125,0.068359375,0.763671875,0.06103515625,-0.30517578125,0.42724609375,5.4766845703125,39.693603515625,71.5155029296875
1759066914.438988,-0.63818359375,0.07275390625,0.763671875,-0.06103515625,-0.244140625,0.48828125,5.4766845703125,39.6881103515625,71.52099609375
1759066914.448131,-0.63818359375,0.07275390625,0.763671875,-0.06103515625,-0.244140625,0.48828125,5.4766845703125,39.6881103515625,71.5264892578125
1759066914.4577243,-0.63818359375,0.07763671875,0.76513671875,-0.91552734375,-0.244140625,0.54931640625,5.47119140625,39.6826171875,71.5374755859375
1759066914.4677007,-0.63818359375,0.07763671875,0.76513671875,-0.91552734375,-0.244140625,0.54931640625,5.4656982421875,39.6771240234375,71.5484619140625
1759066914.4782722,-0.64208984375,0.07763671875,0.76708984375,-1.220703125,-0.18310546875,0.54931640625,5.4547119140625,39.6771240234375,71.553955078125
1759066914.4874263,-0.64208984375,0.07763671875,0.76708984375,-1.220703125,-0.18310546875,0.54931640625,5.44921875,39.671630859375,71.56494140625
1759066914.498045,-0.64306640625,0.07421875,0.7626953125,-0.79345703125,-0.244140625,0.67138671875,5.4437255859375,39.671630859375,71.575927734375
1759066914.5074089,-0.64306640625,0.07421875,0.7626953125,-0.79345703125,-0.244140625,0.67138671875,5.4437255859375,39.6661376953125,71.5869140625
1759066914.5182672,-0.642578125,0.07275390625,0.76171875,-0.244140625,-0.30517578125,0.732421875,5.44921875,39.6661376953125,71.597900390625
1759066914.5275598,-0.642578125,0.07275390625,0.76171875,-0.244140625,-0.30517578125,0.732421875,5.44921875,39.66064453125,71.60888671875
1759066914.5380423,-0.642578125,0.0751953125,0.76708984375,0.0,-0.3662109375,0.732421875,5.4547119140625,39.6551513671875,71.619873046875
1759066914.5479906,-0.642578125,0.0751953125,0.76708984375,0.0,-0.3662109375,0.732421875,5.460205078125,39.6551513671875,71.6253662109375
1759066914.558177,-0.6376953125,0.07861328125,0.765625,-0.244140625,-0.48828125,0.67138671875,5.4656982421875,39.649658203125,71.6363525390625
1759066914.5675511,-0.6376953125,0.07861328125,0.765625,-0.244140625,-0.48828125,0.67138671875,5.4656982421875,39.6441650390625,71.6473388671875
1759066914.5785227,-0.63720703125,0.0791015625,0.76611328125,-0.18310546875,-0.6103515625,0.6103515625,5.47119140625,39.638671875,71.65283203125
1759066914.5875692,-0.63720703125,0.0791015625,0.76611328125,-0.18310546875,-0.6103515625,0.6103515625,5.4766845703125,39.6331787109375,71.663818359375
1759066914.598239,-0.6396484375,0.0751953125,0.7646484375,-0.3662109375,-0.732421875,0.54931640625,5.4766845703125,39.6221923828125,71.6748046875
1759066914.6075354,-0.6396484375,0.0751953125,0.7646484375,-0.3662109375,-0.732421875,0.54931640625,5.4766845703125,39.61669921875,71.6802978515625
1759066914.617898,-0.6396484375,0.0732421875,0.76318359375,-0.67138671875,-0.79345703125,0.48828125,5.4766845703125,39.6112060546875,71.685791015625
1759066914.6276267,-0.6396484375,0.0732421875,0.76318359375,-0.67138671875,-0.79345703125,0.48828125,5.47119140625,39.6002197265625,71.69677734375
1759066914.63764,-0.6396484375,0.0732421875,0.76318359375,-0.8544921875,-0.732421875,0.42724609375,5.4656982421875,39.5947265625,71.7022705078125
1759066914.6480217,-0.63720703125,0.07373046875,0.7666015625,-0.8544921875,-0.732421875,0.42724609375,5.460205078125,39.5892333984375,71.707763671875
1759066914.6576703,-0.63427734375,0.07373046875,0.76953125,-0.9765625,-0.79345703125,0.42724609375,5.4547119140625,39.5782470703125,71.7132568359375
1759066914.6676114,-0.63427734375,0.07373046875,0.76953125,-0.9765625,-0.79345703125,0.42724609375,5.44921875,39.57275390625,71.71875
1759066914.6778262,-0.63623046875,0.07421875,0.7666015625,-0.9765625,-0.79345703125,0.3662109375,5.4437255859375,39.5672607421875,71.7242431640625
1759066914.6876614,-0.63623046875,0.07421875,0.7666015625,-0.9765625,-0.79345703125,0.3662109375,5.4327392578125,39.5562744140625,71.729736328125
1759066914.697858,-0.6396484375,0.0732421875,0.76513671875,-1.0986328125,-0.91552734375,0.3662109375,5.42724609375,39.55078125,71.7352294921875
1759066914.7076528,-0.6396484375,0.0732421875,0.76513671875,-1.0986328125,-0.91552734375,0.3662109375,5.4217529296875,39.539794921875,71.74072265625
1759066914.718019,-0.64111328125,0.07275390625,0.76708984375,-0.732421875,-0.91552734375,0.30517578125,5.416259765625,39.52880859375,71.7462158203125
1759066914.7280896,-0.64111328125,0.07275390625,0.76708984375,-0.732421875,-0.91552734375,0.30517578125,5.4107666015625,39.5233154296875,71.751708984375
1759066914.7381465,-0.64111328125,0.0712890625,0.7666015625,-0.244140625,-0.79345703125,0.244140625,5.4107666015625,39.517822265625,71.751708984375
1759066914.7486355,-0.64111328125,0.0712890625,0.7666015625,-0.244140625,-0.79345703125,0.244140625,5.4107666015625,39.5068359375,71.7572021484375
1759066914.7577171,-0.63916015625,0.07373046875,0.76611328125,0.0,-0.79345703125,0.244140625,5.4107666015625,39.5013427734375,71.7626953125
1759066914.7678232,-0.63916015625,0.07373046875,0.76611328125,0.0,-0.79345703125,0.244140625,5.4107666015625,39.495849609375,71.7626953125
1759066914.7778957,-0.6376953125,0.076171875,0.77001953125,0.0,-0.732421875,0.244140625,5.416259765625,39.4903564453125,71.7681884765625
1759066914.787768,-0.6376953125,0.076171875,0.77001953125,0.0,-0.732421875,0.244140625,5.416259765625,39.48486328125,71.773681640625
1759066914.797842,-0.63671875,0.07421875,0.767578125,-0.1220703125,-0.67138671875,0.30517578125,5.416259765625,39.473876953125,71.7791748046875
1759066914.8077414,-0.63671875,0.07421875,0.767578125,-0.1220703125,-0.67138671875,0.30517578125,5.416259765625,39.4683837890625,71.78466796875
1759066914.8181038,-0.6357421875,0.07275390625,0.76904296875,-0.6103515625,-0.67138671875,0.30517578125,5.416259765625,39.462890625,71.7901611328125
1759066914.8278468,-0.6357421875,0.07275390625,0.76904296875,-0.6103515625,-0.67138671875,0.30517578125,5.4107666015625,39.4573974609375,71.795654296875
1759066914.8380108,-0.6328125,0.0712890625,0.7705078125,-1.220703125,-0.67138671875,0.30517578125,5.3997802734375,39.451904296875,71.8011474609375
1759066914.8487782,-0.6337890625,0.06982421875,0.771484375,-1.28173828125,-0.67138671875,0.18310546875,5.3887939453125,39.4464111328125,71.806640625
1759066914.8578248,-0.6337890625,0.06982421875,0.771484375,-1.28173828125,-0.67138671875,0.18310546875,5.3778076171875,39.44091796875,71.806640625
1759066914.8687835,-0.6357421875,0.0693359375,0.77197265625,-0.8544921875,-0.732421875,0.18310546875,5.3668212890625,39.4354248046875,71.8121337890625
1759066914.8782818,-0.6357421875,0.0693359375,0.77197265625,-0.8544921875,-0.732421875,0.18310546875,5.361328125,39.4244384765625,71.8121337890625
1759066914.8886456,-0.63916015625,0.06982421875,0.76611328125,-0.6103515625,-0.6103515625,0.244140625,5.3558349609375,39.4189453125,71.817626953125
1759066914.8982003,-0.63916015625,0.06982421875,0.76611328125,-0.6103515625,-0.6103515625,0.244140625,5.350341796875,39.4134521484375,71.8231201171875
1759066914.9079895,-0.63720703125,0.07080078125,0.76611328125,-0.6103515625,-0.42724609375,0.18310546875,5.3448486328125,39.407958984375,71.8231201171875
1759066914.91819,-0.63720703125,0.07080078125,0.76611328125,-0.6103515625,-0.42724609375,0.18310546875,5.33935546875,39.4024658203125,71.82861328125
1759066914.928252,-0.63671875,0.07080078125,0.7685546875,-0.732421875,-0.244140625,0.1220703125,5.3338623046875,39.4024658203125,71.82861328125
1759066914.938142,-0.63671875,0.07080078125,0.7685546875,-0.732421875,-0.244140625,0.1220703125,5.328369140625,39.4024658203125,71.8341064453125
1759066914.9489758,-0.63671875,0.0673828125,0.767578125,-0.48828125,-0.18310546875,0.1220703125,5.3228759765625,39.39697265625,71.8341064453125
1759066914.957957,-0.63671875,0.0673828125,0.767578125,-0.48828125,-0.18310546875,0.1220703125,5.3173828125,39.39697265625,71.8341064453125
1759066914.9686494,-0.6376953125,0.0673828125,0.76611328125,0.06103515625,-0.06103515625,0.18310546875,5.3173828125,39.39697265625,71.839599609375
1759066914.9781368,-0.6376953125,0.0673828125,0.76611328125,0.06103515625,-0.06103515625,0.18310546875,5.3173828125,39.39697265625,71.8450927734375
1759066914.9885523,-0.638671875,0.07080078125,0.7685546875,0.3662109375,-0.1220703125,0.244140625,5.3228759765625,39.39697265625,71.8450927734375
1759066914.99823,-0.638671875,0.07080078125,0.7685546875,0.3662109375,-0.1220703125,0.244140625,5.328369140625,39.39697265625,71.8505859375
1759066915.008393,-0.63818359375,0.07470703125,0.7646484375,0.3662109375,-0.18310546875,0.244140625,5.3338623046875,39.39697265625,71.8560791015625
1759066915.0182629,-0.63818359375,0.07470703125,0.7646484375,0.3662109375,-0.18310546875,0.244140625,5.33935546875,39.39697265625,71.8560791015625
1759066915.028591,-0.63916015625,0.07666015625,0.765625,-0.06103515625,-0.244140625,0.3662109375,5.33935546875,39.39697265625,71.861572265625
1759066915.038034,-0.63916015625,0.07666015625,0.765625,-0.06103515625,-0.244140625,0.3662109375,5.3448486328125,39.3914794921875,71.8670654296875
1759066915.0491283,-0.63916015625,0.07568359375,0.765625,0.0,-0.30517578125,0.42724609375,5.3448486328125,39.3914794921875,71.87255859375
1759066915.0580835,-0.63916015625,0.07568359375,0.765625,0.0,-0.30517578125,0.42724609375,5.350341796875,39.3914794921875,71.8780517578125
1759066915.068079,-0.63623046875,0.07177734375,0.76904296875,0.54931640625,-0.3662109375,0.3662109375,5.3558349609375,39.385986328125,71.883544921875
1759066915.0781755,-0.63623046875,0.07177734375,0.76904296875,0.54931640625,-0.3662109375,0.3662109375,5.361328125,39.385986328125,71.8890380859375
1759066915.088117,-0.63134765625,0.0732421875,0.7724609375,0.91552734375,-0.54931640625,0.42724609375,5.372314453125,39.3804931640625,71.89453125
1759066915.0982738,-0.63134765625,0.0732421875,0.7724609375,0.91552734375,-0.54931640625,0.42724609375,5.3887939453125,39.375,71.905517578125
1759066915.1082964,-0.6279296875,0.0771484375,0.77197265625,0.79345703125,-0.67138671875,0.42724609375,5.3997802734375,39.3695068359375,71.9110107421875
1759066915.1184008,-0.6279296875,0.0771484375,0.77197265625,0.79345703125,-0.67138671875,0.42724609375,5.4107666015625,39.364013671875,71.91650390625
1759066915.1281736,-0.626953125,0.0791015625,0.7744140625,0.30517578125,-0.8544921875,0.48828125,5.416259765625,39.3585205078125,71.9219970703125
1759066915.138104,-0.626953125,0.0791015625,0.7744140625,0.30517578125,-0.8544921875,0.48828125,5.42724609375,39.3475341796875,71.927490234375
1759066915.1486413,-0.62646484375,0.07568359375,0.7763671875,0.0,-0.9765625,0.48828125,5.4327392578125,39.3365478515625,71.9384765625
1759066915.1582901,-0.62646484375,0.07568359375,0.7763671875,0.0,-0.9765625,0.48828125,5.4327392578125,39.3255615234375,71.9439697265625
1759066915.1682458,-0.625,0.07080078125,0.77587890625,-0.48828125,-0.9765625,0.3662109375,5.4327392578125,39.3145751953125,71.949462890625
1759066915.1786053,-0.625,0.07080078125,0.77587890625,-0.48828125,-0.9765625,0.3662109375,5.4327392578125,39.3035888671875,71.9549560546875
1759066915.188351,-0.626953125,0.07080078125,0.77392578125,-0.48828125,-1.03759765625,0.244140625,5.4327392578125,39.2926025390625,71.9549560546875
1759066915.198268,-0.626953125,0.07080078125,0.77392578125,-0.48828125,-1.03759765625,0.244140625,5.42724609375,39.2816162109375,71.96044921875
1759066915.208541,-0.6328125,0.07373046875,0.771484375,-0.1220703125,-0.9765625,0.244140625,5.42724609375,39.2706298828125,71.9659423828125
1759066915.2185571,-0.6328125,0.07373046875,0.771484375,-0.1220703125,-0.9765625,0.244140625,5.42724609375,39.2596435546875,71.9659423828125
1759066915.228212,-0.63818359375,0.07470703125,0.7666015625,0.0,-0.91552734375,0.244140625,5.42724609375,39.2486572265625,71.971435546875
1759066915.2382426,-0.63818359375,0.07470703125,0.7666015625,0.0,-0.91552734375,0.244140625,5.42724609375,39.2376708984375,71.971435546875
1759066915.2486944,-0.6376953125,0.07568359375,0.76611328125,-0.3662109375,-0.9765625,0.18310546875,5.42724609375,39.232177734375,71.9769287109375
1759066915.2584145,-0.6376953125,0.07568359375,0.76611328125,-0.3662109375,-0.9765625,0.18310546875,5.4217529296875,39.22119140625,71.982421875
1759066915.2682765,-0.63818359375,0.07568359375,0.76318359375,-1.220703125,-1.03759765625,0.1220703125,5.416259765625,39.210205078125,71.982421875
1759066915.2785914,-0.63818359375,0.07568359375,0.76318359375,-1.220703125,-1.03759765625,0.1220703125,5.4052734375,39.19921875,71.982421875
1759066915.288373,-0.640625,0.0751953125,0.7646484375,-2.25830078125,-1.15966796875,0.1220703125,5.3887939453125,39.1937255859375,71.982421875
1759066915.298598,-0.640625,0.0751953125,0.7646484375,-2.25830078125,-1.15966796875,0.1220703125,5.3668212890625,39.1827392578125,71.9879150390625
1759066915.3085537,-0.63671875,0.0732421875,0.767578125,-3.0517578125,-1.40380859375,0.18310546875,5.3448486328125,39.1717529296875,71.9879150390625
1759066915.3193007,-0.63671875,0.0732421875,0.767578125,-3.0517578125,-1.40380859375,0.18310546875,5.3118896484375,39.1552734375,71.9879150390625
1759066915.3287885,-0.6357421875,0.07470703125,0.77099609375,-3.2958984375,-1.52587890625,0.18310546875,5.284423828125,39.144287109375,71.993408203125
1759066915.3397155,-0.6357421875,0.07470703125,0.77099609375,-3.2958984375,-1.52587890625,0.18310546875,5.25146484375,39.13330078125,71.993408203125
1759066915.3488123,-0.63427734375,0.072265625,0.76953125,-3.23486328125,-1.64794921875,0.18310546875,5.2239990234375,39.1168212890625,71.9989013671875
1759066915.3590348,-0.63427734375,0.072265625,0.76953125,-3.23486328125,-1.64794921875,0.18310546875,5.1910400390625,39.100341796875,71.9989013671875
1759066915.3686557,-0.6337890625,0.072265625,0.76708984375,-2.685546875,-1.708984375,0.244140625,5.16357421875,39.08935546875,71.9989013671875
1759066915.379161,-0.6337890625,0.072265625,0.76708984375,-2.685546875,-1.708984375,0.244140625,5.1416015625,39.0728759765625,72.00439453125
1759066915.3884697,-0.6337890625,0.0703125,0.77001953125,-1.77001953125,-1.708984375,0.244140625,5.11962890625,39.056396484375,72.00439453125
1759066915.3988166,-0.6337890625,0.0703125,0.77001953125,-1.77001953125,-1.708984375,0.244140625,5.1031494140625,39.04541015625,72.00439453125
1759066915.4084582,-0.626953125,0.0732421875,0.77587890625,-0.67138671875,-1.77001953125,0.3662109375,5.09765625,39.0289306640625,72.0098876953125
1759066915.4191194,-0.626953125,0.0732421875,0.77587890625,-0.67138671875,-1.77001953125,0.3662109375,5.0921630859375,39.012451171875,72.0098876953125
1759066915.428399,-0.62841796875,0.0732421875,0.77783203125,-0.30517578125,-1.77001953125,0.42724609375,5.0921630859375,38.9959716796875,72.015380859375
1759066915.4385936,-0.62841796875,0.0732421875,0.77783203125,-0.30517578125,-1.77001953125,0.42724609375,5.0921630859375,38.9794921875,72.0208740234375
1759066915.4495974,-0.62841796875,0.0732421875,0.77783203125,-0.48828125,-1.64794921875,0.54931640625,5.0921630859375,38.9630126953125,72.0263671875
1759066915.458583,-0.630859375,0.076171875,0.7705078125,-0.48828125,-1.64794921875,0.54931640625,5.0921630859375,38.946533203125,72.0318603515625
1759066915.4690523,-0.63134765625,0.07275390625,0.76953125,-0.244140625,-1.46484375,0.6103515625,5.09765625,38.935546875,72.037353515625
