timestamp,acc_x,acc_y,acc_z,gyro_x,gyro_y,gyro_z,angle_x,angle_y,angle_z
1758878301.3664727,-0.79296875,-0.05029296875,0.60791015625,-0.91552734375,-0.54931640625,0.3662109375,-5.943603515625,53.3880615234375,100.2227783203125
1758878301.379992,-0.79296875,-0.05029296875,0.60791015625,-0.91552734375,-0.54931640625,0.3662109375,-5.9490966796875,53.382568359375,100.228271484375
1758878301.3959775,-0.794921875,-0.04931640625,0.607421875,-0.54931640625,-0.42724609375,-0.48828125,-5.95458984375,53.37158203125,100.2337646484375
1758878301.4089034,-0.794921875,-0.04931640625,0.607421875,-0.54931640625,-0.42724609375,-0.48828125,-5.9600830078125,53.3660888671875,100.228271484375
1758878301.4189403,-0.79443359375,-0.0478515625,0.595703125,-1.52587890625,-0.42724609375,-1.220703125,-5.9820556640625,53.360595703125,100.21728515625
1758878301.4276638,-0.79443359375,-0.0478515625,0.595703125,-1.52587890625,-0.42724609375,-1.220703125,-6.009521484375,53.349609375,100.2008056640625
1758878301.4360468,-0.7998046875,-0.056640625,0.59765625,-1.89208984375,-0.30517578125,-1.77001953125,-6.0369873046875,53.3441162109375,100.1788330078125
1758878301.4448607,-0.7998046875,-0.056640625,0.59765625,-1.89208984375,-0.30517578125,-1.77001953125,-6.075439453125,53.338623046875,100.1513671875
1758878301.4536283,-0.79541015625,-0.06494140625,0.6015625,-1.0986328125,-0.18310546875,-2.197265625,-6.1138916015625,53.32763671875,100.1239013671875
1758878301.4599276,-0.79541015625,-0.06494140625,0.6015625,-1.0986328125,-0.18310546875,-2.197265625,-6.1468505859375,53.3221435546875,100.08544921875
1758878301.4662778,-0.794921875,-0.06787109375,0.603515625,-0.18310546875,-0.244140625,-2.44140625,-6.1798095703125,53.316650390625,100.052490234375
1758878301.4747972,-0.794921875,-0.06787109375,0.603515625,-0.18310546875,-0.244140625,-2.44140625,-6.2127685546875,53.3111572265625,100.0140380859375
1758878301.4860337,-0.7958984375,-0.06005859375,0.5947265625,0.30517578125,-0.3662109375,-2.8076171875,-6.2457275390625,53.3001708984375,99.9755859375
1758878301.4948597,-0.7958984375,-0.06005859375,0.5947265625,0.30517578125,-0.3662109375,-2.8076171875,-6.273193359375,53.2891845703125,99.931640625
1758878301.5048337,-0.79638671875,-0.0595703125,0.6015625,0.48828125,-0.3662109375,-2.9296875,-6.3006591796875,53.28369140625,99.8822021484375
1758878301.5151873,-0.79638671875,-0.0595703125,0.6015625,0.48828125,-0.3662109375,-2.9296875,-6.3336181640625,53.272705078125,99.8382568359375
1758878301.524841,-0.7890625,-0.06982421875,0.5966796875,0.30517578125,-0.91552734375,-2.8076171875,-6.361083984375,53.26171875,99.7943115234375
1758878301.5348897,-0.7890625,-0.06982421875,0.5966796875,0.30517578125,-0.91552734375,-2.8076171875,-6.39404296875,53.2452392578125,99.7503662109375
1758878301.544859,-0.79345703125,-0.07373046875,0.6064453125,-1.03759765625,-1.28173828125,-2.38037109375,-6.427001953125,53.228759765625,99.7119140625
1758878301.554872,-0.79345703125,-0.07373046875,0.6064453125,-1.03759765625,-1.28173828125,-2.38037109375,-6.4599609375,53.2122802734375,99.6734619140625
1758878301.5648756,-0.78466796875,-0.07177734375,0.60791015625,-1.15966796875,-1.5869140625,-2.01416015625,-6.4984130859375,53.19580078125,99.6405029296875
1758878301.5748868,-0.78466796875,-0.07177734375,0.60791015625,-1.15966796875,-1.5869140625,-2.01416015625,-6.5313720703125,53.173828125,99.613037109375
1758878301.5848918,-0.7890625,-0.07080078125,0.6201171875,-1.89208984375,-2.01416015625,-1.52587890625,-6.5643310546875,53.15185546875,99.5855712890625
1758878301.5949082,-0.7890625,-0.07080078125,0.6201171875,-1.89208984375,-2.01416015625,-1.52587890625,-6.5972900390625,53.1243896484375,99.5635986328125
1758878301.6049254,-0.7939453125,-0.07421875,0.615234375,-2.685546875,-2.197265625,-1.15966796875,-6.6357421875,53.096923828125,99.547119140625
1758878301.6149585,-0.7939453125,-0.07421875,0.615234375,-2.685546875,-2.197265625,-1.15966796875,-6.668701171875,53.0694580078125,99.5306396484375
1758878301.6249492,-0.79931640625,-0.07275390625,0.59912109375,-2.99072265625,-2.50244140625,-0.91552734375,-6.7071533203125,53.0419921875,99.51416015625
1758878301.6349573,-0.79931640625,-0.07275390625,0.59912109375,-2.99072265625,-2.50244140625,-0.91552734375,-6.74560546875,53.0145263671875,99.503173828125
1758878301.644983,-0.798828125,-0.07275390625,0.59033203125,-2.3193359375,-2.685546875,-0.8544921875,-6.778564453125,52.9815673828125,99.4976806640625
1758878301.6549888,-0.798828125,-0.07275390625,0.59033203125,-2.3193359375,-2.685546875,-0.8544921875,-6.8060302734375,52.9541015625,99.4866943359375
1758878301.6649978,-0.79443359375,-0.06494140625,0.59326171875,-2.74658203125,-2.9296875,-1.0986328125,-6.8389892578125,52.921142578125,99.4757080078125
1758878301.675029,-0.79443359375,-0.06494140625,0.59326171875,-2.74658203125,-2.9296875,-1.0986328125,-6.8719482421875,52.88818359375,99.4647216796875
1758878301.6850283,-0.806640625,-0.06787109375,0.60498046875,-2.8076171875,-2.8076171875,-0.8544921875,-6.9049072265625,52.8607177734375,99.4482421875
1758878301.6951225,-0.806640625,-0.06787109375,0.60498046875,-2.8076171875,-2.8076171875,-0.8544921875,-6.9378662109375,52.833251953125,99.4427490234375
1758878301.7051113,-0.79443359375,-0.08447265625,0.59228515625,-3.11279296875,-2.74658203125,-0.48828125,-6.9708251953125,52.80029296875,99.437255859375
1758878301.7151265,-0.79443359375,-0.08447265625,0.59228515625,-3.11279296875,-2.74658203125,-0.48828125,-6.998291015625,52.7728271484375,99.4317626953125
1758878301.7251096,-0.794921875,-0.08544921875,0.607421875,-2.99072265625,-2.38037109375,-0.18310546875,-7.03125,52.7508544921875,99.4317626953125
1758878301.7351408,-0.794921875,-0.08544921875,0.607421875,-2.99072265625,-2.38037109375,-0.18310546875,-7.0587158203125,52.723388671875,99.4317626953125
1758878301.745114,-0.7939453125,-0.08251953125,0.61767578125,-0.67138671875,-2.5634765625,-0.18310546875,-7.0751953125,52.701416015625,99.4317626953125
1758878301.7551253,-0.7939453125,-0.08251953125,0.61767578125,-0.67138671875,-2.5634765625,-0.18310546875,-7.0806884765625,52.6739501953125,99.437255859375
1758878301.7651458,-0.791015625,-0.06689453125,0.6103515625,1.3427734375,-2.74658203125,-0.48828125,-7.0751953125,52.646484375,99.4317626953125
1758878301.7753224,-0.791015625,-0.06689453125,0.6103515625,1.3427734375,-2.74658203125,-0.48828125,-7.064208984375,52.6190185546875,99.4317626953125
1758878301.785157,-0.787109375,-0.0673828125,0.60888671875,0.91552734375,-2.74658203125,-0.6103515625,-7.05322265625,52.591552734375,99.42626953125
1758878301.7952166,-0.787109375,-0.0673828125,0.60888671875,0.91552734375,-2.74658203125,-0.6103515625,-7.0477294921875,52.55859375,99.4207763671875
1758878301.8052056,-0.78466796875,-0.06787109375,0.6162109375,-1.03759765625,-2.86865234375,-0.67138671875,-7.05322265625,52.5311279296875,99.415283203125
1758878301.8152494,-0.78466796875,-0.06787109375,0.6162109375,-1.03759765625,-2.86865234375,-0.67138671875,-7.064208984375,52.503662109375,99.4097900390625
1758878301.8252268,-0.77783203125,-0.06787109375,0.62255859375,-3.0517578125,-2.9296875,-0.732421875,-7.086181640625,52.470703125,99.404296875
1758878301.8352597,-0.77783203125,-0.06787109375,0.62255859375,-3.0517578125,-2.9296875,-0.732421875,-7.119140625,52.437744140625,99.3988037109375
1758878301.845276,-0.77587890625,-0.08154296875,0.64453125,-2.25830078125,-3.11279296875,-0.54931640625,-7.1466064453125,52.40478515625,99.3988037109375
1758878301.855287,-0.77587890625,-0.08154296875,0.64453125,-2.25830078125,-3.11279296875,-0.54931640625,-7.1685791015625,52.371826171875,99.393310546875
1758878301.865325,-0.76953125,-0.08544921875,0.65869140625,1.0986328125,-3.5400390625,-0.54931640625,-7.174072265625,52.3333740234375,99.393310546875
1758878301.875965,-0.76953125,-0.08544921875,0.65869140625,1.0986328125,-3.5400390625,-0.54931640625,-7.1630859375,52.2894287109375,99.3878173828125
1758878301.8853652,-0.7548828125,-0.0966796875,0.66162109375,5.126953125,-4.0283203125,-0.3662109375,-7.130126953125,52.2454833984375,99.3878173828125
1758878301.8959954,-0.7548828125,-0.0966796875,0.66162109375,5.126953125,-4.0283203125,-0.3662109375,-7.0751953125,52.196044921875,99.3878173828125
1758878301.9055123,-0.7470703125,-0.0966796875,0.67626953125,9.8876953125,-4.8828125,-0.30517578125,-6.998291015625,52.1466064453125,99.393310546875
1758878301.91569,-0.7470703125,-0.0966796875,0.67626953125,9.8876953125,-4.8828125,-0.30517578125,-6.8994140625,52.086181640625,99.393310546875
1758878301.9254215,-0.728515625,-0.08837890625,0.6806640625,12.87841796875,-5.7373046875,-0.1220703125,-6.7840576171875,52.020263671875,99.3988037109375
1758878301.9356756,-0.728515625,-0.08837890625,0.6806640625,12.87841796875,-5.7373046875,-0.1220703125,-6.6522216796875,51.9488525390625,99.404296875
1758878301.9455018,-0.70703125,-0.07080078125,0.693359375,12.39013671875,-6.591796875,0.1220703125,-6.5203857421875,51.8719482421875,99.415283203125
1758878301.955724,-0.70703125,-0.07080078125,0.693359375,12.39013671875,-6.591796875,0.1220703125,-6.3885498046875,51.78955078125,99.42626953125
1758878301.9656086,-0.69189453125,-0.0537109375,0.7109375,6.89697265625,-6.7138671875,0.48828125,-6.2841796875,51.7071533203125,99.437255859375
1758878301.975771,-0.69189453125,-0.0537109375,0.7109375,6.89697265625,-6.7138671875,0.48828125,-6.2017822265625,51.6192626953125,99.4537353515625
1758878301.9855766,-0.6630859375,-0.04833984375,0.71337890625,0.6103515625,-6.8359375,1.3427734375,-6.1468505859375,51.5313720703125,99.4757080078125
1758878301.9956186,-0.6630859375,-0.04833984375,0.71337890625,0.6103515625,-6.8359375,1.3427734375,-6.119384765625,51.43798828125,99.503173828125
1758878302.012022,-0.62548828125,-0.05322265625,0.70556640625,-2.38037109375,-6.89697265625,2.13623046875,-6.0919189453125,51.3446044921875,99.5416259765625
1758878302.0182219,-0.62548828125,-0.05322265625,0.70556640625,-2.38037109375,-6.89697265625,2.13623046875,-6.0809326171875,51.251220703125,99.580078125
1758878302.0256078,-0.61181640625,-0.078125,0.69091796875,-2.8076171875,-6.8359375,3.0517578125,-6.064453125,51.15234375,99.6240234375
1758878302.0357091,-0.61181640625,-0.078125,0.69091796875,-2.8076171875,-6.8359375,3.0517578125,-6.04248046875,51.053466796875,99.678955078125
1758878302.045902,-0.64892578125,-0.10986328125,0.69287109375,7.6904296875,-6.8359375,3.90625,-5.965576171875,50.95458984375,99.7393798828125
1758878302.0557995,-0.64892578125,-0.10986328125,0.69287109375,7.6904296875,-6.8359375,3.90625,-5.8392333984375,50.855712890625,99.8052978515625
1758878302.065641,-0.71923828125,-0.16259765625,0.71240234375,32.2265625,-6.103515625,3.60107421875,-5.592041015625,50.7568359375,99.86572265625
1758878302.0757124,-0.71923828125,-0.16259765625,0.71240234375,32.2265625,-6.103515625,3.60107421875,-5.2294921875,50.6634521484375,99.9261474609375
1758878302.0856807,-0.78369140625,-0.1708984375,0.71923828125,55.11474609375,-6.4697265625,2.50244140625,-4.76806640625,50.570068359375,99.9755859375
1758878302.0956373,-0.78369140625,-0.1708984375,0.71923828125,55.11474609375,-6.4697265625,2.50244140625,-4.207763671875,50.4766845703125,100.01953125
1758878302.1056643,-0.83056640625,-0.06494140625,0.7109375,66.34521484375,-7.38525390625,1.64794921875,-3.5980224609375,50.3778076171875,100.052490234375
1758878302.1157339,-0.83056640625,-0.06494140625,0.7109375,66.34521484375,-7.38525390625,1.64794921875,-2.9443359375,50.2734375,100.0799560546875
1758878302.125909,-0.85693359375,0.03271484375,0.7236328125,58.2275390625,-8.30078125,0.79345703125,-2.3345947265625,50.174560546875,100.096435546875
1758878302.13576,-0.85693359375,0.03271484375,0.7236328125,58.2275390625,-8.30078125,0.79345703125,-1.7742919921875,50.0701904296875,100.1129150390625
1758878302.1458158,-0.85693359375,0.03271484375,0.7236328125,23.49853515625,-8.48388671875,0.0,-1.38427734375,49.9658203125,100.118408203125
1758878302.156004,-0.88720703125,0.0576171875,0.6474609375,23.49853515625,-8.48388671875,0.0,-1.1700439453125,49.8724365234375,100.1239013671875
1758878302.165889,-0.794921875,0.11376953125,0.5400390625,-3.5400390625,-8.36181640625,-1.03759765625,-1.087646484375,49.779052734375,100.118408203125
1758878302.1757543,-0.794921875,0.11376953125,0.5400390625,-3.5400390625,-8.36181640625,-1.03759765625,-1.142578125,49.691162109375,100.107421875
1758878302.1858304,-0.76416015625,0.09228515625,0.47119140625,-6.28662109375,-7.14111328125,-1.8310546875,-1.20849609375,49.6142578125,100.0909423828125
1758878302.1960022,-0.76416015625,0.09228515625,0.47119140625,-6.28662109375,-7.14111328125,-1.8310546875,-1.2908935546875,49.54833984375,100.074462890625
1758878302.2058907,-0.751953125,0.02880859375,0.4814453125,-5.43212890625,-5.55419921875,-2.8076171875,-1.3623046875,49.493408203125,100.0469970703125
1758878302.2159004,-0.751953125,0.02880859375,0.4814453125,-5.43212890625,-5.55419921875,-2.8076171875,-1.439208984375,49.449462890625,100.0140380859375
1758878302.2259374,-0.751953125,-0.0078125,0.52734375,-13.73291015625,-4.21142578125,-3.7841796875,-1.56005859375,49.41650390625,99.9700927734375
1758878302.2361135,-0.751953125,-0.0078125,0.52734375,-13.73291015625,-4.21142578125,-3.7841796875,-1.7303466796875,49.39453125,99.9261474609375
1758878302.245934,-0.75439453125,-0.0029296875,0.58837890625,-21.17919921875,-2.99072265625,-4.2724609375,-1.9390869140625,49.3780517578125,99.8712158203125
1758878302.255902,-0.75439453125,-0.0029296875,0.58837890625,-21.17919921875,-2.99072265625,-4.2724609375,-2.1807861328125,49.3670654296875,99.8162841796875
1758878302.2666802,-0.78173828125,-0.0048828125,0.6552734375,-19.53125,-2.62451171875,-4.33349609375,-2.4114990234375,49.3560791015625,99.7613525390625
1758878302.2760086,-0.78173828125,-0.0048828125,0.6552734375,-19.53125,-2.62451171875,-4.33349609375,-2.6422119140625,49.3450927734375,99.7064208984375
1758878302.2860703,-0.84423828125,-0.05126953125,0.69970703125,-9.21630859375,-2.62451171875,-4.8828125,-2.7740478515625,49.32861328125,99.6405029296875
1758878302.2960322,-0.84423828125,-0.05126953125,0.69970703125,-9.21630859375,-2.62451171875,-4.8828125,-2.911376953125,49.317626953125,99.5745849609375
1758878302.3068204,-0.85693359375,-0.08251953125,0.71728515625,-6.9580078125,-3.662109375,-5.79833984375,-3.0322265625,49.2901611328125,99.4921875
1758878302.3160367,-0.85693359375,-0.08251953125,0.71728515625,-6.9580078125,-3.662109375,-5.79833984375,-3.1640625,49.2626953125,99.415283203125
1758878302.3260574,-0.8427734375,-0.03857421875,0.6513671875,-10.7421875,-3.7841796875,-6.28662109375,-3.3343505859375,49.2352294921875,99.327392578125
1758878302.3362048,-0.8427734375,-0.03857421875,0.6513671875,-10.7421875,-3.7841796875,-6.28662109375,-3.504638671875,49.207763671875,99.2449951171875
1758878302.3464642,-0.7998046875,-0.0166015625,0.5625,-8.11767578125,-3.11279296875,-6.4697265625,-3.6474609375,49.1912841796875,99.1571044921875
1758878302.3560436,-0.7998046875,-0.0166015625,0.5625,-8.11767578125,-3.11279296875,-6.4697265625,-3.7957763671875,49.1693115234375,99.063720703125
1758878302.366185,-0.79443359375,-0.037109375,0.515625,-8.36181640625,-2.50244140625,-5.55419921875,-3.93310546875,49.163818359375,98.9923095703125
1758878302.3761792,-0.79443359375,-0.037109375,0.515625,-8.36181640625,-2.50244140625,-5.55419921875,-4.06494140625,49.15283203125,98.9154052734375
1758878302.3864834,-0.79638671875,-0.05859375,0.578125,-13.7939453125,-1.5869140625,-5.2490234375,-4.2572021484375,49.1583251953125,98.843994140625
1758878302.3962522,-0.79638671875,-0.05859375,0.578125,-13.7939453125,-1.5869140625,-5.2490234375,-4.4439697265625,49.163818359375,98.7725830078125
1758878302.4063048,-0.79541015625,-0.0751953125,0.6181640625,-11.04736328125,-1.15966796875,-5.126953125,-4.6087646484375,49.1693115234375,98.7066650390625
1758878302.4166887,-0.79541015625,-0.0751953125,0.6181640625,-11.04736328125,-1.15966796875,-5.126953125,-4.7735595703125,49.1802978515625,98.63525390625
1758878302.4262357,-0.8017578125,-0.10205078125,0.64794921875,-3.662109375,-1.03759765625,-5.31005859375,-4.866943359375,49.185791015625,98.5638427734375
1758878302.4366174,-0.8017578125,-0.10205078125,0.64794921875,-3.662109375,-1.03759765625,-5.31005859375,-4.9603271484375,49.1912841796875,98.4869384765625
1758878302.4463985,-0.78369140625,-0.1015625,0.62890625,4.150390625,-1.03759765625,-5.55419921875,-4.9822998046875,49.19677734375,98.4100341796875
1758878302.4562745,-0.78369140625,-0.1015625,0.62890625,4.150390625,-1.03759765625,-5.55419921875,-5.009765625,49.19677734375,98.3331298828125
1758878302.4663353,-0.77490234375,-0.08203125,0.6220703125,10.80322265625,-1.3427734375,-5.79833984375,-4.9713134765625,49.19677734375,98.250732421875
1758878302.476671,-0.77490234375,-0.08203125,0.6220703125,10.80322265625,-1.3427734375,-5.79833984375,-4.932861328125,49.19677734375,98.1683349609375
1758878302.486295,-0.77490234375,-0.05615234375,0.62744140625,13.0615234375,-1.28173828125,-5.79833984375,-4.8779296875,49.19677734375,98.0859375
1758878302.4963675,-0.77490234375,-0.05615234375,0.62744140625,13.0615234375,-1.28173828125,-5.79833984375,-4.8175048828125,49.1912841796875,98.0035400390625
1758878302.50715,-0.75048828125,-0.0517578125,0.65234375,11.90185546875,-1.77001953125,-5.79833984375,-4.76806640625,49.185791015625,97.921142578125
1758878302.5164785,-0.75048828125,-0.0517578125,0.65234375,11.90185546875,-1.77001953125,-5.79833984375,-4.7186279296875,49.1748046875,97.8387451171875
1758878302.5263183,-0.7607421875,-0.0615234375,0.6689453125,11.8408203125,-2.0751953125,-5.7373046875,-4.669189453125,49.163818359375,97.75634765625
1758878302.5363832,-0.7607421875,-0.0615234375,0.6689453125,11.8408203125,-2.0751953125,-5.7373046875,-4.6197509765625,49.1473388671875,97.66845703125
1758878302.5472238,-0.7529296875,-0.06591796875,0.67333984375,16.845703125,-2.9296875,-5.9814453125,-4.5263671875,49.119873046875,97.5860595703125
1758878302.5564237,-0.7529296875,-0.06591796875,0.67333984375,16.845703125,-2.9296875,-5.9814453125,-4.427490234375,49.0924072265625,97.4981689453125
1758878302.5667894,-0.75537109375,-0.0595703125,0.65185546875,19.8974609375,-3.2958984375,-6.04248046875,-4.306640625,49.06494140625,97.4102783203125
1758878302.576863,-0.75537109375,-0.0595703125,0.65185546875,19.8974609375,-3.2958984375,-6.04248046875,-4.1802978515625,49.031982421875,97.3223876953125
1758878302.5867715,-0.7587890625,-0.0439453125,0.63037109375,19.10400390625,-4.0283203125,-5.9814453125,-4.0594482421875,48.9935302734375,97.2344970703125
1758878302.5965104,-0.7587890625,-0.0439453125,0.63037109375,19.10400390625,-4.0283203125,-5.9814453125,-3.944091796875,48.955078125,97.1466064453125
1758878302.6067953,-0.7734375,-0.048828125,0.63037109375,16.66259765625,-4.5166015625,-5.615234375,-3.84521484375,48.9166259765625,97.0697021484375
1758878302.617185,-0.7734375,-0.048828125,0.63037109375,16.66259765625,-4.5166015625,-5.615234375,-3.746337890625,48.8726806640625,96.9873046875
1758878302.6267605,-0.79638671875,-0.04736328125,0.61083984375,15.380859375,-4.69970703125,-5.0048828125,-3.6529541015625,48.834228515625,96.9158935546875
1758878302.6365356,-0.79638671875,-0.04736328125,0.61083984375,15.380859375,-4.69970703125,-5.0048828125,-3.5650634765625,48.7957763671875,96.844482421875
1758878302.6471345,-0.79052734375,-0.0341796875,0.61181640625,12.6953125,-4.2724609375,-4.638671875,-3.49365234375,48.75732421875,96.778564453125
1758878302.6566098,-0.79052734375,-0.0341796875,0.61181640625,12.6953125,-4.2724609375,-4.638671875,-3.4222412109375,48.724365234375,96.712646484375
1758878302.6668813,-0.78759765625,-0.0380859375,0.59912109375,10.8642578125,-3.47900390625,-4.21142578125,-3.3673095703125,48.702392578125,96.65771484375
1758878302.6768277,-0.78759765625,-0.0380859375,0.59912109375,10.8642578125,-3.47900390625,-4.21142578125,-3.3123779296875,48.680419921875,96.5972900390625
1758878302.687397,-0.77978515625,-0.04638671875,0.6005859375,9.765625,-2.5634765625,-3.662109375,-3.262939453125,48.66943359375,96.5423583984375
1758878302.6965513,-0.77978515625,-0.04638671875,0.6005859375,9.765625,-2.5634765625,-3.662109375,-3.2080078125,48.658447265625,96.492919921875
1758878302.7069337,-0.76611328125,-0.04345703125,0.61181640625,8.1787109375,-2.0751953125,-3.0517578125,-3.1695556640625,48.6529541015625,96.448974609375
1758878302.7172737,-0.76611328125,-0.04345703125,0.61181640625,8.1787109375,-2.0751953125,-3.0517578125,-3.1256103515625,48.6474609375,96.3995361328125
1758878302.7269201,-0.763671875,-0.03759765625,0.63330078125,7.14111328125,-1.708984375,-2.86865234375,-3.0926513671875,48.6419677734375,96.361083984375
1758878302.736598,-0.763671875,-0.03759765625,0.63330078125,7.14111328125,-1.708984375,-2.86865234375,-3.0596923828125,48.6419677734375,96.317138671875
1758878302.7471924,-0.75341796875,-0.03125,0.65185546875,6.40869140625,-1.40380859375,-2.8076171875,-3.0322265625,48.6419677734375,96.273193359375
1758878302.7571783,-0.75341796875,-0.03125,0.65185546875,6.40869140625,-1.40380859375,-2.8076171875,-3.0047607421875,48.636474609375,96.2347412109375
1758878302.7669916,-0.744140625,-0.0263671875,0.66748046875,6.9580078125,-1.3427734375,-2.99072265625,-2.977294921875,48.636474609375,96.185302734375
1758878302.7766516,-0.744140625,-0.0263671875,0.66748046875,6.9580078125,-1.3427734375,-2.99072265625,-2.9443359375,48.6309814453125,96.141357421875
1758878302.787481,-0.73388671875,-0.0302734375,0.67724609375,6.53076171875,-1.5869140625,-2.86865234375,-2.911376953125,48.6199951171875,96.097412109375
1758878302.7966883,-0.73388671875,-0.0302734375,0.67724609375,6.53076171875,-1.5869140625,-2.86865234375,-2.8839111328125,48.614501953125,96.0479736328125
1758878302.8070984,-0.71630859375,-0.0341796875,0.6923828125,4.45556640625,-1.953125,-2.25830078125,-2.8619384765625,48.5980224609375,96.0150146484375
1758878302.8171806,-0.71630859375,-0.0341796875,0.6923828125,4.45556640625,-1.953125,-2.25830078125,-2.845458984375,48.58154296875,95.9765625
1758878302.827052,-0.71435546875,-0.04541015625,0.71875,4.94384765625,-2.13623046875,-1.64794921875,-2.8179931640625,48.5595703125,95.9490966796875
1758878302.8370059,-0.71435546875,-0.04541015625,0.71875,4.94384765625,-2.13623046875,-1.64794921875,-2.79052734375,48.5321044921875,95.921630859375
1758878302.8471599,-0.69091796875,-0.04443359375,0.7548828125,3.35693359375,-2.3193359375,-1.03759765625,-2.7685546875,48.504638671875,95.899658203125
1758878302.8567827,-0.69091796875,-0.04443359375,0.7548828125,3.35693359375,-2.3193359375,-1.03759765625,-2.7520751953125,48.4771728515625,95.8831787109375
1758878302.8671668,-0.666015625,-0.029296875,0.76904296875,0.79345703125,-2.5634765625,-0.48828125,-2.7520751953125,48.438720703125,95.86669921875
1758878302.877393,-0.666015625,-0.029296875,0.76904296875,0.79345703125,-2.5634765625,-0.48828125,-2.74658203125,48.4002685546875,95.855712890625
1758878302.8870103,-0.6435546875,-0.0283203125,0.78564453125,-3.47900390625,-3.11279296875,0.0,-2.7850341796875,48.350830078125,95.8502197265625
1758878302.8967268,-0.6435546875,-0.0283203125,0.78564453125,-3.47900390625,-3.11279296875,0.0,-2.8179931640625,48.3013916015625,95.8447265625
1758878302.9073102,-0.6044921875,-0.0146484375,0.7900390625,-10.6201171875,-3.60107421875,0.42724609375,-2.9168701171875,48.240966796875,95.8447265625
1758878302.9169312,-0.6044921875,-0.0146484375,0.7900390625,-10.6201171875,-3.60107421875,0.42724609375,-3.0157470703125,48.175048828125,95.8502197265625
1758878302.9271626,-0.5703125,-0.01806640625,0.77099609375,-11.77978515625,-4.150390625,0.54931640625,-3.1201171875,48.1036376953125,95.8502197265625
1758878302.9380054,-0.5703125,-0.01806640625,0.77099609375,-11.77978515625,-4.150390625,0.54931640625,-3.2244873046875,48.0267333984375,95.8502197265625
1758878302.9472208,-0.52734375,-0.02490234375,0.7705078125,-12.20703125,-4.57763671875,0.48828125,-3.328857421875,47.9443359375,95.8502197265625
1758878302.9568539,-0.52734375,-0.02490234375,0.7705078125,-12.20703125,-4.57763671875,0.48828125,-3.438720703125,47.8564453125,95.855712890625
1758878302.9672713,-0.52197265625,-0.0107421875,0.7744140625,-23.193359375,-4.2724609375,1.15966796875,-3.6474609375,47.7685546875,95.86669921875
1758878302.9776952,-0.52197265625,-0.0107421875,0.7744140625,-23.193359375,-4.2724609375,1.15966796875,-3.8507080078125,47.6806640625,95.877685546875
1758878302.987194,-0.5517578125,0.00390625,0.732421875,-37.7197265625,-2.50244140625,2.197265625,-4.1912841796875,47.603759765625,95.899658203125
1758878302.9968927,-0.5517578125,0.00390625,0.732421875,-37.7197265625,-2.50244140625,2.197265625,-4.5208740234375,47.5323486328125,95.921630859375
1758878303.0074108,-0.6171875,-0.0087890625,0.6591796875,-42.78564453125,-0.48828125,3.84521484375,-4.888916015625,47.48291015625,95.9710693359375
1758878303.0169477,-0.6171875,-0.0087890625,0.6591796875,-42.78564453125,-0.48828125,3.84521484375,-5.25146484375,47.4334716796875,96.0150146484375
1758878303.0273812,-0.63427734375,-0.0322265625,0.658203125,-46.7529296875,0.30517578125,5.18798828125,-5.635986328125,47.39501953125,96.0809326171875
1758878303.0373127,-0.63427734375,-0.0322265625,0.658203125,-46.7529296875,0.30517578125,5.18798828125,-6.0205078125,47.362060546875,96.1468505859375
1758878303.0474865,-0.69287109375,-0.0341796875,0.61474609375,-50.35400390625,1.52587890625,5.55419921875,-6.43798828125,47.3455810546875,96.2127685546875
1758878303.0569987,-0.69287109375,-0.0341796875,0.61474609375,-50.35400390625,1.52587890625,5.55419921875,-6.85546875,47.3345947265625,96.2786865234375
1758878303.0673404,-0.79248046875,-0.0654296875,0.63525390625,-46.0205078125,1.77001953125,5.18798828125,-7.22900390625,47.3291015625,96.3446044921875
1758878303.0773864,-0.79248046875,-0.0654296875,0.63525390625,-46.0205078125,1.77001953125,5.18798828125,-7.6080322265625,47.3291015625,96.405029296875
1758878303.0873277,-0.8720703125,-0.13232421875,0.78076171875,-28.076171875,0.6103515625,3.84521484375,-7.822265625,47.3236083984375,96.448974609375
1758878303.0971065,-0.8720703125,-0.13232421875,0.78076171875,-28.076171875,0.6103515625,3.84521484375,-8.0364990234375,47.318115234375,96.492919921875
1758878303.1080608,-0.884765625,-0.18359375,0.7548828125,-15.07568359375,-0.6103515625,2.5634765625,-8.1353759765625,47.3016357421875,96.52587890625
1758878303.1172764,-0.884765625,-0.18359375,0.7548828125,-15.07568359375,-0.6103515625,2.5634765625,-8.2452392578125,47.2906494140625,96.5533447265625
1758878303.1274383,-0.95751953125,-0.19482421875,0.70947265625,19.47021484375,-3.11279296875,0.244140625,-8.0364990234375,47.252197265625,96.558837890625
1758878303.137192,-0.95751953125,-0.19482421875,0.70947265625,19.47021484375,-3.11279296875,0.244140625,-7.833251953125,47.21923828125,96.5643310546875
1758878303.1478863,-0.95751953125,-0.19482421875,0.70947265625,30.82275390625,-4.0283203125,-1.3427734375,-7.5311279296875,47.1807861328125,96.5478515625
1758878303.1571226,-0.90478515625,-0.1103515625,0.6494140625,30.82275390625,-4.0283203125,-1.3427734375,-7.239990234375,47.1478271484375,96.5313720703125
1758878303.1674652,-0.8203125,-0.02294921875,0.48486328125,27.28271484375,-4.21142578125,-2.01416015625,-6.9873046875,47.1148681640625,96.5093994140625
1758878303.1779203,-0.8203125,-0.02294921875,0.48486328125,27.28271484375,-4.21142578125,-2.01416015625,-6.7291259765625,47.08740234375,96.4874267578125
1758878303.1874654,-0.80615234375,-0.056640625,0.51025390625,22.15576171875,-2.25830078125,-1.77001953125,-6.5313720703125,47.08740234375,96.4654541015625
1758878303.1971495,-0.80615234375,-0.056640625,0.51025390625,22.15576171875,-2.25830078125,-1.77001953125,-6.328125,47.08740234375,96.448974609375
1758878303.2082884,-0.78466796875,-0.07568359375,0.52099609375,2.38037109375,-0.9765625,-1.28173828125,-6.3226318359375,47.1038818359375,96.4324951171875
1758878303.2174168,-0.78466796875,-0.07568359375,0.52099609375,2.38037109375,-0.9765625,-1.28173828125,-6.317138671875,47.1258544921875,96.416015625
1758878303.2275321,-0.7919921875,-0.0869140625,0.59228515625,-6.04248046875,-0.18310546875,-0.79345703125,-6.39404296875,47.1533203125,96.4105224609375
1758878303.2379315,-0.7919921875,-0.0869140625,0.59228515625,-6.04248046875,-0.18310546875,-0.79345703125,-6.470947265625,47.1807861328125,96.3995361328125
1758878303.2475915,-0.7900390625,-0.1015625,0.63623046875,4.39453125,0.06103515625,-0.30517578125,-6.43798828125,47.2137451171875,96.3995361328125
1758878303.2572956,-0.76611328125,-0.126953125,0.6611328125,8.9111328125,-0.18310546875,-0.18310546875,-6.3775634765625,47.2412109375,96.3995361328125
1758878303.2678893,-0.76611328125,-0.126953125,0.6611328125,8.9111328125,-0.18310546875,-0.18310546875,-6.30615234375,47.2686767578125,96.3995361328125
1758878303.2776766,-0.75,-0.09130859375,0.642578125,10.009765625,-0.18310546875,-0.244140625,-6.2237548828125,47.2906494140625,96.3995361328125
1758878303.2876484,-0.75,-0.09130859375,0.642578125,10.009765625,-0.18310546875,-0.244140625,-6.1358642578125,47.3126220703125,96.3995361328125
1758878303.2976964,-0.748046875,-0.0693359375,0.63720703125,11.29150390625,0.0,0.1220703125,-6.0479736328125,47.3345947265625,96.3995361328125
1758878303.3077464,-0.748046875,-0.0693359375,0.63720703125,11.29150390625,0.0,0.1220703125,-5.943603515625,47.3565673828125,96.3995361328125
1758878303.3173711,-0.73779296875,-0.05615234375,0.65185546875,5.18798828125,-0.3662109375,0.8544921875,-5.86669921875,47.373046875,96.4105224609375
1758878303.3277075,-0.73779296875,-0.05615234375,0.65185546875,5.18798828125,-0.3662109375,0.8544921875,-5.8172607421875,47.3895263671875,96.4215087890625
1758878303.338051,-0.73388671875,-0.0556640625,0.65478515625,2.62451171875,-0.244140625,1.52587890625,-5.7733154296875,47.406005859375,96.4434814453125
1758878303.347685,-0.73388671875,-0.0556640625,0.65478515625,2.62451171875,-0.244140625,1.52587890625,-5.73486328125,47.4224853515625,96.4654541015625
1758878303.3574066,-0.72802734375,-0.080078125,0.65771484375,2.38037109375,-0.244140625,2.3193359375,-5.6964111328125,47.43896484375,96.492919921875
1758878303.3680336,-0.72802734375,-0.080078125,0.65771484375,2.38037109375,-0.244140625,2.3193359375,-5.657958984375,47.449951171875,96.52587890625
1758878303.3776472,-0.73095703125,-0.08740234375,0.67724609375,1.15966796875,0.0,2.685546875,-5.6195068359375,47.4609375,96.5643310546875
1758878303.3877509,-0.73095703125,-0.08740234375,0.67724609375,1.15966796875,0.0,2.685546875,-5.5865478515625,47.4774169921875,96.602783203125
1758878303.3975015,-0.7431640625,-0.078125,0.69921875,5.0048828125,0.54931640625,3.11279296875,-5.5316162109375,47.493896484375,96.646728515625
1758878303.408021,-0.7431640625,-0.078125,0.69921875,5.0048828125,0.54931640625,3.11279296875,-5.4547119140625,47.5048828125,96.690673828125
1758878303.417549,-0.74169921875,-0.0869140625,0.68798828125,8.60595703125,1.220703125,3.5400390625,-5.361328125,47.52685546875,96.7401123046875
1758878303.4277458,-0.74169921875,-0.0869140625,0.68798828125,8.60595703125,1.220703125,3.5400390625,-5.25146484375,47.548828125,96.78955078125
1758878303.43844,-0.736328125,-0.0693359375,0.6650390625,7.2021484375,2.0751953125,4.21142578125,-5.1416015625,47.57080078125,96.844482421875
1758878303.4479084,-0.736328125,-0.0693359375,0.6650390625,7.2021484375,2.0751953125,4.21142578125,-5.03173828125,47.5982666015625,96.9049072265625
1758878303.4576447,-0.7333984375,-0.05712890625,0.6474609375,7.568359375,3.11279296875,4.69970703125,-4.921875,47.6312255859375,96.96533203125
1758878303.467913,-0.7333984375,-0.05712890625,0.6474609375,7.568359375,3.11279296875,4.69970703125,-4.81201171875,47.669677734375,97.03125
1758878303.478315,-0.7451171875,-0.07177734375,0.65771484375,9.58251953125,4.08935546875,4.638671875,-4.6856689453125,47.713623046875,97.09716796875
1758878303.4878688,-0.7451171875,-0.07177734375,0.65771484375,9.58251953125,4.08935546875,4.638671875,-4.5538330078125,47.7630615234375,97.1575927734375
1758878303.4977112,-0.74658203125,-0.078125,0.677734375,11.90185546875,4.57763671875,4.45556640625,-4.4110107421875,47.8125,97.2235107421875
1758878303.5082366,-0.74658203125,-0.078125,0.677734375,11.90185546875,4.57763671875,4.45556640625,-4.2626953125,47.8619384765625,97.2784423828125
1758878303.5180893,-0.7490234375,-0.076171875,0.66650390625,16.29638671875,4.7607421875,3.47900390625,-4.0924072265625,47.911376953125,97.3333740234375
1758878303.5278661,-0.7490234375,-0.076171875,0.66650390625,16.29638671875,4.7607421875,3.47900390625,-3.9111328125,47.9608154296875,97.3773193359375
1758878303.5377758,-0.7763671875,-0.04248046875,0.65625,19.8974609375,4.5166015625,2.9296875,-3.71337890625,48.01025390625,97.4212646484375
1758878303.5483935,-0.7763671875,-0.04248046875,0.65625,19.8974609375,4.5166015625,2.9296875,-3.4991455078125,48.0596923828125,97.459716796875
1758878303.5577908,-0.79833984375,-0.00439453125,0.66455078125,23.13232421875,4.33349609375,2.38037109375,-3.27392578125,48.109130859375,97.4981689453125
1758878303.5678816,-0.79833984375,-0.00439453125,0.66455078125,23.13232421875,4.33349609375,2.38037109375,-3.0322265625,48.1585693359375,97.5311279296875
1758878303.579066,-0.8203125,0.00439453125,0.6552734375,21.05712890625,3.96728515625,2.01416015625,-2.801513671875,48.2025146484375,97.5640869140625
1758878303.5893831,-0.8203125,0.00439453125,0.6552734375,21.05712890625,3.96728515625,2.01416015625,-2.581787109375,48.251953125,97.591552734375
1758878303.5977116,-0.8212890625,0.00048828125,0.62890625,15.07568359375,3.72314453125,1.8310546875,-2.3895263671875,48.2958984375,97.62451171875
1758878303.6078367,-0.8212890625,0.00048828125,0.62890625,15.07568359375,3.72314453125,1.8310546875,-2.2247314453125,48.33984375,97.6519775390625
1758878303.6185353,-0.8212890625,0.00048828125,0.62890625,13.61083984375,3.7841796875,1.40380859375,-2.0709228515625,48.3892822265625,97.6739501953125
1758878303.6278589,-0.810546875,-0.01123046875,0.59130859375,13.61083984375,3.7841796875,1.40380859375,-1.9281005859375,48.438720703125,97.6959228515625
1758878303.6376922,-0.79345703125,-0.01513671875,0.57958984375,10.6201171875,4.2724609375,0.9765625,-1.8017578125,48.49365234375,97.7178955078125
1758878303.648414,-0.79345703125,-0.01513671875,0.57958984375,10.6201171875,4.2724609375,0.9765625,-1.69189453125,48.5540771484375,97.734375
1758878303.6578262,-0.79345703125,-0.01513671875,0.57958984375,7.080078125,5.126953125,0.732421875,-1.5985107421875,48.614501953125,97.745361328125
1758878303.6679351,-0.78759765625,-0.0048828125,0.58935546875,7.080078125,5.126953125,0.732421875,-1.527099609375,48.6859130859375,97.7618408203125
1758878303.6780782,-0.78125,-0.005859375,0.60546875,5.92041015625,5.7373046875,0.79345703125,-1.461181640625,48.75732421875,97.7783203125
1758878303.6878886,-0.78125,-0.005859375,0.60546875,5.92041015625,5.7373046875,0.79345703125,-1.395263671875,48.8287353515625,97.7947998046875
1758878303.697886,-0.7685546875,-0.0185546875,0.6279296875,4.69970703125,6.16455078125,0.9765625,-1.34033203125,48.9056396484375,97.811279296875
1758878303.7084782,-0.7685546875,-0.0185546875,0.6279296875,4.69970703125,6.16455078125,0.9765625,-1.285400390625,48.9825439453125,97.8277587890625
1758878303.7180388,-0.75537109375,-0.0205078125,0.646484375,4.5166015625,6.2255859375,1.15966796875,-1.2359619140625,49.0594482421875,97.84423828125
1758878303.727867,-0.75537109375,-0.0205078125,0.646484375,4.5166015625,6.2255859375,1.15966796875,-1.1810302734375,49.1363525390625,97.8662109375
1758878303.738027,-0.75048828125,-0.01220703125,0.66455078125,4.82177734375,6.16455078125,1.15966796875,-1.1260986328125,49.207763671875,97.8826904296875
1758878303.748672,-0.75048828125,-0.01220703125,0.66455078125,4.82177734375,6.16455078125,1.15966796875,-1.0711669921875,49.2791748046875,97.9046630859375
1758878303.7579691,-0.74267578125,0.00244140625,0.67822265625,4.33349609375,5.9814453125,1.0986328125,-1.0162353515625,49.3505859375,97.921142578125
1758878303.7679381,-0.74267578125,0.00244140625,0.67822265625,4.33349609375,5.9814453125,1.0986328125,-0.966796875,49.41650390625,97.9376220703125
1758878303.7785435,-0.74169921875,-0.00048828125,0.69140625,3.84521484375,5.7373046875,1.220703125,-0.911865234375,49.4769287109375,97.9541015625
1758878303.7879362,-0.74169921875,-0.00048828125,0.69140625,3.84521484375,5.7373046875,1.220703125,-0.8624267578125,49.537353515625,97.97607421875
1758878303.798006,-0.73681640625,-0.009765625,0.68701171875,3.60107421875,5.31005859375,1.3427734375,-0.81298828125,49.59228515625,97.9925537109375
1758878303.808703,-0.73681640625,-0.009765625,0.68701171875,3.60107421875,5.31005859375,1.3427734375,-0.7635498046875,49.6417236328125,98.0145263671875
1758878303.817981,-0.73193359375,-0.0166015625,0.68603515625,4.57763671875,5.0048828125,1.708984375,-0.7086181640625,49.691162109375,98.0364990234375
1758878303.828244,-0.73193359375,-0.0166015625,0.68603515625,4.57763671875,5.0048828125,1.708984375,-0.648193359375,49.735107421875,98.06396484375
1758878303.839015,-0.73046875,-0.01708984375,0.70166015625,5.18798828125,4.57763671875,2.13623046875,-0.5767822265625,49.7735595703125,98.0914306640625
1758878303.848113,-0.73046875,-0.01708984375,0.70166015625,5.18798828125,4.57763671875,2.13623046875,-0.50537109375,49.81201171875,98.1243896484375
1758878303.8581073,-0.732421875,-0.0078125,0.69921875,7.8125,4.21142578125,2.44140625,-0.41748046875,49.844970703125,98.1573486328125
1758878303.8688223,-0.732421875,-0.0078125,0.69921875,7.8125,4.21142578125,2.44140625,-0.3131103515625,49.8779296875,98.19580078125
1758878303.8780918,-0.73095703125,-0.005859375,0.69873046875,10.986328125,3.5400390625,2.685546875,-0.19775390625,49.89990234375,98.2342529296875
1758878303.8882155,-0.73095703125,-0.005859375,0.69873046875,10.986328125,3.5400390625,2.685546875,-0.0604248046875,49.921875,98.272705078125
1758878303.898372,-0.7275390625,0.0,0.69775390625,12.5732421875,3.0517578125,2.86865234375,0.076904296875,49.94384765625,98.316650390625
1758878303.908466,-0.7275390625,0.0,0.69775390625,12.5732421875,3.0517578125,2.86865234375,0.230712890625,49.954833984375,98.360595703125
1758878303.9181619,-0.7158203125,0.0009765625,0.6982421875,12.8173828125,2.685546875,3.11279296875,0.3900146484375,49.9713134765625,98.4100341796875
1758878303.9292285,-0.7158203125,0.0009765625,0.6982421875,12.8173828125,2.685546875,3.11279296875,0.54931640625,49.976806640625,98.45947265625
1758878303.9382992,-0.71337890625,0.00732421875,0.7099609375,12.51220703125,2.3193359375,3.5400390625,0.7086181640625,49.9822998046875,98.5089111328125
1758878303.948312,-0.71337890625,0.00732421875,0.7099609375,12.51220703125,2.3193359375,3.5400390625,0.867919921875,49.98779296875,98.5638427734375
1758878303.9581745,-0.71533203125,0.0166015625,0.7119140625,12.939453125,2.197265625,4.0283203125,1.03271484375,49.98779296875,98.624267578125
1758878303.9691238,-0.71533203125,0.0166015625,0.7119140625,12.939453125,2.197265625,4.0283203125,1.197509765625,49.98779296875,98.6846923828125
1758878303.9783573,-0.70947265625,0.01416015625,0.65771484375,12.51220703125,1.8310546875,4.21142578125,1.3677978515625,49.98779296875,98.7506103515625
1758878303.9882526,-0.70947265625,0.01416015625,0.65771484375,12.51220703125,1.8310546875,4.21142578125,1.5380859375,49.9822998046875,98.8165283203125
1758878303.9983625,-0.7099609375,0.03125,0.716796875,9.1552734375,1.28173828125,4.45556640625,1.6864013671875,49.976806640625,98.8824462890625
1758878304.008952,-0.7099609375,0.03125,0.716796875,9.1552734375,1.28173828125,4.45556640625,1.82373046875,49.9658203125,98.953857421875
1758878304.0183098,-0.712890625,0.0400390625,0.7001953125,6.16455078125,0.79345703125,4.45556640625,1.944580078125,49.9493408203125,99.019775390625
1758878304.0292928,-0.712890625,0.0400390625,0.7001953125,6.16455078125,0.79345703125,4.45556640625,2.054443359375,49.932861328125,99.0911865234375
1758878304.0384426,-0.73193359375,0.03955078125,0.69970703125,-0.244140625,0.1220703125,4.57763671875,2.13134765625,49.9163818359375,99.1571044921875
1758878304.048284,-0.73193359375,0.03955078125,0.69970703125,-0.244140625,0.1220703125,4.57763671875,2.1807861328125,49.888916015625,99.228515625
1758878304.058399,-0.76953125,0.04248046875,0.6806640625,-9.58251953125,-0.54931640625,4.69970703125,2.1807861328125,49.866943359375,99.29443359375
1758878304.0687447,-0.76953125,0.04248046875,0.6806640625,-9.58251953125,-0.54931640625,4.69970703125,2.1368408203125,49.8394775390625,99.3658447265625
1758878304.0784936,-0.75927734375,0.0361328125,0.67138671875,-9.82666015625,-1.5869140625,4.7607421875,2.0928955078125,49.8065185546875,99.437255859375
1758878304.0883749,-0.75927734375,0.0361328125,0.67138671875,-9.82666015625,-1.5869140625,4.7607421875,2.0489501953125,49.76806640625,99.5086669921875
1758878304.099107,-0.7509765625,0.0166015625,0.65380859375,-8.36181640625,-2.13623046875,4.638671875,2.0159912109375,49.735107421875,99.580078125
1758878304.1086118,-0.7509765625,0.0166015625,0.65380859375,-8.36181640625,-2.13623046875,4.638671875,1.988525390625,49.6966552734375,99.6514892578125
1758878304.1184137,-0.77734375,0.03076171875,0.5703125,-8.48388671875,-1.3427734375,4.7607421875,1.95556640625,49.6636962890625,99.7283935546875
1758878304.1285684,-0.77734375,0.03076171875,0.5703125,-8.48388671875,-1.3427734375,4.7607421875,1.9281005859375,49.63623046875,99.7998046875
1758878304.1397216,-0.779296875,0.03857421875,0.57861328125,-12.20703125,-1.220703125,4.45556640625,1.878662109375,49.6142578125,99.8712158203125
1758878304.1484942,-0.779296875,0.03857421875,0.57861328125,-12.20703125,-1.220703125,4.45556640625,1.812744140625,49.5977783203125,99.942626953125
1758878304.1585166,-0.79833984375,0.04345703125,0.5888671875,-20.32470703125,-0.1220703125,4.21142578125,1.7083740234375,49.59228515625,100.0140380859375
1758878304.1689968,-0.79833984375,0.04345703125,0.5888671875,-20.32470703125,-0.1220703125,4.21142578125,1.56005859375,49.5867919921875,100.08544921875
1758878304.1793752,-0.79638671875,0.05224609375,0.56787109375,-19.6533203125,0.06103515625,3.662109375,1.4117431640625,49.59228515625,100.1513671875
1758878304.188975,-0.79638671875,0.05224609375,0.56787109375,-19.6533203125,0.06103515625,3.662109375,1.2689208984375,49.5977783203125,100.2117919921875
1758878304.1985574,-0.80859375,0.04345703125,0.5810546875,-19.95849609375,0.3662109375,3.23486328125,1.1260986328125,49.6087646484375,100.272216796875
1758878304.2091665,-0.80859375,0.04345703125,0.5810546875,-19.95849609375,0.3662109375,3.23486328125,0.977783203125,49.6197509765625,100.3326416015625
1758878304.21851,-0.79931640625,0.03076171875,0.58447265625,-27.89306640625,0.0,2.5634765625,0.7855224609375,49.6307373046875,100.3875732421875
1758878304.2287185,-0.79931640625,0.03076171875,0.58447265625,-27.89306640625,0.0,2.5634765625,0.54931640625,49.647216796875,100.4315185546875
1758878304.2396533,-0.77587890625,0.0400390625,0.615234375,-36.9873046875,-0.42724609375,1.8310546875,0.2691650390625,49.658203125,100.4754638671875
1758878304.248754,-0.77587890625,0.0400390625,0.615234375,-36.9873046875,-0.42724609375,1.8310546875,-0.054931640625,49.669189453125,100.5084228515625
1758878304.258604,-0.75634765625,0.05126953125,0.62451171875,-41.68701171875,-0.54931640625,1.708984375,-0.428466796875,49.6746826171875,100.5413818359375
1758878304.26866,-0.75634765625,0.05126953125,0.62451171875,-41.68701171875,-0.54931640625,1.708984375,-0.7965087890625,49.68017578125,100.5743408203125
1758878304.2793472,-0.75537109375,0.02978515625,0.63525390625,-42.96875,-0.18310546875,1.77001953125,-1.1810302734375,49.691162109375,100.6072998046875
1758878304.2886076,-0.75537109375,0.02978515625,0.63525390625,-42.96875,-0.18310546875,1.77001953125,-1.56005859375,49.6966552734375,100.6402587890625
1758878304.2989533,-0.76513671875,-0.01904296875,0.64111328125,-42.78564453125,0.3662109375,2.0751953125,-1.93359375,49.713134765625,100.6787109375
1758878304.3088572,-0.76513671875,-0.01904296875,0.64111328125,-42.78564453125,0.3662109375,2.0751953125,-2.3126220703125,49.72412109375,100.711669921875
1758878304.319527,-0.76025390625,-0.05517578125,0.65673828125,-40.10009765625,0.8544921875,2.62451171875,-2.6531982421875,49.7406005859375,100.755615234375
1758878304.3288147,-0.76025390625,-0.05517578125,0.65673828125,-40.10009765625,0.8544921875,2.62451171875,-2.999267578125,49.757080078125,100.799560546875
1758878304.3390837,-0.763671875,-0.07763671875,0.6513671875,-33.69140625,1.0986328125,2.8076171875,-3.284912109375,49.7735595703125,100.8489990234375
1758878304.34923,-0.763671875,-0.07763671875,0.6513671875,-33.69140625,1.0986328125,2.8076171875,-3.570556640625,49.7900390625,100.8984375
1758878304.35918,-0.77490234375,-0.078125,0.6279296875,-24.7802734375,1.52587890625,2.99072265625,-3.768310546875,49.81201171875,100.9478759765625
1758878304.3686974,-0.77490234375,-0.078125,0.6279296875,-24.7802734375,1.52587890625,2.99072265625,-3.966064453125,49.833984375,100.997314453125
1758878304.3793006,-0.79248046875,-0.0703125,0.6259765625,-18.798828125,2.38037109375,3.11279296875,-4.10888671875,49.866943359375,101.0467529296875
1758878304.389148,-0.79248046875,-0.0703125,0.6259765625,-18.798828125,2.38037109375,3.11279296875,-4.251708984375,49.89990234375,101.09619140625
1758878304.399183,-0.794921875,-0.0615234375,0.61083984375,-15.44189453125,2.74658203125,2.99072265625,-4.361572265625,49.932861328125,101.1456298828125
1758878304.408839,-0.794921875,-0.0615234375,0.61083984375,-15.44189453125,2.74658203125,2.99072265625,-4.4769287109375,49.9713134765625,101.1895751953125
1758878304.4196408,-0.794921875,-0.0556640625,0.60009765625,-13.3056640625,2.5634765625,2.3193359375,-4.5758056640625,50.0042724609375,101.22802734375
1758878304.4293103,-0.794921875,-0.0556640625,0.60009765625,-13.3056640625,2.5634765625,2.3193359375,-4.6746826171875,50.0372314453125,101.2664794921875
1758878304.4391437,-0.79345703125,-0.0439453125,0.58837890625,-9.58251953125,2.44140625,1.89208984375,-4.74609375,50.07568359375,101.2994384765625
1758878304.4495645,-0.79345703125,-0.0439453125,0.58837890625,-9.58251953125,2.44140625,1.89208984375,-4.81201171875,50.108642578125,101.3323974609375
1758878304.4591286,-0.78955078125,-0.04296875,0.6025390625,-6.16455078125,2.13623046875,1.220703125,-4.85595703125,50.1416015625,101.3543701171875
1758878304.4688678,-0.78955078125,-0.04296875,0.6025390625,-6.16455078125,2.13623046875,1.220703125,-4.89990234375,50.174560546875,101.3763427734375
1758878304.481879,-0.78515625,-0.04931640625,0.6162109375,-7.26318359375,2.0751953125,0.91552734375,-4.954833984375,50.20751953125,101.3983154296875
1758878304.490526,-0.78515625,-0.04931640625,0.6162109375,-7.26318359375,2.0751953125,0.91552734375,-5.0152587890625,50.240478515625,101.414794921875
1758878304.499195,-0.77880859375,-0.04931640625,0.60888671875,-6.7138671875,1.8310546875,0.67138671875,-5.0701904296875,50.2679443359375,101.4312744140625
1758878304.5089438,-0.77880859375,-0.04931640625,0.60888671875,-6.7138671875,1.8310546875,0.67138671875,-5.1251220703125,50.29541015625,101.44775390625
1758878304.519567,-0.77392578125,-0.06201171875,0.62353515625,-5.43212890625,1.46484375,0.6103515625,-5.16357421875,50.3228759765625,101.458740234375
1758878304.528964,-0.77392578125,-0.06201171875,0.62353515625,-5.43212890625,1.46484375,0.6103515625,-5.20751953125,50.3448486328125,101.4752197265625
1758878304.5393057,-0.77685546875,-0.06494140625,0.6298828125,-4.94384765625,1.220703125,0.6103515625,-5.2459716796875,50.3668212890625,101.49169921875
1758878304.549457,-0.77685546875,-0.06494140625,0.6298828125,-4.94384765625,1.220703125,0.6103515625,-5.2899169921875,50.38330078125,101.5081787109375
1758878304.5592687,-0.7763671875,-0.06201171875,0.638671875,-4.150390625,1.220703125,0.79345703125,-5.3173828125,50.4052734375,101.524658203125
1758878304.5689614,-0.7763671875,-0.06201171875,0.638671875,-4.150390625,1.220703125,0.79345703125,-5.350341796875,50.4217529296875,101.5411376953125
1758878304.5798476,-0.7724609375,-0.06787109375,0.6318359375,-4.08935546875,1.52587890625,1.28173828125,-5.372314453125,50.4437255859375,101.5631103515625
1758878304.589338,-0.7724609375,-0.06787109375,0.6318359375,-4.08935546875,1.52587890625,1.28173828125,-5.3997802734375,50.4656982421875,101.590576171875
1758878304.5993116,-0.7626953125,-0.07763671875,0.6376953125,-4.69970703125,1.40380859375,1.953125,-5.4217529296875,50.482177734375,101.62353515625
1758878304.6091177,-0.7626953125,-0.07763671875,0.6376953125,-4.69970703125,1.40380859375,1.953125,-5.4437255859375,50.504150390625,101.656494140625
1758878304.6197789,-0.7626953125,-0.07763671875,0.6376953125,-5.79833984375,1.3427734375,2.685546875,-5.47119140625,50.5206298828125,101.700439453125
1758878304.6290827,-0.76123046875,-0.0751953125,0.6484375,-5.79833984375,1.3427734375,2.685546875,-5.4986572265625,50.537109375,101.744384765625
1758878304.639407,-0.74609375,-0.0703125,0.64990234375,-4.0283203125,0.8544921875,3.23486328125,-5.504150390625,50.548095703125,101.79931640625
1758878304.6495526,-0.74609375,-0.0703125,0.64990234375,-4.0283203125,0.8544921875,3.23486328125,-5.5096435546875,50.55908203125,101.854248046875
1758878304.6594243,-0.7421875,-0.06640625,0.66455078125,-5.126953125,0.48828125,3.84521484375,-5.51513671875,50.5645751953125,101.920166015625
1758878304.6691692,-0.7421875,-0.06640625,0.66455078125,-5.126953125,0.48828125,3.84521484375,-5.5206298828125,50.570068359375,101.9805908203125
1758878304.6796668,-0.7275390625,-0.0556640625,0.6630859375,-6.8359375,0.0,4.39453125,-5.537109375,50.570068359375,102.052001953125
1758878304.6898606,-0.7275390625,-0.0556640625,0.6630859375,-6.8359375,0.0,4.39453125,-5.5535888671875,50.570068359375,102.1234130859375
1758878304.6994562,-0.7265625,-0.05517578125,0.6689453125,-8.544921875,-0.48828125,4.94384765625,-5.5755615234375,50.55908203125,102.205810546875
1758878304.7094214,-0.7265625,-0.05517578125,0.6689453125,-8.544921875,-0.48828125,4.94384765625,-5.60302734375,50.5535888671875,102.2882080078125
1758878304.7200954,-0.71337890625,-0.0595703125,0.67138671875,-11.5966796875,-1.15966796875,5.67626953125,-5.64697265625,50.537109375,102.381591796875
1758878304.7293422,-0.71337890625,-0.0595703125,0.67138671875,-11.5966796875,-1.15966796875,5.67626953125,-5.69091796875,50.5206298828125,102.469482421875
1758878304.7395625,-0.70654296875,-0.05810546875,0.68310546875,-14.58740234375,-1.64794921875,6.34765625,-5.7513427734375,50.4931640625,102.5738525390625
1758878304.7499244,-0.70654296875,-0.05810546875,0.68310546875,-14.58740234375,-1.64794921875,6.34765625,-5.8172607421875,50.47119140625,102.67822265625
1758878304.7598305,-0.69970703125,-0.06787109375,0.68505859375,-14.6484375,-1.89208984375,7.01904296875,-5.8721923828125,50.4437255859375,102.7880859375
1758878304.7693694,-0.69970703125,-0.06787109375,0.68505859375,-14.6484375,-1.89208984375,7.01904296875,-5.9271240234375,50.416259765625,102.9034423828125
1758878304.7796817,-0.7197265625,-0.0869140625,0.67041015625,-9.58251953125,-1.77001953125,7.32421875,-5.9326171875,50.3887939453125,103.018798828125
1758878304.789785,-0.7197265625,-0.0869140625,0.67041015625,-9.58251953125,-1.77001953125,7.32421875,-5.9381103515625,50.361328125,103.1341552734375
1758878304.7995782,-0.73681640625,-0.1064453125,0.67041015625,-3.90625,-2.0751953125,7.2021484375,-5.888671875,50.3338623046875,103.24951171875
1758878304.8095036,-0.73681640625,-0.1064453125,0.67041015625,-3.90625,-2.0751953125,7.2021484375,-5.8392333984375,50.3009033203125,103.3648681640625
1758878304.820422,-0.7607421875,-0.0859375,0.65478515625,0.1220703125,-2.0751953125,7.14111328125,-5.7513427734375,50.2734375,103.480224609375
1758878304.829823,-0.7607421875,-0.0859375,0.65478515625,0.1220703125,-2.0751953125,7.14111328125,-5.6689453125,50.240478515625,103.5955810546875
1758878304.8397126,-0.7666015625,-0.056640625,0.640625,4.638671875,-1.5869140625,6.89697265625,-5.5426025390625,50.218505859375,103.7054443359375
1758878304.8503609,-0.7666015625,-0.056640625,0.640625,4.638671875,-1.5869140625,6.89697265625,-5.416259765625,50.196533203125,103.8153076171875
1758878304.8597,-0.75341796875,-0.04345703125,0.61767578125,4.638671875,-1.03759765625,6.65283203125,-5.29541015625,50.185546875,103.9251708984375
1758878304.869411,-0.75341796875,-0.04345703125,0.61767578125,4.638671875,-1.03759765625,6.65283203125,-5.174560546875,50.1690673828125,104.029541015625
1758878304.8804424,-0.7451171875,-0.03515625,0.619140625,-0.18310546875,-0.67138671875,6.04248046875,-5.1031494140625,50.1580810546875,104.12841796875
1758878304.8895931,-0.7451171875,-0.03515625,0.619140625,-0.18310546875,-0.67138671875,6.04248046875,-5.0372314453125,50.152587890625,104.227294921875
1758878304.8997154,-0.748046875,-0.0419921875,0.63818359375,0.06103515625,-0.79345703125,5.55419921875,-4.9713134765625,50.1416015625,104.3206787109375
1758878304.90951,-0.748046875,-0.0419921875,0.63818359375,0.06103515625,-0.79345703125,5.55419921875,-4.9053955078125,50.130615234375,104.4140625
1758878304.920342,-0.73876953125,-0.07080078125,0.646484375,2.5634765625,-1.03759765625,4.69970703125,-4.822998046875,50.1141357421875,104.490966796875
1758878304.929488,-0.73876953125,-0.07080078125,0.646484375,2.5634765625,-1.03759765625,4.69970703125,-4.74609375,50.1031494140625,104.5733642578125
1758878304.939906,-0.7294921875,-0.0673828125,0.64111328125,4.638671875,-1.40380859375,3.96728515625,-4.6527099609375,50.086669921875,104.6392822265625
1758878304.9501817,-0.7294921875,-0.0673828125,0.64111328125,4.638671875,-1.40380859375,3.96728515625,-4.5648193359375,50.0701904296875,104.710693359375
1758878304.9599922,-0.7373046875,-0.0576171875,0.689453125,8.48388671875,-1.77001953125,3.662109375,-4.4384765625,50.042724609375,104.7711181640625
1758878304.969624,-0.7373046875,-0.0576171875,0.689453125,8.48388671875,-1.77001953125,3.662109375,-4.317626953125,50.020751953125,104.8370361328125
1758878304.98002,-0.73876953125,-0.05126953125,0.69384765625,11.04736328125,-2.13623046875,3.35693359375,-4.1693115234375,49.9932861328125,104.8974609375
1758878304.9901428,-0.73876953125,-0.05126953125,0.69384765625,11.04736328125,-2.13623046875,3.35693359375,-4.02099609375,49.9603271484375,104.9578857421875
1758878304.9998658,-0.76513671875,-0.0458984375,0.69287109375,10.8642578125,-2.62451171875,3.2958984375,-3.878173828125,49.9273681640625,105.018310546875
1758878305.0096307,-0.76513671875,-0.0458984375,0.69287109375,10.8642578125,-2.62451171875,3.2958984375,-3.7353515625,49.8944091796875,105.0787353515625
1758878305.020086,-0.7451171875,-0.0439453125,0.63427734375,5.615234375,-2.197265625,3.35693359375,-3.6474609375,49.8614501953125,105.13916015625
1758878305.0296805,-0.7451171875,-0.0439453125,0.63427734375,5.615234375,-2.197265625,3.35693359375,-3.5540771484375,49.833984375,105.1995849609375
1758878305.0400217,-0.76611328125,-0.0390625,0.591796875,8.30078125,-1.52587890625,3.11279296875,-3.438720703125,49.81201171875,105.2545166015625
1758878305.0501397,-0.76611328125,-0.0390625,0.591796875,8.30078125,-1.52587890625,3.11279296875,-3.328857421875,49.7955322265625,105.31494140625
1758878305.0603056,-0.7861328125,-0.02685546875,0.68115234375,4.5166015625,-1.52587890625,2.86865234375,-3.251953125,49.779052734375,105.3643798828125
1758878305.0696914,-0.7861328125,-0.02685546875,0.68115234375,4.5166015625,-1.52587890625,2.86865234375,-3.1805419921875,49.757080078125,105.4193115234375
1758878305.0805657,-0.75927734375,0.01171875,0.640625,-4.39453125,-1.40380859375,2.86865234375,-3.1915283203125,49.7406005859375,105.4742431640625
1758878305.0901878,-0.75927734375,0.01171875,0.640625,-4.39453125,-1.40380859375,2.86865234375,-3.2025146484375,49.72412109375,105.5291748046875
1758878305.1000013,-0.75732421875,-0.01708984375,0.60302734375,-4.82177734375,-1.15966796875,2.13623046875,-3.2244873046875,49.713134765625,105.5731201171875
1758878305.10977,-0.75732421875,-0.01708984375,0.60302734375,-4.82177734375,-1.15966796875,2.13623046875,-3.240966796875,49.7021484375,105.6170654296875
1758878305.1204212,-0.75,-0.03564453125,0.6328125,-4.21142578125,-0.9765625,1.708984375,-3.262939453125,49.6966552734375,105.655517578125
1758878305.1299684,-0.75,-0.03564453125,0.6328125,-4.21142578125,-0.9765625,1.708984375,-3.2794189453125,49.6856689453125,105.6939697265625
1758878305.1400957,-0.74267578125,-0.04296875,0.64892578125,1.0986328125,-0.79345703125,0.9765625,-3.2574462890625,49.6746826171875,105.7159423828125
1758878305.1501849,-0.74267578125,-0.04296875,0.64892578125,1.0986328125,-0.79345703125,0.9765625,-3.2354736328125,49.669189453125,105.743408203125
1758878305.1603372,-0.74072265625,-0.029296875,0.63720703125,2.0751953125,-0.9765625,0.244140625,-3.2080078125,49.658203125,105.7598876953125
1758878305.169771,-0.74072265625,-0.029296875,0.63720703125,2.0751953125,-0.9765625,0.244140625,-3.1805419921875,49.647216796875,105.7763671875
1758878305.1801705,-0.78759765625,0.013671875,0.705078125,-8.48388671875,-1.46484375,-0.3662109375,-3.2684326171875,49.6307373046875,105.787353515625
1758878305.1905084,-0.78759765625,0.013671875,0.705078125,-8.48388671875,-1.46484375,-0.3662109375,-3.350830078125,49.6142578125,105.7928466796875
1758878305.2000165,-0.9541015625,0.06787109375,0.77099609375,-31.1279296875,-2.86865234375,-0.8544921875,-3.658447265625,49.581298828125,105.7928466796875
1758878305.2098808,-0.9541015625,0.06787109375,0.77099609375,-31.1279296875,-2.86865234375,-0.8544921875,-3.955078125,49.5538330078125,105.7928466796875
1758878305.220631,-0.90771484375,0.01318359375,0.66064453125,-43.64013671875,-3.96728515625,-0.67138671875,-4.3780517578125,49.515380859375,105.79833984375
1758878305.22994,-0.90771484375,0.01318359375,0.66064453125,-43.64013671875,-3.96728515625,-0.67138671875,-4.7900390625,49.482421875,105.809326171875
1758878305.2404153,-0.85302734375,-0.08642578125,0.55224609375,-33.5693359375,-5.0048828125,-0.91552734375,-5.108642578125,49.4439697265625,105.8148193359375
1758878305.2502193,-0.83740234375,-0.138671875,0.5341796875,-15.869140625,-4.5166015625,-2.197265625,-5.3448486328125,49.405517578125,105.8148193359375
1758878305.260219,-0.83740234375,-0.138671875,0.5341796875,-15.869140625,-4.5166015625,-2.197265625,-5.5096435546875,49.3780517578125,105.809326171875
1758878305.269916,-0.8271484375,-0.13525390625,0.501953125,5.31005859375,-3.90625,-3.47900390625,-5.5810546875,49.3505859375,105.787353515625
1758878305.280752,-0.8271484375,-0.13525390625,0.501953125,5.31005859375,-3.90625,-3.47900390625,-5.55908203125,49.32861328125,105.765380859375
1758878305.289993,-0.81787109375,-0.08544921875,0.544921875,13.916015625,-3.2958984375,-4.5166015625,-5.504150390625,49.317626953125,105.7269287109375
1758878305.3001127,-0.81787109375,-0.08544921875,0.544921875,13.916015625,-3.2958984375,-4.5166015625,-5.416259765625,49.306640625,105.6884765625
1758878305.3105214,-0.794921875,-0.02587890625,0.5517578125,13.0615234375,-2.99072265625,-5.2490234375,-5.33935546875,49.295654296875,105.6390380859375
1758878305.3201296,-0.794921875,-0.02587890625,0.5517578125,13.0615234375,-2.99072265625,-5.2490234375,-5.2734375,49.2901611328125,105.589599609375
1758878305.330039,-0.78955078125,-0.01904296875,0.58154296875,8.36181640625,-2.44140625,-5.7373046875,-5.2239990234375,49.2901611328125,105.5291748046875
1758878305.3401957,-0.78955078125,-0.01904296875,0.58154296875,8.36181640625,-2.44140625,-5.7373046875,-5.20751953125,49.2901611328125,105.46875
1758878305.3506553,-0.77001953125,-0.04345703125,0.59423828125,2.8076171875,-2.0751953125,-6.2255859375,-5.218505859375,49.2901611328125,105.3973388671875
1758878305.360068,-0.77001953125,-0.04345703125,0.59423828125,2.8076171875,-2.0751953125,-6.2255859375,-5.2569580078125,49.2901611328125,105.325927734375
1758878305.3701153,-0.763671875,-0.0625,0.6240234375,-0.06103515625,-1.89208984375,-6.77490234375,-5.3118896484375,49.2901611328125,105.2490234375
1758878305.3832905,-0.763671875,-0.0625,0.6240234375,-0.06103515625,-1.89208984375,-6.77490234375,-5.3887939453125,49.2901611328125,105.172119140625
1758878305.3920896,-0.75048828125,-0.06982421875,0.650390625,0.18310546875,-1.64794921875,-7.26318359375,-5.4656982421875,49.2901611328125,105.084228515625
1758878305.4000847,-0.75048828125,-0.06982421875,0.650390625,0.18310546875,-1.64794921875,-7.26318359375,-5.5426025390625,49.28466796875,104.9908447265625
1758878305.4101954,-0.7578125,-0.0751953125,0.67431640625,2.44140625,-1.52587890625,-7.2021484375,-5.6085205078125,49.2791748046875,104.8974609375
1758878305.4207015,-0.7578125,-0.0751953125,0.67431640625,2.44140625,-1.52587890625,-7.2021484375,-5.6634521484375,49.273681640625,104.8095703125
1758878305.4301708,-0.7412109375,-0.072265625,0.6826171875,3.72314453125,-1.28173828125,-6.89697265625,-5.712890625,49.2681884765625,104.7161865234375
1758878305.4402606,-0.7412109375,-0.072265625,0.6826171875,3.72314453125,-1.28173828125,-6.89697265625,-5.7513427734375,49.2572021484375,104.622802734375
1758878305.450312,-0.7294921875,-0.07470703125,0.69189453125,2.38037109375,-1.03759765625,-6.28662109375,-5.7952880859375,49.2462158203125,104.534912109375
1758878305.4607668,-0.7294921875,-0.07470703125,0.69189453125,2.38037109375,-1.03759765625,-6.28662109375,-5.8392333984375,49.2352294921875,104.4525146484375
1758878305.47024,-0.71875,-0.07666015625,0.70654296875,-0.30517578125,-0.48828125,-5.79833984375,-5.8941650390625,49.2242431640625,104.3701171875
1758878305.4802046,-0.71875,-0.07666015625,0.70654296875,-0.30517578125,-0.48828125,-5.79833984375,-5.965576171875,49.21875,104.293212890625
1758878305.4906538,-0.69384765625,-0.07373046875,0.73876953125,-3.60107421875,-0.244140625,-4.94384765625,-6.04248046875,49.207763671875,104.21630859375
1758878305.5001974,-0.69384765625,-0.07373046875,0.73876953125,-3.60107421875,-0.244140625,-4.94384765625,-6.1358642578125,49.1912841796875,104.1448974609375
1758878305.510254,-0.67333984375,-0.06884765625,0.75732421875,-7.2021484375,-0.6103515625,-3.96728515625,-6.2347412109375,49.1748046875,104.08447265625
1758878305.5202506,-0.67333984375,-0.06884765625,0.75732421875,-7.2021484375,-0.6103515625,-3.96728515625,-6.35009765625,49.15283203125,104.029541015625
1758878305.5308385,-0.6533203125,-0.07763671875,0.7490234375,-10.92529296875,-0.91552734375,-2.9296875,-6.470947265625,49.1253662109375,103.9801025390625
1758878305.5403426,-0.6533203125,-0.07763671875,0.7490234375,-10.92529296875,-0.91552734375,-2.9296875,-6.6082763671875,49.097900390625,103.9361572265625
1758878305.5503542,-0.6318359375,-0.0791015625,0.7529296875,-13.916015625,-0.67138671875,-1.953125,-6.7510986328125,49.06494140625,103.897705078125
1758878305.5608683,-0.6318359375,-0.0791015625,0.7529296875,-13.916015625,-0.67138671875,-1.953125,-6.9049072265625,49.031982421875,103.86474609375
1758878305.5703695,-0.630859375,-0.08984375,0.759765625,-15.380859375,-0.30517578125,-0.79345703125,-7.0587158203125,48.9990234375,103.8427734375
1758878305.5803313,-0.630859375,-0.08984375,0.759765625,-15.380859375,-0.30517578125,-0.79345703125,-7.218017578125,48.9605712890625,103.8262939453125
1758878305.5915196,-0.6240234375,-0.0986328125,0.765625,-13.18359375,-0.1220703125,0.42724609375,-7.349853515625,48.9276123046875,103.8153076171875
1758878305.6005127,-0.6240234375,-0.0986328125,0.765625,-13.18359375,-0.1220703125,0.42724609375,-7.470703125,48.8946533203125,103.8153076171875
1758878305.6105857,-0.66455078125,-0.11865234375,0.74951171875,-6.4697265625,0.48828125,2.01416015625,-7.547607421875,48.8616943359375,103.8262939453125
1758878305.6204138,-0.66455078125,-0.11865234375,0.74951171875,-6.4697265625,0.48828125,2.01416015625,-7.5860595703125,48.8287353515625,103.8482666015625
1758878305.6315026,-0.72021484375,-0.15576171875,0.75146484375,8.056640625,0.244140625,2.8076171875,-7.547607421875,48.7957763671875,103.875732421875
1758878305.6405776,-0.72021484375,-0.15576171875,0.75146484375,8.056640625,0.244140625,2.8076171875,-7.4322509765625,48.768310546875,103.90869140625
1758878305.6516185,-0.75048828125,-0.17578125,0.69091796875,31.55517578125,-0.244140625,1.953125,-7.2125244140625,48.7353515625,103.9361572265625
1758878305.6605616,-0.75048828125,-0.17578125,0.69091796875,31.55517578125,-0.244140625,1.953125,-6.8829345703125,48.702392578125,103.9581298828125
1758878305.6705246,-0.728515625,-0.17041015625,0.65673828125,49.8046875,-0.9765625,0.18310546875,-6.48193359375,48.6639404296875,103.9691162109375
1758878305.6805089,-0.728515625,-0.17041015625,0.65673828125,49.8046875,-0.9765625,0.18310546875,-6.0040283203125,48.62548828125,103.9691162109375
1758878305.6918523,-0.68505859375,-0.1103515625,0.60400390625,51.1474609375,-0.54931640625,-1.40380859375,-5.5316162109375,48.592529296875,103.9581298828125
1758878305.7004907,-0.68505859375,-0.1103515625,0.60400390625,51.1474609375,-0.54931640625,-1.40380859375,-5.064697265625,48.5595703125,103.9361572265625
1758878305.710678,-0.67529296875,-0.0263671875,0.5703125,40.283203125,0.6103515625,-2.38037109375,-4.658203125,48.53759765625,103.9031982421875
1758878305.7210011,-0.67529296875,-0.0263671875,0.5703125,40.283203125,0.6103515625,-2.38037109375,-4.3121337890625,48.5211181640625,103.8702392578125
1758878305.7308156,-0.6923828125,0.0146484375,0.58154296875,24.169921875,1.953125,-2.62451171875,-4.0484619140625,48.515625,103.831787109375
1758878305.7406485,-0.6923828125,0.0146484375,0.58154296875,24.169921875,1.953125,-2.62451171875,-3.8616943359375,48.5211181640625,103.787841796875
1758878305.7506137,-0.76220703125,0.041015625,0.70458984375,-0.42724609375,2.50244140625,-2.3193359375,-3.790283203125,48.526611328125,103.7493896484375
1758878305.761159,-0.76220703125,0.041015625,0.70458984375,-0.42724609375,2.50244140625,-2.3193359375,-3.834228515625,48.5430908203125,103.7164306640625
1758878305.7706215,-0.79541015625,0.00244140625,0.67431640625,-15.19775390625,3.173828125,-2.25830078125,-3.9495849609375,48.5595703125,103.677978515625
1758878305.780709,-0.79541015625,0.00244140625,0.67431640625,-15.19775390625,3.173828125,-2.25830078125,-4.130859375,48.5760498046875,103.64501953125
1758878305.79181,-0.759765625,-0.09423828125,0.623046875,1.46484375,2.8076171875,-2.5634765625,-4.229736328125,48.5980224609375,103.6065673828125
1758878305.8006318,-0.759765625,-0.09423828125,0.623046875,1.46484375,2.8076171875,-2.5634765625,-4.2462158203125,48.6199951171875,103.568115234375
1758878305.810648,-0.802734375,-0.13427734375,0.66455078125,20.751953125,3.23486328125,-3.5400390625,-4.1802978515625,48.6419677734375,103.524169921875
1758878305.8206449,-0.802734375,-0.13427734375,0.66455078125,20.751953125,3.23486328125,-3.5400390625,-4.02099609375,48.66943359375,103.46923828125
1758878305.8319147,-0.802734375,-0.10205078125,0.662109375,30.029296875,2.86865234375,-4.33349609375,-3.8287353515625,48.6968994140625,103.4088134765625
1758878305.8407636,-0.802734375,-0.10205078125,0.662109375,30.029296875,2.86865234375,-4.33349609375,-3.5980224609375,48.7188720703125,103.348388671875
1758878305.850743,-0.81689453125,-0.0478515625,0.6513671875,30.57861328125,2.44140625,-5.0048828125,-3.3673095703125,48.7408447265625,103.2769775390625
1758878305.8613575,-0.81689453125,-0.0478515625,0.6513671875,30.57861328125,2.44140625,-5.0048828125,-3.14208984375,48.768310546875,103.20556640625
1758878305.8707743,-0.90576171875,0.029296875,0.673828125,9.33837890625,2.3193359375,-5.18798828125,-3.0157470703125,48.790283203125,103.1341552734375
1758878305.8807373,-0.90576171875,0.029296875,0.673828125,9.33837890625,2.3193359375,-5.18798828125,-2.999267578125,48.8177490234375,103.0572509765625
1758878305.8907638,-0.90576171875,0.029296875,0.673828125,-8.11767578125,2.0751953125,-5.06591796875,-3.0596923828125,48.84521484375,102.98583984375
1758878305.9012985,-0.904296875,0.0498046875,0.5791015625,-8.11767578125,2.0751953125,-5.06591796875,-3.2025146484375,48.8726806640625,102.9144287109375
1758878305.9107828,-0.859375,0.00146484375,0.52197265625,-9.58251953125,1.5869140625,-5.126953125,-3.350830078125,48.9056396484375,102.843017578125
1758878305.9207835,-0.859375,0.00146484375,0.52197265625,-9.58251953125,1.5869140625,-5.126953125,-3.4991455078125,48.9385986328125,102.777099609375
1758878305.9314992,-0.8291015625,-0.0537109375,0.4873046875,-2.99072265625,2.5634765625,-6.04248046875,-3.6199951171875,48.9825439453125,102.7001953125
1758878305.9409091,-0.8291015625,-0.0537109375,0.4873046875,-2.99072265625,2.5634765625,-6.04248046875,-3.7188720703125,49.031982421875,102.6123046875
1758878305.9508104,-0.8173828125,-0.07470703125,0.55810546875,0.54931640625,2.685546875,-6.8359375,-3.8067626953125,49.0814208984375,102.5244140625
1758878305.961154,-0.8173828125,-0.07470703125,0.55810546875,0.54931640625,2.685546875,-6.8359375,-3.878173828125,49.1363525390625,102.425537109375
1758878305.9718688,-0.80419921875,-0.06103515625,0.56396484375,-2.50244140625,3.23486328125,-7.080078125,-3.9715576171875,49.1912841796875,102.32666015625
1758878305.9814062,-0.80419921875,-0.06103515625,0.56396484375,-2.50244140625,3.23486328125,-7.080078125,-4.0814208984375,49.2462158203125,102.227783203125
1758878305.9912183,-0.7919921875,-0.0400390625,0.56005859375,4.45556640625,3.41796875,-7.62939453125,-4.163818359375,49.306640625,102.1234130859375
1758878306.001389,-0.7919921875,-0.0400390625,0.56005859375,4.45556640625,3.41796875,-7.62939453125,-4.2132568359375,49.3670654296875,102.0135498046875
1758878306.0112493,-0.80419921875,-0.0439453125,0.6025390625,8.544921875,3.7841796875,-8.1787109375,-4.24072265625,49.427490234375,101.9036865234375
1758878306.020963,-0.80419921875,-0.0439453125,0.6025390625,8.544921875,3.7841796875,-8.1787109375,-4.2572021484375,49.4879150390625,101.7828369140625
1758878306.0317762,-0.81103515625,-0.044921875,0.6142578125,7.14111328125,3.90625,-8.7890625,-4.2791748046875,49.5428466796875,101.656494140625
1758878306.0414565,-0.81103515625,-0.044921875,0.6142578125,7.14111328125,3.90625,-8.7890625,-4.317626953125,49.603271484375,101.5301513671875
1758878306.0512648,-0.81103515625,-0.0439453125,0.5810546875,8.97216796875,4.2724609375,-9.8876953125,-4.3505859375,49.6636962890625,101.3873291015625
1758878306.0619307,-0.81103515625,-0.0439453125,0.5810546875,8.97216796875,4.2724609375,-9.8876953125,-4.3780517578125,49.72412109375,101.239013671875
1758878306.0713022,-0.80419921875,-0.04345703125,0.5654296875,13.427734375,4.57763671875,-11.1083984375,-4.39453125,49.7845458984375,101.0797119140625
1758878306.0810292,-0.80419921875,-0.04345703125,0.5654296875,13.427734375,4.57763671875,-11.1083984375,-4.39453125,49.8504638671875,100.909423828125
1758878306.091985,-0.7998046875,-0.03662109375,0.552734375,14.2822265625,5.2490234375,-12.14599609375,-4.39453125,49.910888671875,100.7281494140625
1758878306.1013515,-0.7998046875,-0.03662109375,0.552734375,14.2822265625,5.2490234375,-12.14599609375,-4.4000244140625,49.9822998046875,100.5413818359375
1758878306.1113892,-0.7939453125,-0.0302734375,0.58154296875,10.43701171875,5.67626953125,-12.63427734375,-4.427490234375,50.0537109375,100.34912109375
1758878306.121241,-0.7939453125,-0.0302734375,0.58154296875,10.43701171875,5.67626953125,-12.63427734375,-4.4769287109375,50.1251220703125,100.1458740234375
1758878306.1319256,-0.787109375,-0.03466796875,0.595703125,4.8828125,6.40869140625,-12.75634765625,-4.559326171875,50.2020263671875,99.942626953125
1758878306.1412418,-0.787109375,-0.03466796875,0.595703125,4.8828125,6.40869140625,-12.75634765625,-4.6636962890625,50.2734375,99.7393798828125
1758878306.1513853,-0.78173828125,-0.04638671875,0.60888671875,0.0,6.9580078125,-12.63427734375,-4.7900390625,50.3558349609375,99.5361328125
1758878306.161752,-0.78173828125,-0.04638671875,0.60888671875,0.0,6.9580078125,-12.63427734375,-4.94384765625,50.4327392578125,99.327392578125
1758878306.1716812,-0.765625,-0.0595703125,0.6240234375,-3.11279296875,7.32421875,-12.14599609375,-5.1141357421875,50.5096435546875,99.1241455078125
1758878306.181298,-0.765625,-0.0595703125,0.6240234375,-3.11279296875,7.32421875,-12.14599609375,-5.2899169921875,50.5865478515625,98.9208984375
1758878306.1915677,-0.76611328125,-0.07763671875,0.650390625,-3.7841796875,7.26318359375,-11.3525390625,-5.47119140625,50.6634521484375,98.72314453125
1758878306.2020907,-0.76611328125,-0.07763671875,0.650390625,-3.7841796875,7.26318359375,-11.3525390625,-5.64697265625,50.73486328125,98.5308837890625
1758878306.2115033,-0.7529296875,-0.09326171875,0.6611328125,-3.2958984375,6.7138671875,-10.25390625,-5.8172607421875,50.8062744140625,98.3441162109375
1758878306.2211978,-0.7529296875,-0.09326171875,0.6611328125,-3.2958984375,6.7138671875,-10.25390625,-5.9820556640625,50.86669921875,98.162841796875
1758878306.23187,-0.74755859375,-0.1005859375,0.66943359375,-2.38037109375,5.859375,-9.1552734375,-6.13037109375,50.921630859375,97.9925537109375
1758878306.2412581,-0.74755859375,-0.1005859375,0.66943359375,-2.38037109375,5.859375,-9.1552734375,-6.273193359375,50.9710693359375,97.833251953125
1758878306.251598,-0.74853515625,-0.08935546875,0.68408203125,-1.40380859375,5.0048828125,-8.1787109375,-6.39404296875,51.0150146484375,97.6849365234375
1758878306.2618558,-0.74853515625,-0.08935546875,0.68408203125,-1.40380859375,5.0048828125,-8.1787109375,-6.5093994140625,51.0479736328125,97.5421142578125
1758878306.2719517,-0.74267578125,-0.07763671875,0.681640625,-0.30517578125,4.08935546875,-7.50732421875,-6.61376953125,51.075439453125,97.40478515625
1758878306.2818973,-0.74267578125,-0.07763671875,0.681640625,-0.30517578125,4.08935546875,-7.50732421875,-6.712646484375,51.1029052734375,97.2674560546875
1758878306.2919874,-0.74169921875,-0.07568359375,0.68310546875,-1.28173828125,3.47900390625,-6.53076171875,-6.8060302734375,51.119384765625,97.1466064453125
1758878306.3013608,-0.74169921875,-0.07568359375,0.68310546875,-1.28173828125,3.47900390625,-6.53076171875,-6.8994140625,51.1358642578125,97.0257568359375
1758878306.3117394,-0.7265625,-0.0849609375,0.68896484375,-4.82177734375,2.8076171875,-5.4931640625,-7.0147705078125,51.1468505859375,96.92138671875
1758878306.322028,-0.7265625,-0.0849609375,0.68896484375,-4.82177734375,2.8076171875,-5.4931640625,-7.1356201171875,51.15234375,96.8170166015625
1758878306.3318079,-0.72216796875,-0.09326171875,0.7109375,-6.28662109375,1.89208984375,-4.69970703125,-7.2509765625,51.1468505859375,96.7291259765625
1758878306.3413432,-0.72216796875,-0.09326171875,0.7109375,-6.28662109375,1.89208984375,-4.69970703125,-7.371826171875,51.141357421875,96.6357421875
1758878306.3518806,-0.7109375,-0.1025390625,0.71337890625,-4.33349609375,0.9765625,-4.45556640625,-7.470703125,51.1248779296875,96.5478515625
1758878306.3621323,-0.7109375,-0.1025390625,0.71337890625,-4.33349609375,0.9765625,-4.45556640625,-7.5640869140625,51.1083984375,96.4599609375
1758878306.3717737,-0.6953125,-0.09326171875,0.716796875,-2.8076171875,0.1220703125,-4.5166015625,-7.646484375,51.0809326171875,96.3775634765625
1758878306.381414,-0.6953125,-0.09326171875,0.716796875,-2.8076171875,0.1220703125,-4.5166015625,-7.723388671875,51.053466796875,96.2896728515625
1758878306.3921833,-0.6845703125,-0.0751953125,0.7353515625,-2.9296875,-0.48828125,-4.2724609375,-7.80029296875,51.0150146484375,96.207275390625
1758878306.4016657,-0.6845703125,-0.0751953125,0.7353515625,-2.9296875,-0.48828125,-4.2724609375,-7.877197265625,50.9710693359375,96.1248779296875
1758878306.411932,-0.66162109375,-0.0712890625,0.740234375,-5.9814453125,-1.220703125,-3.60107421875,-7.9705810546875,50.9271240234375,96.0589599609375
1758878306.4214673,-0.66162109375,-0.0712890625,0.740234375,-5.9814453125,-1.220703125,-3.60107421875,-8.06396484375,50.8721923828125,95.987548828125
1758878306.432131,-0.66357421875,-0.1005859375,0.751953125,-7.4462890625,-1.953125,-2.86865234375,-8.162841796875,50.8172607421875,95.9326171875
1758878306.4417212,-0.66357421875,-0.1005859375,0.751953125,-7.4462890625,-1.953125,-2.86865234375,-8.26171875,50.7568359375,95.877685546875
1758878306.4522858,-0.6630859375,-0.13720703125,0.7412109375,-2.44140625,-2.5634765625,-1.77001953125,-8.294677734375,50.6854248046875,95.8392333984375
1758878306.4620755,-0.6630859375,-0.13720703125,0.7412109375,-2.44140625,-2.5634765625,-1.77001953125,-8.3331298828125,50.6195068359375,95.80078125
1758878306.4719248,-0.67236328125,-0.1650390625,0.72509765625,11.04736328125,-3.11279296875,-1.40380859375,-8.2342529296875,50.548095703125,95.767822265625
1758878306.4817445,-0.67236328125,-0.1650390625,0.72509765625,11.04736328125,-3.11279296875,-1.40380859375,-8.1353759765625,50.47119140625,95.73486328125
1758878306.492196,-0.76123046875,-0.18701171875,0.72119140625,29.052734375,-3.72314453125,-1.220703125,-7.8607177734375,50.394287109375,95.7073974609375
1758878306.5016606,-0.76123046875,-0.18701171875,0.72119140625,29.052734375,-3.72314453125,-1.220703125,-7.591552734375,50.3173828125,95.679931640625
1758878306.5120103,-0.830078125,-0.13232421875,0.73193359375,36.92626953125,-4.94384765625,-1.64794921875,-7.2509765625,50.2294921875,95.64697265625
1758878306.522298,-0.830078125,-0.13232421875,0.73193359375,36.92626953125,-4.94384765625,-1.64794921875,-6.910400390625,50.1470947265625,95.614013671875
1758878306.532075,-0.8076171875,-0.00244140625,0.6259765625,23.01025390625,-4.94384765625,-1.8310546875,-6.712646484375,50.0701904296875,95.5755615234375
1758878306.5416741,-0.8076171875,-0.00244140625,0.6259765625,23.01025390625,-4.94384765625,-1.8310546875,-6.5093994140625,49.9932861328125,95.5426025390625
1758878306.5521815,-0.734375,0.009765625,0.56298828125,18.310546875,-5.4931640625,-2.0751953125,-6.3555908203125,49.9163818359375,95.504150390625
1758878306.562473,-0.734375,0.009765625,0.56298828125,18.310546875,-5.4931640625,-2.0751953125,-6.1907958984375,49.844970703125,95.4656982421875
1758878306.5720842,-0.7080078125,-0.0869140625,0.564453125,15.869140625,-4.8828125,-2.13623046875,-6.0589599609375,49.779052734375,95.42724609375
1758878306.5818152,-0.7080078125,-0.0869140625,0.564453125,15.869140625,-4.8828125,-2.13623046875,-5.9271240234375,49.7186279296875,95.3887939453125
1758878306.5922773,-0.73681640625,-0.158203125,0.58740234375,19.1650390625,-4.33349609375,-2.685546875,-5.7733154296875,49.6636962890625,95.33935546875
1758878306.601909,-0.73681640625,-0.158203125,0.58740234375,19.1650390625,-4.33349609375,-2.685546875,-5.625,49.6142578125,95.2899169921875
1758878306.612306,-0.85009765625,-0.1220703125,0.65283203125,30.6396484375,-4.57763671875,-3.41796875,-5.372314453125,49.559326171875,95.2294921875
1758878306.6223888,-0.85009765625,-0.1220703125,0.65283203125,30.6396484375,-4.57763671875,-3.41796875,-5.11962890625,49.5098876953125,95.1690673828125
1758878306.6324794,-0.87646484375,-0.06005859375,0.685546875,38.02490234375,-5.615234375,-4.8828125,-4.8175048828125,49.449462890625,95.0921630859375
1758878306.641947,-0.87646484375,-0.06005859375,0.685546875,38.02490234375,-5.615234375,-4.8828125,-4.5098876953125,49.3890380859375,95.0152587890625
1758878306.6531603,-0.74072265625,-0.00146484375,0.60986328125,25.08544921875,-5.859375,-5.7373046875,-4.339599609375,49.32861328125,94.921875
1758878306.6621265,-0.74072265625,-0.00146484375,0.60986328125,25.08544921875,-5.859375,-5.7373046875,-4.163818359375,49.2681884765625,94.8284912109375
1758878306.6722116,-0.68212890625,-0.013671875,0.54248046875,26.30615234375,-4.8828125,-5.06591796875,-3.9715576171875,49.2242431640625,94.74609375
1758878306.6819742,-0.68212890625,-0.013671875,0.54248046875,26.30615234375,-4.8828125,-5.06591796875,-3.7738037109375,49.1748046875,94.6636962890625
1758878306.6927266,-0.67041015625,-0.08642578125,0.54296875,26.67236328125,-3.72314453125,-4.45556640625,-3.570556640625,49.141845703125,94.5867919921875
1758878306.7019365,-0.67041015625,-0.08642578125,0.54296875,26.67236328125,-3.72314453125,-4.45556640625,-3.372802734375,49.10888671875,94.515380859375
1758878306.7123199,-0.68212890625,-0.09814453125,0.60693359375,16.4794921875,-2.8076171875,-4.2724609375,-3.27392578125,49.0869140625,94.4439697265625
1758878306.7224953,-0.68212890625,-0.09814453125,0.60693359375,16.4794921875,-2.8076171875,-4.2724609375,-3.175048828125,49.0594482421875,94.37255859375
1758878306.7323081,-0.69775390625,-0.0947265625,0.62744140625,24.2919921875,-1.77001953125,-4.57763671875,-3.01025390625,49.04296875,94.2901611328125
1758878306.7419698,-0.69775390625,-0.0947265625,0.62744140625,24.2919921875,-1.77001953125,-4.57763671875,-2.845458984375,49.0264892578125,94.2132568359375
1758878306.7524202,-0.81884765625,-0.07470703125,0.72607421875,36.62109375,-2.5634765625,-4.8828125,-2.559814453125,49.0045166015625,94.130859375
1758878306.7626655,-0.81884765625,-0.07470703125,0.72607421875,36.62109375,-2.5634765625,-4.8828125,-2.274169921875,48.97705078125,94.0484619140625
1758878306.772341,-0.9580078125,0.0048828125,0.8896484375,15.68603515625,-4.45556640625,-4.45556640625,-2.1917724609375,48.93310546875,93.9715576171875
1758878306.7820978,-0.9580078125,0.0048828125,0.8896484375,15.68603515625,-4.45556640625,-4.45556640625,-2.1038818359375,48.8836669921875,93.8946533203125
1758878306.7926304,-0.798828125,0.09912109375,0.67724609375,-8.85009765625,-5.9814453125,-3.84521484375,-2.2467041015625,48.8232421875,93.8287353515625
1758878306.8024359,-0.798828125,0.09912109375,0.67724609375,-8.85009765625,-5.9814453125,-3.84521484375,-2.3785400390625,48.7628173828125,93.7628173828125
1758878306.8123603,-0.72802734375,0.0517578125,0.46533203125,-4.7607421875,-5.18798828125,-2.38037109375,-2.449951171875,48.7188720703125,93.71337890625
1758878306.8222463,-0.72802734375,0.0517578125,0.46533203125,-4.7607421875,-5.18798828125,-2.38037109375,-2.515869140625,48.6749267578125,93.66943359375
1758878306.8329837,-0.7431640625,-0.04833984375,0.4560546875,-5.9814453125,-3.23486328125,-1.15966796875,-2.581787109375,48.6529541015625,93.6419677734375
1758878306.8420837,-0.7431640625,-0.04833984375,0.4560546875,-5.9814453125,-3.23486328125,-1.15966796875,-2.6531982421875,48.636474609375,93.614501953125
1758878306.8531954,-0.7978515625,-0.08154296875,0.533203125,-4.69970703125,-2.0751953125,-0.9765625,-2.7081298828125,48.636474609375,93.5870361328125
1758878306.862391,-0.7978515625,-0.08154296875,0.533203125,-4.69970703125,-2.0751953125,-0.9765625,-2.7630615234375,48.636474609375,93.5650634765625
1758878306.872596,-0.81884765625,-0.07666015625,0.5888671875,9.94873046875,-1.5869140625,-1.15966796875,-2.6806640625,48.6474609375,93.53759765625
1758878306.8843558,-0.81884765625,-0.07666015625,0.5888671875,9.94873046875,-1.5869140625,-1.15966796875,-2.603759765625,48.6529541015625,93.5101318359375
1758878306.8930116,-0.81884765625,-0.07666015625,0.5888671875,18.73779296875,-1.5869140625,-1.46484375,-2.43896484375,48.6639404296875,93.4771728515625
1758878306.9023392,-0.82421875,-0.068359375,0.60107421875,18.73779296875,-1.5869140625,-1.46484375,-2.2796630859375,48.6749267578125,93.4442138671875
1758878306.912453,-0.8671875,-0.02978515625,0.6279296875,16.357421875,-1.8310546875,-1.40380859375,-2.142333984375,48.680419921875,93.416748046875
1758878306.9228663,-0.8671875,-0.02978515625,0.6279296875,16.357421875,-1.8310546875,-1.40380859375,-2.0050048828125,48.69140625,93.3837890625
1758878306.9326334,-0.904296875,0.013671875,0.59033203125,13.97705078125,-2.0751953125,-1.220703125,-1.8896484375,48.6968994140625,93.3563232421875
1758878306.9423366,-0.904296875,0.013671875,0.59033203125,13.97705078125,-2.0751953125,-1.220703125,-1.768798828125,48.7078857421875,93.328857421875
1758878306.9524207,-0.87841796875,0.02099609375,0.53857421875,8.9111328125,-2.62451171875,-1.3427734375,-1.702880859375,48.71337890625,93.3013916015625
1758878306.9627182,-0.87841796875,0.02099609375,0.53857421875,8.9111328125,-2.62451171875,-1.3427734375,-1.6314697265625,48.724365234375,93.27392578125
1758878306.9723709,-0.861328125,0.013671875,0.5009765625,-0.91552734375,-1.89208984375,-1.15966796875,-1.6534423828125,48.7408447265625,93.2464599609375
1758878306.9825206,-0.861328125,0.013671875,0.5009765625,-0.91552734375,-1.89208984375,-1.15966796875,-1.669921875,48.7628173828125,93.2244873046875
1758878306.9926972,-0.8525390625,-0.005859375,0.4912109375,-5.79833984375,-1.03759765625,-1.0986328125,-1.7413330078125,48.7957763671875,93.197021484375
1758878307.002801,-0.8525390625,-0.005859375,0.4912109375,-5.79833984375,-1.03759765625,-1.0986328125,-1.8072509765625,48.834228515625,93.1695556640625
1758878307.0123856,-0.857421875,-0.0380859375,0.50830078125,-5.2490234375,-0.06103515625,-1.03759765625,-1.86767578125,48.878173828125,93.14208984375
1758878307.0225782,-0.857421875,-0.0380859375,0.50830078125,-5.2490234375,-0.06103515625,-1.03759765625,-1.93359375,48.9276123046875,93.1146240234375
1758878307.0330331,-0.84228515625,-0.04931640625,0.52685546875,-1.40380859375,0.67138671875,-1.15966796875,-1.9610595703125,48.9825439453125,93.087158203125
1758878307.042602,-0.84228515625,-0.04931640625,0.52685546875,-1.40380859375,0.67138671875,-1.15966796875,-1.988525390625,49.0374755859375,93.0596923828125
1758878307.052468,-0.794921875,-0.02880859375,0.60888671875,1.46484375,0.8544921875,-1.220703125,-1.9940185546875,49.0924072265625,93.0322265625
1758878307.0631459,-0.794921875,-0.02880859375,0.60888671875,1.46484375,0.8544921875,-1.220703125,-1.9940185546875,49.141845703125,92.999267578125
1758878307.0725882,-0.76806640625,-0.02490234375,0.6328125,2.01416015625,1.52587890625,-0.79345703125,-1.9830322265625,49.19677734375,92.977294921875
1758878307.0825975,-0.76806640625,-0.02490234375,0.6328125,2.01416015625,1.52587890625,-0.79345703125,-1.9775390625,49.251708984375,92.9498291015625
1758878307.092512,-0.75048828125,-0.02880859375,0.65380859375,2.685546875,1.40380859375,-0.48828125,-1.95556640625,49.295654296875,92.933349609375
1758878307.103696,-0.75048828125,-0.02880859375,0.65380859375,2.685546875,1.40380859375,-0.48828125,-1.9390869140625,49.339599609375,92.911376953125
1758878307.11247,-0.73828125,-0.0244140625,0.677734375,1.77001953125,1.220703125,-0.06103515625,-1.9281005859375,49.3780517578125,92.900390625
1758878307.122524,-0.73828125,-0.0244140625,0.677734375,1.77001953125,1.220703125,-0.06103515625,-1.91162109375,49.4110107421875,92.8839111328125
1758878307.133172,-0.73095703125,-0.021484375,0.689453125,1.28173828125,0.79345703125,0.3662109375,-1.8951416015625,49.4384765625,92.87841796875
1758878307.1425242,-0.73095703125,-0.021484375,0.689453125,1.28173828125,0.79345703125,0.3662109375,-1.8841552734375,49.46044921875,92.8729248046875
1758878307.1527104,-0.72998046875,-0.0234375,0.69384765625,0.48828125,0.732421875,0.79345703125,-1.8731689453125,49.4769287109375,92.8729248046875
1758878307.1638224,-0.72998046875,-0.0234375,0.69384765625,0.48828125,0.732421875,0.79345703125,-1.856689453125,49.493408203125,92.867431640625
1758878307.1727602,-0.71630859375,-0.0224609375,0.693359375,0.6103515625,0.732421875,1.15966796875,-1.8402099609375,49.50439453125,92.87841796875
1758878307.184886,-0.71630859375,-0.0224609375,0.693359375,0.6103515625,0.732421875,1.15966796875,-1.82373046875,49.515380859375,92.8839111328125
1758878307.1933377,-0.708984375,-0.0224609375,0.70703125,0.30517578125,0.48828125,1.64794921875,-1.8017578125,49.5208740234375,92.8948974609375
1758878307.202771,-0.708984375,-0.0224609375,0.70703125,0.30517578125,0.48828125,1.64794921875,-1.7852783203125,49.5263671875,92.911376953125
1758878307.21273,-0.716796875,-0.0244140625,0.70068359375,-0.8544921875,0.3662109375,2.13623046875,-1.768798828125,49.5208740234375,92.933349609375
1758878307.2235892,-0.716796875,-0.0244140625,0.70068359375,-0.8544921875,0.3662109375,2.13623046875,-1.7523193359375,49.5208740234375,92.9498291015625
1758878307.2332058,-0.728515625,-0.02099609375,0.67724609375,-0.732421875,0.06103515625,2.44140625,-1.73583984375,49.515380859375,92.977294921875
1758878307.2426987,-0.7421875,-0.0078125,0.68408203125,-2.01416015625,0.1220703125,2.50244140625,-1.7193603515625,49.5098876953125,93.0047607421875
1758878307.2536254,-0.7421875,-0.0078125,0.68408203125,-2.01416015625,0.1220703125,2.50244140625,-1.7138671875,49.4989013671875,93.0322265625
1758878307.2628813,-0.73681640625,-0.01123046875,0.67578125,-3.41796875,0.48828125,2.8076171875,-1.7083740234375,49.493408203125,93.0596923828125
1758878307.2728205,-0.73681640625,-0.01123046875,0.67578125,-3.41796875,0.48828125,2.8076171875,-1.7138671875,49.493408203125,93.087158203125
1758878307.2839508,-0.74169921875,-0.0244140625,0.69189453125,-5.43212890625,0.91552734375,3.173828125,-1.7193603515625,49.4879150390625,93.1256103515625
1758878307.2927442,-0.74169921875,-0.0244140625,0.69189453125,-5.43212890625,0.91552734375,3.173828125,-1.73583984375,49.4879150390625,93.1640625
1758878307.3039327,-0.74951171875,-0.02392578125,0.68994140625,-5.126953125,1.52587890625,3.173828125,-1.7523193359375,49.493408203125,93.2025146484375
1758878307.3132348,-0.74951171875,-0.02392578125,0.68994140625,-5.126953125,1.52587890625,3.173828125,-1.768798828125,49.4989013671875,93.240966796875
1758878307.3227415,-0.74755859375,-0.01953125,0.65771484375,-3.2958984375,1.5869140625,2.74658203125,-1.7742919921875,49.50439453125,93.27392578125
1758878307.3333137,-0.74755859375,-0.01953125,0.65771484375,-3.2958984375,1.5869140625,2.74658203125,-1.77978515625,49.5098876953125,93.306884765625
1758878307.3429925,-0.75439453125,-0.0048828125,0.64501953125,-2.38037109375,1.5869140625,2.01416015625,-1.77978515625,49.515380859375,93.3343505859375
1758878307.3528316,-0.75439453125,-0.0048828125,0.64501953125,-2.38037109375,1.5869140625,2.01416015625,-1.77978515625,49.5263671875,93.350830078125
1758878307.363915,-0.76123046875,-0.00341796875,0.640625,-1.8310546875,1.52587890625,1.28173828125,-1.77978515625,49.5318603515625,93.3673095703125
1758878307.3735554,-0.76123046875,-0.00341796875,0.640625,-1.8310546875,1.52587890625,1.28173828125,-1.77978515625,49.5428466796875,93.3782958984375
1758878307.382947,-0.77099609375,-0.00830078125,0.63330078125,-1.77001953125,1.708984375,0.54931640625,-1.7852783203125,49.54833984375,93.3837890625
1758878307.3931403,-0.77099609375,-0.00830078125,0.63330078125,-1.77001953125,1.708984375,0.54931640625,-1.7962646484375,49.5648193359375,93.3837890625
1758878307.4038584,-0.77099609375,-0.00830078125,0.63330078125,-0.42724609375,1.89208984375,-0.244140625,-1.8017578125,49.5758056640625,93.372802734375
1758878307.4130185,-0.77197265625,-0.01513671875,0.6279296875,-0.42724609375,1.89208984375,-0.244140625,-1.8072509765625,49.59228515625,93.36181640625
1758878307.422987,-0.77197265625,-0.01513671875,0.63232421875,1.03759765625,2.13623046875,-0.9765625,-1.8072509765625,49.6087646484375,93.3453369140625
1758878307.433739,-0.77197265625,-0.01513671875,0.63232421875,1.03759765625,2.13623046875,-0.9765625,-1.8072509765625,49.6307373046875,93.31787109375
1758878307.4429612,-0.77001953125,-0.017578125,0.62353515625,2.13623046875,2.38037109375,-1.40380859375,-1.8017578125,49.6527099609375,93.2904052734375
1758878307.45305,-0.77001953125,-0.017578125,0.62353515625,2.13623046875,2.38037109375,-1.40380859375,-1.7962646484375,49.6746826171875,93.2574462890625
1758878307.4637432,-0.7646484375,-0.0126953125,0.64208984375,1.46484375,2.5634765625,-1.708984375,-1.790771484375,49.7021484375,93.2244873046875
1758878307.4733064,-0.7646484375,-0.0126953125,0.64208984375,1.46484375,2.5634765625,-1.708984375,-1.7962646484375,49.72412109375,93.1915283203125
1758878307.4830246,-0.76904296875,-0.0166015625,0.6474609375,1.708984375,3.11279296875,-1.8310546875,-1.7962646484375,49.7515869140625,93.153076171875
1758878307.493789,-0.76904296875,-0.0166015625,0.6474609375,1.708984375,3.11279296875,-1.8310546875,-1.8017578125,49.7845458984375,93.1146240234375
1758878307.503032,-0.767578125,-0.02392578125,0.642578125,2.197265625,3.173828125,-1.708984375,-1.8017578125,49.8175048828125,93.0816650390625
1758878307.5131533,-0.767578125,-0.02392578125,0.642578125,2.197265625,3.173828125,-1.708984375,-1.7962646484375,49.844970703125,93.043212890625
1758878307.5239737,-0.7578125,-0.0224609375,0.63671875,0.79345703125,3.11279296875,-1.40380859375,-1.8017578125,49.8779296875,93.01025390625
1758878307.53328,-0.7578125,-0.0224609375,0.63671875,0.79345703125,3.11279296875,-1.40380859375,-1.8072509765625,49.9053955078125,92.977294921875
1758878307.5431137,-0.7548828125,-0.02099609375,0.64404296875,0.30517578125,3.173828125,-0.8544921875,-1.8182373046875,49.9383544921875,92.9498291015625
1758878307.5538514,-0.7548828125,-0.02099609375,0.64404296875,0.30517578125,3.173828125,-0.8544921875,-1.82373046875,49.9713134765625,92.9278564453125
1758878307.5635147,-0.7509765625,-0.0302734375,0.66064453125,-0.1220703125,3.47900390625,-0.18310546875,-1.8292236328125,49.998779296875,92.9058837890625
1758878307.573124,-0.7509765625,-0.0302734375,0.66064453125,-0.1220703125,3.47900390625,-0.18310546875,-1.834716796875,50.03173828125,92.8948974609375
1758878307.5837889,-0.74267578125,-0.03076171875,0.67724609375,-0.54931640625,3.41796875,0.3662109375,-1.834716796875,50.064697265625,92.889404296875
1758878307.5932715,-0.74267578125,-0.03076171875,0.67724609375,-0.54931640625,3.41796875,0.3662109375,-1.8402099609375,50.0921630859375,92.8839111328125
1758878307.6038027,-0.73876953125,-0.02294921875,0.6796875,-0.3662109375,3.41796875,0.67138671875,-1.8402099609375,50.1251220703125,92.87841796875
1758878307.6134539,-0.73876953125,-0.02294921875,0.6796875,-0.3662109375,3.41796875,0.67138671875,-1.8402099609375,50.152587890625,92.87841796875
1758878307.6234684,-0.73876953125,-0.02294921875,0.6796875,-0.42724609375,2.9296875,0.8544921875,-1.834716796875,50.174560546875,92.8839111328125
1758878307.6334918,-0.72998046875,-0.013671875,0.6904296875,-0.42724609375,2.9296875,0.8544921875,-1.8292236328125,50.196533203125,92.8839111328125
1758878307.6439233,-0.7216796875,-0.0078125,0.69384765625,-2.01416015625,2.685546875,0.9765625,-1.834716796875,50.2130126953125,92.889404296875
1758878307.6533632,-0.7216796875,-0.0078125,0.69384765625,-2.01416015625,2.685546875,0.9765625,-1.8402099609375,50.2294921875,92.8948974609375
1758878307.6636608,-0.7216796875,-0.00732421875,0.69287109375,-3.0517578125,2.5634765625,0.9765625,-1.856689453125,50.240478515625,92.900390625
1758878307.674038,-0.7216796875,-0.00732421875,0.69287109375,-3.0517578125,2.5634765625,0.9765625,-1.8731689453125,50.25146484375,92.9058837890625
1758878307.6835597,-0.71826171875,-0.017578125,0.70751953125,-4.57763671875,2.5634765625,0.8544921875,-1.8951416015625,50.262451171875,92.911376953125
1758878307.6933248,-0.71826171875,-0.017578125,0.70751953125,-4.57763671875,2.5634765625,0.8544921875,-1.93359375,50.2679443359375,92.911376953125
1758878307.7036655,-0.724609375,-0.01708984375,0.72265625,-9.033203125,2.38037109375,0.8544921875,-1.988525390625,50.2789306640625,92.9168701171875
1758878307.7133822,-0.724609375,-0.01708984375,0.72265625,-9.033203125,2.38037109375,0.8544921875,-2.0654296875,50.2789306640625,92.92236328125
1758878307.7236795,-0.71240234375,-0.01171875,0.7578125,-9.8876953125,2.0751953125,0.67138671875,-2.1478271484375,50.284423828125,92.92236328125
1758878307.7335644,-0.71240234375,-0.01171875,0.7578125,-9.8876953125,2.0751953125,0.67138671875,-2.230224609375,50.2789306640625,92.92236328125
1758878307.7441077,-0.6962890625,-0.01806640625,0.74072265625,-8.544921875,2.197265625,0.3662109375,-2.3126220703125,50.2734375,92.92236328125
1758878307.7533758,-0.6962890625,-0.01806640625,0.74072265625,-8.544921875,2.197265625,0.3662109375,-2.3895263671875,50.2734375,92.9168701171875
1758878307.7637446,-0.66748046875,-0.03173828125,0.75390625,-7.62939453125,2.13623046875,0.30517578125,-2.4609375,50.262451171875,92.911376953125
1758878307.773963,-0.66748046875,-0.03173828125,0.75390625,-7.62939453125,2.13623046875,0.30517578125,-2.52685546875,50.2569580078125,92.9058837890625
1758878307.785797,-0.65869140625,-0.03515625,0.75927734375,-7.75146484375,2.5634765625,0.6103515625,-2.5982666015625,50.2459716796875,92.900390625
1758878307.793401,-0.65869140625,-0.03515625,0.75927734375,-7.75146484375,2.5634765625,0.6103515625,-2.6641845703125,50.2349853515625,92.900390625
1758878307.803704,-0.6591796875,-0.04443359375,0.7177734375,-4.69970703125,2.3193359375,1.03759765625,-2.7081298828125,50.2239990234375,92.900390625
1758878307.8141603,-0.6591796875,-0.04443359375,0.7177734375,-4.69970703125,2.3193359375,1.03759765625,-2.7410888671875,50.20751953125,92.9058837890625
1758878307.8237398,-0.6806640625,-0.02783203125,0.71875,-7.2021484375,2.13623046875,1.52587890625,-2.7850341796875,50.1910400390625,92.9168701171875
1758878307.8335595,-0.6806640625,-0.02783203125,0.71875,-7.2021484375,2.13623046875,1.52587890625,-2.83447265625,50.174560546875,92.9278564453125
1758878307.8440835,-0.70458984375,-0.03271484375,0.67138671875,-7.080078125,1.953125,1.5869140625,-2.8839111328125,50.1580810546875,92.9388427734375
1758878307.8537283,-0.70458984375,-0.03271484375,0.67138671875,-7.080078125,1.953125,1.5869140625,-2.933349609375,50.1416015625,92.955322265625
1758878307.8638585,-0.73095703125,-0.03955078125,0.60595703125,-6.591796875,2.25830078125,1.708984375,-2.9827880859375,50.130615234375,92.9718017578125
1758878307.8736084,-0.73095703125,-0.03955078125,0.60595703125,-6.591796875,2.25830078125,1.708984375,-3.021240234375,50.1251220703125,92.98828125
1758878307.8842635,-0.74853515625,-0.0380859375,0.5849609375,-6.591796875,2.197265625,1.64794921875,-3.065185546875,50.11962890625,93.0047607421875
1758878307.8939807,-0.74853515625,-0.0380859375,0.5849609375,-6.591796875,2.197265625,1.64794921875,-3.1146240234375,50.1141357421875,93.021240234375
1758878307.9038537,-0.7548828125,-0.0283203125,0.58740234375,-8.11767578125,2.86865234375,2.01416015625,-3.1640625,50.11962890625,93.0377197265625
1758878307.9138832,-0.7548828125,-0.0283203125,0.58740234375,-8.11767578125,2.86865234375,2.01416015625,-3.218994140625,50.1361083984375,93.0596923828125
1758878307.923896,-0.77294921875,-0.025390625,0.59326171875,-5.0048828125,3.173828125,2.01416015625,-3.2574462890625,50.152587890625,93.0816650390625
1758878307.9335968,-0.77294921875,-0.025390625,0.59326171875,-5.0048828125,3.173828125,2.01416015625,-3.284912109375,50.1690673828125,93.1036376953125
1758878307.9442828,-0.7734375,-0.04052734375,0.58154296875,0.244140625,3.5400390625,2.197265625,-3.2794189453125,50.196533203125,93.1256103515625
1758878307.9538429,-0.7734375,-0.04052734375,0.58154296875,0.244140625,3.5400390625,2.197265625,-3.251953125,50.2239990234375,93.1475830078125
1758878307.9640741,-0.79736328125,-0.0615234375,0.58251953125,0.9765625,3.5400390625,2.0751953125,-3.218994140625,50.2569580078125,93.1695556640625
1758878307.973738,-0.79736328125,-0.0615234375,0.58251953125,0.9765625,3.5400390625,2.0751953125,-3.1915283203125,50.2899169921875,93.197021484375
1758878307.984525,-0.8232421875,-0.05322265625,0.580078125,0.3662109375,3.7841796875,2.25830078125,-3.1585693359375,50.328369140625,93.218994140625
1758878307.9937618,-0.8232421875,-0.05322265625,0.580078125,0.3662109375,3.7841796875,2.25830078125,-3.1365966796875,50.3668212890625,93.240966796875
1758878308.0042238,-0.83544921875,-0.05615234375,0.59375,7.01904296875,3.41796875,2.197265625,-3.076171875,50.4107666015625,93.2684326171875
1758878308.0138624,-0.83544921875,-0.05615234375,0.59375,7.01904296875,3.41796875,2.197265625,-2.98828125,50.44921875,93.2958984375
1758878308.0240083,-0.83447265625,-0.048828125,0.60986328125,7.6904296875,2.8076171875,1.5869140625,-2.900390625,50.4876708984375,93.31787109375
1758878308.0338697,-0.83447265625,-0.048828125,0.60986328125,7.6904296875,2.8076171875,1.5869140625,-2.8125,50.526123046875,93.3343505859375
1758878308.0444326,-0.82177734375,0.0029296875,0.595703125,6.16455078125,2.50244140625,1.0986328125,-2.735595703125,50.5645751953125,93.3453369140625
1758878308.0538359,-0.82177734375,0.0029296875,0.595703125,6.16455078125,2.50244140625,1.0986328125,-2.669677734375,50.5975341796875,93.3563232421875
1758878308.0642009,-0.80126953125,0.01953125,0.58056640625,6.2255859375,2.13623046875,0.67138671875,-2.5982666015625,50.635986328125,93.36181640625
1758878308.0743816,-0.80126953125,0.01953125,0.58056640625,6.2255859375,2.13623046875,0.67138671875,-2.5323486328125,50.6689453125,93.3673095703125
1758878308.084873,-0.8125,0.0078125,0.58251953125,1.953125,2.5634765625,0.6103515625,-2.48291015625,50.7073974609375,93.372802734375
1758878308.093837,-0.8125,0.0078125,0.58251953125,1.953125,2.5634765625,0.6103515625,-2.4554443359375,50.745849609375,93.3782958984375
1758878308.1040998,-0.8037109375,-0.021484375,0.62353515625,1.28173828125,2.685546875,0.67138671875,-2.427978515625,50.7843017578125,93.3782958984375
1758878308.1144524,-0.8037109375,-0.021484375,0.62353515625,1.28173828125,2.685546875,0.67138671875,-2.406005859375,50.82275390625,93.3837890625
1758878308.124142,-0.79296875,-0.06396484375,0.61865234375,5.31005859375,2.99072265625,0.9765625,-2.362060546875,50.86669921875,93.3892822265625
1758878308.133925,-0.79296875,-0.06396484375,0.61865234375,5.31005859375,2.99072265625,0.9765625,-2.296142578125,50.9051513671875,93.4002685546875
1758878308.144349,-0.77978515625,-0.07666015625,0.6162109375,10.55908203125,2.9296875,0.48828125,-2.2137451171875,50.9490966796875,93.40576171875
1758878308.1540115,-0.77978515625,-0.07666015625,0.6162109375,10.55908203125,2.9296875,0.48828125,-2.109375,50.987548828125,93.40576171875
1758878308.1643295,-0.7626953125,-0.02978515625,0.63720703125,10.43701171875,3.11279296875,0.06103515625,-2.010498046875,51.0260009765625,93.4002685546875
1758878308.1745982,-0.7626953125,-0.02978515625,0.63720703125,10.43701171875,3.11279296875,0.06103515625,-1.9171142578125,51.064453125,93.4002685546875
1758878308.1844285,-0.74365234375,0.001953125,0.63525390625,10.92529296875,3.35693359375,-0.06103515625,-1.8182373046875,51.1029052734375,93.3892822265625
1758878308.1941507,-0.74365234375,0.001953125,0.63525390625,10.92529296875,3.35693359375,-0.06103515625,-1.7193603515625,51.141357421875,93.3837890625
1758878308.2043715,-0.73486328125,-0.009765625,0.64599609375,10.986328125,3.47900390625,-0.1220703125,-1.614990234375,51.17431640625,93.372802734375
1758878308.2149577,-0.73486328125,-0.009765625,0.64599609375,10.986328125,3.47900390625,-0.1220703125,-1.51611328125,51.2127685546875,93.3673095703125
1758878308.2243745,-0.7275390625,-0.03173828125,0.65380859375,12.939453125,3.11279296875,-0.30517578125,-1.395263671875,51.240234375,93.3563232421875
1758878308.2340984,-0.7275390625,-0.03173828125,0.65380859375,12.939453125,3.11279296875,-0.30517578125,-1.2799072265625,51.2677001953125,93.33984375
1758878308.2448425,-0.74755859375,-0.02880859375,0.6796875,17.7001953125,2.5634765625,-0.67138671875,-1.12060546875,51.2896728515625,93.3233642578125
1758878308.2540934,-0.74755859375,-0.02880859375,0.6796875,17.7001953125,2.5634765625,-0.67138671875,-0.9613037109375,51.30615234375,93.306884765625
1758878308.264531,-0.77490234375,0.005859375,0.7236328125,11.65771484375,2.0751953125,-1.3427734375,-0.867919921875,51.317138671875,93.2794189453125
1758878308.2746,-0.77490234375,0.005859375,0.7236328125,11.65771484375,2.0751953125,-1.3427734375,-0.7745361328125,51.328125,93.251953125
1758878308.2844238,-0.80810546875,0.04638671875,0.69677734375,4.5166015625,2.0751953125,-0.8544921875,-0.7470703125,51.339111328125,93.2354736328125
1758878308.294216,-0.80810546875,0.04638671875,0.69677734375,4.5166015625,2.0751953125,-0.8544921875,-0.714111328125,51.3446044921875,93.2135009765625
1758878308.304559,-0.81640625,0.0048828125,0.6318359375,9.3994140625,2.50244140625,0.06103515625,-0.6207275390625,51.361083984375,93.2135009765625
1758878308.3143253,-0.81640625,0.0048828125,0.6318359375,9.3994140625,2.50244140625,0.06103515625,-0.5218505859375,51.3775634765625,93.2080078125
1758878308.3245018,-0.82275390625,-0.068359375,0.57470703125,12.26806640625,3.35693359375,0.67138671875,-0.3955078125,51.405029296875,93.2135009765625
1758878308.3344307,-0.82275390625,-0.068359375,0.57470703125,12.26806640625,3.35693359375,0.67138671875,-0.274658203125,51.4324951171875,93.218994140625
1758878308.3448796,-0.8076171875,-0.05908203125,0.568359375,17.88330078125,3.47900390625,0.18310546875,-0.1043701171875,51.4654541015625,93.218994140625
1758878308.3542507,-0.8076171875,-0.05908203125,0.568359375,17.88330078125,3.47900390625,0.18310546875,0.0604248046875,51.50390625,93.2135009765625
1758878308.36455,-0.78759765625,-0.01171875,0.59033203125,24.10888671875,3.173828125,-0.732421875,0.274658203125,51.5313720703125,93.197021484375
1758878308.3749895,-0.78759765625,-0.01171875,0.59033203125,24.10888671875,3.173828125,-0.732421875,0.494384765625,51.56982421875,93.18603515625
1758878308.3845265,-0.76904296875,0.037109375,0.59228515625,24.7802734375,2.685546875,-1.8310546875,0.703125,51.5972900390625,93.153076171875
1758878308.3944182,-0.76904296875,0.037109375,0.59228515625,24.7802734375,2.685546875,-1.8310546875,0.9173583984375,51.624755859375,93.1201171875
1758878308.4047563,-0.76904296875,0.037109375,0.59228515625,20.99609375,2.3193359375,-2.62451171875,1.087646484375,51.6522216796875,93.0706787109375
1758878308.414385,-0.75439453125,0.06640625,0.60107421875,20.99609375,2.3193359375,-2.62451171875,1.2579345703125,51.6741943359375,93.0267333984375
1758878308.4245577,-0.75244140625,0.06494140625,0.62939453125,12.02392578125,1.953125,-2.685546875,1.34033203125,51.6961669921875,92.9827880859375
1758878308.4345024,-0.75244140625,0.06494140625,0.62939453125,12.02392578125,1.953125,-2.685546875,1.4227294921875,51.7181396484375,92.9388427734375
1758878308.4450316,-0.75146484375,0.0517578125,0.64501953125,0.54931640625,1.5869140625,-2.01416015625,1.40625,51.7291259765625,92.900390625
1758878308.4543722,-0.75146484375,0.0517578125,0.64501953125,0.54931640625,1.5869140625,-2.01416015625,1.3897705078125,51.74560546875,92.867431640625
1758878308.4645953,-0.7724609375,0.0361328125,0.65234375,-5.67626953125,1.0986328125,-1.15966796875,1.3238525390625,51.7510986328125,92.845458984375
1758878308.4746797,-0.7724609375,0.0361328125,0.65234375,-5.67626953125,1.0986328125,-1.15966796875,1.2579345703125,51.756591796875,92.823486328125
1758878308.4845412,-0.8125,0.001953125,0.6806640625,-13.427734375,0.6103515625,-0.42724609375,1.12060546875,51.756591796875,92.8179931640625
1758878308.494472,-0.8125,0.001953125,0.6806640625,-13.427734375,0.6103515625,-0.42724609375,0.98876953125,51.756591796875,92.8070068359375
1758878308.5047598,-0.82080078125,0.00048828125,0.646484375,-15.869140625,0.0,0.48828125,0.8404541015625,51.7510986328125,92.8125
1758878308.514838,-0.82080078125,0.00048828125,0.646484375,-15.869140625,0.0,0.48828125,0.692138671875,51.74560546875,92.8125
1758878308.5245125,-0.85498046875,-0.009765625,0.6337890625,-7.38525390625,-1.03759765625,0.67138671875,0.6317138671875,51.734619140625,92.8179931640625
1758878308.5345385,-0.85498046875,-0.009765625,0.6337890625,-7.38525390625,-1.03759765625,0.67138671875,0.5657958984375,51.7181396484375,92.8289794921875
1758878308.5452368,-0.85205078125,-0.03515625,0.60400390625,4.39453125,-1.40380859375,0.67138671875,0.6207275390625,51.7071533203125,92.83447265625
1758878308.5545497,-0.85205078125,-0.03515625,0.60400390625,4.39453125,-1.40380859375,0.67138671875,0.670166015625,51.690673828125,92.8399658203125
1758878308.5647087,-0.8583984375,-0.03466796875,0.55078125,15.2587890625,-1.89208984375,0.18310546875,0.823974609375,51.6796875,92.8399658203125
1758878308.5751297,-0.8583984375,-0.03466796875,0.55078125,15.2587890625,-1.89208984375,0.18310546875,0.966796875,51.668701171875,92.8399658203125
1758878308.58474,-0.8408203125,0.00146484375,0.54443359375,16.54052734375,-1.64794921875,-0.30517578125,1.12060546875,51.65771484375,92.8289794921875
1758878308.5946097,-0.8408203125,0.00146484375,0.54443359375,16.54052734375,-1.64794921875,-0.30517578125,1.2744140625,51.65771484375,92.8179931640625
1758878308.6046093,-0.79345703125,0.05615234375,0.51416015625,12.87841796875,-1.15966796875,-0.54931640625,1.3897705078125,51.65771484375,92.8070068359375
1758878308.614935,-0.79345703125,0.05615234375,0.51416015625,12.87841796875,-1.15966796875,-0.54931640625,1.505126953125,51.6632080078125,92.7960205078125
1758878308.6246536,-0.79345703125,0.05615234375,0.51416015625,5.7373046875,-0.42724609375,-0.30517578125,1.5545654296875,51.6741943359375,92.7850341796875
1758878308.6346817,-0.7802734375,0.06689453125,0.5400390625,5.7373046875,-0.42724609375,-0.30517578125,1.6094970703125,51.6851806640625,92.779541015625
1758878308.6447828,-0.77197265625,0.064453125,0.58642578125,-3.90625,0.18310546875,-0.06103515625,1.5765380859375,51.7071533203125,92.779541015625
1758878308.6552768,-0.77197265625,0.064453125,0.58642578125,-3.90625,0.18310546875,-0.06103515625,1.5435791015625,51.7236328125,92.7740478515625
1758878308.664809,-0.75830078125,0.0458984375,0.61474609375,-11.8408203125,0.48828125,0.42724609375,1.4337158203125,51.7401123046875,92.779541015625
1758878308.6748211,-0.75830078125,0.0458984375,0.61474609375,-11.8408203125,0.48828125,0.42724609375,1.3348388671875,51.756591796875,92.7850341796875
1758878308.6876822,-0.7373046875,0.02099609375,0.626953125,-13.24462890625,0.6103515625,1.0986328125,1.2249755859375,51.767578125,92.7960205078125
1758878308.694905,-0.7373046875,0.02099609375,0.626953125,-13.24462890625,0.6103515625,1.0986328125,1.1151123046875,51.7840576171875,92.8125
1758878308.7050598,-0.720703125,-0.0078125,0.650390625,-9.521484375,0.54931640625,1.28173828125,1.043701171875,51.78955078125,92.8289794921875
1758878308.7148528,-0.720703125,-0.0078125,0.650390625,-9.521484375,0.54931640625,1.28173828125,0.9722900390625,51.800537109375,92.8509521484375
1758878308.7256079,-0.708984375,-0.02490234375,0.64892578125,-4.8828125,0.79345703125,1.46484375,0.9503173828125,51.8060302734375,92.867431640625
1758878308.7348166,-0.708984375,-0.02490234375,0.64892578125,-4.8828125,0.79345703125,1.46484375,0.9228515625,51.8115234375,92.889404296875
1758878308.744996,-0.705078125,-0.02099609375,0.65087890625,-0.6103515625,1.03759765625,1.64794921875,0.9393310546875,51.8115234375,92.911376953125
1758878308.7558105,-0.705078125,-0.02099609375,0.65087890625,-0.6103515625,1.03759765625,1.64794921875,0.9503173828125,51.8170166015625,92.933349609375
1758878308.765201,-0.7099609375,-0.01171875,0.63818359375,1.0986328125,1.46484375,1.8310546875,0.9832763671875,51.822509765625,92.9608154296875
1758878308.7748914,-0.7099609375,-0.01171875,0.63818359375,1.0986328125,1.46484375,1.8310546875,1.0107421875,51.8280029296875,92.98828125
1758878308.7850144,-0.755859375,-0.0009765625,0.669921875,3.11279296875,1.03759765625,2.01416015625,1.065673828125,51.822509765625,93.0157470703125
1758878308.7961197,-0.755859375,-0.0009765625,0.669921875,3.11279296875,1.03759765625,2.01416015625,1.1151123046875,51.822509765625,93.043212890625
1758878308.8049197,-0.80078125,0.0078125,0.701171875,11.1083984375,0.79345703125,2.0751953125,1.2469482421875,51.8170166015625,93.0706787109375
1758878308.8162205,-0.80078125,0.0078125,0.701171875,11.1083984375,0.79345703125,2.0751953125,1.3787841796875,51.8115234375,93.1036376953125
1758878308.8251379,-0.7978515625,0.0009765625,0.62060546875,19.83642578125,0.1220703125,1.52587890625,1.5875244140625,51.800537109375,93.1256103515625
1758878308.8349895,-0.7978515625,0.0009765625,0.62060546875,19.83642578125,0.1220703125,1.52587890625,1.7962646484375,51.78955078125,93.14208984375
1758878308.8450263,-0.79296875,0.029296875,0.60498046875,17.2119140625,0.06103515625,1.220703125,1.9775390625,51.778564453125,93.1585693359375
1758878308.8560395,-0.79296875,0.029296875,0.60498046875,17.2119140625,0.06103515625,1.220703125,2.1533203125,51.7730712890625,93.175048828125
1758878308.865072,-0.7919921875,0.05810546875,0.60400390625,10.19287109375,-0.1220703125,0.67138671875,2.2576904296875,51.7620849609375,93.18603515625
1758878308.8750403,-0.7919921875,0.05810546875,0.60400390625,10.19287109375,-0.1220703125,0.67138671875,2.362060546875,51.756591796875,93.1915283203125
1758878308.8858047,-0.81591796875,0.072265625,0.6162109375,3.60107421875,-0.3662109375,0.54931640625,2.406005859375,51.74560546875,93.2025146484375
1758878308.8957117,-0.81591796875,0.072265625,0.6162109375,3.60107421875,-0.3662109375,0.54931640625,2.4444580078125,51.7401123046875,93.2080078125
1758878308.9051309,-0.8681640625,0.044921875,0.64453125,4.5166015625,-1.03759765625,0.0,2.493896484375,51.7291259765625,93.2025146484375
1758878308.9152048,-0.8681640625,0.044921875,0.64453125,4.5166015625,-1.03759765625,0.0,2.537841796875,51.7181396484375,93.2025146484375
1758878308.9258091,-0.88525390625,0.0078125,0.62060546875,0.0,-1.3427734375,-0.8544921875,2.52685546875,51.7071533203125,93.18603515625
1758878308.9350965,-0.88525390625,0.0078125,0.62060546875,0.0,-1.3427734375,-0.8544921875,2.515869140625,51.6961669921875,93.1695556640625
1758878308.9451392,-0.82666015625,0.029296875,0.560546875,2.50244140625,-2.01416015625,-1.220703125,2.5213623046875,51.6796875,93.1475830078125
1758878308.9560623,-0.82666015625,0.029296875,0.560546875,2.50244140625,-2.01416015625,-1.220703125,2.5323486328125,51.668701171875,93.1256103515625
1758878308.9654253,-0.8310546875,0.041015625,0.546875,6.8359375,-1.15966796875,-1.708984375,2.5762939453125,51.668701171875,93.09814453125
1758878308.9752133,-0.8310546875,0.041015625,0.546875,6.8359375,-1.15966796875,-1.708984375,2.625732421875,51.668701171875,93.0706787109375
1758878308.9866703,-0.83642578125,0.04345703125,0.56103515625,7.4462890625,-0.732421875,-1.89208984375,2.6751708984375,51.6741943359375,93.0377197265625
1758878308.996092,-0.83642578125,0.04345703125,0.56103515625,7.4462890625,-0.732421875,-1.89208984375,2.7301025390625,51.6796875,93.01025390625
1758878309.005169,-0.849609375,0.03955078125,0.546875,5.615234375,-0.06103515625,-1.8310546875,2.7630615234375,51.6961669921875,92.9827880859375
1758878309.0152483,-0.849609375,0.03955078125,0.546875,5.615234375,-0.06103515625,-1.8310546875,2.801513671875,51.7181396484375,92.9498291015625
1758878309.0259314,-0.8212890625,0.03466796875,0.52099609375,6.103515625,-0.244140625,-1.15966796875,2.8509521484375,51.734619140625,92.933349609375
1758878309.035691,-0.8212890625,0.03466796875,0.52099609375,6.103515625,-0.244140625,-1.15966796875,2.8948974609375,51.7510986328125,92.9168701171875
1758878309.0453,-0.81494140625,0.041015625,0.57373046875,-1.220703125,0.1220703125,-0.30517578125,2.8839111328125,51.7730712890625,92.911376953125
1758878309.0553308,-0.81494140625,0.041015625,0.57373046875,-1.220703125,0.1220703125,-0.30517578125,2.8729248046875,51.7950439453125,92.9058837890625
1758878309.0656786,-0.79150390625,0.037109375,0.5810546875,-4.21142578125,0.0,0.3662109375,2.8399658203125,51.8115234375,92.911376953125
1758878309.0756073,-0.79150390625,0.037109375,0.5810546875,-4.21142578125,0.0,0.3662109375,2.8070068359375,51.8280029296875,92.9168701171875
1758878309.085351,-0.78515625,0.02392578125,0.61962890625,-3.11279296875,-0.30517578125,0.9765625,2.79052734375,51.844482421875,92.933349609375
1758878309.096323,-0.78515625,0.02392578125,0.61962890625,-3.11279296875,-0.30517578125,0.9765625,2.7740478515625,51.85546875,92.9498291015625
1758878309.1055217,-0.77294921875,0.013671875,0.61865234375,0.6103515625,-0.732421875,1.28173828125,2.7960205078125,51.8609619140625,92.9718017578125
1758878309.1156545,-0.77294921875,0.013671875,0.61865234375,0.6103515625,-0.732421875,1.28173828125,2.8179931640625,51.866455078125,92.98828125
1758878309.1254551,-0.7763671875,0.0107421875,0.630859375,5.43212890625,-1.03759765625,1.52587890625,2.8948974609375,51.8609619140625,93.01025390625
1758878309.136055,-0.7763671875,0.0107421875,0.630859375,5.43212890625,-1.03759765625,1.52587890625,2.9608154296875,51.8609619140625,93.0377197265625
1758878309.145441,-0.78271484375,0.02099609375,0.6396484375,7.26318359375,-1.220703125,1.64794921875,3.05419921875,51.85546875,93.0596923828125
1758878309.155789,-0.78271484375,0.02099609375,0.6396484375,7.26318359375,-1.220703125,1.64794921875,3.14208984375,51.844482421875,93.087158203125
1758878309.166024,-0.7861328125,0.0322265625,0.62255859375,6.8359375,-1.03759765625,1.8310546875,3.22998046875,51.8389892578125,93.1146240234375
1758878309.1758254,-0.791015625,0.04345703125,0.6123046875,5.37109375,-0.79345703125,2.13623046875,3.306884765625,51.83349609375,93.14208984375
1758878309.1854758,-0.791015625,0.04345703125,0.6123046875,5.37109375,-0.79345703125,2.13623046875,3.3837890625,51.8280029296875,93.175048828125
1758878309.1959312,-0.80419921875,0.0498046875,0.6123046875,2.5634765625,-0.42724609375,2.197265625,3.44970703125,51.8280029296875,93.2080078125
1758878309.2060003,-0.80419921875,0.0498046875,0.6123046875,2.5634765625,-0.42724609375,2.197265625,3.4991455078125,51.822509765625,93.2464599609375
1758878309.2159228,-0.8037109375,0.0556640625,0.59375,-0.8544921875,-0.3662109375,2.25830078125,3.5321044921875,51.822509765625,93.2794189453125
1758878309.226405,-0.8037109375,0.0556640625,0.59375,-0.8544921875,-0.3662109375,2.25830078125,3.548583984375,51.822509765625,93.31787109375
1758878309.235809,-0.798828125,0.064453125,0.59130859375,-3.2958984375,-0.3662109375,2.0751953125,3.5595703125,51.822509765625,93.350830078125
1758878309.2456124,-0.798828125,0.064453125,0.59130859375,-3.2958984375,-0.3662109375,2.0751953125,3.5540771484375,51.822509765625,93.3837890625
1758878309.2564285,-0.79443359375,0.060546875,0.587890625,-5.9814453125,-0.1220703125,1.89208984375,3.5321044921875,51.8280029296875,93.416748046875
1758878309.2663665,-0.79443359375,0.060546875,0.587890625,-5.9814453125,-0.1220703125,1.89208984375,3.504638671875,51.8280029296875,93.4442138671875
1758878309.2759488,-0.79248046875,0.04638671875,0.59716796875,-7.568359375,0.0,1.708984375,3.460693359375,51.83349609375,93.4771728515625
1758878309.2856784,-0.79248046875,0.04638671875,0.59716796875,-7.568359375,0.0,1.708984375,3.416748046875,51.8389892578125,93.504638671875
1758878309.2965474,-0.79248046875,0.03955078125,0.59814453125,-6.591796875,0.30517578125,1.28173828125,3.3673095703125,51.8499755859375,93.526611328125
1758878309.3064268,-0.79248046875,0.03955078125,0.59814453125,-6.591796875,0.30517578125,1.28173828125,3.3233642578125,51.85546875,93.548583984375
1758878309.3160567,-0.78662109375,0.0380859375,0.6015625,-4.2724609375,0.3662109375,0.91552734375,3.2904052734375,51.866455078125,93.5650634765625
1758878309.3262935,-0.78662109375,0.0380859375,0.6015625,-4.2724609375,0.3662109375,0.91552734375,3.262939453125,51.8719482421875,93.5760498046875
1758878309.335942,-0.78857421875,0.0419921875,0.61181640625,-4.69970703125,0.6103515625,0.79345703125,3.2354736328125,51.8829345703125,93.592529296875
1758878309.3456922,-0.78857421875,0.0419921875,0.61181640625,-4.69970703125,0.6103515625,0.79345703125,3.2080078125,51.8939208984375,93.603515625
1758878309.3565307,-0.78271484375,0.05224609375,0.615234375,-5.615234375,0.8544921875,0.79345703125,3.1695556640625,51.9049072265625,93.614501953125
1758878309.3661287,-0.78271484375,0.05224609375,0.615234375,-5.615234375,0.8544921875,0.79345703125,3.131103515625,51.92138671875,93.6309814453125
1758878309.376024,-0.80029296875,0.0419921875,0.58935546875,-3.84521484375,1.77001953125,0.67138671875,3.09814453125,51.9378662109375,93.6419677734375
