timestamp,acc_x,acc_y,acc_z,gyro_x,gyro_y,gyro_z,angle_x,angle_y,angle_z
1758181493.9077735,-0.54150390625,-0.02197265625,0.84228515625,-0.18310546875,-0.06103515625,0.18310546875,-1.669921875,32.7996826171875,-125.2056884765625
1758181493.9182086,-0.5390625,-0.0224609375,0.8408203125,-0.79345703125,-0.06103515625,0.18310546875,-1.6754150390625,32.7996826171875,-125.2056884765625
1758181493.933407,-0.5390625,-0.0224609375,0.8408203125,-0.79345703125,-0.06103515625,0.18310546875,-1.6864013671875,32.794189453125,-125.2056884765625
1758181493.9476867,-0.5380859375,-0.0234375,0.8408203125,0.244140625,-0.1220703125,0.1220703125,-1.680908203125,32.794189453125,-125.2056884765625
1758181493.9555533,-0.5380859375,-0.0234375,0.8408203125,0.244140625,-0.1220703125,0.1220703125,-1.6754150390625,32.794189453125,-125.2056884765625
1758181493.9629173,-0.54052734375,-0.02490234375,0.84228515625,0.30517578125,-0.1220703125,0.1220703125,-1.6754150390625,32.794189453125,-125.2001953125
1758181493.9702687,-0.54052734375,-0.02490234375,0.84228515625,0.30517578125,-0.1220703125,0.1220703125,-1.669921875,32.7886962890625,-125.2001953125
1758181493.9774153,-0.5439453125,-0.02783203125,0.8369140625,-0.244140625,-0.1220703125,0.18310546875,-1.669921875,32.7886962890625,-125.2001953125
1758181493.9849782,-0.5439453125,-0.02783203125,0.8369140625,-0.244140625,-0.1220703125,0.18310546875,-1.669921875,32.7886962890625,-125.2001953125
1758181493.9954958,-0.54931640625,-0.025390625,0.83984375,-0.244140625,0.0,0.1220703125,-1.6754150390625,32.7886962890625,-125.2001953125
1758181494.0049665,-0.54931640625,-0.025390625,0.83984375,-0.244140625,0.0,0.1220703125,-1.6754150390625,32.7886962890625,-125.2001953125
1758181494.01499,-0.54345703125,-0.0224609375,0.83447265625,0.42724609375,-0.06103515625,0.1220703125,-1.669921875,32.7886962890625,-125.1947021484375
1758181494.0250113,-0.54345703125,-0.0224609375,0.83447265625,0.42724609375,-0.06103515625,0.1220703125,-1.6644287109375,32.7886962890625,-125.1947021484375
1758181494.0349517,-0.53955078125,-0.0205078125,0.84130859375,0.06103515625,-0.18310546875,0.0,-1.6644287109375,32.7886962890625,-125.1947021484375
1758181494.0453684,-0.53955078125,-0.0205078125,0.84130859375,0.06103515625,-0.18310546875,0.0,-1.6644287109375,32.7886962890625,-125.1947021484375
1758181494.0547955,-0.5390625,-0.0263671875,0.84619140625,-0.42724609375,-0.1220703125,0.0,-1.669921875,32.783203125,-125.1947021484375
1758181494.0647657,-0.53857421875,-0.02783203125,0.837890625,0.42724609375,-0.1220703125,0.0,-1.669921875,32.783203125,-125.1947021484375
1758181494.0752857,-0.53857421875,-0.02783203125,0.837890625,0.42724609375,-0.1220703125,0.0,-1.6644287109375,32.783203125,-125.1947021484375
1758181494.0851378,-0.53955078125,-0.021484375,0.84130859375,0.54931640625,-0.18310546875,-0.1220703125,-1.658935546875,32.783203125,-125.2001953125
1758181494.094847,-0.53955078125,-0.021484375,0.84130859375,0.54931640625,-0.18310546875,-0.1220703125,-1.6534423828125,32.7777099609375,-125.2001953125
1758181494.1048574,-0.53955078125,-0.0224609375,0.84521484375,-0.18310546875,-0.1220703125,-0.06103515625,-1.6534423828125,32.7777099609375,-125.2001953125
1758181494.114884,-0.53955078125,-0.0224609375,0.84521484375,-0.18310546875,-0.1220703125,-0.06103515625,-1.6534423828125,32.7777099609375,-125.2001953125
1758181494.1248493,-0.54052734375,-0.0283203125,0.83837890625,0.06103515625,-0.18310546875,0.0,-1.658935546875,32.7777099609375,-125.2001953125
1758181494.1348648,-0.54052734375,-0.0283203125,0.83837890625,0.06103515625,-0.18310546875,0.0,-1.6534423828125,32.772216796875,-125.2001953125
1758181494.144889,-0.54638671875,-0.025390625,0.837890625,0.42724609375,-0.244140625,0.0,-1.6534423828125,32.772216796875,-125.2001953125
1758181494.154889,-0.54638671875,-0.025390625,0.837890625,0.42724609375,-0.244140625,0.0,-1.64794921875,32.7667236328125,-125.2001953125
1758181494.1648993,-0.54345703125,-0.02294921875,0.84130859375,-0.244140625,-0.1220703125,0.0,-1.64794921875,32.7667236328125,-125.2001953125
1758181494.1749616,-0.54345703125,-0.02294921875,0.84130859375,-0.244140625,-0.1220703125,0.0,-1.6534423828125,32.7667236328125,-125.2001953125
1758181494.1849325,-0.5390625,-0.0244140625,0.84033203125,-0.30517578125,-0.1220703125,0.0,-1.6534423828125,32.7667236328125,-125.2001953125
1758181494.1949434,-0.5390625,-0.0244140625,0.84033203125,-0.30517578125,-0.1220703125,0.0,-1.658935546875,32.76123046875,-125.2001953125
1758181494.2049592,-0.53857421875,-0.0244140625,0.84375,0.18310546875,-0.1220703125,0.0,-1.658935546875,32.76123046875,-125.2056884765625
1758181494.2149682,-0.53857421875,-0.0244140625,0.84375,0.18310546875,-0.1220703125,0.0,-1.6534423828125,32.76123046875,-125.2056884765625
1758181494.2250051,-0.5380859375,-0.02490234375,0.841796875,0.30517578125,-0.06103515625,0.0,-1.6534423828125,32.76123046875,-125.2056884765625
1758181494.2350304,-0.5380859375,-0.02490234375,0.841796875,0.30517578125,-0.06103515625,0.0,-1.6534423828125,32.76123046875,-125.2056884765625
1758181494.245036,-0.53857421875,-0.02587890625,0.841796875,0.0,-0.1220703125,0.0,-1.64794921875,32.7557373046875,-125.2056884765625
1758181494.2550519,-0.53857421875,-0.02587890625,0.841796875,0.0,-0.1220703125,0.0,-1.64794921875,32.7557373046875,-125.2056884765625
1758181494.2650614,-0.54150390625,-0.025390625,0.84033203125,-0.30517578125,-0.18310546875,0.0,-1.6534423828125,32.7557373046875,-125.211181640625
1758181494.2750742,-0.54150390625,-0.025390625,0.84033203125,-0.30517578125,-0.18310546875,0.0,-1.6534423828125,32.750244140625,-125.211181640625
1758181494.2850952,-0.54296875,-0.0244140625,0.83642578125,-0.06103515625,-0.244140625,0.30517578125,-1.6534423828125,32.750244140625,-125.2056884765625
1758181494.2951088,-0.54296875,-0.0244140625,0.83642578125,-0.06103515625,-0.244140625,0.30517578125,-1.6534423828125,32.750244140625,-125.2056884765625
1758181494.30512,-0.54248046875,-0.02490234375,0.8427734375,-0.244140625,-0.18310546875,0.42724609375,-1.6534423828125,32.7447509765625,-125.2001953125
1758181494.3151271,-0.54248046875,-0.02490234375,0.8427734375,-0.244140625,-0.18310546875,0.42724609375,-1.6534423828125,32.7447509765625,-125.1947021484375
1758181494.325136,-0.5390625,-0.0263671875,0.84228515625,-0.67138671875,-0.1220703125,0.42724609375,-1.6534423828125,32.7447509765625,-125.1947021484375
1758181494.3351626,-0.5390625,-0.0263671875,0.84228515625,-0.67138671875,-0.1220703125,0.42724609375,-1.658935546875,32.7392578125,-125.189208984375
1758181494.3451672,-0.537109375,-0.0234375,0.84375,-0.30517578125,-0.06103515625,0.3662109375,-1.6644287109375,32.7392578125,-125.1837158203125
1758181494.3551743,-0.537109375,-0.0234375,0.84375,-0.30517578125,-0.06103515625,0.3662109375,-1.6644287109375,32.7392578125,-125.1837158203125
1758181494.3651786,-0.537109375,-0.02197265625,0.84228515625,0.244140625,0.0,0.3662109375,-1.658935546875,32.7392578125,-125.17822265625
1758181494.375196,-0.537109375,-0.02197265625,0.84228515625,0.244140625,0.0,0.3662109375,-1.658935546875,32.7392578125,-125.1727294921875
1758181494.3852043,-0.537109375,-0.0234375,0.84375,0.0,0.0,0.3662109375,-1.6534423828125,32.7392578125,-125.167236328125
1758181494.39522,-0.537109375,-0.0234375,0.84375,0.0,0.0,0.3662109375,-1.64794921875,32.7392578125,-125.167236328125
1758181494.4052756,-0.53759765625,-0.02734375,0.84326171875,-0.8544921875,0.06103515625,0.3662109375,-1.6534423828125,32.7392578125,-125.1617431640625
1758181494.4152908,-0.53759765625,-0.02734375,0.84326171875,-0.8544921875,0.06103515625,0.3662109375,-1.658935546875,32.7392578125,-125.15625
1758181494.4252784,-0.53369140625,-0.02587890625,0.84619140625,-0.6103515625,0.30517578125,0.18310546875,-1.6644287109375,32.7392578125,-125.15625
1758181494.4355938,-0.53369140625,-0.02587890625,0.84619140625,-0.6103515625,0.30517578125,0.18310546875,-1.669921875,32.7392578125,-125.1507568359375
1758181494.445427,-0.53076171875,-0.0185546875,0.84814453125,0.3662109375,0.3662109375,0.06103515625,-1.669921875,32.7447509765625,-125.1507568359375
1758181494.4555793,-0.53076171875,-0.0185546875,0.84814453125,0.3662109375,0.3662109375,0.06103515625,-1.6644287109375,32.7447509765625,-125.1507568359375
1758181494.465417,-0.529296875,-0.02197265625,0.84716796875,0.54931640625,0.3662109375,0.0,-1.658935546875,32.7447509765625,-125.1507568359375
1758181494.4756446,-0.529296875,-0.02197265625,0.84716796875,0.54931640625,0.3662109375,0.0,-1.6534423828125,32.750244140625,-125.1507568359375
1758181494.4853992,-0.529296875,-0.02197265625,0.84716796875,-0.06103515625,0.244140625,0.0,-1.6534423828125,32.750244140625,-125.15625
1758181494.49675,-0.52490234375,-0.02587890625,0.84765625,-0.06103515625,0.244140625,0.0,-1.6534423828125,32.750244140625,-125.15625
1758181494.5073397,-0.52978515625,-0.02294921875,0.85546875,-1.3427734375,0.18310546875,-0.06103515625,-1.658935546875,32.7447509765625,-125.1617431640625
1758181494.5157125,-0.52978515625,-0.02294921875,0.85546875,-1.3427734375,0.18310546875,-0.06103515625,-1.6754150390625,32.7447509765625,-125.1617431640625
1758181494.5257416,-0.52294921875,-0.01708984375,0.85693359375,-1.3427734375,0.18310546875,-0.06103515625,-1.6864013671875,32.7447509765625,-125.167236328125
1758181494.5356808,-0.52294921875,-0.01708984375,0.85693359375,-1.3427734375,0.18310546875,-0.06103515625,-1.6973876953125,32.7392578125,-125.167236328125
1758181494.5468187,-0.51611328125,-0.0341796875,0.85693359375,-0.3662109375,0.1220703125,-0.18310546875,-1.7083740234375,32.7392578125,-125.1727294921875
1758181494.5556693,-0.51611328125,-0.0341796875,0.85693359375,-0.3662109375,0.1220703125,-0.18310546875,-1.7138671875,32.7337646484375,-125.17822265625
1758181494.5657084,-0.52197265625,-0.03076171875,0.85400390625,0.1220703125,0.244140625,-0.244140625,-1.7138671875,32.728271484375,-125.1837158203125
1758181494.5762942,-0.52197265625,-0.03076171875,0.85400390625,0.1220703125,0.244140625,-0.244140625,-1.7138671875,32.728271484375,-125.1947021484375
1758181494.5859215,-0.52734375,-0.02490234375,0.853515625,0.67138671875,0.42724609375,-0.3662109375,-1.7138671875,32.7227783203125,-125.2001953125
1758181494.595657,-0.52734375,-0.02490234375,0.853515625,0.67138671875,0.42724609375,-0.3662109375,-1.7083740234375,32.7227783203125,-125.211181640625
1758181494.6060867,-0.52490234375,-0.02197265625,0.8447265625,0.6103515625,0.48828125,-0.3662109375,-1.702880859375,32.7227783203125,-125.2166748046875
1758181494.6163907,-0.52490234375,-0.02197265625,0.8447265625,0.6103515625,0.48828125,-0.3662109375,-1.702880859375,32.7227783203125,-125.2276611328125
1758181494.6256783,-0.53076171875,-0.0234375,0.8515625,0.18310546875,0.42724609375,-0.244140625,-1.6973876953125,32.71728515625,-125.233154296875
1758181494.6358435,-0.53076171875,-0.0234375,0.8515625,0.18310546875,0.42724609375,-0.244140625,-1.6973876953125,32.71728515625,-125.2386474609375
1758181494.6469665,-0.52734375,-0.03076171875,0.8505859375,0.0,0.48828125,-0.06103515625,-1.6973876953125,32.71728515625,-125.244140625
1758181494.655696,-0.52734375,-0.03076171875,0.8505859375,0.0,0.48828125,-0.06103515625,-1.6973876953125,32.71728515625,-125.244140625
1758181494.6658044,-0.53564453125,-0.0302734375,0.8466796875,0.244140625,0.732421875,-0.06103515625,-1.6973876953125,32.71728515625,-125.2496337890625
1758181494.6766813,-0.53564453125,-0.0302734375,0.8466796875,0.244140625,0.732421875,-0.06103515625,-1.6973876953125,32.71728515625,-125.255126953125
1758181494.6857512,-0.54296875,-0.02490234375,0.8369140625,0.54931640625,0.79345703125,0.0,-1.69189453125,32.7227783203125,-125.2606201171875
1758181494.6961443,-0.54296875,-0.02490234375,0.8369140625,0.54931640625,0.79345703125,0.0,-1.69189453125,32.7227783203125,-125.26611328125
1758181494.7067404,-0.53955078125,-0.02001953125,0.8369140625,0.30517578125,0.732421875,0.0,-1.6864013671875,32.728271484375,-125.26611328125
1758181494.7157283,-0.53955078125,-0.02001953125,0.8369140625,0.30517578125,0.732421875,0.0,-1.680908203125,32.7337646484375,-125.2716064453125
1758181494.7267222,-0.53515625,-0.0185546875,0.84375,-0.54931640625,0.54931640625,0.0,-1.6864013671875,32.7337646484375,-125.2716064453125
1758181494.7363145,-0.53515625,-0.0185546875,0.84375,-0.54931640625,0.54931640625,0.0,-1.69189453125,32.7392578125,-125.277099609375
1758181494.7458787,-0.53955078125,-0.029296875,0.85205078125,-1.03759765625,0.48828125,0.1220703125,-1.6973876953125,32.7392578125,-125.277099609375
1758181494.7561224,-0.53955078125,-0.029296875,0.85205078125,-1.03759765625,0.48828125,0.1220703125,-1.7083740234375,32.7447509765625,-125.277099609375
1758181494.7670534,-0.54296875,-0.0361328125,0.83447265625,-0.3662109375,0.54931640625,0.18310546875,-1.7138671875,32.7447509765625,-125.277099609375
1758181494.775883,-0.54296875,-0.0361328125,0.83447265625,-0.3662109375,0.54931640625,0.18310546875,-1.7138671875,32.750244140625,-125.277099609375
1758181494.786253,-0.54833984375,-0.02490234375,0.830078125,0.54931640625,0.48828125,0.0,-1.7138671875,32.750244140625,-125.277099609375
1758181494.7969306,-0.54833984375,-0.02490234375,0.830078125,0.54931640625,0.48828125,0.0,-1.7083740234375,32.7557373046875,-125.277099609375
1758181494.8068254,-0.54833984375,-0.01806640625,0.83837890625,0.67138671875,0.6103515625,-0.1220703125,-1.702880859375,32.76123046875,-125.2825927734375
1758181494.8159344,-0.54833984375,-0.01806640625,0.83837890625,0.67138671875,0.6103515625,-0.1220703125,-1.6973876953125,32.7667236328125,-125.2825927734375
1758181494.8269305,-0.55078125,-0.021484375,0.8330078125,0.3662109375,0.6103515625,-0.1220703125,-1.6973876953125,32.772216796875,-125.2825927734375
1758181494.836618,-0.55078125,-0.021484375,0.8330078125,0.3662109375,0.6103515625,-0.1220703125,-1.69189453125,32.7777099609375,-125.2880859375
1758181494.846202,-0.546875,-0.0263671875,0.8369140625,-0.1220703125,0.48828125,-0.1220703125,-1.69189453125,32.783203125,-125.2880859375
1758181494.856034,-0.546875,-0.0263671875,0.8369140625,-0.1220703125,0.48828125,-0.1220703125,-1.69189453125,32.7886962890625,-125.2880859375
1758181494.8673053,-0.54931640625,-0.02978515625,0.83935546875,0.0,0.48828125,-0.1220703125,-1.6973876953125,32.794189453125,-125.2935791015625
1758181494.876075,-0.54931640625,-0.02978515625,0.83935546875,0.0,0.48828125,-0.1220703125,-1.6973876953125,32.7996826171875,-125.2935791015625
1758181494.8869095,-0.552734375,-0.02587890625,0.82666015625,1.03759765625,0.48828125,-0.244140625,-1.69189453125,32.80517578125,-125.2935791015625
1758181494.8963916,-0.552734375,-0.02587890625,0.82666015625,1.03759765625,0.48828125,-0.244140625,-1.6864013671875,32.8106689453125,-125.299072265625
1758181494.906633,-0.55517578125,-0.021484375,0.83056640625,2.0751953125,0.244140625,-0.30517578125,-1.669921875,32.816162109375,-125.3045654296875
1758181494.9162357,-0.55517578125,-0.021484375,0.83056640625,2.0751953125,0.244140625,-0.30517578125,-1.6534423828125,32.8216552734375,-125.3045654296875
1758181494.9269795,-0.55322265625,-0.02099609375,0.8359375,1.03759765625,0.30517578125,-0.18310546875,-1.6424560546875,32.8271484375,-125.31005859375
1758181494.9363666,-0.55322265625,-0.02099609375,0.8359375,1.03759765625,0.30517578125,-0.18310546875,-1.6314697265625,32.8326416015625,-125.31005859375
1758181494.946714,-0.548828125,-0.02587890625,0.83349609375,-0.244140625,0.244140625,-0.06103515625,-1.6259765625,32.838134765625,-125.31005859375
1758181494.9561734,-0.548828125,-0.02587890625,0.83349609375,-0.244140625,0.244140625,-0.06103515625,-1.6314697265625,32.8436279296875,-125.31005859375
1758181494.9676182,-0.54931640625,-0.0263671875,0.83642578125,-0.1220703125,0.1220703125,-0.06103515625,-1.6314697265625,32.84912109375,-125.31005859375
1758181494.976135,-0.54931640625,-0.0263671875,0.83642578125,-0.1220703125,0.1220703125,-0.06103515625,-1.636962890625,32.84912109375,-125.31005859375
1758181494.9870121,-0.5498046875,-0.0234375,0.83447265625,0.48828125,0.244140625,-0.06103515625,-1.636962890625,32.8546142578125,-125.31005859375
1758181494.996461,-0.5498046875,-0.0234375,0.83447265625,0.48828125,0.244140625,-0.06103515625,-1.6314697265625,32.860107421875,-125.31005859375
1758181495.0067465,-0.54931640625,-0.02099609375,0.833984375,0.79345703125,0.244140625,-0.1220703125,-1.6259765625,32.8656005859375,-125.31005859375
1758181495.0163028,-0.54931640625,-0.02099609375,0.833984375,0.79345703125,0.244140625,-0.1220703125,-1.6204833984375,32.87109375,-125.3155517578125
1758181495.0270836,-0.54541015625,-0.01953125,0.8408203125,0.1220703125,0.3662109375,-0.06103515625,-1.614990234375,32.8765869140625,-125.3155517578125
1758181495.03655,-0.54541015625,-0.01953125,0.8408203125,0.1220703125,0.3662109375,-0.06103515625,-1.614990234375,32.882080078125,-125.31005859375
1758181495.0462563,-0.54248046875,-0.02587890625,0.8388671875,0.0,0.3662109375,-0.06103515625,-1.614990234375,32.8875732421875,-125.31005859375
1758181495.0561187,-0.54248046875,-0.02587890625,0.8388671875,0.0,0.3662109375,-0.06103515625,-1.614990234375,32.89306640625,-125.3155517578125
1758181495.068535,-0.544921875,-0.02587890625,0.83447265625,0.67138671875,0.244140625,-0.06103515625,-1.6094970703125,32.8985595703125,-125.3155517578125
1758181495.0763264,-0.544921875,-0.02587890625,0.83447265625,0.67138671875,0.244140625,-0.06103515625,-1.60400390625,32.904052734375,-125.3155517578125
1758181495.086974,-0.548828125,-0.01806640625,0.837890625,0.06103515625,0.1220703125,0.0,-1.60400390625,32.904052734375,-125.3155517578125
1758181495.0969775,-0.548828125,-0.01806640625,0.837890625,0.06103515625,0.1220703125,0.0,-1.60400390625,32.9095458984375,-125.3155517578125
1758181495.1067443,-0.54150390625,-0.009765625,0.8310546875,-1.3427734375,0.244140625,0.30517578125,-1.614990234375,32.9095458984375,-125.31005859375
1758181495.116436,-0.54150390625,-0.009765625,0.8310546875,-1.3427734375,0.244140625,0.30517578125,-1.6259765625,32.9150390625,-125.31005859375
1758181495.1261997,-0.55029296875,-0.0263671875,0.84033203125,-1.220703125,0.244140625,0.06103515625,-1.636962890625,32.9205322265625,-125.3045654296875
1758181495.1371005,-0.55029296875,-0.0263671875,0.84033203125,-1.220703125,0.244140625,0.06103515625,-1.64794921875,32.926025390625,-125.3045654296875
1758181495.1463065,-0.5400390625,-0.025390625,0.8447265625,-0.67138671875,0.30517578125,0.06103515625,-1.6534423828125,32.926025390625,-125.3045654296875
1758181495.1569033,-0.5400390625,-0.025390625,0.8447265625,-0.67138671875,0.30517578125,0.06103515625,-1.658935546875,32.9315185546875,-125.3045654296875
1758181495.1675081,-0.54052734375,-0.0244140625,0.83740234375,-0.06103515625,0.244140625,0.0,-1.658935546875,32.93701171875,-125.3045654296875
1758181495.1764684,-0.54052734375,-0.0244140625,0.83740234375,-0.06103515625,0.244140625,0.0,-1.658935546875,32.93701171875,-125.31005859375
1758181495.1870115,-0.544921875,-0.02587890625,0.83740234375,-0.42724609375,0.18310546875,0.0,-1.658935546875,32.9425048828125,-125.31005859375
1758181495.1973207,-0.544921875,-0.02587890625,0.83740234375,-0.42724609375,0.18310546875,0.0,-1.6644287109375,32.9425048828125,-125.31005859375
1758181495.2068596,-0.541015625,-0.02294921875,0.841796875,-0.79345703125,0.244140625,0.0,-1.669921875,32.947998046875,-125.3155517578125
1758181495.216554,-0.541015625,-0.02294921875,0.841796875,-0.79345703125,0.244140625,0.0,-1.680908203125,32.947998046875,-125.3155517578125
1758181495.226288,-0.5419921875,-0.02734375,0.84521484375,-0.67138671875,0.3662109375,0.0,-1.6864013671875,32.9534912109375,-125.3155517578125
1758181495.2370632,-0.5419921875,-0.02734375,0.84521484375,-0.67138671875,0.3662109375,0.0,-1.69189453125,32.9534912109375,-125.321044921875
1758181495.2467406,-0.53759765625,-0.0263671875,0.84375,-0.54931640625,0.3662109375,0.0,-1.6973876953125,32.958984375,-125.321044921875
1758181495.2569366,-0.53759765625,-0.0263671875,0.84375,-0.54931640625,0.3662109375,0.0,-1.702880859375,32.958984375,-125.3265380859375
1758181495.2674544,-0.5400390625,-0.02685546875,0.83984375,0.0,0.3662109375,-0.1220703125,-1.702880859375,32.9644775390625,-125.33203125
1758181495.276537,-0.5400390625,-0.02685546875,0.83984375,0.0,0.3662109375,-0.1220703125,-1.702880859375,32.9644775390625,-125.3375244140625
1758181495.2869399,-0.53662109375,-0.025390625,0.83837890625,0.48828125,0.18310546875,-0.18310546875,-1.6973876953125,32.9644775390625,-125.343017578125
1758181495.296849,-0.53662109375,-0.025390625,0.83837890625,0.48828125,0.18310546875,-0.18310546875,-1.6973876953125,32.969970703125,-125.3485107421875
1758181495.3068652,-0.53466796875,-0.02001953125,0.8466796875,0.0,0.244140625,-0.18310546875,-1.6973876953125,32.969970703125,-125.35400390625
1758181495.3169029,-0.53466796875,-0.02001953125,0.8466796875,0.0,0.244140625,-0.18310546875,-1.6973876953125,32.969970703125,-125.3594970703125
1758181495.3268802,-0.537109375,-0.0244140625,0.84375,-0.1220703125,0.18310546875,-0.244140625,-1.702880859375,32.969970703125,-125.364990234375
1758181495.3373022,-0.537109375,-0.0244140625,0.84375,-0.1220703125,0.18310546875,-0.244140625,-1.702880859375,32.969970703125,-125.3704833984375
1758181495.3468654,-0.541015625,-0.02880859375,0.84130859375,-0.244140625,0.244140625,-0.244140625,-1.7083740234375,32.969970703125,-125.3759765625
1758181495.3573606,-0.541015625,-0.02880859375,0.84130859375,-0.244140625,0.244140625,-0.244140625,-1.7083740234375,32.969970703125,-125.3814697265625
1758181495.3674452,-0.54248046875,-0.0283203125,0.8369140625,0.48828125,0.244140625,-0.30517578125,-1.7083740234375,32.969970703125,-125.386962890625
1758181495.3769076,-0.54248046875,-0.0283203125,0.8369140625,0.48828125,0.244140625,-0.30517578125,-1.702880859375,32.969970703125,-125.39794921875
1758181495.3870203,-0.54052734375,-0.0234375,0.8388671875,0.9765625,0.244140625,-0.3662109375,-1.6973876953125,32.969970703125,-125.4034423828125
1758181495.3977692,-0.54052734375,-0.0234375,0.8388671875,0.9765625,0.244140625,-0.3662109375,-1.69189453125,32.9754638671875,-125.408935546875
1758181495.4079802,-0.54296875,-0.021484375,0.84228515625,0.30517578125,0.244140625,-0.30517578125,-1.69189453125,32.9754638671875,-125.4144287109375
1758181495.4166512,-0.54296875,-0.021484375,0.84228515625,0.30517578125,0.244140625,-0.30517578125,-1.69189453125,32.9754638671875,-125.4254150390625
1758181495.430874,-0.54150390625,-0.02880859375,0.83203125,-0.30517578125,0.18310546875,-0.30517578125,-1.69189453125,32.9754638671875,-125.430908203125
1758181495.4391084,-0.54150390625,-0.02880859375,0.83203125,-0.30517578125,0.18310546875,-0.30517578125,-1.6973876953125,32.9754638671875,-125.4364013671875
1758181495.4470263,-0.5390625,-0.017578125,0.83984375,-0.91552734375,0.1220703125,-0.30517578125,-1.7083740234375,32.9754638671875,-125.44189453125
1758181495.4575112,-0.5390625,-0.017578125,0.83984375,-0.91552734375,0.1220703125,-0.30517578125,-1.7193603515625,32.9754638671875,-125.452880859375
1758181495.4675167,-0.54052734375,-0.013671875,0.84619140625,-1.15966796875,0.1220703125,-0.1220703125,-1.7303466796875,32.9754638671875,-125.452880859375
1758181495.4769764,-0.54052734375,-0.013671875,0.84619140625,-1.15966796875,0.1220703125,-0.1220703125,-1.7413330078125,32.9754638671875,-125.4583740234375
1758181495.4873812,-0.54052734375,-0.013671875,0.84619140625,-0.6103515625,0.0,-0.1220703125,-1.746826171875,32.9754638671875,-125.4583740234375
1758181495.49806,-0.53271484375,-0.025390625,0.83740234375,-0.6103515625,0.0,-0.1220703125,-1.7523193359375,32.969970703125,-125.4638671875
1758181495.5071175,-0.5380859375,-0.04248046875,0.8486328125,0.3662109375,0.06103515625,-0.48828125,-1.7523193359375,32.969970703125,-125.474853515625
1758181495.517282,-0.5380859375,-0.04248046875,0.8486328125,0.3662109375,0.06103515625,-0.48828125,-1.7523193359375,32.969970703125,-125.4803466796875
1758181495.5271351,-0.53515625,-0.03515625,0.83837890625,0.79345703125,0.244140625,-0.54931640625,-1.746826171875,32.969970703125,-125.496826171875
1758181495.537304,-0.53515625,-0.03515625,0.83837890625,0.79345703125,0.244140625,-0.54931640625,-1.746826171875,32.969970703125,-125.5078125
1758181495.547183,-0.53662109375,-0.02099609375,0.84619140625,-1.0986328125,0.06103515625,-0.42724609375,-1.7578125,32.969970703125,-125.518798828125
1758181495.5570598,-0.53662109375,-0.02099609375,0.84619140625,-1.0986328125,0.06103515625,-0.42724609375,-1.7742919921875,32.9644775390625,-125.52978515625
1758181495.5676146,-0.541015625,-0.029296875,0.8447265625,-2.685546875,0.1220703125,-0.3662109375,-1.8017578125,32.9644775390625,-125.5352783203125
1758181495.5769222,-0.541015625,-0.029296875,0.8447265625,-2.685546875,0.1220703125,-0.3662109375,-1.834716796875,32.9644775390625,-125.5462646484375
1758181495.5868602,-0.541015625,-0.02587890625,0.83447265625,-1.28173828125,0.1220703125,-0.48828125,-1.8511962890625,32.958984375,-125.5572509765625
1758181495.5976465,-0.541015625,-0.02587890625,0.83447265625,-1.28173828125,0.1220703125,-0.48828125,-1.86767578125,32.958984375,-125.5682373046875
1758181495.607325,-0.5390625,-0.02392578125,0.84375,0.79345703125,0.1220703125,-0.6103515625,-1.8621826171875,32.958984375,-125.5792236328125
1758181495.6172278,-0.5390625,-0.02392578125,0.84375,0.79345703125,0.1220703125,-0.6103515625,-1.856689453125,32.958984375,-125.595703125
1758181495.6272194,-0.5361328125,-0.02392578125,0.8408203125,0.9765625,0.244140625,-0.6103515625,-1.8511962890625,32.958984375,-125.606689453125
1758181495.6377978,-0.5361328125,-0.02392578125,0.8408203125,0.9765625,0.244140625,-0.6103515625,-1.845703125,32.958984375,-125.61767578125
1758181495.6472912,-0.5419921875,-0.029296875,0.84423828125,0.42724609375,0.1220703125,-0.48828125,-1.8402099609375,32.958984375,-125.628662109375
1758181495.65753,-0.5419921875,-0.029296875,0.84423828125,0.42724609375,0.1220703125,-0.48828125,-1.8402099609375,32.958984375,-125.6396484375
1758181495.6676774,-0.54150390625,-0.0302734375,0.8427734375,-0.06103515625,0.06103515625,-0.30517578125,-1.845703125,32.9534912109375,-125.650634765625
1758181495.6769924,-0.54150390625,-0.0302734375,0.8427734375,-0.06103515625,0.06103515625,-0.30517578125,-1.845703125,32.9534912109375,-125.6561279296875
1758181495.687498,-0.54345703125,-0.03466796875,0.83935546875,0.06103515625,0.1220703125,-0.30517578125,-1.845703125,32.9534912109375,-125.6671142578125
1758181495.6994903,-0.54345703125,-0.03466796875,0.83935546875,0.06103515625,0.1220703125,-0.30517578125,-1.8511962890625,32.9534912109375,-125.672607421875
1758181495.708276,-0.54833984375,-0.0263671875,0.8388671875,0.6103515625,0.30517578125,-0.3662109375,-1.845703125,32.9534912109375,-125.68359375
1758181495.71764,-0.54833984375,-0.0263671875,0.8388671875,0.6103515625,0.30517578125,-0.3662109375,-1.845703125,32.9534912109375,-125.694580078125
1758181495.7333863,-0.5478515625,-0.0263671875,0.8369140625,1.40380859375,0.30517578125,-0.42724609375,-1.834716796875,32.958984375,-125.70556640625
1758181495.740069,-0.5478515625,-0.0263671875,0.8369140625,1.40380859375,0.30517578125,-0.42724609375,-1.82373046875,32.958984375,-125.7110595703125
1758181495.7470717,-0.548828125,-0.02392578125,0.8388671875,1.77001953125,0.30517578125,-0.42724609375,-1.8072509765625,32.9644775390625,-125.7220458984375
1758181495.7570941,-0.548828125,-0.02392578125,0.8388671875,1.77001953125,0.30517578125,-0.42724609375,-1.790771484375,32.9644775390625,-125.7330322265625
1758181495.7704735,-0.544921875,-0.0263671875,0.8310546875,1.46484375,0.1220703125,-0.30517578125,-1.77978515625,32.9644775390625,-125.738525390625
1758181495.7771738,-0.544921875,-0.0263671875,0.8310546875,1.46484375,0.1220703125,-0.30517578125,-1.768798828125,32.969970703125,-125.74951171875
1758181495.7871225,-0.5458984375,-0.03076171875,0.8408203125,0.30517578125,-0.06103515625,-0.1220703125,-1.768798828125,32.9644775390625,-125.7550048828125
1758181495.803178,-0.5458984375,-0.03076171875,0.8408203125,0.30517578125,-0.06103515625,-0.1220703125,-1.7633056640625,32.9644775390625,-125.760498046875
1758181495.8097267,-0.548828125,-0.03515625,0.83740234375,0.18310546875,0.0,-0.1220703125,-1.7633056640625,32.9644775390625,-125.771484375
1758181495.8171253,-0.548828125,-0.03515625,0.83740234375,0.18310546875,0.0,-0.1220703125,-1.7633056640625,32.9644775390625,-125.7769775390625
1758181495.833396,-0.55078125,-0.0244140625,0.82861328125,2.3193359375,0.0,-0.244140625,-1.746826171875,32.9644775390625,-125.7879638671875
1758181495.839496,-0.55078125,-0.0244140625,0.82861328125,2.3193359375,0.0,-0.244140625,-1.724853515625,32.969970703125,-125.79345703125
1758181495.8471282,-0.5498046875,-0.017578125,0.83642578125,3.84521484375,0.0,-0.30517578125,-1.69189453125,32.969970703125,-125.804443359375
1758181495.8575017,-0.5498046875,-0.017578125,0.83642578125,3.84521484375,0.0,-0.30517578125,-1.6534423828125,32.969970703125,-125.8099365234375
1758181495.868887,-0.5517578125,-0.0244140625,0.8369140625,3.90625,0.1220703125,-0.244140625,-1.614990234375,32.969970703125,-125.8209228515625
1758181495.8771794,-0.5517578125,-0.0244140625,0.8369140625,3.90625,0.1220703125,-0.244140625,-1.58203125,32.9754638671875,-125.826416015625
1758181495.8872526,-0.54931640625,-0.03173828125,0.8359375,3.47900390625,0.06103515625,-0.18310546875,-1.549072265625,32.9754638671875,-125.8319091796875
1758181495.8976967,-0.54931640625,-0.03173828125,0.8359375,3.47900390625,0.06103515625,-0.18310546875,-1.51611328125,32.98095703125,-125.83740234375
1758181495.9073389,-0.5478515625,-0.03125,0.8388671875,4.21142578125,0.06103515625,-0.244140625,-1.4776611328125,32.98095703125,-125.848388671875
1758181495.9172645,-0.5478515625,-0.03125,0.8388671875,4.21142578125,0.06103515625,-0.244140625,-1.439208984375,32.98095703125,-125.859375
1758181495.9274175,-0.55126953125,-0.01953125,0.8349609375,4.94384765625,0.1220703125,-0.244140625,-1.395263671875,32.9864501953125,-125.8648681640625
1758181495.9374192,-0.55126953125,-0.01953125,0.8349609375,4.94384765625,0.1220703125,-0.244140625,-1.351318359375,32.9864501953125,-125.8758544921875
1758181495.9474041,-0.55419921875,-0.01025390625,0.83154296875,3.35693359375,0.1220703125,-0.06103515625,-1.318359375,32.991943359375,-125.88134765625
1758181495.9572296,-0.55419921875,-0.01025390625,0.83154296875,3.35693359375,0.1220703125,-0.06103515625,-1.2908935546875,32.991943359375,-125.8868408203125
1758181495.9676373,-0.55810546875,-0.01806640625,0.83056640625,1.5869140625,0.1220703125,-0.06103515625,-1.2744140625,32.9974365234375,-125.892333984375
1758181495.977344,-0.55810546875,-0.01806640625,0.83056640625,1.5869140625,0.1220703125,-0.06103515625,-1.263427734375,33.0029296875,-125.8978271484375
1758181495.987336,-0.5576171875,-0.02001953125,0.82958984375,2.50244140625,0.18310546875,-0.06103515625,-1.2359619140625,33.0029296875,-125.9033203125
1758181495.997804,-0.5576171875,-0.02001953125,0.82958984375,2.50244140625,0.18310546875,-0.06103515625,-1.2139892578125,33.0084228515625,-125.9088134765625
1758181496.007351,-0.5537109375,-0.01806640625,0.83544921875,3.173828125,0.244140625,-0.06103515625,-1.1865234375,33.013916015625,-125.914306640625
1758181496.017394,-0.5537109375,-0.01806640625,0.83544921875,3.173828125,0.244140625,-0.06103515625,-1.153564453125,33.0194091796875,-125.9197998046875
1758181496.0273802,-0.552734375,-0.0146484375,0.83447265625,2.50244140625,0.30517578125,0.0,-1.131591796875,33.02490234375,-125.92529296875
1758181496.0374198,-0.552734375,-0.0146484375,0.83447265625,2.50244140625,0.30517578125,0.0,-1.109619140625,33.035888671875,-125.9307861328125
1758181496.0473657,-0.5498046875,-0.0146484375,0.83740234375,1.52587890625,0.1220703125,0.1220703125,-1.0931396484375,33.035888671875,-125.936279296875
1758181496.057368,-0.5498046875,-0.0146484375,0.83740234375,1.52587890625,0.1220703125,0.1220703125,-1.0821533203125,33.0413818359375,-125.9417724609375
1758181496.0676205,-0.5478515625,-0.01513671875,0.84326171875,0.3662109375,0.30517578125,0.18310546875,-1.07666015625,33.046875,-125.9417724609375
1758181496.0773876,-0.5478515625,-0.01513671875,0.84326171875,0.3662109375,0.30517578125,0.18310546875,-1.0711669921875,33.0523681640625,-125.947265625
1758181496.0874426,-0.54736328125,-0.015625,0.83251953125,0.6103515625,0.3662109375,0.244140625,-1.065673828125,33.057861328125,-125.947265625
1758181496.09774,-0.5419921875,-0.01025390625,0.84228515625,1.03759765625,0.30517578125,0.18310546875,-1.0546875,33.0633544921875,-125.9527587890625
1758181496.1075401,-0.5419921875,-0.01025390625,0.84228515625,1.03759765625,0.30517578125,0.18310546875,-1.043701171875,33.06884765625,-125.958251953125
1758181496.1174853,-0.53173828125,-0.01953125,0.84619140625,1.03759765625,0.244140625,0.06103515625,-1.03271484375,33.06884765625,-125.9637451171875
1758181496.1277592,-0.53173828125,-0.01953125,0.84619140625,1.03759765625,0.244140625,0.06103515625,-1.0272216796875,33.0743408203125,-125.96923828125
1758181496.1375947,-0.53466796875,-0.01708984375,0.8427734375,0.732421875,0.244140625,0.1220703125,-1.0162353515625,33.0743408203125,-125.9747314453125
1758181496.1478362,-0.53466796875,-0.01708984375,0.8427734375,0.732421875,0.244140625,0.1220703125,-1.0107421875,33.079833984375,-125.980224609375
1758181496.1575732,-0.53369140625,-0.0146484375,0.84619140625,-0.3662109375,0.06103515625,0.244140625,-1.0052490234375,33.079833984375,-125.9857177734375
1758181496.1678114,-0.53369140625,-0.0146484375,0.84619140625,-0.3662109375,0.06103515625,0.244140625,-1.0107421875,33.079833984375,-125.9912109375
1758181496.17753,-0.52978515625,-0.00927734375,0.85546875,-2.50244140625,0.18310546875,0.30517578125,-1.021728515625,33.079833984375,-125.9967041015625
1758181496.1878548,-0.52978515625,-0.00927734375,0.85546875,-2.50244140625,0.18310546875,0.30517578125,-1.0491943359375,33.0743408203125,-126.002197265625
1758181496.197976,-0.52783203125,-0.0126953125,0.8486328125,-2.3193359375,0.18310546875,0.18310546875,-1.0711669921875,33.0743408203125,-126.0076904296875
1758181496.2075663,-0.52783203125,-0.0126953125,0.8486328125,-2.3193359375,0.18310546875,0.18310546875,-1.0931396484375,33.0743408203125,-126.01318359375
1758181496.2175653,-0.5302734375,-0.01025390625,0.85302734375,-0.6103515625,0.244140625,0.1220703125,-1.1041259765625,33.0743408203125,-126.0186767578125
1758181496.2276297,-0.5302734375,-0.01025390625,0.85302734375,-0.6103515625,0.244140625,0.1220703125,-1.109619140625,33.06884765625,-126.024169921875
1758181496.2378545,-0.5302734375,-0.01025390625,0.85302734375,-0.79345703125,0.18310546875,0.06103515625,-1.1151123046875,33.06884765625,-126.03515625
1758181496.247866,-0.521484375,-0.01611328125,0.8447265625,-0.79345703125,0.18310546875,0.06103515625,-1.12060546875,33.0633544921875,-126.0406494140625
1758181496.2576458,-0.52685546875,-0.0107421875,0.85205078125,-2.44140625,0.1220703125,0.1220703125,-1.1370849609375,33.0633544921875,-126.0516357421875
1758181496.2679844,-0.52685546875,-0.0107421875,0.85205078125,-2.44140625,0.1220703125,0.1220703125,-1.1590576171875,33.057861328125,-126.05712890625
1758181496.2776332,-0.52880859375,-0.02001953125,0.8515625,-3.96728515625,-0.1220703125,0.30517578125,-1.1865234375,33.0523681640625,-126.0626220703125
1758181496.2876623,-0.52880859375,-0.02001953125,0.8515625,-3.96728515625,-0.1220703125,0.30517578125,-1.2249755859375,33.046875,-126.068115234375
1758181496.297722,-0.5302734375,-0.02783203125,0.85205078125,-2.685546875,-0.1220703125,0.18310546875,-1.25244140625,33.0413818359375,-126.0791015625
1758181496.3086529,-0.5302734375,-0.02783203125,0.85205078125,-2.685546875,-0.1220703125,0.18310546875,-1.2799072265625,33.0303955078125,-126.0845947265625
1758181496.3176844,-0.53466796875,-0.03369140625,0.84228515625,1.64794921875,0.0,0.0,-1.2799072265625,33.02490234375,-126.0955810546875
1758181496.3277333,-0.53466796875,-0.03369140625,0.84228515625,1.64794921875,0.0,0.0,-1.2689208984375,33.0194091796875,-126.1065673828125
1758181496.3379164,-0.54443359375,-0.01513671875,0.83154296875,3.41796875,0.18310546875,-0.1220703125,-1.241455078125,33.013916015625,-126.123046875
1758181496.3477206,-0.54443359375,-0.01513671875,0.83154296875,3.41796875,0.18310546875,-0.1220703125,-1.20849609375,33.013916015625,-126.134033203125
1758181496.357745,-0.5419921875,-0.0078125,0.8408203125,2.86865234375,0.18310546875,-0.06103515625,-1.1810302734375,33.0084228515625,-126.14501953125
1758181496.3679516,-0.5419921875,-0.0078125,0.8408203125,2.86865234375,0.18310546875,-0.06103515625,-1.153564453125,33.0084228515625,-126.156005859375
1758181496.3777525,-0.544921875,-0.01416015625,0.8408203125,2.38037109375,0.3662109375,0.0,-1.1260986328125,33.0084228515625,-126.1669921875
1758181496.3877354,-0.544921875,-0.01416015625,0.8408203125,2.38037109375,0.3662109375,0.0,-1.1041259765625,33.0084228515625,-126.1724853515625
1758181496.3982453,-0.5439453125,-0.02197265625,0.83154296875,3.41796875,0.3662109375,-0.1220703125,-1.07666015625,33.0084228515625,-126.1834716796875
1758181496.4077506,-0.5439453125,-0.02197265625,0.83154296875,3.41796875,0.3662109375,-0.1220703125,-1.043701171875,33.0084228515625,-126.1944580078125
1758181496.4179642,-0.5498046875,-0.01953125,0.83837890625,5.06591796875,0.48828125,-0.18310546875,-0.999755859375,33.013916015625,-126.2054443359375
1758181496.4279435,-0.5498046875,-0.01953125,0.83837890625,5.06591796875,0.48828125,-0.18310546875,-0.955810546875,33.013916015625,-126.2164306640625
1758181496.4379783,-0.54736328125,-0.0126953125,0.83642578125,4.150390625,0.42724609375,-0.18310546875,-0.911865234375,33.0194091796875,-126.2274169921875
1758181496.4477966,-0.54736328125,-0.0126953125,0.83642578125,4.150390625,0.42724609375,-0.18310546875,-0.8734130859375,33.0194091796875,-126.243896484375
1758181496.4577906,-0.54541015625,-0.0078125,0.8359375,3.173828125,0.3662109375,-0.18310546875,-0.8404541015625,33.02490234375,-126.2548828125
1758181496.4681516,-0.54541015625,-0.0078125,0.8359375,3.173828125,0.3662109375,-0.18310546875,-0.8074951171875,33.02490234375,-126.265869140625
1758181496.477813,-0.544921875,-0.0126953125,0.83935546875,2.44140625,0.30517578125,0.0,-0.7855224609375,33.0303955078125,-126.27685546875
1758181496.487828,-0.544921875,-0.0126953125,0.83935546875,2.44140625,0.30517578125,0.0,-0.7635498046875,33.0303955078125,-126.287841796875
1758181496.4983187,-0.546875,-0.01025390625,0.83740234375,1.8310546875,0.244140625,0.1220703125,-0.7415771484375,33.0303955078125,-126.298828125
1758181496.5078862,-0.546875,-0.01025390625,0.83740234375,1.8310546875,0.244140625,0.1220703125,-0.72509765625,33.035888671875,-126.3043212890625
1758181496.517899,-0.546875,-0.009765625,0.8388671875,0.6103515625,0.1220703125,0.244140625,-0.7086181640625,33.035888671875,-126.3153076171875
1758181496.528076,-0.546875,-0.009765625,0.8388671875,0.6103515625,0.1220703125,0.244140625,-0.703125,33.035888671875,-126.32080078125
1758181496.5379443,-0.54638671875,0.00146484375,0.8447265625,-1.64794921875,0.06103515625,0.6103515625,-0.7086181640625,33.035888671875,-126.3262939453125
1758181496.5479417,-0.54638671875,0.00146484375,0.8447265625,-1.64794921875,0.06103515625,0.6103515625,-0.7196044921875,33.035888671875,-126.3262939453125
1758181496.558366,-0.537109375,-0.02294921875,0.8359375,-3.5400390625,0.0,0.6103515625,-0.7415771484375,33.035888671875,-126.331787109375
1758181496.568183,-0.537109375,-0.02294921875,0.8359375,-3.5400390625,0.0,0.6103515625,-0.7745361328125,33.035888671875,-126.331787109375
1758181496.57792,-0.54931640625,-0.00927734375,0.83935546875,-3.41796875,0.1220703125,0.8544921875,-0.8074951171875,33.035888671875,-126.331787109375
1758181496.58795,-0.54931640625,-0.00927734375,0.83935546875,-3.41796875,0.1220703125,0.8544921875,-0.8349609375,33.035888671875,-126.331787109375
1758181496.5983603,-0.5498046875,-0.0068359375,0.83447265625,-2.50244140625,0.0,1.03759765625,-0.85693359375,33.035888671875,-126.331787109375
1758181496.6081731,-0.5498046875,-0.0068359375,0.83447265625,-2.50244140625,0.0,1.03759765625,-0.8734130859375,33.035888671875,-126.3262939453125
1758181496.6179698,-0.55029296875,-0.00390625,0.84228515625,-4.0283203125,0.06103515625,1.220703125,-0.90087890625,33.0413818359375,-126.32080078125
1758181496.6280885,-0.55029296875,-0.00390625,0.84228515625,-4.0283203125,0.06103515625,1.220703125,-0.9283447265625,33.0413818359375,-126.3153076171875
1758181496.6380844,-0.55224609375,-0.01904296875,0.828125,-4.45556640625,0.1220703125,1.40380859375,-0.9613037109375,33.0413818359375,-126.309814453125
1758181496.6480591,-0.55224609375,-0.01904296875,0.828125,-4.45556640625,0.1220703125,1.40380859375,-0.9942626953125,33.0413818359375,-126.298828125
1758181496.6580372,-0.55712890625,-0.017578125,0.82666015625,-1.89208984375,0.18310546875,1.3427734375,-1.0162353515625,33.046875,-126.2933349609375
1758181496.6685832,-0.55712890625,-0.017578125,0.82666015625,-1.89208984375,0.18310546875,1.3427734375,-1.0272216796875,33.046875,-126.2823486328125
1758181496.6780887,-0.54931640625,-0.0107421875,0.83447265625,-0.79345703125,0.244140625,1.5869140625,-1.03271484375,33.0523681640625,-126.2713623046875
1758181496.6880627,-0.54931640625,-0.0107421875,0.83447265625,-0.79345703125,0.244140625,1.5869140625,-1.0272216796875,33.057861328125,-126.2603759765625
1758181496.6990433,-0.55712890625,-0.02392578125,0.8369140625,-1.5869140625,0.30517578125,1.708984375,-1.0272216796875,33.0633544921875,-126.2493896484375
1758181496.7082262,-0.55712890625,-0.02392578125,0.8369140625,-1.5869140625,0.30517578125,1.708984375,-1.03271484375,33.06884765625,-126.23291015625
1758181496.7181575,-0.56396484375,-0.02294921875,0.8271484375,-2.197265625,0.42724609375,1.953125,-1.0382080078125,33.0743408203125,-126.221923828125
1758181496.7285733,-0.56396484375,-0.02294921875,0.8271484375,-2.197265625,0.42724609375,1.953125,-1.0491943359375,33.079833984375,-126.2054443359375
1758181496.7386537,-0.56689453125,-0.02001953125,0.8193359375,-0.9765625,0.30517578125,1.953125,-1.0491943359375,33.0853271484375,-126.18896484375
1758181496.7481804,-0.56689453125,-0.02001953125,0.8193359375,-0.9765625,0.30517578125,1.953125,-1.0491943359375,33.0963134765625,-126.1724853515625
1758181496.7581897,-0.56201171875,-0.0068359375,0.8359375,-1.28173828125,0.3662109375,1.953125,-1.0491943359375,33.101806640625,-126.1614990234375
1758181496.7686622,-0.56201171875,-0.0068359375,0.8359375,-1.28173828125,0.3662109375,1.953125,-1.0491943359375,33.11279296875,-126.14501953125
1758181496.7782578,-0.56005859375,-0.00732421875,0.8310546875,-2.01416015625,0.54931640625,2.13623046875,-1.0491943359375,33.1182861328125,-126.1285400390625
1758181496.788193,-0.56005859375,-0.00732421875,0.8310546875,-2.01416015625,0.54931640625,2.13623046875,-1.0546875,33.1292724609375,-126.1065673828125
1758181496.7990522,-0.5595703125,-0.01611328125,0.8251953125,-2.38037109375,0.42724609375,2.25830078125,-1.065673828125,33.1402587890625,-126.090087890625
1758181496.8091524,-0.5595703125,-0.01611328125,0.8251953125,-2.38037109375,0.42724609375,2.25830078125,-1.0711669921875,33.145751953125,-126.068115234375
1758181496.8185024,-0.5576171875,-0.01708984375,0.83154296875,-3.23486328125,0.30517578125,2.25830078125,-1.0821533203125,33.15673828125,-126.046142578125
1758181496.834442,-0.5576171875,-0.01708984375,0.83154296875,-3.23486328125,0.30517578125,2.25830078125,-1.0986328125,33.1622314453125,-126.024169921875
1758181496.8411155,-0.552734375,-0.01416015625,0.83056640625,-2.74658203125,0.18310546875,2.197265625,-1.1151123046875,33.1732177734375,-126.0076904296875
1758181496.8482685,-0.552734375,-0.01416015625,0.83056640625,-2.74658203125,0.18310546875,2.197265625,-1.1260986328125,33.1787109375,-125.9857177734375
1758181496.8583903,-0.548828125,-0.00537109375,0.833984375,-2.86865234375,-0.06103515625,2.197265625,-1.142578125,33.1842041015625,-125.9637451171875
1758181496.8722682,-0.548828125,-0.00537109375,0.833984375,-2.86865234375,-0.06103515625,2.197265625,-1.153564453125,33.1842041015625,-125.947265625
1758181496.8783436,-0.552734375,-0.00537109375,0.83251953125,-3.60107421875,-0.1220703125,2.3193359375,-1.1700439453125,33.189697265625,-125.92529296875
1758181496.888905,-0.552734375,-0.00537109375,0.83251953125,-3.60107421875,-0.1220703125,2.3193359375,-1.1865234375,33.189697265625,-125.9033203125
1758181496.9045758,-0.55029296875,-0.01708984375,0.83447265625,-4.69970703125,-0.30517578125,2.44140625,-1.2139892578125,33.189697265625,-125.88134765625
1758181496.910887,-0.55029296875,-0.01708984375,0.83447265625,-4.69970703125,-0.30517578125,2.44140625,-1.241455078125,33.1951904296875,-125.859375
1758181496.9183836,-0.55029296875,-0.02587890625,0.8388671875,-5.859375,-0.3662109375,2.3193359375,-1.2744140625,33.189697265625,-125.83740234375
1758181496.9344282,-0.55029296875,-0.02587890625,0.8388671875,-5.859375,-0.3662109375,2.3193359375,-1.318359375,33.189697265625,-125.8154296875
1758181496.941272,-0.54931640625,-0.02880859375,0.82763671875,-4.57763671875,-0.30517578125,2.13623046875,-1.351318359375,33.189697265625,-125.7989501953125
1758181496.9484174,-0.54931640625,-0.02880859375,0.82763671875,-4.57763671875,-0.30517578125,2.13623046875,-1.38427734375,33.189697265625,-125.782470703125
1758181496.9585042,-0.5439453125,-0.02099609375,0.83447265625,-2.74658203125,-0.3662109375,1.8310546875,-1.40625,33.189697265625,-125.7659912109375
1758181496.9719622,-0.5439453125,-0.02099609375,0.83447265625,-2.74658203125,-0.3662109375,1.8310546875,-1.417236328125,33.189697265625,-125.7550048828125
1758181496.978518,-0.529296875,-0.01513671875,0.84716796875,-1.46484375,-0.244140625,1.708984375,-1.42822265625,33.189697265625,-125.7440185546875
1758181496.9888518,-0.529296875,-0.01513671875,0.84716796875,-1.46484375,-0.244140625,1.708984375,-1.42822265625,33.1842041015625,-125.7330322265625
1758181496.9991431,-0.529296875,-0.01513671875,0.84716796875,-1.8310546875,-0.18310546875,1.46484375,-1.4337158203125,33.1842041015625,-125.7220458984375
1758181497.0087092,-0.52734375,-0.02294921875,0.85205078125,-1.8310546875,-0.18310546875,1.46484375,-1.439208984375,33.1842041015625,-125.716552734375
1758181497.0189826,-0.53515625,-0.01904296875,0.8505859375,-3.173828125,-0.18310546875,1.5869140625,-1.4556884765625,33.1787109375,-125.70556640625
1758181497.0289843,-0.53515625,-0.01904296875,0.8505859375,-3.173828125,-0.18310546875,1.5869140625,-1.4776611328125,33.1732177734375,-125.7000732421875
1758181497.0386088,-0.52880859375,-0.02392578125,0.84814453125,-3.84521484375,-0.18310546875,1.3427734375,-1.4996337890625,33.1732177734375,-125.694580078125
1758181497.0486057,-0.52880859375,-0.02392578125,0.84814453125,-3.84521484375,-0.18310546875,1.3427734375,-1.527099609375,33.167724609375,-125.6890869140625
1758181497.0588648,-0.52978515625,-0.025390625,0.84375,-1.77001953125,-0.06103515625,1.0986328125,-1.549072265625,33.1622314453125,-125.6890869140625
1758181497.0692291,-0.52978515625,-0.025390625,0.84375,-1.77001953125,-0.06103515625,1.0986328125,-1.5545654296875,33.1622314453125,-125.6890869140625
1758181497.0786142,-0.53369140625,-0.021484375,0.84326171875,1.15966796875,0.0,1.03759765625,-1.5545654296875,33.15673828125,-125.6890869140625
1758181497.0886352,-0.53369140625,-0.021484375,0.84326171875,1.15966796875,0.0,1.03759765625,-1.5325927734375,33.1512451171875,-125.6890869140625
1758181497.099215,-0.53759765625,-0.0126953125,0.845703125,0.244140625,0.1220703125,1.03759765625,-1.51611328125,33.1512451171875,-125.694580078125
1758181497.108858,-0.53759765625,-0.0126953125,0.845703125,0.244140625,0.1220703125,1.03759765625,-1.5106201171875,33.145751953125,-125.694580078125
1758181497.1191084,-0.5419921875,-0.01806640625,0.84033203125,-2.01416015625,0.1220703125,0.9765625,-1.5106201171875,33.145751953125,-125.694580078125
1758181497.1290708,-0.5419921875,-0.01806640625,0.84033203125,-2.01416015625,0.1220703125,0.9765625,-1.5216064453125,33.1402587890625,-125.694580078125
1758181497.139984,-0.5400390625,-0.02294921875,0.841796875,-2.685546875,0.18310546875,0.91552734375,-1.5435791015625,33.1402587890625,-125.7000732421875
1758181497.1486669,-0.5400390625,-0.02294921875,0.841796875,-2.685546875,0.18310546875,0.91552734375,-1.56005859375,33.1402587890625,-125.7000732421875
1758181497.165331,-0.537109375,-0.02099609375,0.84375,-2.38037109375,0.244140625,0.79345703125,-1.5765380859375,33.1402587890625,-125.70556640625
1758181497.1724942,-0.537109375,-0.02099609375,0.84375,-2.38037109375,0.244140625,0.79345703125,-1.5985107421875,33.134765625,-125.7110595703125
1758181497.179198,-0.537109375,-0.01513671875,0.84521484375,-2.9296875,0.244140625,0.79345703125,-1.6204833984375,33.134765625,-125.716552734375
1758181497.1888976,-0.537109375,-0.01513671875,0.84521484375,-2.9296875,0.244140625,0.79345703125,-1.6424560546875,33.134765625,-125.7220458984375
1758181497.205751,-0.54052734375,-0.0146484375,0.8447265625,-4.08935546875,0.244140625,0.9765625,-1.6754150390625,33.134765625,-125.7220458984375
1758181497.211897,-0.54052734375,-0.0146484375,0.8447265625,-4.08935546875,0.244140625,0.9765625,-1.702880859375,33.134765625,-125.7275390625
1758181497.218973,-0.54931640625,-0.0234375,0.837890625,-5.79833984375,0.30517578125,1.03759765625,-1.7523193359375,33.134765625,-125.7275390625
1758181497.235032,-0.54931640625,-0.0234375,0.837890625,-5.79833984375,0.30517578125,1.03759765625,-1.8017578125,33.134765625,-125.7275390625
1758181497.2418451,-0.54931640625,-0.0234375,0.837890625,-6.77490234375,0.3662109375,1.0986328125,-1.8621826171875,33.134765625,-125.7275390625
1758181497.2488704,-0.552734375,-0.02783203125,0.8330078125,-6.77490234375,0.3662109375,1.0986328125,-1.9171142578125,33.134765625,-125.7275390625
1758181497.2653377,-0.55126953125,-0.02685546875,0.8359375,-7.01904296875,0.3662109375,0.9765625,-1.9775390625,33.1402587890625,-125.7330322265625
1758181497.2722752,-0.55126953125,-0.02685546875,0.8359375,-7.01904296875,0.3662109375,0.9765625,-2.0379638671875,33.1402587890625,-125.7330322265625
1758181497.27978,-0.55322265625,-0.021484375,0.833984375,-7.6904296875,0.30517578125,0.91552734375,-2.109375,33.145751953125,-125.7330322265625
1758181497.2889047,-0.55322265625,-0.021484375,0.833984375,-7.6904296875,0.30517578125,0.91552734375,-2.17529296875,33.145751953125,-125.7330322265625
1758181497.305244,-0.55126953125,-0.02392578125,0.833984375,-9.09423828125,0.06103515625,0.9765625,-2.252197265625,33.145751953125,-125.7330322265625
1758181497.311615,-0.55126953125,-0.02392578125,0.833984375,-9.09423828125,0.06103515625,0.9765625,-2.3345947265625,33.145751953125,-125.7330322265625
1758181497.3193026,-0.54638671875,-0.03857421875,0.82373046875,-10.009765625,-0.06103515625,0.91552734375,-2.4224853515625,33.145751953125,-125.7330322265625
1758181497.3352447,-0.54638671875,-0.03857421875,0.82373046875,-10.009765625,-0.06103515625,0.91552734375,-2.5103759765625,33.145751953125,-125.7275390625
1758181497.3419292,-0.54541015625,-0.05224609375,0.83447265625,-8.6669921875,-0.3662109375,0.8544921875,-2.5872802734375,33.145751953125,-125.7330322265625
1758181497.3490276,-0.54541015625,-0.05224609375,0.83447265625,-8.6669921875,-0.3662109375,0.8544921875,-2.6641845703125,33.1402587890625,-125.7330322265625
1758181497.365995,-0.5498046875,-0.04736328125,0.845703125,-6.77490234375,-0.244140625,0.9765625,-2.724609375,33.1402587890625,-125.7330322265625
1758181497.3725877,-0.5498046875,-0.04736328125,0.845703125,-6.77490234375,-0.244140625,0.9765625,-2.7850341796875,33.1402587890625,-125.738525390625
1758181497.3796718,-0.537109375,-0.0458984375,0.830078125,-4.39453125,-0.48828125,1.03759765625,-2.8179931640625,33.134765625,-125.738525390625
1758181497.3890474,-0.537109375,-0.0458984375,0.830078125,-4.39453125,-0.48828125,1.03759765625,-2.8509521484375,33.1292724609375,-125.738525390625
1758181497.399805,-0.54541015625,-0.04443359375,0.8330078125,-2.5634765625,-0.48828125,0.91552734375,-2.867431640625,33.123779296875,-125.7440185546875
1758181497.4090738,-0.54541015625,-0.04443359375,0.8330078125,-2.5634765625,-0.48828125,0.91552734375,-2.8839111328125,33.1182861328125,-125.74951171875
1758181497.4191542,-0.55029296875,-0.052734375,0.8330078125,-0.79345703125,-0.42724609375,0.8544921875,-2.889404296875,33.1182861328125,-125.7550048828125
1758181497.4293878,-0.55029296875,-0.052734375,0.8330078125,-0.79345703125,-0.42724609375,0.8544921875,-2.889404296875,33.11279296875,-125.760498046875
1758181497.4391646,-0.5478515625,-0.05419921875,0.82958984375,2.3193359375,-0.30517578125,0.67138671875,-2.8619384765625,33.11279296875,-125.7659912109375
1758181497.4490957,-0.5478515625,-0.05419921875,0.82958984375,2.3193359375,-0.30517578125,0.67138671875,-2.83447265625,33.1072998046875,-125.7769775390625
1758181497.459201,-0.5517578125,-0.0537109375,0.8310546875,5.7373046875,-0.18310546875,0.6103515625,-2.7740478515625,33.1072998046875,-125.782470703125
1758181497.4692817,-0.5517578125,-0.0537109375,0.8310546875,5.7373046875,-0.18310546875,0.6103515625,-2.713623046875,33.1072998046875,-125.79345703125
1758181497.4791498,-0.55322265625,-0.04833984375,0.83056640625,7.99560546875,-0.06103515625,0.6103515625,-2.6312255859375,33.1072998046875,-125.8099365234375
1758181497.489193,-0.55322265625,-0.04833984375,0.83056640625,7.99560546875,-0.06103515625,0.6103515625,-2.5543212890625,33.1072998046875,-125.8209228515625
1758181497.499918,-0.556640625,-0.04541015625,0.83251953125,8.6669921875,0.0,0.67138671875,-2.4664306640625,33.11279296875,-125.8319091796875
1758181497.5092096,-0.556640625,-0.04541015625,0.83251953125,8.6669921875,0.0,0.67138671875,-2.3785400390625,33.11279296875,-125.848388671875
1758181497.5192256,-0.56298828125,-0.0361328125,0.82763671875,8.97216796875,0.06103515625,0.48828125,-2.2906494140625,33.1182861328125,-125.859375
1758181497.5293553,-0.56298828125,-0.0361328125,0.82763671875,8.97216796875,0.06103515625,0.48828125,-2.2027587890625,33.1182861328125,-125.8758544921875
1758181497.539831,-0.56591796875,-0.02587890625,0.82763671875,9.21630859375,0.0,0.48828125,-2.109375,33.123779296875,-125.8868408203125
1758181497.5491993,-0.56591796875,-0.02587890625,0.82763671875,9.21630859375,0.0,0.48828125,-2.021484375,33.123779296875,-125.9033203125
1758181497.5596275,-0.56494140625,-0.0166015625,0.8271484375,7.080078125,0.0,0.54931640625,-1.9500732421875,33.1292724609375,-125.914306640625
1758181497.5697007,-0.56494140625,-0.0166015625,0.8271484375,7.080078125,0.0,0.54931640625,-1.878662109375,33.134765625,-125.92529296875
1758181497.5793698,-0.5634765625,-0.0185546875,0.83251953125,3.7841796875,0.0,0.67138671875,-1.8402099609375,33.1402587890625,-125.936279296875
1758181497.589354,-0.5634765625,-0.0185546875,0.83251953125,3.7841796875,0.0,0.67138671875,-1.8017578125,33.145751953125,-125.9417724609375
1758181497.599688,-0.5615234375,-0.02392578125,0.8310546875,1.708984375,-0.06103515625,0.732421875,-1.77978515625,33.145751953125,-125.9527587890625
1758181497.6093712,-0.5615234375,-0.02392578125,0.8310546875,1.708984375,-0.06103515625,0.732421875,-1.7633056640625,33.1512451171875,-125.958251953125
1758181497.6193583,-0.56103515625,-0.025390625,0.8251953125,1.77001953125,-0.30517578125,0.79345703125,-1.7413330078125,33.1512451171875,-125.9637451171875
1758181497.6294878,-0.56103515625,-0.025390625,0.8251953125,1.77001953125,-0.30517578125,0.79345703125,-1.7193603515625,33.15673828125,-125.96923828125
1758181497.6394494,-0.556640625,-0.02685546875,0.833984375,1.220703125,-0.54931640625,0.91552734375,-1.702880859375,33.15673828125,-125.9747314453125
1758181497.6494343,-0.556640625,-0.02685546875,0.833984375,1.220703125,-0.54931640625,0.91552734375,-1.6864013671875,33.15673828125,-125.980224609375
1758181497.6594665,-0.5576171875,-0.02197265625,0.830078125,-0.18310546875,-0.48828125,0.91552734375,-1.680908203125,33.15673828125,-125.9857177734375
1758181497.669666,-0.5576171875,-0.02197265625,0.830078125,-0.18310546875,-0.48828125,0.91552734375,-1.680908203125,33.15673828125,-125.9912109375
1758181497.6795206,-0.5595703125,-0.0205078125,0.83154296875,-0.6103515625,-0.54931640625,0.79345703125,-1.680908203125,33.1512451171875,-125.9967041015625
1758181497.6896563,-0.5595703125,-0.0205078125,0.83154296875,-0.6103515625,-0.54931640625,0.79345703125,-1.6864013671875,33.1512451171875,-126.002197265625
1758181497.699829,-0.55322265625,-0.021484375,0.83349609375,-1.3427734375,-0.54931640625,0.42724609375,-1.6973876953125,33.1512451171875,-126.01318359375
1758181497.7098927,-0.55322265625,-0.021484375,0.83349609375,-1.3427734375,-0.54931640625,0.42724609375,-1.7083740234375,33.1512451171875,-126.024169921875
1758181497.7196937,-0.5478515625,-0.01953125,0.83056640625,-0.48828125,-0.48828125,0.30517578125,-1.7083740234375,33.1512451171875,-126.0406494140625
1758181497.7301927,-0.5478515625,-0.01953125,0.83056640625,-0.48828125,-0.48828125,0.30517578125,-1.7138671875,33.1512451171875,-126.0516357421875
1758181497.73952,-0.5380859375,-0.0224609375,0.8388671875,-0.30517578125,-0.48828125,0.30517578125,-1.7138671875,33.145751953125,-126.0626220703125
1758181497.7497323,-0.5380859375,-0.0224609375,0.8388671875,-0.30517578125,-0.48828125,0.30517578125,-1.7138671875,33.145751953125,-126.0791015625
1758181497.7595854,-0.537109375,-0.0341796875,0.83935546875,-0.30517578125,-0.54931640625,0.42724609375,-1.7138671875,33.1402587890625,-126.090087890625
1758181497.770655,-0.537109375,-0.0341796875,0.83935546875,-0.30517578125,-0.54931640625,0.42724609375,-1.7138671875,33.1402587890625,-126.10107421875
1758181497.7795947,-0.53662109375,-0.03271484375,0.8359375,0.67138671875,-0.67138671875,0.244140625,-1.7083740234375,33.134765625,-126.1175537109375
1758181497.7900674,-0.53662109375,-0.03271484375,0.8359375,0.67138671875,-0.67138671875,0.244140625,-1.6973876953125,33.1292724609375,-126.1395263671875
1758181497.7999508,-0.53125,-0.0166015625,0.8466796875,0.9765625,-0.79345703125,0.1220703125,-1.6864013671875,33.1182861328125,-126.156005859375
1758181497.8101733,-0.53125,-0.0166015625,0.8466796875,0.9765625,-0.79345703125,0.1220703125,-1.6754150390625,33.11279296875,-126.177978515625
1758181497.8198407,-0.53125,-0.01123046875,0.8525390625,-0.18310546875,-0.8544921875,0.1220703125,-1.680908203125,33.101806640625,-126.1944580078125
1758181497.830286,-0.53125,-0.01123046875,0.8525390625,-0.18310546875,-0.8544921875,0.1220703125,-1.680908203125,33.0908203125,-126.2164306640625
1758181497.8396797,-0.5400390625,-0.02587890625,0.841796875,-0.732421875,-0.79345703125,0.30517578125,-1.680908203125,33.079833984375,-126.23291015625
1758181497.8497062,-0.5400390625,-0.02587890625,0.841796875,-0.732421875,-0.79345703125,0.30517578125,-1.6864013671875,33.0743408203125,-126.2548828125
1758181497.860117,-0.55029296875,-0.02734375,0.841796875,-1.46484375,-0.8544921875,0.244140625,-1.702880859375,33.0633544921875,-126.2713623046875
1758181497.8697689,-0.55029296875,-0.02734375,0.841796875,-1.46484375,-0.8544921875,0.244140625,-1.7138671875,33.0523681640625,-126.2933349609375
1758181497.8800726,-0.546875,-0.02392578125,0.84130859375,-2.8076171875,-0.8544921875,0.30517578125,-1.73583984375,33.0413818359375,-126.309814453125
1758181497.889726,-0.546875,-0.02392578125,0.84130859375,-2.8076171875,-0.8544921875,0.30517578125,-1.7633056640625,33.035888671875,-126.331787109375
1758181497.9001405,-0.54931640625,-0.02734375,0.83837890625,-2.38037109375,-0.732421875,0.42724609375,-1.7852783203125,33.02490234375,-126.3482666015625
1758181497.9097452,-0.54931640625,-0.02734375,0.83837890625,-2.38037109375,-0.732421875,0.42724609375,-1.8017578125,33.0194091796875,-126.36474609375
1758181497.9198253,-0.54541015625,-0.0244140625,0.8408203125,-1.5869140625,-0.732421875,0.48828125,-1.8182373046875,33.013916015625,-126.3812255859375
1758181497.9298282,-0.54541015625,-0.0244140625,0.8408203125,-1.5869140625,-0.732421875,0.48828125,-1.8292236328125,33.0029296875,-126.397705078125
1758181497.9398053,-0.54833984375,-0.025390625,0.841796875,-1.220703125,-0.67138671875,0.54931640625,-1.834716796875,32.9974365234375,-126.40869140625
1758181497.949785,-0.54833984375,-0.025390625,0.841796875,-1.220703125,-0.67138671875,0.54931640625,-1.8402099609375,32.991943359375,-126.4251708984375
1758181497.9598367,-0.548828125,-0.03369140625,0.83154296875,-0.732421875,-0.54931640625,0.54931640625,-1.845703125,32.9864501953125,-126.4361572265625
1758181497.9698977,-0.548828125,-0.03369140625,0.83154296875,-0.732421875,-0.54931640625,0.54931640625,-1.8511962890625,32.98095703125,-126.45263671875
1758181497.9798608,-0.54296875,-0.02392578125,0.83349609375,-1.40380859375,-0.48828125,0.67138671875,-1.856689453125,32.9754638671875,-126.463623046875
1758181497.9898384,-0.54296875,-0.02392578125,0.83349609375,-1.40380859375,-0.48828125,0.67138671875,-1.86767578125,32.969970703125,-126.4801025390625
1758181498.0001972,-0.548828125,-0.0302734375,0.84375,-0.1220703125,-0.48828125,0.9765625,-1.8621826171875,32.969970703125,-126.485595703125
1758181498.009983,-0.548828125,-0.0302734375,0.84375,-0.1220703125,-0.48828125,0.9765625,-1.856689453125,32.9644775390625,-126.49658203125
1758181498.019972,-0.54638671875,-0.03759765625,0.833984375,-1.708984375,-0.30517578125,1.03759765625,-1.86767578125,32.958984375,-126.507568359375
1758181498.0299604,-0.54638671875,-0.03759765625,0.833984375,-1.708984375,-0.30517578125,1.03759765625,-1.878662109375,32.958984375,-126.5185546875
1758181498.0399055,-0.544921875,-0.02734375,0.8310546875,-1.64794921875,-0.48828125,1.03759765625,-1.8841552734375,32.9534912109375,-126.5240478515625
1758181498.0500007,-0.544921875,-0.02734375,0.8310546875,-1.64794921875,-0.48828125,1.03759765625,-1.8951416015625,32.9534912109375,-126.5350341796875
1758181498.0599575,-0.54541015625,-0.02392578125,0.84326171875,-1.03759765625,-0.54931640625,1.15966796875,-1.900634765625,32.947998046875,-126.5460205078125
1758181498.070403,-0.54541015625,-0.02392578125,0.84326171875,-1.03759765625,-0.54931640625,1.15966796875,-1.900634765625,32.9425048828125,-126.551513671875
1758181498.0799587,-0.54541015625,-0.02880859375,0.83447265625,-0.42724609375,-0.6103515625,1.220703125,-1.900634765625,32.93701171875,-126.5570068359375
1758181498.089988,-0.54541015625,-0.02880859375,0.83447265625,-0.42724609375,-0.6103515625,1.220703125,-1.8951416015625,32.9315185546875,-126.5679931640625
1758181498.1013575,-0.5498046875,-0.03173828125,0.83203125,0.42724609375,-0.6103515625,1.0986328125,-1.8841552734375,32.9315185546875,-126.573486328125
1758181498.1100461,-0.5498046875,-0.03173828125,0.83203125,0.42724609375,-0.6103515625,1.0986328125,-1.8731689453125,32.926025390625,-126.58447265625
1758181498.1202712,-0.556640625,-0.02978515625,0.83642578125,0.67138671875,-0.42724609375,1.220703125,-1.856689453125,32.9205322265625,-126.595458984375
1758181498.1301346,-0.55810546875,-0.029296875,0.82861328125,0.9765625,-0.3662109375,1.3427734375,-1.8402099609375,32.9205322265625,-126.6009521484375
1758181498.1405077,-0.55810546875,-0.029296875,0.82861328125,0.9765625,-0.3662109375,1.3427734375,-1.82373046875,32.9205322265625,-126.6064453125
1758181498.1500473,-0.56103515625,-0.0302734375,0.82373046875,1.220703125,-0.18310546875,1.220703125,-1.8072509765625,32.9205322265625,-126.6119384765625
1758181498.1603062,-0.56103515625,-0.0302734375,0.82373046875,1.220703125,-0.18310546875,1.220703125,-1.7852783203125,32.9205322265625,-126.6229248046875
1758181498.1704848,-0.5673828125,-0.0302734375,0.82763671875,3.47900390625,-0.1220703125,0.8544921875,-1.7578125,32.926025390625,-126.62841796875
1758181498.1803584,-0.5673828125,-0.0302734375,0.82763671875,3.47900390625,-0.1220703125,0.8544921875,-1.7193603515625,32.926025390625,-126.6448974609375
1758181498.1901124,-0.57373046875,-0.0224609375,0.8291015625,5.06591796875,0.06103515625,0.8544921875,-1.669921875,32.9315185546875,-126.6558837890625
1758181498.2012541,-0.57373046875,-0.0224609375,0.8291015625,5.06591796875,0.06103515625,0.8544921875,-1.6204833984375,32.93701171875,-126.6668701171875
1758181498.2101643,-0.5751953125,-0.0224609375,0.81494140625,5.0048828125,0.1220703125,0.732421875,-1.5655517578125,32.947998046875,-126.6778564453125
1758181498.2207742,-0.5751953125,-0.0224609375,0.81494140625,5.0048828125,0.1220703125,0.732421875,-1.5106201171875,32.9534912109375,-126.6888427734375
1758181498.234244,-0.576171875,-0.01416015625,0.8173828125,4.45556640625,0.18310546875,0.54931640625,-1.461181640625,32.9644775390625,-126.6998291015625
1758181498.2410073,-0.576171875,-0.01416015625,0.8173828125,4.45556640625,0.18310546875,0.54931640625,-1.417236328125,32.969970703125,-126.7108154296875
1758181498.2505052,-0.56884765625,-0.01123046875,0.82568359375,3.72314453125,0.244140625,0.30517578125,-1.373291015625,32.98095703125,-126.7218017578125
1758181498.2606614,-0.56884765625,-0.01123046875,0.82568359375,3.72314453125,0.244140625,0.30517578125,-1.3348388671875,32.991943359375,-126.73828125
1758181498.2705972,-0.56982421875,-0.01318359375,0.8251953125,3.662109375,0.30517578125,0.18310546875,-1.29638671875,33.0029296875,-126.749267578125
1758181498.2804077,-0.56982421875,-0.01318359375,0.8251953125,3.662109375,0.30517578125,0.18310546875,-1.263427734375,33.013916015625,-126.7657470703125
1758181498.2902377,-0.57080078125,-0.017578125,0.8203125,3.84521484375,0.244140625,0.0,-1.2249755859375,33.02490234375,-126.7767333984375
1758181498.300436,-0.57080078125,-0.017578125,0.8203125,3.84521484375,0.244140625,0.0,-1.1865234375,33.035888671875,-126.793212890625
1758181498.3103094,-0.56591796875,-0.01123046875,0.8193359375,3.2958984375,0.06103515625,-0.1220703125,-1.153564453125,33.046875,-126.8096923828125
1758181498.3203,-0.56591796875,-0.01123046875,0.8193359375,3.2958984375,0.06103515625,-0.1220703125,-1.12060546875,33.057861328125,-126.826171875
1758181498.3310797,-0.55810546875,-0.00537109375,0.82666015625,2.01416015625,-0.06103515625,-0.244140625,-1.0986328125,33.0633544921875,-126.8426513671875
1758181498.3402941,-0.55810546875,-0.00537109375,0.82666015625,2.01416015625,-0.06103515625,-0.244140625,-1.07666015625,33.0743408203125,-126.8646240234375
1758181498.3506253,-0.55517578125,-0.00390625,0.82861328125,0.48828125,-0.18310546875,-0.244140625,-1.065673828125,33.079833984375,-126.881103515625
1758181498.3602817,-0.55517578125,-0.00390625,0.82861328125,0.48828125,-0.18310546875,-0.244140625,-1.065673828125,33.0853271484375,-126.903076171875
1758181498.371028,-0.54931640625,-0.01123046875,0.83447265625,-0.244140625,-0.48828125,-0.30517578125,-1.065673828125,33.0908203125,-126.9195556640625
1758181498.3802965,-0.54931640625,-0.01123046875,0.83447265625,-0.244140625,-0.48828125,-0.30517578125,-1.065673828125,33.0908203125,-126.93603515625
1758181498.3905017,-0.55615234375,-0.0146484375,0.83544921875,-1.52587890625,-0.42724609375,-0.244140625,-1.07666015625,33.0908203125,-126.9580078125
1758181498.4010317,-0.55615234375,-0.0146484375,0.83544921875,-1.52587890625,-0.42724609375,-0.244140625,-1.0931396484375,33.0963134765625,-126.97998046875
1758181498.4104269,-0.54638671875,-0.01611328125,0.830078125,-2.197265625,-0.79345703125,-0.3662109375,-1.109619140625,33.0963134765625,-126.9964599609375
1758181498.4204,-0.54638671875,-0.01611328125,0.830078125,-2.197265625,-0.79345703125,-0.3662109375,-1.131591796875,33.0908203125,-127.0184326171875
1758181498.4309132,-0.5498046875,-0.00634765625,0.8359375,-1.40380859375,-0.9765625,-0.3662109375,-1.153564453125,33.0853271484375,-127.0404052734375
1758181498.4407387,-0.5498046875,-0.00634765625,0.8359375,-1.40380859375,-0.9765625,-0.3662109375,-1.1700439453125,33.079833984375,-127.0623779296875
1758181498.4510183,-0.5458984375,-0.0107421875,0.8369140625,-1.03759765625,-0.91552734375,-0.1220703125,-1.1810302734375,33.0743408203125,-127.0843505859375
1758181498.460512,-0.5458984375,-0.0107421875,0.8369140625,-1.03759765625,-0.91552734375,-0.1220703125,-1.1865234375,33.06884765625,-127.100830078125
1758181498.4712229,-0.5458984375,-0.02001953125,0.84130859375,-2.01416015625,-0.8544921875,0.06103515625,-1.2030029296875,33.0633544921875,-127.122802734375
1758181498.4804473,-0.5458984375,-0.02001953125,0.84130859375,-2.01416015625,-0.8544921875,0.06103515625,-1.219482421875,33.057861328125,-127.1392822265625
1758181498.4909496,-0.544921875,-0.0283203125,0.837890625,-3.7841796875,-0.6103515625,0.244140625,-1.2469482421875,33.057861328125,-127.15576171875
1758181498.5006654,-0.544921875,-0.0283203125,0.837890625,-3.7841796875,-0.6103515625,0.244140625,-1.2799072265625,33.0523681640625,-127.1722412109375
1758181498.5105388,-0.54443359375,-0.02294921875,0.8388671875,-3.41796875,-0.48828125,0.18310546875,-1.3128662109375,33.046875,-127.188720703125
1758181498.5205524,-0.54443359375,-0.02294921875,0.8388671875,-3.41796875,-0.48828125,0.18310546875,-1.3458251953125,33.046875,-127.210693359375
1758181498.5309987,-0.5390625,-0.0185546875,0.8369140625,-1.46484375,-0.48828125,0.0,-1.3677978515625,33.0413818359375,-127.232666015625
1758181498.5405352,-0.5390625,-0.0185546875,0.8369140625,-1.46484375,-0.48828125,0.0,-1.3787841796875,33.0413818359375,-127.254638671875
1758181498.5506308,-0.5380859375,-0.0126953125,0.8447265625,-0.42724609375,-0.3662109375,0.0,-1.3897705078125,33.035888671875,-127.276611328125
1758181498.560533,-0.5380859375,-0.0126953125,0.8447265625,-0.42724609375,-0.3662109375,0.0,-1.3897705078125,33.035888671875,-127.298583984375
1758181498.5714123,-0.53466796875,-0.02001953125,0.84521484375,-0.8544921875,-0.30517578125,0.0,-1.395263671875,33.0303955078125,-127.3150634765625
1758181498.5806284,-0.53466796875,-0.02001953125,0.84521484375,-0.8544921875,-0.30517578125,0.0,-1.40625,33.0303955078125,-127.3370361328125
1758181498.5910063,-0.53955078125,-0.0263671875,0.84375,-0.9765625,-0.30517578125,0.18310546875,-1.4117431640625,33.02490234375,-127.3590087890625
1758181498.600788,-0.53955078125,-0.0263671875,0.84375,-0.9765625,-0.30517578125,0.18310546875,-1.417236328125,33.0194091796875,-127.3809814453125
1758181498.610747,-0.54638671875,-0.02978515625,0.8349609375,-0.6103515625,-0.244140625,0.18310546875,-1.4227294921875,33.0194091796875,-127.3974609375
1758181498.6209066,-0.54638671875,-0.02978515625,0.8349609375,-0.6103515625,-0.244140625,0.18310546875,-1.42822265625,33.013916015625,-127.41943359375
1758181498.6311269,-0.544921875,-0.02099609375,0.8291015625,0.1220703125,-0.42724609375,0.06103515625,-1.4337158203125,33.0084228515625,-127.44140625
1758181498.640722,-0.544921875,-0.02099609375,0.8291015625,0.1220703125,-0.42724609375,0.06103515625,-1.42822265625,33.0084228515625,-127.46337890625
1758181498.6508584,-0.54052734375,-0.01123046875,0.84716796875,0.48828125,-0.48828125,0.06103515625,-1.42822265625,33.0029296875,-127.4853515625
1758181498.6607122,-0.54052734375,-0.01123046875,0.84716796875,0.48828125,-0.48828125,0.06103515625,-1.4227294921875,32.9974365234375,-127.50732421875
1758181498.6717813,-0.53955078125,-0.01806640625,0.84130859375,0.42724609375,-0.3662109375,0.3662109375,-1.4117431640625,32.991943359375,-127.529296875
1758181498.6808171,-0.53955078125,-0.01806640625,0.84130859375,0.42724609375,-0.3662109375,0.3662109375,-1.40625,32.9864501953125,-127.5457763671875
1758181498.691245,-0.53759765625,-0.02685546875,0.83642578125,0.8544921875,-0.54931640625,0.30517578125,-1.395263671875,32.98095703125,-127.562255859375
1758181498.7014244,-0.53759765625,-0.02685546875,0.83642578125,0.8544921875,-0.54931640625,0.30517578125,-1.38427734375,32.9754638671875,-127.584228515625
1758181498.7110097,-0.537109375,-0.0263671875,0.8486328125,0.91552734375,-0.48828125,0.30517578125,-1.3787841796875,32.969970703125,-127.6007080078125
1758181498.7209027,-0.537109375,-0.0263671875,0.8486328125,0.91552734375,-0.48828125,0.30517578125,-1.3677978515625,32.9644775390625,-127.6226806640625
1758181498.7312846,-0.5361328125,-0.02294921875,0.83984375,1.52587890625,-0.54931640625,0.244140625,-1.351318359375,32.958984375,-127.6446533203125
1758181498.7408688,-0.5361328125,-0.02294921875,0.83984375,1.52587890625,-0.54931640625,0.244140625,-1.3348388671875,32.9534912109375,-127.6611328125
1758181498.7510288,-0.54248046875,-0.01611328125,0.84375,2.38037109375,-0.54931640625,0.1220703125,-1.318359375,32.9425048828125,-127.68310546875
1758181498.7608528,-0.54248046875,-0.01611328125,0.84375,2.38037109375,-0.54931640625,0.1220703125,-1.2908935546875,32.93701171875,-127.705078125
1758181498.7713704,-0.54052734375,-0.01611328125,0.84130859375,2.62451171875,-0.3662109375,0.18310546875,-1.2689208984375,32.9315185546875,-127.72705078125
1758181498.7810278,-0.54052734375,-0.01611328125,0.84130859375,2.62451171875,-0.3662109375,0.18310546875,-1.241455078125,32.926025390625,-127.7490234375
1758181498.7910635,-0.541015625,-0.017578125,0.83935546875,2.3193359375,-0.3662109375,0.18310546875,-1.2139892578125,32.9205322265625,-127.77099609375
1758181498.8014524,-0.541015625,-0.017578125,0.83935546875,2.3193359375,-0.3662109375,0.18310546875,-1.1920166015625,32.9150390625,-127.79296875
1758181498.8110688,-0.5419921875,-0.01708984375,0.84375,1.708984375,-0.3662109375,0.244140625,-1.1700439453125,32.9150390625,-127.8094482421875
1758181498.8213308,-0.5419921875,-0.01708984375,0.84375,1.708984375,-0.3662109375,0.244140625,-1.153564453125,32.9095458984375,-127.8314208984375
1758181498.831387,-0.54052734375,-0.01806640625,0.83740234375,1.89208984375,-0.3662109375,0.244140625,-1.1370849609375,32.904052734375,-127.847900390625
1758181498.8411052,-0.54052734375,-0.01806640625,0.83740234375,1.89208984375,-0.3662109375,0.244140625,-1.1151123046875,32.8985595703125,-127.869873046875
1758181498.8511848,-0.53857421875,-0.01513671875,0.84033203125,2.13623046875,-0.48828125,0.3662109375,-1.0931396484375,32.89306640625,-127.8863525390625
1758181498.8609693,-0.53857421875,-0.01513671875,0.84033203125,2.13623046875,-0.48828125,0.3662109375,-1.0711669921875,32.8875732421875,-127.9083251953125
1758181498.8715665,-0.53857421875,-0.01513671875,0.845703125,1.3427734375,-0.48828125,0.42724609375,-1.0546875,32.882080078125,-127.9248046875
1758181498.8810978,-0.53857421875,-0.01513671875,0.845703125,1.3427734375,-0.48828125,0.42724609375,-1.0382080078125,32.8765869140625,-127.9412841796875
1758181498.8912055,-0.5390625,-0.01708984375,0.841796875,0.1220703125,-0.48828125,0.42724609375,-1.0272216796875,32.87109375,-127.957763671875
1758181498.9016263,-0.5390625,-0.01708984375,0.841796875,0.1220703125,-0.48828125,0.42724609375,-1.0272216796875,32.8656005859375,-127.9742431640625
1758181498.911219,-0.54052734375,-0.0146484375,0.84326171875,-0.54931640625,-0.48828125,0.6103515625,-1.0272216796875,32.860107421875,-127.99072265625
1758181498.921152,-0.54052734375,-0.0146484375,0.84326171875,-0.54931640625,-0.48828125,0.6103515625,-1.0272216796875,32.8546142578125,-128.001708984375
1758181498.9312992,-0.5390625,-0.0087890625,0.84326171875,-1.28173828125,-0.54931640625,0.732421875,-1.03271484375,32.84912109375,-128.0181884765625
1758181498.9411538,-0.5390625,-0.0087890625,0.84326171875,-1.28173828125,-0.54931640625,0.732421875,-1.043701171875,32.838134765625,-128.0291748046875
1758181498.951324,-0.53125,-0.01220703125,0.84130859375,-1.64794921875,-0.67138671875,0.6103515625,-1.0491943359375,32.8326416015625,-128.0401611328125
1758181498.9611094,-0.53125,-0.01220703125,0.84130859375,-1.64794921875,-0.67138671875,0.6103515625,-1.065673828125,32.8271484375,-128.0511474609375
1758181498.9716344,-0.53466796875,-0.01513671875,0.85205078125,-1.15966796875,-0.6103515625,0.54931640625,-1.0711669921875,32.816162109375,-128.0621337890625
1758181498.9811513,-0.53466796875,-0.01513671875,0.85205078125,-1.15966796875,-0.6103515625,0.54931640625,-1.0821533203125,32.8106689453125,-128.07861328125
1758181498.9912782,-0.54296875,-0.015625,0.84228515625,-1.0986328125,-0.3662109375,0.732421875,-1.087646484375,32.80517578125,-128.089599609375
1758181499.0020173,-0.54296875,-0.015625,0.84228515625,-1.0986328125,-0.3662109375,0.732421875,-1.0931396484375,32.7996826171875,-128.1005859375
1758181499.0113518,-0.546875,-0.0126953125,0.837890625,-2.50244140625,-0.42724609375,0.732421875,-1.1041259765625,32.794189453125,-128.111572265625
1758181499.0212877,-0.546875,-0.0126953125,0.837890625,-2.50244140625,-0.42724609375,0.732421875,-1.1260986328125,32.7886962890625,-128.12255859375
1758181499.0315187,-0.55126953125,-0.01025390625,0.83935546875,-2.74658203125,-0.244140625,0.732421875,-1.1480712890625,32.783203125,-128.1280517578125
1758181499.0414925,-0.55126953125,-0.01025390625,0.83935546875,-2.74658203125,-0.244140625,0.732421875,-1.1700439453125,32.783203125,-128.133544921875
1758181499.0514793,-0.55029296875,-0.0126953125,0.828125,-1.40380859375,-0.06103515625,0.6103515625,-1.1810302734375,32.7777099609375,-128.14453125
1758181499.061265,-0.55029296875,-0.0126953125,0.828125,-1.40380859375,-0.06103515625,0.6103515625,-1.1920166015625,32.7777099609375,-128.1500244140625
1758181499.0717595,-0.5576171875,-0.0166015625,0.8369140625,-0.48828125,0.0,0.6103515625,-1.197509765625,32.7777099609375,-128.155517578125
1758181499.0812838,-0.5576171875,-0.0166015625,0.8369140625,-0.48828125,0.0,0.6103515625,-1.197509765625,32.783203125,-128.1610107421875
1758181499.091816,-0.5537109375,-0.02197265625,0.8310546875,-0.732421875,0.1220703125,0.67138671875,-1.197509765625,32.783203125,-128.16650390625
1758181499.1020563,-0.5537109375,-0.02197265625,0.8310546875,-0.732421875,0.1220703125,0.67138671875,-1.197509765625,32.7886962890625,-128.1719970703125
1758181499.1115055,-0.5517578125,-0.01953125,0.83349609375,-1.220703125,0.06103515625,0.6103515625,-1.2030029296875,32.7886962890625,-128.177490234375
1758181499.121591,-0.5517578125,-0.01953125,0.83349609375,-1.220703125,0.06103515625,0.6103515625,-1.20849609375,32.794189453125,-128.1829833984375
1758181499.1316411,-0.5498046875,-0.01318359375,0.84228515625,-1.77001953125,0.1220703125,0.42724609375,-1.2249755859375,32.7996826171875,-128.1884765625
1758181499.1415143,-0.5498046875,-0.01318359375,0.84228515625,-1.77001953125,0.1220703125,0.42724609375,-1.2359619140625,32.7996826171875,-128.1939697265625
1758181499.1517882,-0.55078125,-0.01513671875,0.830078125,-0.9765625,0.0,0.3662109375,-1.241455078125,32.80517578125,-128.2049560546875
1758181499.1615136,-0.55078125,-0.01513671875,0.830078125,-0.9765625,0.0,0.3662109375,-1.25244140625,32.80517578125,-128.21044921875
1758181499.1717868,-0.548828125,-0.0185546875,0.82763671875,0.1220703125,-0.18310546875,0.244140625,-1.2469482421875,32.8106689453125,-128.2159423828125
1758181499.1815732,-0.548828125,-0.0185546875,0.82763671875,0.1220703125,-0.18310546875,0.244140625,-1.241455078125,32.8106689453125,-128.2269287109375
1758181499.1916976,-0.54931640625,-0.0166015625,0.83642578125,0.0,-0.42724609375,0.1220703125,-1.241455078125,32.8106689453125,-128.232421875
1758181499.2020938,-0.54931640625,-0.0166015625,0.83642578125,0.0,-0.42724609375,0.1220703125,-1.241455078125,32.80517578125,-128.243408203125
1758181499.2116277,-0.55126953125,-0.01611328125,0.83251953125,-0.42724609375,-0.6103515625,0.06103515625,-1.241455078125,32.80517578125,-128.2489013671875
1758181499.2217438,-0.55126953125,-0.01611328125,0.83251953125,-0.42724609375,-0.6103515625,0.06103515625,-1.2469482421875,32.7996826171875,-128.2598876953125
1758181499.232007,-0.56005859375,-0.01708984375,0.82763671875,-0.42724609375,-0.79345703125,0.06103515625,-1.2469482421875,32.7996826171875,-128.265380859375
1758181499.241575,-0.56005859375,-0.01708984375,0.82763671875,-0.42724609375,-0.79345703125,0.06103515625,-1.25244140625,32.794189453125,-128.2763671875
1758181499.2516968,-0.56689453125,-0.021484375,0.82275390625,-0.30517578125,-0.8544921875,0.0,-1.25244140625,32.7886962890625,-128.2818603515625
1758181499.2615075,-0.56689453125,-0.021484375,0.82275390625,-0.30517578125,-0.8544921875,0.0,-1.2579345703125,32.7886962890625,-128.287353515625
1758181499.2720387,-0.56494140625,-0.01708984375,0.82861328125,-0.48828125,-0.91552734375,-0.18310546875,-1.263427734375,32.783203125,-128.2928466796875
1758181499.2815647,-0.56494140625,-0.01708984375,0.82861328125,-0.48828125,-0.91552734375,-0.18310546875,-1.2689208984375,32.7777099609375,-128.3038330078125
1758181499.2920759,-0.564453125,-0.0166015625,0.82763671875,-0.42724609375,-0.79345703125,-0.30517578125,-1.2744140625,32.7777099609375,-128.309326171875
1758181499.302245,-0.564453125,-0.0166015625,0.82763671875,-0.42724609375,-0.79345703125,-0.30517578125,-1.2799072265625,32.7777099609375,-128.3203125
1758181499.3148742,-0.56201171875,-0.01611328125,0.8251953125,0.06103515625,-0.79345703125,-0.42724609375,-1.2799072265625,32.7777099609375,-128.331298828125
1758181499.3216581,-0.56201171875,-0.01611328125,0.8251953125,0.06103515625,-0.79345703125,-0.42724609375,-1.2799072265625,32.772216796875,-128.3367919921875
1758181499.3327804,-0.560546875,-0.01611328125,0.8310546875,0.3662109375,-0.732421875,-0.48828125,-1.2799072265625,32.772216796875,-128.3477783203125
1758181499.3416631,-0.560546875,-0.01611328125,0.8310546875,0.3662109375,-0.732421875,-0.48828125,-1.2799072265625,32.772216796875,-128.353271484375
1758181499.3519928,-0.560546875,-0.01953125,0.828125,-0.06103515625,-0.67138671875,-0.42724609375,-1.2799072265625,32.772216796875,-128.3642578125
1758181499.3616557,-0.560546875,-0.01953125,0.828125,-0.06103515625,-0.67138671875,-0.42724609375,-1.285400390625,32.772216796875,-128.3697509765625
1758181499.3720052,-0.56396484375,-0.021484375,0.8251953125,-0.3662109375,-0.67138671875,-0.3662109375,-1.2908935546875,32.7777099609375,-128.375244140625
1758181499.3817005,-0.56396484375,-0.021484375,0.8251953125,-0.3662109375,-0.67138671875,-0.3662109375,-1.29638671875,32.7777099609375,-128.3807373046875
1758181499.391737,-0.56884765625,-0.02001953125,0.82470703125,-0.18310546875,-0.54931640625,-0.3662109375,-1.29638671875,32.7777099609375,-128.38623046875
1758181499.4022336,-0.56884765625,-0.02001953125,0.82470703125,-0.18310546875,-0.54931640625,-0.3662109375,-1.3018798828125,32.783203125,-128.3917236328125
1758181499.4117866,-0.56982421875,-0.017578125,0.81884765625,0.0,-0.42724609375,-0.42724609375,-1.3018798828125,32.783203125,-128.397216796875
1758181499.4218013,-0.56982421875,-0.017578125,0.81884765625,0.0,-0.42724609375,-0.42724609375,-1.307373046875,32.7886962890625,-128.4027099609375
1758181499.4320545,-0.56494140625,-0.0146484375,0.8271484375,0.0,-0.42724609375,-0.3662109375,-1.307373046875,32.794189453125,-128.408203125
1758181499.4418476,-0.56494140625,-0.0146484375,0.8271484375,0.0,-0.42724609375,-0.3662109375,-1.3128662109375,32.7996826171875,-128.4136962890625
1758181499.4521284,-0.572265625,-0.0166015625,0.83056640625,-0.67138671875,-0.1220703125,-0.18310546875,-1.318359375,32.80517578125,-128.4136962890625
1758181499.4617994,-0.572265625,-0.0166015625,0.83056640625,-0.67138671875,-0.1220703125,-0.18310546875,-1.3238525390625,32.816162109375,-128.4136962890625
1758181499.4720876,-0.57861328125,-0.0244140625,0.8125,-0.3662109375,0.18310546875,0.0,-1.329345703125,32.8271484375,-128.4136962890625
1758181499.481832,-0.57861328125,-0.0244140625,0.8125,-0.3662109375,0.18310546875,0.0,-1.329345703125,32.838134765625,-128.4136962890625
1758181499.4918482,-0.59375,-0.025390625,0.80859375,0.18310546875,0.48828125,0.06103515625,-1.329345703125,32.8546142578125,-128.4136962890625
1758181499.5023623,-0.59375,-0.025390625,0.80859375,0.18310546875,0.48828125,0.06103515625,-1.329345703125,32.87109375,-128.408203125
1758181499.5120318,-0.59375,-0.021484375,0.81298828125,-0.1220703125,0.8544921875,0.06103515625,-1.329345703125,32.89306640625,-128.408203125
1758181499.5219343,-0.59375,-0.021484375,0.81298828125,-0.1220703125,0.8544921875,0.06103515625,-1.329345703125,32.9150390625,-128.4027099609375
1758181499.5321636,-0.5849609375,-0.0146484375,0.8154296875,-0.30517578125,1.03759765625,0.0,-1.3348388671875,32.93701171875,-128.4027099609375
1758181499.5419657,-0.5849609375,-0.0146484375,0.8154296875,-0.30517578125,1.03759765625,0.0,-1.3348388671875,32.958984375,-128.397216796875
1758181499.5522704,-0.591796875,-0.02099609375,0.81298828125,0.0,1.220703125,0.0,-1.3348388671875,32.9864501953125,-128.3917236328125
1758181499.5618958,-0.591796875,-0.02099609375,0.81298828125,0.0,1.220703125,0.0,-1.34033203125,33.013916015625,-128.3917236328125
1758181499.5723236,-0.5849609375,-0.0185546875,0.80810546875,0.18310546875,1.0986328125,0.0,-1.3348388671875,33.035888671875,-128.38623046875
1758181499.5819807,-0.5849609375,-0.0185546875,0.80810546875,0.18310546875,1.0986328125,0.0,-1.3348388671875,33.0633544921875,-128.3807373046875
1758181499.592216,-0.57666015625,-0.02099609375,0.81298828125,0.3662109375,0.732421875,0.0,-1.329345703125,33.0853271484375,-128.375244140625
1758181499.6023788,-0.57666015625,-0.02099609375,0.81298828125,0.3662109375,0.732421875,0.0,-1.329345703125,33.1072998046875,-128.3697509765625
1758181499.6120477,-0.5712890625,-0.0234375,0.81884765625,0.8544921875,0.3662109375,0.0,-1.318359375,33.123779296875,-128.3697509765625
1758181499.6222064,-0.5712890625,-0.0234375,0.81884765625,0.8544921875,0.3662109375,0.0,-1.3128662109375,33.1402587890625,-128.3642578125
1758181499.632091,-0.5634765625,-0.02294921875,0.82177734375,1.708984375,0.0,0.0,-1.29638671875,33.1512451171875,-128.3587646484375
1758181499.6421432,-0.5634765625,-0.02294921875,0.82177734375,1.708984375,0.0,0.0,-1.2799072265625,33.167724609375,-128.3587646484375
1758181499.6521015,-0.56298828125,-0.0205078125,0.8251953125,1.708984375,-0.30517578125,0.06103515625,-1.263427734375,33.1732177734375,-128.3587646484375
1758181499.6621618,-0.56298828125,-0.0205078125,0.8251953125,1.708984375,-0.30517578125,0.06103515625,-1.2469482421875,33.1842041015625,-128.3587646484375
1758181499.6724534,-0.55908203125,-0.0234375,0.8271484375,1.0986328125,-0.6103515625,0.06103515625,-1.2359619140625,33.1842041015625,-128.3587646484375
1758181499.6821055,-0.55908203125,-0.0234375,0.8271484375,1.0986328125,-0.6103515625,0.06103515625,-1.23046875,33.189697265625,-128.3587646484375
1758181499.6920738,-0.56298828125,-0.0205078125,0.82275390625,2.13623046875,-0.732421875,0.0,-1.20849609375,33.189697265625,-128.3587646484375
1758181499.7026298,-0.56298828125,-0.0205078125,0.82275390625,2.13623046875,-0.732421875,0.0,-1.1865234375,33.1951904296875,-128.3587646484375
1758181499.7121844,-0.54345703125,-0.0205078125,0.83935546875,3.84521484375,-1.0986328125,-0.244140625,-1.153564453125,33.189697265625,-128.3642578125
1758181499.722221,-0.54345703125,-0.0205078125,0.83935546875,3.84521484375,-1.0986328125,-0.244140625,-1.12060546875,33.189697265625,-128.375244140625
1758181499.732326,-0.53857421875,-0.001953125,0.85009765625,2.8076171875,-0.91552734375,-0.06103515625,-1.0931396484375,33.1842041015625,-128.3807373046875
1758181499.742329,-0.53857421875,-0.001953125,0.85009765625,2.8076171875,-0.91552734375,-0.06103515625,-1.065673828125,33.1842041015625,-128.38623046875
1758181499.7522132,-0.529296875,-0.013671875,0.837890625,0.91552734375,-0.9765625,-0.06103515625,-1.0546875,33.1787109375,-128.397216796875
1758181499.7623308,-0.529296875,-0.013671875,0.837890625,0.91552734375,-0.9765625,-0.06103515625,-1.0491943359375,33.167724609375,-128.4027099609375
1758181499.7724624,-0.5361328125,-0.00048828125,0.8466796875,-1.220703125,-0.91552734375,0.0,-1.0601806640625,33.1622314453125,-128.4136962890625
1758181499.7822518,-0.5361328125,-0.00048828125,0.8466796875,-1.220703125,-0.91552734375,0.0,-1.0711669921875,33.15673828125,-128.419189453125
1758181499.7922313,-0.53173828125,-0.009765625,0.85009765625,-2.25830078125,-0.8544921875,0.0,-1.0931396484375,33.1512451171875,-128.43017578125
1758181499.8027,-0.53173828125,-0.009765625,0.85009765625,-2.25830078125,-0.8544921875,0.0,-1.1151123046875,33.1402587890625,-128.4356689453125
1758181499.8122134,-0.53466796875,-0.00927734375,0.84814453125,-1.5869140625,-0.6103515625,0.0,-1.1260986328125,33.134765625,-128.4466552734375
1758181499.8224661,-0.53466796875,-0.00927734375,0.84814453125,-1.5869140625,-0.6103515625,0.0,-1.142578125,33.1292724609375,-128.4521484375
1758181499.829337,-0.53466796875,-0.00927734375,0.84814453125,-1.5869140625,-0.6103515625,0.0,-11.07421875,-112.412109375,104.8590087890625
1758181499.8323953,-0.53662109375,0.00244140625,0.84375,-2.74658203125,-0.48828125,0.0,-1.1700439453125,33.123779296875,-128.4576416015625
1758181499.8424666,-0.53662109375,0.00244140625,0.84375,-2.74658203125,-0.48828125,0.0,-1.1920166015625,33.1182861328125,-128.4686279296875
1758181499.852332,-0.53369140625,-0.01171875,0.84814453125,-5.43212890625,-0.30517578125,0.0,-1.241455078125,33.11279296875,-128.47412109375
1758181499.8623397,-0.53369140625,-0.01171875,0.84814453125,-5.43212890625,-0.30517578125,0.0,-1.2908935546875,33.1072998046875,-128.4796142578125
1758181499.872639,-0.53759765625,-0.021484375,0.85302734375,-6.7138671875,0.0,-0.06103515625,-1.3568115234375,33.101806640625,-128.4906005859375
1758181499.8823805,-0.53759765625,-0.021484375,0.85302734375,-6.7138671875,0.0,-0.06103515625,-1.4227294921875,33.101806640625,-128.49609375
1758181499.89326,-0.5283203125,-0.03759765625,0.83935546875,-5.615234375,0.06103515625,-0.06103515625,-1.4776611328125,33.0963134765625,-128.507080078125
1758181499.905904,-0.5283203125,-0.03759765625,0.83935546875,-5.615234375,0.06103515625,-0.06103515625,-1.527099609375,33.0963134765625,-128.5235595703125
1758181499.912617,-0.52978515625,-0.03759765625,0.84228515625,-3.11279296875,0.1220703125,-0.18310546875,-1.56005859375,33.0963134765625,-128.5345458984375
1758181499.9224164,-0.52978515625,-0.03759765625,0.84228515625,-3.11279296875,0.1220703125,-0.18310546875,-1.593017578125,33.0908203125,-128.551025390625
1758181499.932677,-0.52685546875,-0.0341796875,0.84912109375,-1.28173828125,0.18310546875,-0.30517578125,-1.60400390625,33.0908203125,-128.5675048828125
1758181499.9425795,-0.52685546875,-0.0341796875,0.84912109375,-1.28173828125,0.18310546875,-0.30517578125,-1.6204833984375,33.0853271484375,-128.5894775390625
1758181499.95248,-0.52685546875,-0.03369140625,0.845703125,0.3662109375,0.244140625,-0.48828125,-1.6204833984375,33.0853271484375,-128.6114501953125
1758181499.9628642,-0.52685546875,-0.03369140625,0.845703125,0.3662109375,0.244140625,-0.48828125,-1.6204833984375,33.079833984375,-128.6334228515625
1758181499.9729116,-0.53173828125,-0.02734375,0.8427734375,1.64794921875,0.18310546875,-0.48828125,-1.6094970703125,33.079833984375,-128.64990234375
1758181499.9825528,-0.53173828125,-0.02734375,0.8427734375,1.64794921875,0.18310546875,-0.48828125,-1.593017578125,33.0743408203125,-128.671875
1758181499.9925907,-0.53271484375,-0.021484375,0.85009765625,2.9296875,0.1220703125,-0.48828125,-1.571044921875,33.0743408203125,-128.69384765625
1758181500.0030155,-0.53271484375,-0.021484375,0.85009765625,2.9296875,0.1220703125,-0.48828125,-1.5435791015625,33.06884765625,-128.7158203125
1758181500.0125387,-0.53125,-0.0224609375,0.84130859375,3.662109375,0.244140625,-0.54931640625,-1.5106201171875,33.0633544921875,-128.73779296875
1758181500.022584,-0.53125,-0.0224609375,0.84130859375,3.662109375,0.244140625,-0.54931640625,-1.4776611328125,33.0633544921875,-128.759765625
1758181500.0328634,-0.5322265625,-0.01904296875,0.84033203125,3.96728515625,0.18310546875,-0.79345703125,-1.4447021484375,33.057861328125,-128.7872314453125
1758181500.0426912,-0.5322265625,-0.01904296875,0.84033203125,3.96728515625,0.18310546875,-0.79345703125,-1.4117431640625,33.057861328125,-128.8092041015625
1758181500.0526075,-0.53369140625,-0.015625,0.8466796875,3.84521484375,0.18310546875,-0.91552734375,-1.38427734375,33.0523681640625,-128.836669921875
1758181500.062596,-0.53369140625,-0.015625,0.8466796875,3.84521484375,0.18310546875,-0.91552734375,-1.351318359375,33.0523681640625,-128.858642578125
1758181500.0729098,-0.53466796875,-0.013671875,0.84130859375,3.35693359375,0.18310546875,-0.91552734375,-1.3238525390625,33.046875,-128.8861083984375
1758181500.0826874,-0.53466796875,-0.013671875,0.84130859375,3.35693359375,0.18310546875,-0.91552734375,-1.29638671875,33.0413818359375,-128.9080810546875
1758181500.092653,-0.53271484375,-0.0302734375,0.8466796875,2.99072265625,0.0,-1.03759765625,-1.2744140625,33.0413818359375,-128.935546875
1758181500.1032188,-0.53271484375,-0.0302734375,0.8466796875,2.99072265625,0.0,-1.03759765625,-1.25244140625,33.035888671875,-128.9630126953125
1758181500.112652,-0.53466796875,-0.00537109375,0.85791015625,1.03759765625,0.0,-0.91552734375,-1.25244140625,33.0303955078125,-128.9849853515625
1758181500.1226947,-0.53466796875,-0.00537109375,0.85791015625,1.03759765625,0.0,-0.91552734375,-1.2469482421875,33.02490234375,-129.0069580078125
1758181500.1331534,-0.53271484375,-0.00927734375,0.83984375,-0.18310546875,0.1220703125,-0.79345703125,-1.25244140625,33.0194091796875,-129.0289306640625
1758181500.1428175,-0.53759765625,-0.00439453125,0.84033203125,-2.50244140625,0.06103515625,-1.0986328125,-1.2744140625,33.013916015625,-129.0509033203125
1758181500.1527426,-0.53759765625,-0.00439453125,0.84033203125,-2.50244140625,0.06103515625,-1.0986328125,-1.3018798828125,33.013916015625,-129.0728759765625
1758181500.1629446,-0.53466796875,-0.01318359375,0.8515625,-3.2958984375,0.1220703125,-1.0986328125,-1.34033203125,33.0084228515625,-129.08935546875
1758181500.1731174,-0.53466796875,-0.01318359375,0.8515625,-3.2958984375,0.1220703125,-1.0986328125,-1.373291015625,33.0029296875,-129.111328125
1758181500.182814,-0.53369140625,-0.02197265625,0.8466796875,-2.5634765625,0.244140625,-0.91552734375,-1.4117431640625,33.0029296875,-129.13330078125
1758181500.193666,-0.53369140625,-0.02197265625,0.8466796875,-2.5634765625,0.244140625,-0.91552734375,-1.439208984375,32.9974365234375,-129.1497802734375
1758181500.2066824,-0.53515625,-0.0244140625,0.8427734375,-2.86865234375,0.1220703125,-0.79345703125,-1.4666748046875,32.9974365234375,-129.166259765625
1758181500.2128546,-0.53515625,-0.0244140625,0.8427734375,-2.86865234375,0.1220703125,-0.79345703125,-1.4996337890625,32.991943359375,-129.1827392578125
1758181500.2228255,-0.5390625,-0.02685546875,0.84521484375,-4.69970703125,0.1220703125,-0.67138671875,-1.5435791015625,32.991943359375,-129.19921875
1758181500.2333417,-0.5390625,-0.02685546875,0.84521484375,-4.69970703125,0.1220703125,-0.67138671875,-1.593017578125,32.9864501953125,-129.2156982421875
1758181500.242931,-0.5390625,-0.02685546875,0.84521484375,-5.67626953125,0.06103515625,-0.67138671875,-1.64794921875,32.9864501953125,-129.232177734375
1758181500.252911,-0.5390625,-0.02685546875,0.84521484375,-5.67626953125,0.06103515625,-0.67138671875,-1.702880859375,32.98095703125,-129.2486572265625
1758181500.262816,-0.53466796875,-0.0302734375,0.8515625,-4.08935546875,0.18310546875,-0.6103515625,-1.7578125,32.9754638671875,-129.2596435546875
1758181500.2731307,-0.53466796875,-0.0302734375,0.8515625,-4.08935546875,0.18310546875,-0.6103515625,-1.7962646484375,32.9754638671875,-129.276123046875
1758181500.2829332,-0.537109375,-0.033203125,0.84423828125,-2.197265625,0.30517578125,-0.54931640625,-1.8292236328125,32.969970703125,-129.287109375
1758181500.2930272,-0.537109375,-0.033203125,0.84423828125,-2.197265625,0.30517578125,-0.54931640625,-1.856689453125,32.969970703125,-129.3035888671875
1758181500.303271,-0.54541015625,-0.0341796875,0.837890625,-1.220703125,0.48828125,-0.42724609375,-1.8731689453125,32.969970703125,-129.3145751953125
1758181500.3129458,-0.54541015625,-0.0341796875,0.837890625,-1.220703125,0.48828125,-0.42724609375,-1.8896484375,32.969970703125,-129.3255615234375
1758181500.3232489,-0.544921875,-0.0341796875,0.8369140625,-1.03759765625,0.54931640625,-0.3662109375,-1.900634765625,32.9754638671875,-129.3365478515625
1758181500.3334281,-0.544921875,-0.0341796875,0.8369140625,-1.03759765625,0.54931640625,-0.3662109375,-1.91162109375,32.9754638671875,-129.3475341796875
1758181500.3430264,-0.544921875,-0.037109375,0.8408203125,-1.0986328125,0.67138671875,-0.18310546875,-1.9281005859375,32.98095703125,-129.3585205078125
1758181500.3530855,-0.544921875,-0.037109375,0.8408203125,-1.0986328125,0.67138671875,-0.18310546875,-1.9390869140625,32.9864501953125,-129.3695068359375
1758181500.362918,-0.53955078125,-0.0302734375,0.83935546875,-1.52587890625,0.79345703125,0.0,-1.95556640625,32.991943359375,-129.375
1758181500.3731716,-0.53955078125,-0.0302734375,0.83935546875,-1.52587890625,0.79345703125,0.0,-1.966552734375,32.9974365234375,-129.3804931640625
1758181500.3829901,-0.5302734375,-0.02734375,0.845703125,-1.46484375,0.6103515625,0.0,-1.9830322265625,32.9974365234375,-129.385986328125
1758181500.3930042,-0.5302734375,-0.02734375,0.845703125,-1.46484375,0.6103515625,0.0,-1.99951171875,33.0029296875,-129.385986328125
1758181500.4033842,-0.52783203125,-0.02490234375,0.85400390625,-1.0986328125,0.42724609375,0.1220703125,-2.010498046875,33.0029296875,-129.3914794921875
1758181500.413138,-0.52783203125,-0.02490234375,0.85400390625,-1.0986328125,0.42724609375,0.1220703125,-2.021484375,33.0084228515625,-129.3914794921875
1758181500.423173,-0.52685546875,-0.03369140625,0.84375,-1.15966796875,0.244140625,0.18310546875,-2.032470703125,33.0084228515625,-129.39697265625
1758181500.4336395,-0.52685546875,-0.03369140625,0.84375,-1.15966796875,0.244140625,0.18310546875,-2.0379638671875,33.0029296875,-129.39697265625
1758181500.4432547,-0.53271484375,-0.03369140625,0.84033203125,-0.3662109375,0.06103515625,0.30517578125,-2.04345703125,33.0029296875,-129.39697265625
1758181500.453162,-0.53271484375,-0.03369140625,0.84033203125,-0.3662109375,0.06103515625,0.30517578125,-2.0489501953125,32.9974365234375,-129.39697265625
1758181500.4631107,-0.53564453125,-0.03515625,0.845703125,-0.244140625,0.0,0.3662109375,-2.0489501953125,32.991943359375,-129.4024658203125
1758181500.4733322,-0.53564453125,-0.03515625,0.845703125,-0.244140625,0.0,0.3662109375,-2.0489501953125,32.991943359375,-129.4024658203125
1758181500.4832296,-0.541015625,-0.03125,0.8427734375,-0.8544921875,0.0,0.42724609375,-2.054443359375,32.9864501953125,-129.4024658203125
1758181500.4932513,-0.541015625,-0.03125,0.8427734375,-0.8544921875,0.0,0.42724609375,-2.0599365234375,32.98095703125,-129.39697265625
1758181500.503464,-0.54443359375,-0.02880859375,0.83837890625,-0.79345703125,-0.06103515625,0.42724609375,-2.0654296875,32.98095703125,-129.39697265625
1758181500.5132673,-0.54443359375,-0.02880859375,0.83837890625,-0.79345703125,-0.06103515625,0.42724609375,-2.0709228515625,32.9754638671875,-129.39697265625
1758181500.5233731,-0.5439453125,-0.0205078125,0.84521484375,-0.67138671875,0.0,0.6103515625,-2.0709228515625,32.969970703125,-129.3914794921875
1758181500.5336037,-0.5439453125,-0.0205078125,0.84521484375,-0.67138671875,0.0,0.6103515625,-2.076416015625,32.969970703125,-129.385986328125
1758181500.5434072,-0.5390625,-0.0439453125,0.8359375,-0.1220703125,0.1220703125,0.48828125,-2.076416015625,32.969970703125,-129.3804931640625
1758181500.5533545,-0.5390625,-0.0439453125,0.8359375,-0.1220703125,0.1220703125,0.48828125,-2.0709228515625,32.969970703125,-129.3804931640625
1758181500.5633352,-0.546875,-0.03857421875,0.83056640625,1.03759765625,0.244140625,0.3662109375,-2.0654296875,32.9644775390625,-129.375
1758181500.5734472,-0.546875,-0.03857421875,0.83056640625,1.03759765625,0.244140625,0.3662109375,-2.054443359375,32.969970703125,-129.3695068359375
1758181500.5833516,-0.5419921875,-0.03369140625,0.8408203125,0.9765625,0.18310546875,0.18310546875,-2.04345703125,32.969970703125,-129.3695068359375
1758181500.5934896,-0.5419921875,-0.03369140625,0.8408203125,0.9765625,0.18310546875,0.18310546875,-2.032470703125,32.969970703125,-129.3695068359375
1758181500.6035879,-0.537109375,-0.02978515625,0.8447265625,0.9765625,0.18310546875,0.06103515625,-2.0269775390625,32.969970703125,-129.3695068359375
1758181500.6133573,-0.537109375,-0.02978515625,0.8447265625,0.9765625,0.18310546875,0.06103515625,-2.0159912109375,32.969970703125,-129.3695068359375
1758181500.6236598,-0.533203125,-0.02587890625,0.84228515625,1.953125,0.0,0.0,-2.0050048828125,32.969970703125,-129.375
1758181500.63374,-0.533203125,-0.02587890625,0.84228515625,1.953125,0.0,0.0,-1.9830322265625,32.9644775390625,-129.375
1758181500.643447,-0.53515625,-0.02490234375,0.845703125,1.8310546875,-0.1220703125,0.0,-1.966552734375,32.9644775390625,-129.375
1758181500.6533678,-0.53515625,-0.02490234375,0.845703125,1.8310546875,-0.1220703125,0.0,-1.9500732421875,32.958984375,-129.375
1758181500.663418,-0.53369140625,-0.02734375,0.84375,1.0986328125,-0.42724609375,0.0,-1.93359375,32.9534912109375,-129.375
1758181500.6735406,-0.53369140625,-0.02734375,0.84375,1.0986328125,-0.42724609375,0.0,-1.922607421875,32.947998046875,-129.375
1758181500.6834297,-0.53125,-0.0302734375,0.84765625,0.67138671875,-0.732421875,0.0,-1.9171142578125,32.9425048828125,-129.375
1758181500.6934998,-0.53125,-0.0302734375,0.84765625,0.67138671875,-0.732421875,0.0,-1.91162109375,32.9315185546875,-129.375
1758181500.703752,-0.53125,-0.029296875,0.85205078125,0.244140625,-0.732421875,0.06103515625,-1.9061279296875,32.9205322265625,-129.375
1758181500.7135282,-0.53125,-0.029296875,0.85205078125,0.244140625,-0.732421875,0.06103515625,-1.900634765625,32.9095458984375,-129.3695068359375
1758181500.7237575,-0.5302734375,-0.02294921875,0.8505859375,-0.8544921875,-0.6103515625,0.0,-1.9061279296875,32.8985595703125,-129.3695068359375
1758181500.7338204,-0.5302734375,-0.02294921875,0.8505859375,-0.8544921875,-0.6103515625,0.0,-1.91162109375,32.8875732421875,-129.3695068359375
1758181500.7435973,-0.5302734375,-0.02294921875,0.8505859375,-1.03759765625,-0.48828125,0.0,-1.922607421875,32.882080078125,-129.3695068359375
1758181500.7535298,-0.53369140625,-0.0263671875,0.8447265625,-1.03759765625,-0.48828125,0.0,-1.93359375,32.87109375,-129.364013671875
1758181500.7635658,-0.537109375,-0.0302734375,0.84228515625,0.48828125,-0.18310546875,-0.18310546875,-1.9390869140625,32.8656005859375,-129.364013671875
1758181500.7737339,-0.537109375,-0.0302734375,0.84228515625,0.48828125,-0.18310546875,-0.18310546875,-1.93359375,32.860107421875,-129.364013671875
1758181500.7836213,-0.53369140625,-0.03857421875,0.84814453125,1.0986328125,0.06103515625,-0.3662109375,-1.9281005859375,32.8546142578125,-129.3695068359375
1758181500.794061,-0.53369140625,-0.03857421875,0.84814453125,1.0986328125,0.06103515625,-0.3662109375,-1.9171142578125,32.8546142578125,-129.3695068359375
1758181500.8046255,-0.5341796875,-0.02001953125,0.8525390625,0.42724609375,0.30517578125,-0.48828125,-1.9171142578125,32.84912109375,-129.375
1758181500.8137112,-0.5341796875,-0.02001953125,0.8525390625,0.42724609375,0.30517578125,-0.48828125,-1.91162109375,32.84912109375,-129.3804931640625
1758181500.8239245,-0.529296875,-0.0244140625,0.84375,0.79345703125,0.48828125,-0.67138671875,-1.91162109375,32.84912109375,-129.385986328125
1758181500.8338728,-0.529296875,-0.0244140625,0.84375,0.79345703125,0.48828125,-0.67138671875,-1.9061279296875,32.84912109375,-129.3914794921875
1758181500.8438673,-0.53662109375,-0.02978515625,0.84228515625,2.50244140625,0.6103515625,-0.91552734375,-1.8951416015625,32.84912109375,-129.4024658203125
1758181500.85374,-0.53662109375,-0.02978515625,0.84228515625,2.50244140625,0.6103515625,-0.91552734375,-1.878662109375,32.8546142578125,-129.407958984375
1758181500.8639202,-0.5380859375,-0.029296875,0.8388671875,4.08935546875,0.6103515625,-1.15966796875,-1.8511962890625,32.8546142578125,-129.4189453125
1758181500.8740706,-0.5380859375,-0.029296875,0.8388671875,4.08935546875,0.6103515625,-1.15966796875,-1.8182373046875,32.860107421875,-129.429931640625
1758181500.8839462,-0.53759765625,-0.021484375,0.837890625,4.0283203125,0.54931640625,-1.220703125,-1.7852783203125,32.860107421875,-129.4464111328125
1758181500.8937602,-0.53759765625,-0.021484375,0.837890625,4.0283203125,0.54931640625,-1.220703125,-1.7523193359375,32.8656005859375,-129.4573974609375
1758181500.9045255,-0.537109375,-0.01611328125,0.84716796875,1.953125,0.48828125,-1.15966796875,-1.73583984375,32.8656005859375,-129.4683837890625
1758181500.914017,-0.537109375,-0.01611328125,0.84716796875,1.953125,0.48828125,-1.15966796875,-1.7193603515625,32.8656005859375,-129.473876953125
1758181500.9239519,-0.54052734375,-0.0234375,0.84423828125,0.6103515625,0.54931640625,-1.28173828125,-1.7138671875,32.87109375,-129.48486328125
1758181500.9339707,-0.54052734375,-0.0234375,0.84423828125,0.6103515625,0.54931640625,-1.28173828125,-1.7193603515625,32.87109375,-129.495849609375
1758181500.9440196,-0.54443359375,-0.02734375,0.83447265625,1.46484375,0.54931640625,-1.40380859375,-1.7138671875,32.87109375,-129.5068359375
1758181500.953841,-0.54443359375,-0.02734375,0.83447265625,1.46484375,0.54931640625,-1.40380859375,-1.7083740234375,32.8765869140625,-129.517822265625
1758181500.9639971,-0.54443359375,-0.02099609375,0.84228515625,1.46484375,0.6103515625,-1.52587890625,-1.7083740234375,32.882080078125,-129.52880859375
1758181500.97406,-0.54443359375,-0.02099609375,0.84228515625,1.46484375,0.6103515625,-1.52587890625,-1.702880859375,32.882080078125,-129.539794921875
1758181500.9840379,-0.53759765625,-0.017578125,0.84619140625,0.54931640625,0.6103515625,-1.5869140625,-1.702880859375,32.8875732421875,-129.5562744140625
1758181500.9938881,-0.53759765625,-0.017578125,0.84619140625,0.54931640625,0.6103515625,-1.5869140625,-1.702880859375,32.89306640625,-129.5672607421875
1758181501.0048227,-0.52978515625,-0.0244140625,0.84716796875,-0.18310546875,0.6103515625,-1.52587890625,-1.7138671875,32.89306640625,-129.57275390625
1758181501.0140421,-0.52978515625,-0.0244140625,0.84716796875,-0.18310546875,0.6103515625,-1.52587890625,-1.724853515625,32.8985595703125,-129.583740234375
1758181501.0246506,-0.53857421875,-0.02490234375,0.8427734375,-0.91552734375,0.6103515625,-1.40380859375,-1.73583984375,32.904052734375,-129.5947265625
1758181501.0348487,-0.53857421875,-0.02490234375,0.8427734375,-0.91552734375,0.6103515625,-1.40380859375,-1.7523193359375,32.904052734375,-129.605712890625
1758181501.0440962,-0.5361328125,-0.0224609375,0.84033203125,-2.01416015625,0.48828125,-1.40380859375,-1.77978515625,32.9095458984375,-129.61669921875
1758181501.054006,-0.5361328125,-0.0224609375,0.84033203125,-2.01416015625,0.48828125,-1.40380859375,-1.8072509765625,32.9095458984375,-129.6221923828125
1758181501.070303,-0.5380859375,-0.02197265625,0.84619140625,-2.50244140625,0.30517578125,-1.40380859375,-1.834716796875,32.9095458984375,-129.6331787109375
1758181501.0768933,-0.5380859375,-0.02197265625,0.84619140625,-2.50244140625,0.30517578125,-1.40380859375,-1.86767578125,32.9095458984375,-129.638671875
1758181501.0841935,-0.54248046875,-0.0263671875,0.84130859375,-2.99072265625,0.1220703125,-1.220703125,-1.900634765625,32.9095458984375,-129.6441650390625
1758181501.095591,-0.54248046875,-0.0263671875,0.84130859375,-2.99072265625,0.1220703125,-1.220703125,-1.9390869140625,32.9095458984375,-129.649658203125
1758181501.1057913,-0.5419921875,-0.02978515625,0.8388671875,-3.5400390625,0.0,-1.03759765625,-1.9775390625,32.904052734375,-129.6551513671875
1758181501.114217,-0.5419921875,-0.02978515625,0.8388671875,-3.5400390625,0.0,-1.03759765625,-2.0159912109375,32.904052734375,-129.6551513671875
1758181501.1244235,-0.54541015625,-0.02880859375,0.84228515625,-5.06591796875,0.0,-0.79345703125,-2.0654296875,32.904052734375,-129.6551513671875
1758181501.1344097,-0.54541015625,-0.02880859375,0.84228515625,-5.06591796875,0.0,-0.79345703125,-2.1148681640625,32.8985595703125,-129.6551513671875
1758181501.1444695,-0.54638671875,-0.03125,0.83349609375,-6.16455078125,-0.06103515625,-0.6103515625,-2.1807861328125,32.8985595703125,-129.649658203125
1758181501.1541905,-0.54638671875,-0.03125,0.83349609375,-6.16455078125,-0.06103515625,-0.6103515625,-2.2412109375,32.8985595703125,-129.649658203125
1758181501.1644704,-0.548828125,-0.0341796875,0.83740234375,-6.34765625,-0.244140625,-0.42724609375,-2.30712890625,32.89306640625,-129.638671875
1758181501.1744857,-0.548828125,-0.0341796875,0.83740234375,-6.34765625,-0.244140625,-0.42724609375,-2.3675537109375,32.89306640625,-129.6331787109375
1758181501.1845238,-0.5478515625,-0.037109375,0.83837890625,-6.4697265625,-0.244140625,-0.18310546875,-2.4334716796875,32.8875732421875,-129.6221923828125
1758181501.1941795,-0.5478515625,-0.037109375,0.83837890625,-6.4697265625,-0.244140625,-0.18310546875,-2.493896484375,32.8875732421875,-129.6112060546875
1758181501.2049422,-0.54736328125,-0.04345703125,0.8330078125,-6.77490234375,-0.30517578125,0.0,-2.559814453125,32.882080078125,-129.6002197265625
1758181501.214296,-0.54736328125,-0.04345703125,0.8330078125,-6.77490234375,-0.30517578125,0.0,-2.625732421875,32.882080078125,-129.5892333984375
1758181501.2245219,-0.5478515625,-0.046875,0.83642578125,-6.65283203125,-0.3662109375,0.0,-2.691650390625,32.8765869140625,-129.5782470703125
1758181501.2344286,-0.5478515625,-0.046875,0.83642578125,-6.65283203125,-0.3662109375,0.0,-2.7520751953125,32.8765869140625,-129.5672607421875
1758181501.2445257,-0.5478515625,-0.046875,0.83642578125,-5.92041015625,-0.30517578125,0.06103515625,-2.8125,32.87109375,-129.55078125
1758181501.2543259,-0.5478515625,-0.046875,0.83642578125,-5.92041015625,-0.30517578125,0.06103515625,-2.867431640625,32.87109375,-129.539794921875
1758181501.2645566,-0.54638671875,-0.05224609375,0.8330078125,-5.126953125,-0.42724609375,0.0,-2.9168701171875,32.8656005859375,-129.52880859375
1758181501.2744825,-0.54638671875,-0.05224609375,0.8330078125,-5.126953125,-0.42724609375,0.0,-2.96630859375,32.8656005859375,-129.517822265625
1758181501.2845151,-0.548828125,-0.05126953125,0.83544921875,-4.21142578125,-0.3662109375,0.1220703125,-3.0047607421875,32.860107421875,-129.5013427734375
1758181501.2943137,-0.548828125,-0.05126953125,0.83544921875,-4.21142578125,-0.3662109375,0.1220703125,-3.043212890625,32.860107421875,-129.4903564453125
1758181501.3051627,-0.54443359375,-0.05126953125,0.8369140625,-3.173828125,-0.244140625,0.1220703125,-3.076171875,32.860107421875,-129.473876953125
1758181501.3146563,-0.54443359375,-0.05126953125,0.8369140625,-3.173828125,-0.244140625,0.1220703125,-3.1036376953125,32.8546142578125,-129.4573974609375
1758181501.3244917,-0.54052734375,-0.0517578125,0.83984375,-2.01416015625,-0.1220703125,0.06103515625,-3.1256103515625,32.8546142578125,-129.4464111328125
1758181501.3347383,-0.54052734375,-0.0517578125,0.83984375,-2.01416015625,-0.1220703125,0.06103515625,-3.14208984375,32.8546142578125,-129.4354248046875
1758181501.3444986,-0.53515625,-0.0556640625,0.8408203125,-0.54931640625,0.0,0.0,-3.1475830078125,32.8546142578125,-129.4189453125
1758181501.3544092,-0.53515625,-0.0556640625,0.8408203125,-0.54931640625,0.0,0.0,-3.153076171875,32.8546142578125,-129.407958984375
1758181501.3646772,-0.53271484375,-0.0693359375,0.84423828125,2.13623046875,0.06103515625,-0.244140625,-3.1365966796875,32.860107421875,-129.4024658203125
1758181501.3747056,-0.53271484375,-0.0693359375,0.84423828125,2.13623046875,0.06103515625,-0.244140625,-3.1201171875,32.860107421875,-129.39697265625
1758181501.384474,-0.5322265625,-0.05029296875,0.84765625,3.0517578125,0.30517578125,-0.42724609375,-3.0926513671875,32.860107421875,-129.3914794921875
1758181501.3944898,-0.5322265625,-0.05029296875,0.84765625,3.0517578125,0.30517578125,-0.42724609375,-3.0706787109375,32.860107421875,-129.3914794921875
1758181501.4048874,-0.53076171875,-0.037109375,0.845703125,3.662109375,0.42724609375,-0.30517578125,-3.0377197265625,32.8656005859375,-129.385986328125
1758181501.41457,-0.53076171875,-0.037109375,0.845703125,3.662109375,0.42724609375,-0.30517578125,-3.0047607421875,32.8656005859375,-129.3804931640625
1758181501.4245808,-0.5322265625,-0.046875,0.8515625,3.72314453125,0.54931640625,-0.42724609375,-2.9718017578125,32.87109375,-129.375
1758181501.4347274,-0.5322265625,-0.046875,0.8515625,3.72314453125,0.54931640625,-0.42724609375,-2.9388427734375,32.87109375,-129.3695068359375
1758181501.4447596,-0.52587890625,-0.0419921875,0.84765625,5.43212890625,0.6103515625,-0.6103515625,-2.889404296875,32.87109375,-129.3695068359375
1758181501.454525,-0.52587890625,-0.0419921875,0.84765625,5.43212890625,0.6103515625,-0.6103515625,-2.8399658203125,32.8765869140625,-129.364013671875
1758181501.4648094,-0.521484375,-0.04248046875,0.84765625,6.53076171875,0.732421875,-0.732421875,-2.7850341796875,32.882080078125,-129.364013671875
1758181501.4748037,-0.521484375,-0.04248046875,0.84765625,6.53076171875,0.732421875,-0.732421875,-2.724609375,32.882080078125,-129.364013671875
1758181501.484504,-0.5205078125,-0.03955078125,0.8544921875,5.4931640625,0.67138671875,-0.732421875,-2.6806640625,32.882080078125,-129.3695068359375
1758181501.4952302,-0.5205078125,-0.03955078125,0.8544921875,5.4931640625,0.67138671875,-0.732421875,-2.6312255859375,32.8875732421875,-129.3695068359375
1758181501.5048735,-0.51806640625,-0.0380859375,0.857421875,4.45556640625,0.67138671875,-0.732421875,-2.5927734375,32.8875732421875,-129.375
1758181501.5146198,-0.51806640625,-0.0380859375,0.857421875,4.45556640625,0.67138671875,-0.732421875,-2.5543212890625,32.8875732421875,-129.375
1758181501.5247428,-0.51611328125,-0.0361328125,0.853515625,4.69970703125,0.6103515625,-0.732421875,-2.515869140625,32.8875732421875,-129.3804931640625
1758181501.5347867,-0.51611328125,-0.0361328125,0.853515625,4.69970703125,0.6103515625,-0.732421875,-2.4774169921875,32.882080078125,-129.3804931640625
1758181501.5448635,-0.5224609375,-0.03369140625,0.8525390625,4.638671875,0.54931640625,-0.8544921875,-2.43896484375,32.882080078125,-129.385986328125
1758181501.5547392,-0.5224609375,-0.03369140625,0.8525390625,4.638671875,0.54931640625,-0.8544921875,-2.4005126953125,32.882080078125,-129.3914794921875
1758181501.5646966,-0.52978515625,-0.02978515625,0.85107421875,4.2724609375,0.54931640625,-0.8544921875,-2.362060546875,32.8765869140625,-129.39697265625
1758181501.574864,-0.52978515625,-0.02978515625,0.85107421875,4.2724609375,0.54931640625,-0.8544921875,-2.3291015625,32.8765869140625,-129.39697265625
1758181501.5846848,-0.53955078125,-0.0341796875,0.8408203125,4.5166015625,0.6103515625,-0.79345703125,-2.2906494140625,32.8765869140625,-129.4024658203125
1758181501.5949378,-0.53955078125,-0.0341796875,0.8408203125,4.5166015625,0.6103515625,-0.79345703125,-2.252197265625,32.8765869140625,-129.4024658203125
1758181501.6050384,-0.54443359375,-0.037109375,0.8369140625,4.82177734375,0.67138671875,-0.6103515625,-2.208251953125,32.8765869140625,-129.4024658203125
1758181501.614795,-0.54443359375,-0.037109375,0.8369140625,4.82177734375,0.67138671875,-0.6103515625,-2.1697998046875,32.8765869140625,-129.4024658203125
1758181501.6248312,-0.54736328125,-0.037109375,0.83740234375,3.72314453125,0.79345703125,-0.48828125,-2.1368408203125,32.882080078125,-129.4024658203125
1758181501.635045,-0.54736328125,-0.037109375,0.83740234375,3.72314453125,0.79345703125,-0.48828125,-2.1038818359375,32.8875732421875,-129.39697265625
1758181501.645082,-0.548828125,-0.03076171875,0.837890625,3.35693359375,0.8544921875,-0.3662109375,-2.076416015625,32.8875732421875,-129.39697265625
1758181501.6548002,-0.548828125,-0.03076171875,0.837890625,3.35693359375,0.8544921875,-0.3662109375,-2.0489501953125,32.89306640625,-129.3914794921875
1758181501.6648688,-0.5439453125,-0.046875,0.83447265625,3.5400390625,0.91552734375,-0.30517578125,-2.0159912109375,32.904052734375,-129.385986328125
1758181501.6750054,-0.5439453125,-0.046875,0.83447265625,3.5400390625,0.91552734375,-0.30517578125,-1.988525390625,32.9095458984375,-129.3804931640625
1758181501.684818,-0.54150390625,-0.021484375,0.837890625,2.13623046875,0.8544921875,-0.1220703125,-1.9720458984375,32.9150390625,-129.375
1758181501.695002,-0.54150390625,-0.021484375,0.837890625,2.13623046875,0.8544921875,-0.1220703125,-1.95556640625,32.9205322265625,-129.3695068359375
1758181501.706326,-0.5361328125,-0.01806640625,0.8447265625,1.52587890625,0.6103515625,0.0,-1.9390869140625,32.926025390625,-129.3585205078125
1758181501.7149289,-0.5361328125,-0.01806640625,0.8447265625,1.52587890625,0.6103515625,0.0,-1.9281005859375,32.9315185546875,-129.3475341796875
1758181501.7248726,-0.533203125,-0.01904296875,0.845703125,1.8310546875,0.42724609375,0.06103515625,-1.91162109375,32.9315185546875,-129.3365478515625
1758181501.7353792,-0.533203125,-0.01904296875,0.845703125,1.8310546875,0.42724609375,0.06103515625,-1.8896484375,32.93701171875,-129.3255615234375
1758181501.745116,-0.533203125,-0.01904296875,0.845703125,2.0751953125,0.18310546875,0.244140625,-1.86767578125,32.9315185546875,-129.3145751953125
1758181501.7549422,-0.5322265625,-0.0283203125,0.8388671875,2.0751953125,0.18310546875,0.244140625,-1.845703125,32.9315185546875,-129.298095703125
1758181501.7654119,-0.53759765625,-0.03271484375,0.84716796875,0.6103515625,0.0,0.48828125,-1.8402099609375,32.9315185546875,-129.2816162109375
1758181501.7750485,-0.53759765625,-0.03271484375,0.84716796875,0.6103515625,0.0,0.48828125,-1.8292236328125,32.926025390625,-129.26513671875
1758181501.7849824,-0.53955078125,-0.03173828125,0.84326171875,-0.9765625,0.0,0.6103515625,-1.8402099609375,32.926025390625,-129.2486572265625
1758181501.7949796,-0.53955078125,-0.03173828125,0.84326171875,-0.9765625,0.0,0.6103515625,-1.845703125,32.9205322265625,-129.232177734375
1758181501.80591,-0.5458984375,-0.03271484375,0.8369140625,-1.03759765625,0.06103515625,0.6103515625,-1.8511962890625,32.9205322265625,-129.2156982421875
1758181501.8150332,-0.5458984375,-0.03271484375,0.8369140625,-1.03759765625,0.06103515625,0.6103515625,-1.8621826171875,32.9205322265625,-129.19921875
1758181501.8252182,-0.552734375,-0.02685546875,0.8330078125,0.06103515625,0.1220703125,0.3662109375,-1.8621826171875,32.9205322265625,-129.188232421875
1758181501.8353245,-0.552734375,-0.02685546875,0.8330078125,0.06103515625,0.1220703125,0.3662109375,-1.856689453125,32.9205322265625,-129.1717529296875
1758181501.845291,-0.5478515625,-0.0166015625,0.82958984375,2.38037109375,0.244140625,0.3662109375,-1.834716796875,32.9205322265625,-129.1552734375
1758181501.8551495,-0.5478515625,-0.0166015625,0.82958984375,2.38037109375,0.244140625,0.3662109375,-1.8072509765625,32.926025390625,-129.1387939453125
1758181501.865486,-0.5517578125,-0.0224609375,0.83642578125,2.13623046875,0.30517578125,0.244140625,-1.7852783203125,32.926025390625,-129.122314453125
1758181501.8752038,-0.5517578125,-0.0224609375,0.83642578125,2.13623046875,0.30517578125,0.244140625,-1.7633056640625,32.9315185546875,-129.1058349609375
1758181501.8851318,-0.5517578125,-0.0263671875,0.8388671875,0.54931640625,0.48828125,0.1220703125,-1.7578125,32.93701171875,-129.08935546875
1758181501.8950918,-0.5517578125,-0.0263671875,0.8388671875,0.54931640625,0.48828125,0.1220703125,-1.7523193359375,32.9425048828125,-129.078369140625
1758181501.905968,-0.5478515625,-0.0283203125,0.8330078125,0.6103515625,0.54931640625,0.06103515625,-1.746826171875,32.947998046875,-129.0618896484375
1758181501.915189,-0.5478515625,-0.0283203125,0.8330078125,0.6103515625,0.54931640625,0.06103515625,-1.73583984375,32.9534912109375,-129.0509033203125
1758181501.9255629,-0.5478515625,-0.02587890625,0.8359375,1.40380859375,0.6103515625,0.0,-1.724853515625,32.9644775390625,-129.034423828125
1758181501.935318,-0.5478515625,-0.02587890625,0.8359375,1.40380859375,0.6103515625,0.0,-1.7138671875,32.969970703125,-129.0234375
