timestamp,acc_x,acc_y,acc_z,gyro_x,gyro_y,gyro_z,angle_x,angle_y,angle_z
1758181424.889205,-0.35302734375,-0.03955078125,0.93701171875,-0.79345703125,0.79345703125,0.244140625,-2.3236083984375,20.45654296875,-121.300048828125
1758181424.8981738,-0.35302734375,-0.03955078125,0.93701171875,-0.79345703125,0.79345703125,0.244140625,-2.3291015625,20.467529296875,-121.2945556640625
1758181424.9109411,-0.35595703125,-0.0439453125,0.93017578125,-0.732421875,0.732421875,0.244140625,-2.3345947265625,20.4730224609375,-121.2945556640625
1758181424.9237642,-0.35595703125,-0.0439453125,0.93017578125,-0.732421875,0.732421875,0.244140625,-2.3455810546875,20.4840087890625,-121.2890625
1758181424.9348214,-0.3583984375,-0.03955078125,0.9345703125,-0.48828125,0.79345703125,0.30517578125,-2.35107421875,20.4949951171875,-121.2835693359375
1758181424.9416316,-0.3583984375,-0.03955078125,0.9345703125,-0.48828125,0.79345703125,0.30517578125,-2.35107421875,20.5059814453125,-121.2835693359375
1758181424.947801,-0.359375,-0.0390625,0.93798828125,-0.6103515625,1.03759765625,0.42724609375,-2.3565673828125,20.5169677734375,-121.278076171875
1758181424.9572272,-0.359375,-0.0390625,0.93798828125,-0.6103515625,1.03759765625,0.42724609375,-2.362060546875,20.5279541015625,-121.2725830078125
1758181424.967238,-0.35693359375,-0.04150390625,0.9345703125,-0.732421875,1.28173828125,0.54931640625,-2.3675537109375,20.54443359375,-121.26708984375
1758181424.9772344,-0.35693359375,-0.04150390625,0.9345703125,-0.732421875,1.28173828125,0.54931640625,-2.373046875,20.555419921875,-121.2615966796875
1758181424.9872968,-0.35400390625,-0.04296875,0.931640625,-0.54931640625,1.220703125,0.6103515625,-2.3785400390625,20.5718994140625,-121.256103515625
1758181424.9972718,-0.35400390625,-0.04296875,0.931640625,-0.54931640625,1.220703125,0.6103515625,-2.384033203125,20.58837890625,-121.2506103515625
1758181425.0072372,-0.3525390625,-0.03955078125,0.9345703125,-0.42724609375,1.220703125,0.54931640625,-2.384033203125,20.599365234375,-121.2451171875
1758181425.017238,-0.3525390625,-0.03955078125,0.9345703125,-0.42724609375,1.220703125,0.54931640625,-2.3895263671875,20.6158447265625,-121.2396240234375
1758181425.0272646,-0.3505859375,-0.0361328125,0.9384765625,-0.30517578125,1.28173828125,0.67138671875,-2.3895263671875,20.6268310546875,-121.2286376953125
1758181425.037694,-0.3505859375,-0.0361328125,0.9384765625,-0.30517578125,1.28173828125,0.67138671875,-2.3895263671875,20.643310546875,-121.22314453125
1758181425.0472882,-0.3486328125,-0.0400390625,0.93994140625,-0.42724609375,1.3427734375,0.8544921875,-2.3895263671875,20.654296875,-121.212158203125
1758181425.0573425,-0.34814453125,-0.044921875,0.93115234375,-0.67138671875,1.220703125,1.03759765625,-2.39501953125,20.6707763671875,-121.2066650390625
1758181425.0673647,-0.34814453125,-0.044921875,0.93115234375,-0.67138671875,1.220703125,1.03759765625,-2.39501953125,20.6817626953125,-121.1956787109375
1758181425.0773418,-0.3486328125,-0.04150390625,0.9345703125,-1.0986328125,0.9765625,1.03759765625,-2.4005126953125,20.6927490234375,-121.1846923828125
1758181425.087314,-0.3486328125,-0.04150390625,0.9345703125,-1.0986328125,0.9765625,1.03759765625,-2.4114990234375,20.7037353515625,-121.1737060546875
1758181425.097339,-0.35009765625,-0.0380859375,0.94091796875,-1.220703125,1.03759765625,1.0986328125,-2.4169921875,20.709228515625,-121.168212890625
1758181425.1073415,-0.35009765625,-0.0380859375,0.94091796875,-1.220703125,1.03759765625,1.0986328125,-2.427978515625,20.72021484375,-121.1572265625
1758181425.117365,-0.349609375,-0.04052734375,0.9375,-1.03759765625,1.15966796875,1.28173828125,-2.4334716796875,20.731201171875,-121.146240234375
1758181425.1273699,-0.349609375,-0.04052734375,0.9375,-1.03759765625,1.15966796875,1.28173828125,-2.43896484375,20.7421875,-121.13525390625
1758181425.137384,-0.3505859375,-0.044921875,0.931640625,-1.03759765625,1.03759765625,1.28173828125,-2.4444580078125,20.753173828125,-121.124267578125
1758181425.1473858,-0.3505859375,-0.044921875,0.931640625,-1.03759765625,1.03759765625,1.28173828125,-2.449951171875,20.76416015625,-121.11328125
1758181425.1573944,-0.35107421875,-0.04052734375,0.93359375,-1.220703125,0.8544921875,1.28173828125,-2.4609375,20.7696533203125,-121.102294921875
1758181425.167406,-0.35107421875,-0.04052734375,0.93359375,-1.220703125,0.8544921875,1.28173828125,-2.4664306640625,20.7806396484375,-121.09130859375
1758181425.177415,-0.3515625,-0.03857421875,0.93798828125,-1.28173828125,0.79345703125,1.3427734375,-2.471923828125,20.7861328125,-121.080322265625
1758181425.187429,-0.3515625,-0.03857421875,0.93798828125,-1.28173828125,0.79345703125,1.3427734375,-2.48291015625,20.7916259765625,-121.0693359375
1758181425.1974397,-0.34912109375,-0.04150390625,0.93701171875,-1.28173828125,0.8544921875,1.46484375,-2.4884033203125,20.8026123046875,-121.058349609375
1758181425.2074535,-0.34912109375,-0.04150390625,0.93701171875,-1.28173828125,0.8544921875,1.46484375,-2.4993896484375,20.80810546875,-121.0418701171875
1758181425.217467,-0.3447265625,-0.04541015625,0.93310546875,-1.15966796875,0.732421875,1.52587890625,-2.5048828125,20.8135986328125,-121.0308837890625
1758181425.2274733,-0.3447265625,-0.04541015625,0.93310546875,-1.15966796875,0.732421875,1.52587890625,-2.5103759765625,20.819091796875,-121.014404296875
1758181425.237494,-0.34521484375,-0.04443359375,0.935546875,-1.3427734375,0.42724609375,1.5869140625,-2.515869140625,20.8245849609375,-121.00341796875
1758181425.247495,-0.34521484375,-0.04443359375,0.935546875,-1.3427734375,0.42724609375,1.5869140625,-2.52685546875,20.830078125,-120.9869384765625
1758181425.257508,-0.353515625,-0.04150390625,0.93603515625,-1.52587890625,0.3662109375,1.64794921875,-2.5323486328125,20.830078125,-120.9759521484375
1758181425.2675185,-0.353515625,-0.04150390625,0.93603515625,-1.52587890625,0.3662109375,1.64794921875,-2.5433349609375,20.830078125,-120.95947265625
1758181425.277527,-0.3603515625,-0.0419921875,0.93310546875,-1.708984375,0.42724609375,1.8310546875,-2.5543212890625,20.8355712890625,-120.9429931640625
1758181425.2875338,-0.3603515625,-0.0419921875,0.93310546875,-1.708984375,0.42724609375,1.8310546875,-2.559814453125,20.841064453125,-120.926513671875
1758181425.2975428,-0.35546875,-0.0439453125,0.93408203125,-2.38037109375,0.42724609375,1.8310546875,-2.5762939453125,20.841064453125,-120.9100341796875
1758181425.307563,-0.35546875,-0.0439453125,0.93408203125,-2.38037109375,0.42724609375,1.8310546875,-2.5927734375,20.8465576171875,-120.8935546875
1758181425.3175724,-0.35400390625,-0.04345703125,0.93603515625,-2.38037109375,0.48828125,1.77001953125,-2.6092529296875,20.85205078125,-120.8770751953125
1758181425.327585,-0.35400390625,-0.04345703125,0.93603515625,-2.38037109375,0.48828125,1.77001953125,-2.625732421875,20.85205078125,-120.860595703125
1758181425.3376448,-0.35693359375,-0.04052734375,0.9326171875,-1.64794921875,0.42724609375,1.5869140625,-2.6422119140625,20.8575439453125,-120.8441162109375
1758181425.3476696,-0.35693359375,-0.04052734375,0.9326171875,-1.64794921875,0.42724609375,1.5869140625,-2.647705078125,20.863037109375,-120.82763671875
1758181425.3576243,-0.35888671875,-0.0419921875,0.93310546875,-1.46484375,0.48828125,1.46484375,-2.65869140625,20.8685302734375,-120.8111572265625
1758181425.3676453,-0.35888671875,-0.0419921875,0.93310546875,-1.46484375,0.48828125,1.46484375,-2.669677734375,20.8740234375,-120.8001708984375
1758181425.3776445,-0.35546875,-0.044921875,0.9365234375,-2.01416015625,0.48828125,1.40380859375,-2.6806640625,20.8740234375,-120.78369140625
1758181425.3877082,-0.35546875,-0.044921875,0.9365234375,-2.01416015625,0.48828125,1.40380859375,-2.691650390625,20.8795166015625,-120.772705078125
1758181425.3976915,-0.353515625,-0.046875,0.93359375,-2.13623046875,0.54931640625,1.220703125,-2.7081298828125,20.885009765625,-120.76171875
1758181425.407711,-0.353515625,-0.046875,0.93359375,-2.13623046875,0.54931640625,1.220703125,-2.724609375,20.8905029296875,-120.750732421875
1758181425.4177246,-0.3583984375,-0.0439453125,0.93212890625,-1.46484375,0.54931640625,0.91552734375,-2.7410888671875,20.89599609375,-120.73974609375
1758181425.427753,-0.3583984375,-0.0439453125,0.93212890625,-1.46484375,0.54931640625,0.91552734375,-2.7520751953125,20.9014892578125,-120.728759765625
1758181425.4378104,-0.35986328125,-0.04052734375,0.93408203125,-1.15966796875,0.67138671875,0.67138671875,-2.757568359375,20.906982421875,-120.7232666015625
1758181425.4478426,-0.35986328125,-0.04052734375,0.93408203125,-1.15966796875,0.67138671875,0.67138671875,-2.7685546875,20.9124755859375,-120.7177734375
1758181425.457806,-0.3544921875,-0.0439453125,0.935546875,-0.91552734375,0.79345703125,0.67138671875,-2.7740478515625,20.9234619140625,-120.7122802734375
1758181425.4678857,-0.3544921875,-0.0439453125,0.935546875,-0.91552734375,0.79345703125,0.67138671875,-2.779541015625,20.928955078125,-120.706787109375
1758181425.4778178,-0.35400390625,-0.048828125,0.93603515625,-1.40380859375,0.91552734375,0.48828125,-2.79052734375,20.9344482421875,-120.7012939453125
1758181425.4879808,-0.35400390625,-0.048828125,0.93603515625,-1.40380859375,0.91552734375,0.48828125,-2.801513671875,20.9454345703125,-120.69580078125
1758181425.4979007,-0.359375,-0.0458984375,0.93115234375,-1.64794921875,0.91552734375,0.3662109375,-2.8125,20.9564208984375,-120.6903076171875
1758181425.5079043,-0.359375,-0.0458984375,0.93115234375,-1.64794921875,0.91552734375,0.3662109375,-2.8289794921875,20.9619140625,-120.6903076171875
1758181425.5178914,-0.365234375,-0.04541015625,0.927734375,-1.220703125,0.91552734375,0.18310546875,-2.8399658203125,20.972900390625,-120.6903076171875
1758181425.5278907,-0.365234375,-0.04541015625,0.927734375,-1.220703125,0.91552734375,0.18310546875,-2.8509521484375,20.9783935546875,-120.6903076171875
1758181425.53833,-0.36767578125,-0.046875,0.931640625,-1.03759765625,1.03759765625,0.18310546875,-2.8619384765625,20.9893798828125,-120.684814453125
1758181425.5479183,-0.36767578125,-0.046875,0.931640625,-1.03759765625,1.03759765625,0.18310546875,-2.8729248046875,21.0003662109375,-120.684814453125
1758181425.557898,-0.3662109375,-0.04931640625,0.9267578125,-1.0986328125,0.91552734375,0.0,-2.8839111328125,21.0113525390625,-120.684814453125
1758181425.5680003,-0.3662109375,-0.04931640625,0.9267578125,-1.0986328125,0.91552734375,0.0,-2.8948974609375,21.0223388671875,-120.684814453125
1758181425.578078,-0.36669921875,-0.04833984375,0.92724609375,-0.9765625,0.732421875,-0.06103515625,-2.9058837890625,21.02783203125,-120.684814453125
1758181425.5880046,-0.36669921875,-0.04833984375,0.92724609375,-0.9765625,0.732421875,-0.06103515625,-2.911376953125,21.038818359375,-120.684814453125
1758181425.5981045,-0.3701171875,-0.04736328125,0.927734375,-0.54931640625,0.6103515625,-0.1220703125,-2.92236328125,21.0443115234375,-120.684814453125
1758181425.6082058,-0.3701171875,-0.04736328125,0.927734375,-0.54931640625,0.6103515625,-0.1220703125,-2.9278564453125,21.0552978515625,-120.684814453125
1758181425.617959,-0.36962890625,-0.05126953125,0.9267578125,-0.42724609375,0.6103515625,-0.1220703125,-2.933349609375,21.060791015625,-120.6903076171875
1758181425.6281068,-0.36962890625,-0.05126953125,0.9267578125,-0.42724609375,0.6103515625,-0.1220703125,-2.933349609375,21.0662841796875,-120.6903076171875
1758181425.6384604,-0.36572265625,-0.05078125,0.9287109375,-0.79345703125,0.48828125,-0.244140625,-2.9443359375,21.0772705078125,-120.6903076171875
1758181425.6480665,-0.36572265625,-0.05078125,0.9287109375,-0.79345703125,0.48828125,-0.244140625,-2.9498291015625,21.082763671875,-120.6903076171875
1758181425.6580455,-0.3642578125,-0.046875,0.931640625,-0.91552734375,0.48828125,-0.42724609375,-2.9608154296875,21.0882568359375,-120.69580078125
1758181425.6683767,-0.3642578125,-0.046875,0.931640625,-0.91552734375,0.48828125,-0.42724609375,-2.9718017578125,21.09375,-120.7012939453125
1758181425.678043,-0.36328125,-0.0458984375,0.931640625,-0.48828125,0.6103515625,-0.48828125,-2.9827880859375,21.104736328125,-120.706787109375
1758181425.6881824,-0.36328125,-0.0458984375,0.931640625,-0.48828125,0.6103515625,-0.48828125,-2.98828125,21.1102294921875,-120.706787109375
1758181425.6984758,-0.3603515625,-0.05029296875,0.9296875,0.0,0.54931640625,-0.6103515625,-2.9937744140625,21.11572265625,-120.7122802734375
1758181425.7081137,-0.3603515625,-0.05029296875,0.9296875,0.0,0.54931640625,-0.6103515625,-2.9937744140625,21.1212158203125,-120.7232666015625
1758181425.7181423,-0.35986328125,-0.05224609375,0.9345703125,-0.06103515625,0.6103515625,-0.67138671875,-2.999267578125,21.1322021484375,-120.728759765625
1758181425.728455,-0.35986328125,-0.05224609375,0.9345703125,-0.06103515625,0.6103515625,-0.67138671875,-2.999267578125,21.1376953125,-120.7342529296875
1758181425.7381742,-0.35791015625,-0.05224609375,0.9375,-0.54931640625,0.732421875,-0.732421875,-3.0047607421875,21.1431884765625,-120.7452392578125
1758181425.7482133,-0.35791015625,-0.05224609375,0.9375,-0.54931640625,0.732421875,-0.732421875,-3.0157470703125,21.148681640625,-120.750732421875
1758181425.7586124,-0.35205078125,-0.048828125,0.9287109375,-0.48828125,0.732421875,-0.79345703125,-3.021240234375,21.15966796875,-120.76171875
1758181425.7681859,-0.35205078125,-0.048828125,0.9287109375,-0.48828125,0.732421875,-0.79345703125,-3.0322265625,21.1651611328125,-120.772705078125
1758181425.7781937,-0.35400390625,-0.0478515625,0.93359375,0.0,0.54931640625,-0.732421875,-3.0377197265625,21.170654296875,-120.78369140625
1758181425.7884665,-0.35400390625,-0.0478515625,0.93359375,0.0,0.54931640625,-0.732421875,-3.0377197265625,21.1761474609375,-120.7891845703125
1758181425.7982638,-0.35791015625,-0.052734375,0.9365234375,0.0,0.67138671875,-0.54931640625,-3.043212890625,21.181640625,-120.8001708984375
1758181425.808301,-0.35791015625,-0.052734375,0.9365234375,0.0,0.67138671875,-0.54931640625,-3.043212890625,21.1871337890625,-120.8056640625
1758181425.818205,-0.359375,-0.0556640625,0.9345703125,-0.54931640625,0.8544921875,-0.42724609375,-3.0487060546875,21.192626953125,-120.8111572265625
1758181425.8285127,-0.359375,-0.0556640625,0.9345703125,-0.54931640625,0.8544921875,-0.42724609375,-3.05419921875,21.1981201171875,-120.816650390625
1758181425.8383708,-0.35693359375,-0.052734375,0.9287109375,-0.67138671875,0.79345703125,-0.3662109375,-3.065185546875,21.20361328125,-120.8221435546875
1758181425.84871,-0.35693359375,-0.052734375,0.9287109375,-0.67138671875,0.79345703125,-0.3662109375,-3.0706787109375,21.214599609375,-120.82763671875
1758181425.8587565,-0.35888671875,-0.05078125,0.9296875,-0.244140625,0.67138671875,-0.42724609375,-3.0816650390625,21.2200927734375,-120.838623046875
1758181425.868324,-0.35888671875,-0.05078125,0.9296875,-0.244140625,0.67138671875,-0.42724609375,-3.0816650390625,21.2255859375,-120.8441162109375
1758181425.8783245,-0.36572265625,-0.04931640625,0.93408203125,-0.18310546875,0.67138671875,-0.48828125,-3.087158203125,21.2310791015625,-120.849609375
1758181425.8886178,-0.36572265625,-0.04931640625,0.93408203125,-0.18310546875,0.67138671875,-0.48828125,-3.0926513671875,21.236572265625,-120.8551025390625
1758181425.8983948,-0.36962890625,-0.05078125,0.92822265625,0.1220703125,0.732421875,-0.42724609375,-3.0926513671875,21.2420654296875,-120.860595703125
1758181425.9085026,-0.36962890625,-0.05078125,0.92822265625,0.1220703125,0.732421875,-0.42724609375,-3.09814453125,21.24755859375,-120.87158203125
1758181425.9183717,-0.36962890625,-0.05078125,0.92822265625,0.1220703125,0.54931640625,-0.3662109375,-3.09814453125,21.2530517578125,-120.87158203125
1758181425.9287386,-0.37060546875,-0.0556640625,0.9228515625,0.1220703125,0.54931640625,-0.3662109375,-3.09814453125,21.258544921875,-120.8770751953125
1758181425.9387407,-0.369140625,-0.05419921875,0.927734375,-0.1220703125,0.42724609375,-0.42724609375,-3.09814453125,21.2640380859375,-120.882568359375
1758181425.9489095,-0.369140625,-0.05419921875,0.927734375,-0.1220703125,0.42724609375,-0.42724609375,-3.1036376953125,21.26953125,-120.8880615234375
1758181425.9617147,-0.3701171875,-0.05029296875,0.927734375,0.0,0.3662109375,-0.3662109375,-3.1036376953125,21.26953125,-120.8935546875
1758181425.9685645,-0.3701171875,-0.05029296875,0.927734375,0.0,0.3662109375,-0.3662109375,-3.109130859375,21.2750244140625,-120.8990478515625
1758181425.978442,-0.37060546875,-0.05029296875,0.9287109375,0.30517578125,0.3662109375,-0.3662109375,-3.109130859375,21.280517578125,-120.904541015625
1758181425.9950414,-0.37060546875,-0.05029296875,0.9287109375,0.30517578125,0.3662109375,-0.3662109375,-3.109130859375,21.2860107421875,-120.904541015625
1758181426.0018117,-0.369140625,-0.05224609375,0.92919921875,0.18310546875,0.3662109375,-0.3662109375,-3.1036376953125,21.29150390625,-120.9100341796875
1758181426.0085247,-0.369140625,-0.05224609375,0.92919921875,0.18310546875,0.3662109375,-0.3662109375,-3.109130859375,21.2969970703125,-120.91552734375
1758181426.01853,-0.36572265625,-0.052734375,0.9248046875,0.3662109375,0.18310546875,-0.42724609375,-3.1036376953125,21.2969970703125,-120.9210205078125
1758181426.0289721,-0.36572265625,-0.052734375,0.9248046875,0.3662109375,0.18310546875,-0.42724609375,-3.1036376953125,21.302490234375,-120.926513671875
1758181426.0388997,-0.36083984375,-0.048828125,0.92919921875,0.48828125,0.0,-0.48828125,-3.1036376953125,21.302490234375,-120.9320068359375
1758181426.0485868,-0.36083984375,-0.048828125,0.92919921875,0.48828125,0.0,-0.48828125,-3.09814453125,21.302490234375,-120.9375
1758181426.0594654,-0.35791015625,-0.048828125,0.93603515625,0.0,0.0,-0.42724609375,-3.09814453125,21.302490234375,-120.9429931640625
1758181426.0685613,-0.35791015625,-0.048828125,0.93603515625,0.0,0.0,-0.42724609375,-3.1036376953125,21.302490234375,-120.948486328125
1758181426.0789917,-0.35595703125,-0.05322265625,0.931640625,0.0,0.0,-0.30517578125,-3.1036376953125,21.3079833984375,-120.9539794921875
1758181426.088819,-0.35595703125,-0.05322265625,0.931640625,0.0,0.0,-0.30517578125,-3.1036376953125,21.302490234375,-120.95947265625
1758181426.0989807,-0.35498046875,-0.0576171875,0.93115234375,0.30517578125,-0.06103515625,-0.244140625,-3.1036376953125,21.302490234375,-120.9649658203125
1758181426.108623,-0.35498046875,-0.0576171875,0.93115234375,0.30517578125,-0.06103515625,-0.244140625,-3.1036376953125,21.302490234375,-120.9649658203125
1758181426.1188846,-0.3505859375,-0.05517578125,0.93603515625,0.42724609375,-0.1220703125,-0.18310546875,-3.09814453125,21.302490234375,-120.970458984375
1758181426.1288674,-0.3505859375,-0.05517578125,0.93603515625,0.42724609375,-0.1220703125,-0.18310546875,-3.09814453125,21.2969970703125,-120.9759521484375
1758181426.1392057,-0.3544921875,-0.05029296875,0.9306640625,0.6103515625,-0.18310546875,-0.18310546875,-3.0926513671875,21.2969970703125,-120.9759521484375
1758181426.148961,-0.3544921875,-0.05029296875,0.9306640625,0.6103515625,-0.18310546875,-0.18310546875,-3.087158203125,21.29150390625,-120.9814453125
1758181426.160051,-0.35400390625,-0.048828125,0.93359375,0.48828125,-0.42724609375,-0.18310546875,-3.0816650390625,21.2860107421875,-120.9869384765625
1758181426.168717,-0.35400390625,-0.048828125,0.93359375,0.48828125,-0.42724609375,-0.18310546875,-3.0816650390625,21.280517578125,-120.9869384765625
1758181426.1787744,-0.3544921875,-0.0517578125,0.9306640625,0.91552734375,-0.54931640625,-0.18310546875,-3.0706787109375,21.26953125,-120.992431640625
1758181426.188757,-0.3544921875,-0.0517578125,0.9306640625,0.91552734375,-0.54931640625,-0.18310546875,-3.065185546875,21.2640380859375,-120.992431640625
1758181426.198726,-0.35693359375,-0.05322265625,0.93212890625,1.52587890625,-0.6103515625,-0.18310546875,-3.0487060546875,21.258544921875,-120.9979248046875
1758181426.2087426,-0.35693359375,-0.05322265625,0.93212890625,1.52587890625,-0.6103515625,-0.18310546875,-3.0377197265625,21.24755859375,-121.00341796875
1758181426.2187274,-0.36083984375,-0.05224609375,0.9306640625,1.64794921875,-0.67138671875,-0.1220703125,-3.021240234375,21.2420654296875,-121.00341796875
1758181426.2289786,-0.36083984375,-0.05224609375,0.9306640625,1.64794921875,-0.67138671875,-0.1220703125,-3.0047607421875,21.2310791015625,-121.0089111328125
1758181426.2389102,-0.365234375,-0.05224609375,0.9306640625,1.28173828125,-0.67138671875,-0.18310546875,-2.9937744140625,21.2255859375,-121.0089111328125
1758181426.2500181,-0.365234375,-0.05224609375,0.9306640625,1.28173828125,-0.67138671875,-0.18310546875,-2.9827880859375,21.214599609375,-121.014404296875
1758181426.2592044,-0.3671875,-0.04931640625,0.93017578125,1.3427734375,-0.6103515625,-0.18310546875,-2.9718017578125,21.2091064453125,-121.014404296875
1758181426.2688503,-0.3671875,-0.04931640625,0.93017578125,1.3427734375,-0.6103515625,-0.18310546875,-2.9608154296875,21.20361328125,-121.0198974609375
1758181426.2789156,-0.36767578125,-0.046875,0.92919921875,1.953125,-0.48828125,-0.244140625,-2.9443359375,21.1981201171875,-121.0198974609375
1758181426.2888618,-0.36767578125,-0.046875,0.92919921875,1.953125,-0.48828125,-0.244140625,-2.9278564453125,21.192626953125,-121.025390625
1758181426.2988951,-0.369140625,-0.04443359375,0.9287109375,1.953125,-0.42724609375,-0.3662109375,-2.911376953125,21.1871337890625,-121.0308837890625
1758181426.3090081,-0.369140625,-0.04443359375,0.9287109375,1.953125,-0.42724609375,-0.3662109375,-2.889404296875,21.181640625,-121.036376953125
1758181426.3188708,-0.36962890625,-0.044921875,0.927734375,1.40380859375,-0.48828125,-0.48828125,-2.87841796875,21.181640625,-121.036376953125
1758181426.3291893,-0.36962890625,-0.044921875,0.927734375,1.40380859375,-0.48828125,-0.48828125,-2.867431640625,21.1761474609375,-121.0418701171875
1758181426.3389997,-0.37255859375,-0.0498046875,0.9306640625,1.40380859375,-0.3662109375,-0.48828125,-2.8564453125,21.170654296875,-121.04736328125
1758181426.3491695,-0.37255859375,-0.0498046875,0.9306640625,1.40380859375,-0.3662109375,-0.48828125,-2.845458984375,21.170654296875,-121.0528564453125
1758181426.3592744,-0.37451171875,-0.05224609375,0.927734375,2.0751953125,-0.18310546875,-0.42724609375,-2.8289794921875,21.170654296875,-121.058349609375
1758181426.368933,-0.37451171875,-0.05224609375,0.927734375,2.0751953125,-0.18310546875,-0.42724609375,-2.8125,21.170654296875,-121.0638427734375
1758181426.379051,-0.37890625,-0.0458984375,0.92138671875,2.5634765625,-0.18310546875,-0.48828125,-2.79052734375,21.170654296875,-121.0693359375
1758181426.3890421,-0.37890625,-0.0458984375,0.92138671875,2.5634765625,-0.18310546875,-0.48828125,-2.7685546875,21.170654296875,-121.0748291015625
1758181426.399043,-0.380859375,-0.03955078125,0.92626953125,1.8310546875,-0.1220703125,-0.48828125,-2.7520751953125,21.1761474609375,-121.080322265625
1758181426.4090323,-0.380859375,-0.03955078125,0.92626953125,1.8310546875,-0.1220703125,-0.48828125,-2.735595703125,21.1761474609375,-121.0858154296875
1758181426.4189801,-0.376953125,-0.0400390625,0.93115234375,0.54931640625,0.0,-0.48828125,-2.7301025390625,21.181640625,-121.09130859375
1758181426.4297895,-0.376953125,-0.0400390625,0.93115234375,0.54931640625,0.0,-0.48828125,-2.7301025390625,21.181640625,-121.0968017578125
1758181426.4390333,-0.37451171875,-0.04541015625,0.9248046875,0.67138671875,0.18310546875,-0.42724609375,-2.724609375,21.1871337890625,-121.102294921875
1758181426.4495418,-0.37451171875,-0.04541015625,0.9248046875,0.67138671875,0.18310546875,-0.42724609375,-2.7191162109375,21.192626953125,-121.102294921875
1758181426.4593656,-0.37109375,-0.04931640625,0.92578125,1.40380859375,0.06103515625,-0.30517578125,-2.7081298828125,21.1981201171875,-121.1077880859375
1758181426.4693153,-0.37109375,-0.04931640625,0.92578125,1.40380859375,0.06103515625,-0.30517578125,-2.6971435546875,21.20361328125,-121.1077880859375
1758181426.4791343,-0.37158203125,-0.044921875,0.9287109375,1.03759765625,0.0,-0.30517578125,-2.6861572265625,21.2091064453125,-121.11328125
1758181426.4897027,-0.37158203125,-0.044921875,0.9287109375,1.03759765625,0.0,-0.30517578125,-2.6806640625,21.2091064453125,-121.11328125
1758181426.499147,-0.36962890625,-0.0439453125,0.9306640625,0.18310546875,0.06103515625,-0.1220703125,-2.6806640625,21.214599609375,-121.11328125
1758181426.509475,-0.36962890625,-0.0439453125,0.9306640625,0.18310546875,0.06103515625,-0.1220703125,-2.6806640625,21.2200927734375,-121.1187744140625
1758181426.5191283,-0.36767578125,-0.044921875,0.92724609375,0.1220703125,0.1220703125,0.0,-2.6806640625,21.2255859375,-121.11328125
1758181426.5300796,-0.36767578125,-0.044921875,0.92724609375,0.1220703125,0.1220703125,0.0,-2.6806640625,21.2310791015625,-121.11328125
1758181426.5392654,-0.36376953125,-0.046875,0.9306640625,0.48828125,0.0,0.1220703125,-2.6751708984375,21.2310791015625,-121.11328125
1758181426.5494897,-0.36376953125,-0.046875,0.9306640625,0.48828125,0.0,0.1220703125,-2.669677734375,21.236572265625,-121.11328125
1758181426.5595186,-0.36474609375,-0.0458984375,0.93017578125,0.3662109375,0.0,0.18310546875,-2.6641845703125,21.236572265625,-121.11328125
1758181426.5697367,-0.36474609375,-0.0458984375,0.93017578125,0.3662109375,0.0,0.18310546875,-2.6641845703125,21.2420654296875,-121.1077880859375
1758181426.5795596,-0.35986328125,-0.04443359375,0.93359375,0.244140625,-0.06103515625,0.3662109375,-2.65869140625,21.2420654296875,-121.1077880859375
1758181426.5903158,-0.35986328125,-0.04443359375,0.93359375,0.244140625,-0.06103515625,0.3662109375,-2.65869140625,21.2420654296875,-121.102294921875
1758181426.5993655,-0.36474609375,-0.04443359375,0.9287109375,0.1220703125,-0.1220703125,0.42724609375,-2.6531982421875,21.2420654296875,-121.0968017578125
1758181426.6099937,-0.36474609375,-0.04443359375,0.9287109375,0.1220703125,-0.1220703125,0.42724609375,-2.6531982421875,21.2420654296875,-121.0968017578125
1758181426.6192656,-0.361328125,-0.04541015625,0.93359375,0.18310546875,-0.06103515625,0.42724609375,-2.647705078125,21.24755859375,-121.09130859375
1758181426.6295013,-0.361328125,-0.04541015625,0.93359375,0.18310546875,-0.06103515625,0.42724609375,-2.647705078125,21.24755859375,-121.09130859375
1758181426.6392791,-0.35595703125,-0.04296875,0.93505859375,0.48828125,0.0,0.3662109375,-2.6422119140625,21.24755859375,-121.0858154296875
1758181426.6497746,-0.35595703125,-0.04296875,0.93505859375,0.48828125,0.0,0.3662109375,-2.63671875,21.24755859375,-121.0858154296875
1758181426.65971,-0.35009765625,-0.04052734375,0.93212890625,0.91552734375,-0.1220703125,0.3662109375,-2.625732421875,21.24755859375,-121.080322265625
1758181426.669295,-0.35009765625,-0.04052734375,0.93212890625,0.91552734375,-0.1220703125,0.3662109375,-2.61474609375,21.24755859375,-121.080322265625
1758181426.6794815,-0.3525390625,-0.04150390625,0.9345703125,0.67138671875,-0.244140625,0.3662109375,-2.6092529296875,21.2420654296875,-121.0748291015625
1758181426.6894312,-0.3525390625,-0.04150390625,0.9345703125,0.67138671875,-0.244140625,0.3662109375,-2.603759765625,21.2420654296875,-121.0748291015625
1758181426.6998208,-0.353515625,-0.0458984375,0.93603515625,0.244140625,-0.30517578125,0.42724609375,-2.5982666015625,21.236572265625,-121.0748291015625
1758181426.7094808,-0.353515625,-0.0458984375,0.93603515625,0.244140625,-0.30517578125,0.42724609375,-2.5927734375,21.2310791015625,-121.0693359375
1758181426.7194805,-0.35107421875,-0.046875,0.9345703125,0.732421875,-0.244140625,0.30517578125,-2.5872802734375,21.2255859375,-121.0693359375
1758181426.7297046,-0.35107421875,-0.046875,0.9345703125,0.732421875,-0.244140625,0.30517578125,-2.5762939453125,21.2255859375,-121.0693359375
1758181426.7394247,-0.34716796875,-0.04052734375,0.9326171875,1.708984375,-0.42724609375,0.18310546875,-2.559814453125,21.2200927734375,-121.0693359375
1758181426.750232,-0.34716796875,-0.04052734375,0.9326171875,1.708984375,-0.42724609375,0.18310546875,-2.5433349609375,21.2091064453125,-121.0748291015625
1758181426.7597525,-0.34521484375,-0.03564453125,0.939453125,1.953125,-0.6103515625,0.18310546875,-2.52685546875,21.20361328125,-121.0748291015625
1758181426.7695386,-0.34521484375,-0.03564453125,0.939453125,1.953125,-0.6103515625,0.18310546875,-2.5048828125,21.192626953125,-121.0748291015625
1758181426.779579,-0.3505859375,-0.0419921875,0.93603515625,1.3427734375,-0.54931640625,0.244140625,-2.493896484375,21.1871337890625,-121.0748291015625
1758181426.7899349,-0.3505859375,-0.0419921875,0.93603515625,1.3427734375,-0.54931640625,0.244140625,-2.4774169921875,21.1761474609375,-121.080322265625
1758181426.8000584,-0.35546875,-0.046875,0.93310546875,1.28173828125,-0.54931640625,0.244140625,-2.4664306640625,21.170654296875,-121.080322265625
1758181426.8094945,-0.35546875,-0.046875,0.93310546875,1.28173828125,-0.54931640625,0.244140625,-2.449951171875,21.15966796875,-121.080322265625
1758181426.8198714,-0.357421875,-0.0400390625,0.93212890625,2.197265625,-0.6103515625,0.06103515625,-2.427978515625,21.1541748046875,-121.0858154296875
1758181426.829847,-0.357421875,-0.0400390625,0.93212890625,2.197265625,-0.6103515625,0.06103515625,-2.4114990234375,21.1431884765625,-121.0858154296875
1758181426.8396566,-0.35595703125,-0.03515625,0.931640625,2.5634765625,-0.6103515625,0.0,-2.384033203125,21.1322021484375,-121.09130859375
1758181426.8514242,-0.35595703125,-0.03515625,0.931640625,2.5634765625,-0.6103515625,0.0,-2.362060546875,21.126708984375,-121.09130859375
1758181426.8598914,-0.353515625,-0.033203125,0.93505859375,2.25830078125,-0.732421875,-0.1220703125,-2.340087890625,21.11572265625,-121.0968017578125
1758181426.8695612,-0.353515625,-0.033203125,0.93505859375,2.25830078125,-0.732421875,-0.1220703125,-2.318115234375,21.1102294921875,-121.102294921875
1758181426.879981,-0.35791015625,-0.03857421875,0.93798828125,2.25830078125,-0.732421875,-0.244140625,-2.296142578125,21.0992431640625,-121.1077880859375
1758181426.8900373,-0.35791015625,-0.03857421875,0.93798828125,2.25830078125,-0.732421875,-0.244140625,-2.274169921875,21.0882568359375,-121.11328125
1758181426.9006722,-0.3671875,-0.03955078125,0.92724609375,2.74658203125,-0.67138671875,-0.30517578125,-2.252197265625,21.082763671875,-121.1187744140625
1758181426.90964,-0.3671875,-0.03955078125,0.92724609375,2.74658203125,-0.67138671875,-0.30517578125,-2.2247314453125,21.07177734375,-121.124267578125
1758181426.9202018,-0.3671875,-0.03955078125,0.92724609375,2.50244140625,-0.6103515625,-0.3662109375,-2.2027587890625,21.0662841796875,-121.1297607421875
1758181426.9298742,-0.37255859375,-0.03369140625,0.9287109375,2.50244140625,-0.6103515625,-0.3662109375,-2.1807861328125,21.060791015625,-121.13525390625
1758181426.9399562,-0.37255859375,-0.03076171875,0.9296875,1.64794921875,-0.54931640625,-0.3662109375,-2.164306640625,21.0552978515625,-121.13525390625
1758181426.9503052,-0.37255859375,-0.03076171875,0.9296875,1.64794921875,-0.54931640625,-0.3662109375,-2.1533203125,21.0498046875,-121.1407470703125
1758181426.960638,-0.3681640625,-0.03271484375,0.9306640625,1.28173828125,-0.48828125,-0.42724609375,-2.142333984375,21.0443115234375,-121.146240234375
1758181426.9696872,-0.3681640625,-0.03271484375,0.9306640625,1.28173828125,-0.48828125,-0.42724609375,-2.13134765625,21.0443115234375,-121.1517333984375
1758181426.9803193,-0.36328125,-0.03369140625,0.927734375,1.40380859375,-0.54931640625,-0.54931640625,-2.120361328125,21.038818359375,-121.1572265625
1758181426.9903345,-0.36328125,-0.03369140625,0.927734375,1.40380859375,-0.54931640625,-0.54931640625,-2.109375,21.0333251953125,-121.1627197265625
1758181427.0006583,-0.36181640625,-0.0322265625,0.9345703125,1.46484375,-0.6103515625,-0.6103515625,-2.0928955078125,21.02783203125,-121.168212890625
1758181427.0097723,-0.36181640625,-0.0322265625,0.9345703125,1.46484375,-0.6103515625,-0.6103515625,-2.0819091796875,21.02783203125,-121.1737060546875
1758181427.020398,-0.36181640625,-0.033203125,0.9345703125,0.8544921875,-0.48828125,-0.6103515625,-2.076416015625,21.0223388671875,-121.17919921875
1758181427.029874,-0.36181640625,-0.033203125,0.9345703125,0.8544921875,-0.48828125,-0.6103515625,-2.0709228515625,21.016845703125,-121.190185546875
1758181427.0404685,-0.359375,-0.037109375,0.927734375,1.0986328125,-0.42724609375,-0.6103515625,-2.0654296875,21.016845703125,-121.1956787109375
1758181427.0498557,-0.359375,-0.037109375,0.927734375,1.0986328125,-0.42724609375,-0.6103515625,-2.054443359375,21.0113525390625,-121.201171875
1758181427.0608156,-0.357421875,-0.0322265625,0.9345703125,1.28173828125,-0.3662109375,-0.6103515625,-2.04345703125,21.0113525390625,-121.2066650390625
1758181427.0698388,-0.357421875,-0.0322265625,0.9345703125,1.28173828125,-0.3662109375,-0.6103515625,-2.032470703125,21.005859375,-121.2176513671875
1758181427.0799036,-0.35595703125,-0.02880859375,0.939453125,1.15966796875,-0.244140625,-0.54931640625,-2.0269775390625,21.005859375,-121.22314453125
1758181427.0901885,-0.35595703125,-0.03271484375,0.9345703125,1.3427734375,-0.18310546875,-0.48828125,-2.0159912109375,21.0003662109375,-121.2286376953125
1758181427.099992,-0.35595703125,-0.03271484375,0.9345703125,1.3427734375,-0.18310546875,-0.48828125,-2.0050048828125,21.0003662109375,-121.234130859375
1758181427.1098588,-0.3623046875,-0.03369140625,0.92724609375,1.52587890625,-0.30517578125,-0.42724609375,-1.9940185546875,21.0003662109375,-121.2396240234375
1758181427.1199303,-0.3623046875,-0.03369140625,0.92724609375,1.52587890625,-0.30517578125,-0.42724609375,-1.9775390625,20.994873046875,-121.2451171875
1758181427.1303158,-0.3642578125,-0.03271484375,0.93115234375,1.220703125,-0.3662109375,-0.30517578125,-1.966552734375,20.994873046875,-121.2451171875
1758181427.1400707,-0.3642578125,-0.03271484375,0.93115234375,1.220703125,-0.3662109375,-0.30517578125,-1.95556640625,20.9893798828125,-121.2506103515625
1758181427.1500766,-0.3642578125,-0.03271484375,0.93115234375,0.48828125,-0.244140625,-0.244140625,-1.9500732421875,20.9893798828125,-121.2506103515625
1758181427.1602423,-0.357421875,-0.03271484375,0.9384765625,0.48828125,-0.244140625,-0.244140625,-1.944580078125,20.9893798828125,-121.256103515625
1758181427.1699708,-0.35107421875,-0.03173828125,0.93359375,0.9765625,-0.244140625,-0.244140625,-1.9390869140625,20.98388671875,-121.2615966796875
1758181427.1802142,-0.35107421875,-0.03173828125,0.93359375,0.9765625,-0.244140625,-0.244140625,-1.93359375,20.98388671875,-121.2615966796875
1758181427.1907077,-0.3486328125,-0.0283203125,0.93505859375,1.3427734375,-0.30517578125,-0.244140625,-1.922607421875,20.9783935546875,-121.26708984375
1758181427.200064,-0.3486328125,-0.0283203125,0.93505859375,1.3427734375,-0.30517578125,-0.244140625,-1.91162109375,20.9783935546875,-121.2725830078125
1758181427.2100472,-0.35205078125,-0.0283203125,0.93701171875,0.91552734375,-0.3662109375,-0.18310546875,-1.900634765625,20.972900390625,-121.2725830078125
1758181427.2200975,-0.35205078125,-0.0283203125,0.93701171875,0.91552734375,-0.3662109375,-0.18310546875,-1.8896484375,20.9674072265625,-121.278076171875
1758181427.2302442,-0.353515625,-0.02978515625,0.9365234375,0.67138671875,-0.244140625,-0.06103515625,-1.8841552734375,20.9674072265625,-121.278076171875
1758181427.2400987,-0.353515625,-0.02978515625,0.9365234375,0.67138671875,-0.244140625,-0.06103515625,-1.878662109375,20.9619140625,-121.2835693359375
1758181427.250023,-0.3583984375,-0.03271484375,0.9326171875,0.6103515625,-0.244140625,0.0,-1.8731689453125,20.9564208984375,-121.2835693359375
1758181427.2602265,-0.3583984375,-0.03271484375,0.9326171875,0.6103515625,-0.244140625,0.0,-1.86767578125,20.9564208984375,-121.2835693359375
1758181427.2700891,-0.359375,-0.02978515625,0.9306640625,0.54931640625,-0.42724609375,0.0,-1.8621826171875,20.950927734375,-121.2890625
1758181427.2802453,-0.359375,-0.02978515625,0.9306640625,0.54931640625,-0.42724609375,0.0,-1.856689453125,20.9454345703125,-121.2890625
1758181427.290313,-0.35888671875,-0.02978515625,0.93505859375,0.30517578125,-0.48828125,-0.06103515625,-1.8511962890625,20.93994140625,-121.2890625
1758181427.3001697,-0.35888671875,-0.02978515625,0.93505859375,0.30517578125,-0.48828125,-0.06103515625,-1.8511962890625,20.9344482421875,-121.2890625
1758181427.310144,-0.35693359375,-0.02587890625,0.9375,0.48828125,-0.244140625,-0.1220703125,-1.845703125,20.9344482421875,-121.2945556640625
1758181427.3202279,-0.35693359375,-0.02587890625,0.9375,0.48828125,-0.244140625,-0.1220703125,-1.8402099609375,20.928955078125,-121.2945556640625
1758181427.3302526,-0.357421875,-0.02734375,0.9306640625,0.9765625,-0.244140625,-0.18310546875,-1.834716796875,20.928955078125,-121.300048828125
1758181427.340241,-0.357421875,-0.02734375,0.9306640625,0.9765625,-0.244140625,-0.18310546875,-1.82373046875,20.9234619140625,-121.300048828125
1758181427.3502092,-0.35986328125,-0.02685546875,0.9296875,0.732421875,-0.42724609375,-0.30517578125,-1.8182373046875,20.9234619140625,-121.3055419921875
1758181427.3604774,-0.35986328125,-0.02685546875,0.9296875,0.732421875,-0.42724609375,-0.30517578125,-1.812744140625,20.91796875,-121.3055419921875
1758181427.3702695,-0.36181640625,-0.02783203125,0.93603515625,0.0,-0.42724609375,-0.30517578125,-1.8072509765625,20.9124755859375,-121.31103515625
1758181427.3803008,-0.36181640625,-0.02783203125,0.93603515625,0.0,-0.42724609375,-0.30517578125,-1.8072509765625,20.906982421875,-121.31103515625
1758181427.3904452,-0.35791015625,-0.029296875,0.935546875,0.0,-0.30517578125,-0.30517578125,-1.8072509765625,20.906982421875,-121.3165283203125
1758181427.4003274,-0.35791015625,-0.029296875,0.935546875,0.0,-0.30517578125,-0.30517578125,-1.812744140625,20.9014892578125,-121.322021484375
1758181427.410292,-0.35791015625,-0.029296875,0.935546875,0.732421875,-0.3662109375,-0.3662109375,-1.8072509765625,20.9014892578125,-121.322021484375
1758181427.42033,-0.35546875,-0.0283203125,0.93017578125,0.732421875,-0.3662109375,-0.3662109375,-1.8017578125,20.89599609375,-121.3275146484375
1758181427.4304307,-0.35791015625,-0.0263671875,0.93212890625,0.48828125,-0.54931640625,-0.42724609375,-1.7962646484375,20.8905029296875,-121.3330078125
1758181427.4403512,-0.35791015625,-0.0263671875,0.93212890625,0.48828125,-0.54931640625,-0.42724609375,-1.790771484375,20.885009765625,-121.3385009765625
1758181427.450673,-0.35986328125,-0.0283203125,0.93603515625,-0.1220703125,-0.54931640625,-0.54931640625,-1.790771484375,20.8795166015625,-121.343994140625
1758181427.460701,-0.35986328125,-0.0283203125,0.93603515625,-0.1220703125,-0.54931640625,-0.54931640625,-1.7962646484375,20.8795166015625,-121.3494873046875
1758181427.4704194,-0.35546875,-0.0283203125,0.93603515625,0.06103515625,-0.42724609375,-0.54931640625,-1.7962646484375,20.8740234375,-121.35498046875
1758181427.4804106,-0.35546875,-0.0283203125,0.93603515625,0.06103515625,-0.42724609375,-0.54931640625,-1.7962646484375,20.8685302734375,-121.3604736328125
1758181427.490612,-0.35400390625,-0.02880859375,0.93359375,0.8544921875,-0.48828125,-0.54931640625,-1.7962646484375,20.863037109375,-121.365966796875
1758181427.5004575,-0.35400390625,-0.02880859375,0.93359375,0.8544921875,-0.48828125,-0.54931640625,-1.790771484375,20.8575439453125,-121.3714599609375
1758181427.5104084,-0.3564453125,-0.02734375,0.9306640625,0.6103515625,-0.732421875,-0.6103515625,-1.7852783203125,20.85205078125,-121.376953125
1758181427.5204525,-0.3564453125,-0.02734375,0.9306640625,0.6103515625,-0.732421875,-0.6103515625,-1.77978515625,20.8465576171875,-121.3824462890625
1758181427.530509,-0.359375,-0.02685546875,0.93017578125,0.0,-0.91552734375,-0.732421875,-1.77978515625,20.841064453125,-121.387939453125
1758181427.540481,-0.359375,-0.02685546875,0.93017578125,0.0,-0.91552734375,-0.732421875,-1.77978515625,20.830078125,-121.39892578125
1758181427.5505238,-0.357421875,-0.02685546875,0.9375,-0.244140625,-0.8544921875,-0.6103515625,-1.7852783203125,20.819091796875,-121.4044189453125
1758181427.561008,-0.357421875,-0.02685546875,0.9375,-0.244140625,-0.8544921875,-0.6103515625,-1.790771484375,20.8135986328125,-121.409912109375
1758181427.5706072,-0.3544921875,-0.03271484375,0.93603515625,0.1220703125,-0.67138671875,-0.42724609375,-1.790771484375,20.80810546875,-121.4154052734375
1758181427.580785,-0.3544921875,-0.03271484375,0.93603515625,0.1220703125,-0.67138671875,-0.42724609375,-1.790771484375,20.8026123046875,-121.4208984375
1758181427.590725,-0.3544921875,-0.03662109375,0.9326171875,0.48828125,-0.732421875,-0.42724609375,-1.790771484375,20.7916259765625,-121.4263916015625
1758181427.6007402,-0.3544921875,-0.03662109375,0.9326171875,0.48828125,-0.732421875,-0.42724609375,-1.7852783203125,20.7861328125,-121.431884765625
1758181427.6106682,-0.3525390625,-0.029296875,0.93603515625,0.18310546875,-0.732421875,-0.48828125,-1.7852783203125,20.7806396484375,-121.4373779296875
1758181427.6206243,-0.3525390625,-0.029296875,0.93603515625,0.18310546875,-0.732421875,-0.48828125,-1.7852783203125,20.775146484375,-121.44287109375
1758181427.630798,-0.34814453125,-0.0234375,0.94189453125,0.0,-0.6103515625,-0.3662109375,-1.7852783203125,20.76416015625,-121.4483642578125
1758181427.6407387,-0.34814453125,-0.0234375,0.94189453125,0.0,-0.6103515625,-0.3662109375,-1.7852783203125,20.7586669921875,-121.453857421875
1758181427.6510036,-0.34765625,-0.0263671875,0.93359375,0.18310546875,-0.48828125,-0.30517578125,-1.7852783203125,20.753173828125,-121.4593505859375
1758181427.660819,-0.34765625,-0.0263671875,0.93359375,0.18310546875,-0.48828125,-0.30517578125,-1.7852783203125,20.7476806640625,-121.46484375
1758181427.6706288,-0.34619140625,-0.02734375,0.93115234375,0.48828125,-0.48828125,-0.1220703125,-1.7852783203125,20.7421875,-121.46484375
1758181427.68102,-0.34619140625,-0.02734375,0.93115234375,0.48828125,-0.48828125,-0.1220703125,-1.77978515625,20.7366943359375,-121.46484375
1758181427.690703,-0.35400390625,-0.029296875,0.94384765625,-0.1220703125,-0.48828125,-0.18310546875,-1.7742919921875,20.731201171875,-121.4703369140625
1758181427.700746,-0.35400390625,-0.029296875,0.94384765625,-0.1220703125,-0.48828125,-0.18310546875,-1.77978515625,20.7257080078125,-121.4703369140625
1758181427.71068,-0.35205078125,-0.03173828125,0.94091796875,-0.732421875,-0.244140625,-0.06103515625,-1.77978515625,20.72021484375,-121.4703369140625
1758181427.7207522,-0.35205078125,-0.03173828125,0.94091796875,-0.732421875,-0.244140625,-0.06103515625,-1.790771484375,20.72021484375,-121.475830078125
1758181427.7308133,-0.3515625,-0.03173828125,0.931640625,-0.42724609375,-0.1220703125,-0.06103515625,-1.7962646484375,20.7147216796875,-121.475830078125
1758181427.742599,-0.3515625,-0.03173828125,0.931640625,-0.42724609375,-0.1220703125,-0.06103515625,-1.8017578125,20.7147216796875,-121.475830078125
1758181427.7522063,-0.35400390625,-0.0322265625,0.93310546875,-0.244140625,-0.18310546875,-0.06103515625,-1.8017578125,20.7147216796875,-121.475830078125
1758181427.7609606,-0.35400390625,-0.0322265625,0.93310546875,-0.244140625,-0.18310546875,-0.06103515625,-1.8072509765625,20.709228515625,-121.4813232421875
1758181427.7706985,-0.359375,-0.0244140625,0.935546875,-0.54931640625,-0.18310546875,0.0,-1.812744140625,20.709228515625,-121.4813232421875
1758181427.7810118,-0.359375,-0.0244140625,0.935546875,-0.54931640625,-0.18310546875,0.0,-1.8182373046875,20.7037353515625,-121.4813232421875
1758181427.7908163,-0.35693359375,-0.02978515625,0.9345703125,-0.48828125,-0.1220703125,0.0,-1.8182373046875,20.7037353515625,-121.4813232421875
1758181427.800788,-0.35693359375,-0.02978515625,0.9345703125,-0.48828125,-0.1220703125,0.0,-1.82373046875,20.7037353515625,-121.4813232421875
1758181427.8108265,-0.35546875,-0.0322265625,0.9326171875,-0.1220703125,-0.1220703125,-0.06103515625,-1.8292236328125,20.7037353515625,-121.4813232421875
1758181427.8209054,-0.35546875,-0.0322265625,0.9326171875,-0.1220703125,-0.1220703125,-0.06103515625,-1.8292236328125,20.7037353515625,-121.4813232421875
1758181427.830924,-0.34814453125,-0.029296875,0.935546875,0.18310546875,-0.18310546875,0.0,-1.8292236328125,20.6982421875,-121.4813232421875
1758181427.8407717,-0.34814453125,-0.029296875,0.935546875,0.18310546875,-0.18310546875,0.0,-1.8292236328125,20.6982421875,-121.4813232421875
1758181427.8511565,-0.3388671875,-0.0322265625,0.94091796875,-0.06103515625,-0.244140625,0.0,-1.8292236328125,20.6982421875,-121.4813232421875
1758181427.8610642,-0.3388671875,-0.0322265625,0.94091796875,-0.06103515625,-0.244140625,0.0,-1.8292236328125,20.6927490234375,-121.4813232421875
1758181427.8708534,-0.34326171875,-0.0263671875,0.93994140625,-0.30517578125,-0.244140625,0.1220703125,-1.8292236328125,20.687255859375,-121.4813232421875
1758181427.8809202,-0.34326171875,-0.0263671875,0.93994140625,-0.30517578125,-0.244140625,0.1220703125,-1.8292236328125,20.687255859375,-121.4813232421875
1758181427.8909855,-0.341796875,-0.0302734375,0.9345703125,-0.42724609375,-0.30517578125,0.18310546875,-1.834716796875,20.6817626953125,-121.4813232421875
1758181427.900935,-0.341796875,-0.0302734375,0.9345703125,-0.42724609375,-0.30517578125,0.18310546875,-1.8402099609375,20.67626953125,-121.4813232421875
1758181427.9109206,-0.34130859375,-0.03125,0.939453125,-0.42724609375,-0.42724609375,0.06103515625,-1.8402099609375,20.6707763671875,-121.4813232421875
1758181427.9210627,-0.34130859375,-0.03125,0.939453125,-0.42724609375,-0.42724609375,0.06103515625,-1.845703125,20.665283203125,-121.4813232421875
1758181427.931029,-0.3466796875,-0.03076171875,0.93896484375,0.06103515625,-0.42724609375,0.06103515625,-1.845703125,20.6597900390625,-121.4813232421875
1758181427.9409664,-0.3466796875,-0.03076171875,0.93896484375,0.06103515625,-0.42724609375,0.06103515625,-1.845703125,20.654296875,-121.4813232421875
1758181427.9513302,-0.34521484375,-0.033203125,0.93359375,0.42724609375,-0.48828125,0.06103515625,-1.8402099609375,20.643310546875,-121.4813232421875
1758181427.9611807,-0.34521484375,-0.033203125,0.93359375,0.42724609375,-0.48828125,0.06103515625,-1.8402099609375,20.6378173828125,-121.4813232421875
1758181427.970989,-0.34814453125,-0.02734375,0.9404296875,0.18310546875,-0.6103515625,0.06103515625,-1.834716796875,20.63232421875,-121.48681640625
1758181427.9812715,-0.34814453125,-0.02734375,0.9404296875,0.18310546875,-0.6103515625,0.06103515625,-1.834716796875,20.621337890625,-121.48681640625
1758181427.9912593,-0.3408203125,-0.0263671875,0.94091796875,-0.30517578125,-0.79345703125,0.1220703125,-1.834716796875,20.6158447265625,-121.48681640625
1758181428.0009985,-0.3408203125,-0.0263671875,0.94091796875,-0.30517578125,-0.79345703125,0.1220703125,-1.834716796875,20.6048583984375,-121.48681640625
1758181428.0111065,-0.34228515625,-0.0302734375,0.93701171875,-0.30517578125,-0.8544921875,0.06103515625,-1.8402099609375,20.5938720703125,-121.48681640625
1758181428.0211287,-0.34228515625,-0.0302734375,0.93701171875,-0.30517578125,-0.8544921875,0.06103515625,-1.8402099609375,20.5828857421875,-121.48681640625
1758181428.0311077,-0.34375,-0.0390625,0.9345703125,0.0,-0.8544921875,0.0,-1.8402099609375,20.5718994140625,-121.48681640625
1758181428.0412552,-0.34375,-0.0390625,0.9345703125,0.0,-0.8544921875,0.0,-1.8402099609375,20.5609130859375,-121.48681640625
1758181428.0514,-0.3544921875,-0.02978515625,0.93798828125,-0.06103515625,-0.8544921875,0.0,-1.8402099609375,20.5499267578125,-121.4923095703125
1758181428.0612886,-0.3544921875,-0.02978515625,0.93798828125,-0.06103515625,-0.8544921875,0.0,-1.8402099609375,20.5389404296875,-121.4923095703125
1758181428.07113,-0.35302734375,-0.02587890625,0.93505859375,-0.06103515625,-0.79345703125,0.0,-1.845703125,20.5279541015625,-121.4923095703125
1758181428.0815747,-0.35302734375,-0.02587890625,0.93505859375,-0.06103515625,-0.79345703125,0.0,-1.845703125,20.5224609375,-121.497802734375
1758181428.0911639,-0.3544921875,-0.0263671875,0.93505859375,0.244140625,-0.732421875,-0.06103515625,-1.845703125,20.511474609375,-121.497802734375
1758181428.1010985,-0.3544921875,-0.0263671875,0.93505859375,0.244140625,-0.732421875,-0.06103515625,-1.8402099609375,20.5059814453125,-121.497802734375
1758181428.1111434,-0.3564453125,-0.02978515625,0.9326171875,0.244140625,-0.67138671875,-0.18310546875,-1.8402099609375,20.4949951171875,-121.5032958984375
1758181428.1212382,-0.3564453125,-0.02978515625,0.9326171875,0.244140625,-0.67138671875,-0.18310546875,-1.834716796875,20.489501953125,-121.5032958984375
1758181428.131266,-0.36328125,-0.03076171875,0.9375,0.18310546875,-0.67138671875,-0.18310546875,-1.834716796875,20.4840087890625,-121.5032958984375
1758181428.1411707,-0.36328125,-0.03076171875,0.9375,0.18310546875,-0.67138671875,-0.18310546875,-1.834716796875,20.478515625,-121.5087890625
1758181428.1514828,-0.36328125,-0.03076171875,0.9375,0.3662109375,-0.48828125,-0.18310546875,-1.8292236328125,20.4730224609375,-121.5087890625
1758181428.1615622,-0.36181640625,-0.0322265625,0.931640625,0.3662109375,-0.48828125,-0.18310546875,-1.8292236328125,20.4730224609375,-121.5142822265625
1758181428.1712565,-0.36279296875,-0.0263671875,0.9326171875,0.244140625,-0.48828125,0.0,-1.82373046875,20.467529296875,-121.5142822265625
1758181428.1815279,-0.36279296875,-0.0263671875,0.9326171875,0.244140625,-0.48828125,0.0,-1.82373046875,20.467529296875,-121.5142822265625
1758181428.1912835,-0.3671875,-0.02392578125,0.93017578125,-0.30517578125,-0.48828125,0.0,-1.82373046875,20.4620361328125,-121.5142822265625
1758181428.201231,-0.3671875,-0.02392578125,0.93017578125,-0.30517578125,-0.48828125,0.0,-1.8292236328125,20.4620361328125,-121.5087890625
1758181428.2112947,-0.369140625,-0.029296875,0.93359375,-0.79345703125,-0.30517578125,-0.30517578125,-1.834716796875,20.4620361328125,-121.5142822265625
1758181428.2214663,-0.369140625,-0.029296875,0.93359375,-0.79345703125,-0.30517578125,-0.30517578125,-1.845703125,20.4620361328125,-121.5142822265625
1758181428.2313244,-0.36865234375,-0.0322265625,0.92822265625,-0.30517578125,-0.18310546875,-0.3662109375,-1.8511962890625,20.4620361328125,-121.5142822265625
1758181428.241248,-0.36865234375,-0.0322265625,0.92822265625,-0.30517578125,-0.18310546875,-0.3662109375,-1.8511962890625,20.467529296875,-121.5142822265625
1758181428.2513468,-0.36474609375,-0.02734375,0.93310546875,0.3662109375,-0.1220703125,-0.3662109375,-1.8511962890625,20.467529296875,-121.519775390625
1758181428.2657928,-0.36474609375,-0.02734375,0.93310546875,0.3662109375,-0.1220703125,-0.3662109375,-1.845703125,20.4730224609375,-121.519775390625
1758181428.271867,-0.3623046875,-0.02880859375,0.9345703125,0.0,0.0,-0.244140625,-1.845703125,20.478515625,-121.519775390625
1758181428.281423,-0.3623046875,-0.02880859375,0.9345703125,0.0,0.0,-0.244140625,-1.8511962890625,20.478515625,-121.519775390625
1758181428.2975452,-0.35986328125,-0.0341796875,0.931640625,-0.54931640625,0.0,-0.06103515625,-1.856689453125,20.4840087890625,-121.5142822265625
1758181428.3039176,-0.35986328125,-0.0341796875,0.931640625,-0.54931640625,0.0,-0.06103515625,-1.8621826171875,20.489501953125,-121.5142822265625
1758181428.3120039,-0.3583984375,-0.0341796875,0.93359375,-0.6103515625,-0.06103515625,0.0,-1.86767578125,20.489501953125,-121.5142822265625
1758181428.324778,-0.3583984375,-0.0341796875,0.93359375,-0.6103515625,-0.06103515625,0.0,-1.8731689453125,20.4949951171875,-121.5142822265625
1758181428.3324614,-0.35693359375,-0.03076171875,0.93310546875,-0.1220703125,-0.06103515625,0.06103515625,-1.8731689453125,20.50048828125,-121.5087890625
1758181428.341366,-0.35693359375,-0.03076171875,0.93310546875,-0.1220703125,-0.06103515625,0.06103515625,-1.8731689453125,20.50048828125,-121.5087890625
1758181428.3521345,-0.353515625,-0.0283203125,0.9384765625,0.0,-0.18310546875,0.1220703125,-1.8731689453125,20.5059814453125,-121.5032958984375
1758181428.365786,-0.353515625,-0.0283203125,0.9384765625,0.0,-0.18310546875,0.1220703125,-1.8731689453125,20.5059814453125,-121.5032958984375
1758181428.371805,-0.34814453125,-0.0283203125,0.9384765625,-0.1220703125,-0.06103515625,0.18310546875,-1.8731689453125,20.5059814453125,-121.497802734375
1758181428.3814988,-0.34814453125,-0.0283203125,0.9384765625,-0.1220703125,-0.06103515625,0.18310546875,-1.8731689453125,20.511474609375,-121.4923095703125
1758181428.397498,-0.35009765625,-0.0322265625,0.9365234375,-0.18310546875,-0.06103515625,0.18310546875,-1.8731689453125,20.511474609375,-121.4923095703125
1758181428.4040918,-0.35009765625,-0.0322265625,0.9365234375,-0.18310546875,-0.06103515625,0.18310546875,-1.8731689453125,20.511474609375,-121.48681640625
1758181428.4115434,-0.35400390625,-0.03173828125,0.9326171875,-0.1220703125,-0.1220703125,0.244140625,-1.8731689453125,20.511474609375,-121.48681640625
1758181428.4249105,-0.35400390625,-0.03173828125,0.9326171875,-0.1220703125,-0.1220703125,0.244140625,-1.878662109375,20.511474609375,-121.4813232421875
1758181428.432192,-0.35498046875,-0.02978515625,0.93701171875,-0.42724609375,0.0,0.244140625,-1.878662109375,20.5169677734375,-121.475830078125
1758181428.4415047,-0.35498046875,-0.02978515625,0.93701171875,-0.42724609375,0.0,0.244140625,-1.8841552734375,20.5169677734375,-121.475830078125
1758181428.451991,-0.353515625,-0.03125,0.93798828125,-0.42724609375,0.06103515625,0.30517578125,-1.8841552734375,20.5169677734375,-121.4703369140625
1758181428.4646575,-0.353515625,-0.03125,0.93798828125,-0.42724609375,0.06103515625,0.30517578125,-1.8896484375,20.5224609375,-121.4703369140625
1758181428.471548,-0.35205078125,-0.03125,0.93212890625,0.1220703125,0.06103515625,0.244140625,-1.8841552734375,20.5224609375,-121.4703369140625
1758181428.4816065,-0.35205078125,-0.03125,0.93212890625,0.1220703125,0.06103515625,0.244140625,-1.8841552734375,20.5279541015625,-121.46484375
1758181428.4916282,-0.3505859375,-0.02880859375,0.9365234375,0.18310546875,0.06103515625,0.244140625,-1.8841552734375,20.5279541015625,-121.46484375
1758181428.50157,-0.3505859375,-0.02880859375,0.9365234375,0.18310546875,0.06103515625,0.244140625,-1.878662109375,20.5279541015625,-121.4593505859375
1758181428.5122461,-0.34814453125,-0.03173828125,0.93701171875,-0.18310546875,0.1220703125,0.30517578125,-1.878662109375,20.533447265625,-121.453857421875
1758181428.5221083,-0.34814453125,-0.03173828125,0.93701171875,-0.18310546875,0.1220703125,0.30517578125,-1.878662109375,20.533447265625,-121.453857421875
1758181428.5317178,-0.3466796875,-0.03271484375,0.93798828125,-0.244140625,0.1220703125,0.244140625,-1.8841552734375,20.533447265625,-121.4483642578125
1758181428.5416563,-0.3466796875,-0.03271484375,0.93798828125,-0.244140625,0.1220703125,0.244140625,-1.8841552734375,20.5389404296875,-121.4483642578125
1758181428.5516787,-0.34423828125,-0.0302734375,0.93798828125,-0.06103515625,0.1220703125,0.1220703125,-1.8841552734375,20.5389404296875,-121.44287109375
1758181428.5626664,-0.34423828125,-0.0302734375,0.93798828125,-0.06103515625,0.1220703125,0.1220703125,-1.8841552734375,20.5389404296875,-121.44287109375
1758181428.571767,-0.34375,-0.025390625,0.93896484375,0.1220703125,0.18310546875,0.06103515625,-1.8841552734375,20.5389404296875,-121.44287109375
1758181428.5817785,-0.34375,-0.025390625,0.93896484375,0.1220703125,0.18310546875,0.06103515625,-1.878662109375,20.5389404296875,-121.44287109375
1758181428.591812,-0.34423828125,-0.02978515625,0.9404296875,0.06103515625,0.18310546875,0.18310546875,-1.878662109375,20.54443359375,-121.44287109375
1758181428.601686,-0.34423828125,-0.02978515625,0.9404296875,0.06103515625,0.18310546875,0.18310546875,-1.878662109375,20.54443359375,-121.44287109375
1758181428.612362,-0.3447265625,-0.0361328125,0.9375,-0.6103515625,0.18310546875,0.18310546875,-1.8841552734375,20.54443359375,-121.44287109375
1758181428.622438,-0.3447265625,-0.0361328125,0.9375,-0.6103515625,0.18310546875,0.18310546875,-1.8896484375,20.54443359375,-121.4373779296875
1758181428.6318316,-0.345703125,-0.03271484375,0.93603515625,-0.3662109375,0.0,0.1220703125,-1.8896484375,20.54443359375,-121.4373779296875
1758181428.641793,-0.345703125,-0.03271484375,0.93603515625,-0.3662109375,0.0,0.1220703125,-1.8951416015625,20.54443359375,-121.4373779296875
1758181428.6518445,-0.34912109375,-0.02783203125,0.93701171875,0.1220703125,0.0,0.06103515625,-1.8951416015625,20.5389404296875,-121.4373779296875
1758181428.6618037,-0.34912109375,-0.02783203125,0.93701171875,0.1220703125,0.0,0.06103515625,-1.8896484375,20.5389404296875,-121.4373779296875
1758181428.6717675,-0.35302734375,-0.02734375,0.93701171875,0.0,0.0,0.0,-1.8896484375,20.5389404296875,-121.44287109375
1758181428.6817799,-0.35302734375,-0.02734375,0.93701171875,0.0,0.0,0.0,-1.8896484375,20.5389404296875,-121.44287109375
1758181428.6918747,-0.353515625,-0.03076171875,0.93505859375,-0.30517578125,0.06103515625,-0.1220703125,-1.8951416015625,20.5389404296875,-121.44287109375
1758181428.7018085,-0.353515625,-0.03076171875,0.93505859375,-0.30517578125,0.06103515625,-0.1220703125,-1.8951416015625,20.5389404296875,-121.44287109375
1758181428.711825,-0.3515625,-0.0302734375,0.9345703125,-0.1220703125,0.0,-0.3662109375,-1.900634765625,20.5389404296875,-121.4483642578125
1758181428.722275,-0.3515625,-0.0302734375,0.9345703125,-0.1220703125,0.0,-0.3662109375,-1.900634765625,20.533447265625,-121.453857421875
1758181428.7319353,-0.3505859375,-0.0283203125,0.93603515625,0.42724609375,0.0,-0.48828125,-1.900634765625,20.533447265625,-121.4593505859375
1758181428.7418132,-0.3505859375,-0.0283203125,0.93603515625,0.42724609375,0.0,-0.48828125,-1.8951416015625,20.533447265625,-121.46484375
1758181428.7518766,-0.34912109375,-0.02783203125,0.93896484375,0.6103515625,0.0,-0.48828125,-1.8896484375,20.533447265625,-121.4703369140625
1758181428.762009,-0.34912109375,-0.02783203125,0.93896484375,0.6103515625,0.0,-0.48828125,-1.8841552734375,20.533447265625,-121.475830078125
1758181428.7719288,-0.3486328125,-0.03271484375,0.93408203125,0.18310546875,0.0,-0.54931640625,-1.8841552734375,20.533447265625,-121.4813232421875
1758181428.7822826,-0.3486328125,-0.03271484375,0.93408203125,0.18310546875,0.0,-0.54931640625,-1.8841552734375,20.533447265625,-121.48681640625
1758181428.792036,-0.349609375,-0.03369140625,0.9365234375,-0.06103515625,-0.06103515625,-0.42724609375,-1.8896484375,20.533447265625,-121.4923095703125
1758181428.8023844,-0.349609375,-0.03369140625,0.9365234375,-0.06103515625,-0.06103515625,-0.42724609375,-1.8896484375,20.5279541015625,-121.4923095703125
1758181428.8120005,-0.34765625,-0.03271484375,0.93896484375,0.0,0.0,-0.3662109375,-1.8896484375,20.5279541015625,-121.497802734375
1758181428.822531,-0.34765625,-0.03271484375,0.93896484375,0.0,0.0,-0.3662109375,-1.8951416015625,20.5279541015625,-121.5032958984375
1758181428.8320763,-0.34375,-0.0302734375,0.93798828125,0.1220703125,0.0,-0.42724609375,-1.8951416015625,20.5279541015625,-121.5087890625
1758181428.8422453,-0.34375,-0.0302734375,0.93798828125,0.1220703125,0.0,-0.42724609375,-1.8951416015625,20.5279541015625,-121.5142822265625
1758181428.8520474,-0.34423828125,-0.029296875,0.9375,0.1220703125,-0.06103515625,-0.42724609375,-1.8951416015625,20.5279541015625,-121.5142822265625
1758181428.8632379,-0.34423828125,-0.029296875,0.9375,0.1220703125,-0.06103515625,-0.42724609375,-1.8951416015625,20.5224609375,-121.519775390625
1758181428.8719802,-0.34619140625,-0.02978515625,0.9404296875,0.0,0.0,-0.42724609375,-1.8951416015625,20.5224609375,-121.5252685546875
1758181428.8825958,-0.34619140625,-0.02978515625,0.9404296875,0.0,0.0,-0.42724609375,-1.8951416015625,20.5224609375,-121.53076171875
1758181428.8920472,-0.3466796875,-0.0322265625,0.93701171875,0.0,0.0,-0.30517578125,-1.900634765625,20.5169677734375,-121.53076171875
1758181428.9024503,-0.3466796875,-0.0322265625,0.93701171875,0.0,0.0,-0.30517578125,-1.900634765625,20.5169677734375,-121.5362548828125
1758181428.9121287,-0.345703125,-0.03466796875,0.9365234375,0.0,-0.06103515625,-0.18310546875,-1.900634765625,20.5169677734375,-121.5362548828125
1758181428.9231179,-0.345703125,-0.03466796875,0.9365234375,0.0,-0.06103515625,-0.18310546875,-1.900634765625,20.5169677734375,-121.541748046875
1758181428.9321733,-0.34912109375,-0.03466796875,0.9365234375,-0.1220703125,-0.06103515625,0.0,-1.900634765625,20.511474609375,-121.541748046875
1758181428.9427462,-0.34912109375,-0.03466796875,0.9365234375,-0.1220703125,-0.06103515625,0.0,-1.9061279296875,20.511474609375,-121.5472412109375
1758181428.9534996,-0.349609375,-0.0341796875,0.9384765625,-0.18310546875,0.0,0.1220703125,-1.9061279296875,20.511474609375,-121.5472412109375
1758181428.963517,-0.349609375,-0.0341796875,0.9384765625,-0.18310546875,0.0,0.1220703125,-1.9061279296875,20.5059814453125,-121.5472412109375
1758181428.9721234,-0.3486328125,-0.03173828125,0.93701171875,-0.18310546875,0.0,0.06103515625,-1.91162109375,20.5059814453125,-121.5472412109375
1758181428.9821143,-0.3486328125,-0.03173828125,0.93701171875,-0.18310546875,0.0,0.06103515625,-1.91162109375,20.5059814453125,-121.5472412109375
1758181428.9922657,-0.3447265625,-0.02880859375,0.9365234375,0.1220703125,0.0,0.0,-1.91162109375,20.5059814453125,-121.552734375
1758181429.0022411,-0.3447265625,-0.02880859375,0.9365234375,0.1220703125,0.0,0.0,-1.91162109375,20.5059814453125,-121.552734375
1758181429.0126102,-0.34326171875,-0.0283203125,0.94091796875,0.0,0.0,0.0,-1.91162109375,20.5059814453125,-121.552734375
1758181429.0224633,-0.34326171875,-0.0283203125,0.94091796875,0.0,0.0,0.0,-1.91162109375,20.50048828125,-121.5582275390625
1758181429.0322843,-0.34619140625,-0.03125,0.93798828125,-0.1220703125,-0.06103515625,0.06103515625,-1.91162109375,20.50048828125,-121.5582275390625
1758181429.0422175,-0.34619140625,-0.03125,0.93798828125,-0.1220703125,-0.06103515625,0.06103515625,-1.91162109375,20.50048828125,-121.5582275390625
1758181429.0522525,-0.3515625,-0.0341796875,0.931640625,-0.1220703125,-0.18310546875,0.1220703125,-1.91162109375,20.4949951171875,-121.5582275390625
1758181429.06267,-0.3515625,-0.0341796875,0.931640625,-0.1220703125,-0.18310546875,0.1220703125,-1.91162109375,20.489501953125,-121.5582275390625
1758181429.072228,-0.35498046875,-0.03369140625,0.93701171875,-0.67138671875,-0.1220703125,0.18310546875,-1.9171142578125,20.489501953125,-121.5582275390625
1758181429.0822997,-0.35498046875,-0.03369140625,0.93701171875,-0.67138671875,-0.1220703125,0.18310546875,-1.922607421875,20.489501953125,-121.5582275390625
1758181429.092734,-0.3544921875,-0.0322265625,0.9365234375,-0.48828125,0.0,0.18310546875,-1.9281005859375,20.489501953125,-121.5582275390625
1758181429.1022525,-0.3544921875,-0.0322265625,0.9365234375,-0.48828125,0.0,0.18310546875,-1.93359375,20.489501953125,-121.552734375
1758181429.1122684,-0.3525390625,-0.02978515625,0.93408203125,0.244140625,0.0,0.1220703125,-1.93359375,20.489501953125,-121.552734375
1758181429.1225686,-0.3525390625,-0.02978515625,0.93408203125,0.244140625,0.0,0.1220703125,-1.9281005859375,20.489501953125,-121.552734375
1758181429.1323051,-0.3525390625,-0.02685546875,0.9365234375,0.30517578125,0.0,0.0,-1.922607421875,20.489501953125,-121.552734375
1758181429.142266,-0.35205078125,-0.0302734375,0.93603515625,-0.30517578125,0.0,0.0,-1.922607421875,20.489501953125,-121.552734375
1758181429.1525502,-0.35205078125,-0.0302734375,0.93603515625,-0.30517578125,0.0,0.0,-1.9281005859375,20.489501953125,-121.552734375
1758181429.162783,-0.35107421875,-0.03369140625,0.9375,-0.3662109375,0.06103515625,0.0,-1.9281005859375,20.489501953125,-121.552734375
1758181429.172371,-0.35107421875,-0.03369140625,0.9375,-0.3662109375,0.06103515625,0.0,-1.93359375,20.489501953125,-121.552734375
1758181429.1823847,-0.3486328125,-0.0341796875,0.9365234375,0.1220703125,0.06103515625,0.0,-1.93359375,20.489501953125,-121.552734375
1758181429.1926212,-0.3486328125,-0.0341796875,0.9365234375,0.1220703125,0.06103515625,0.0,-1.93359375,20.489501953125,-121.552734375
1758181429.202382,-0.3466796875,-0.03125,0.93505859375,0.42724609375,0.0,0.0,-1.93359375,20.4949951171875,-121.552734375
1758181429.21243,-0.3466796875,-0.03125,0.93505859375,0.42724609375,0.0,0.0,-1.9281005859375,20.4949951171875,-121.552734375
1758181429.2226675,-0.3447265625,-0.03173828125,0.9404296875,-0.06103515625,0.0,0.1220703125,-1.922607421875,20.4949951171875,-121.5472412109375
1758181429.2329204,-0.3447265625,-0.03173828125,0.9404296875,-0.06103515625,0.0,0.1220703125,-1.9281005859375,20.489501953125,-121.5472412109375
1758181429.2424593,-0.3447265625,-0.0341796875,0.93896484375,-0.67138671875,0.06103515625,0.1220703125,-1.9281005859375,20.489501953125,-121.5472412109375
1758181429.2527528,-0.3447265625,-0.0341796875,0.93896484375,-0.67138671875,0.06103515625,0.1220703125,-1.93359375,20.489501953125,-121.5472412109375
1758181429.262621,-0.34716796875,-0.033203125,0.93798828125,-0.244140625,0.1220703125,0.06103515625,-1.9390869140625,20.489501953125,-121.5472412109375
1758181429.272735,-0.34716796875,-0.033203125,0.93798828125,-0.244140625,0.1220703125,0.06103515625,-1.944580078125,20.4949951171875,-121.5472412109375
1758181429.282498,-0.349609375,-0.0283203125,0.935546875,0.3662109375,0.1220703125,0.0,-1.9390869140625,20.4949951171875,-121.5472412109375
1758181429.2934775,-0.349609375,-0.0283203125,0.935546875,0.3662109375,0.1220703125,0.0,-1.9390869140625,20.4949951171875,-121.5472412109375
1758181429.3024945,-0.34765625,-0.02734375,0.93798828125,0.06103515625,0.06103515625,0.0,-1.93359375,20.4949951171875,-121.5472412109375
1758181429.3128617,-0.34765625,-0.02734375,0.93798828125,0.06103515625,0.06103515625,0.0,-1.93359375,20.4949951171875,-121.5472412109375
1758181429.3226957,-0.33984375,-0.03271484375,0.93994140625,-0.6103515625,0.0,0.0,-1.9390869140625,20.4949951171875,-121.5472412109375
1758181429.33297,-0.33984375,-0.03271484375,0.93994140625,-0.6103515625,0.0,0.0,-1.944580078125,20.489501953125,-121.5472412109375
1758181429.342551,-0.34033203125,-0.03564453125,0.94189453125,-0.67138671875,0.0,0.0,-1.9500732421875,20.489501953125,-121.5472412109375
1758181429.3531067,-0.34033203125,-0.03564453125,0.94189453125,-0.67138671875,0.0,0.0,-1.95556640625,20.489501953125,-121.5472412109375
1758181429.3626418,-0.34375,-0.033203125,0.935546875,0.06103515625,0.0,0.0,-1.9610595703125,20.4840087890625,-121.5472412109375
1758181429.3731885,-0.34375,-0.033203125,0.935546875,0.06103515625,0.0,0.0,-1.9610595703125,20.4840087890625,-121.5472412109375
1758181429.3827233,-0.349609375,-0.029296875,0.93603515625,0.1220703125,-0.1220703125,-0.1220703125,-1.95556640625,20.4840087890625,-121.552734375
1758181429.3962297,-0.349609375,-0.029296875,0.93603515625,0.1220703125,-0.1220703125,-0.1220703125,-1.95556640625,20.478515625,-121.552734375
1758181429.402725,-0.35107421875,-0.029296875,0.9365234375,-0.3662109375,-0.06103515625,0.0,-1.95556640625,20.478515625,-121.5582275390625
1758181429.4136477,-0.35107421875,-0.029296875,0.9365234375,-0.3662109375,-0.06103515625,0.0,-1.9610595703125,20.4730224609375,-121.5582275390625
1758181429.4227262,-0.34912109375,-0.03173828125,0.9365234375,-0.06103515625,0.0,-0.3662109375,-1.966552734375,20.4730224609375,-121.563720703125
1758181429.4327476,-0.34912109375,-0.03173828125,0.9365234375,-0.06103515625,0.0,-0.3662109375,-1.966552734375,20.4730224609375,-121.5692138671875
1758181429.4426498,-0.34912109375,-0.03173828125,0.93603515625,0.54931640625,0.0,-0.42724609375,-1.966552734375,20.4730224609375,-121.57470703125
1758181429.4526927,-0.34912109375,-0.03173828125,0.93603515625,0.54931640625,0.0,-0.42724609375,-1.9610595703125,20.4730224609375,-121.5802001953125
1758181429.463216,-0.35302734375,-0.0244140625,0.93408203125,0.30517578125,-0.1220703125,-0.244140625,-1.95556640625,20.467529296875,-121.5802001953125
1758181429.4727778,-0.35302734375,-0.0244140625,0.93408203125,0.30517578125,-0.1220703125,-0.244140625,-1.95556640625,20.467529296875,-121.585693359375
1758181429.48278,-0.35009765625,-0.03564453125,0.935546875,-0.18310546875,-0.244140625,-0.18310546875,-1.95556640625,20.467529296875,-121.585693359375
1758181429.492955,-0.35009765625,-0.03564453125,0.935546875,-0.18310546875,-0.244140625,-0.18310546875,-1.95556640625,20.4620361328125,-121.5911865234375
1758181429.5027878,-0.3486328125,-0.03759765625,0.9384765625,-0.42724609375,-0.18310546875,-0.18310546875,-1.9610595703125,20.4620361328125,-121.5911865234375
1758181429.5132718,-0.3486328125,-0.03759765625,0.9384765625,-0.42724609375,-0.18310546875,-0.18310546875,-1.966552734375,20.45654296875,-121.5966796875
1758181429.5234537,-0.345703125,-0.03466796875,0.93701171875,0.18310546875,-0.18310546875,-0.18310546875,-1.966552734375,20.45654296875,-121.5966796875
1758181429.533288,-0.345703125,-0.03466796875,0.93701171875,0.18310546875,-0.18310546875,-0.18310546875,-1.966552734375,20.45654296875,-121.6021728515625
1758181429.543649,-0.34521484375,-0.02978515625,0.9365234375,0.48828125,-0.30517578125,-0.18310546875,-1.9610595703125,20.4510498046875,-121.6021728515625
1758181429.5533082,-0.34521484375,-0.02978515625,0.9365234375,0.48828125,-0.30517578125,-0.18310546875,-1.9610595703125,20.445556640625,-121.607666015625
1758181429.5636535,-0.34765625,-0.02880859375,0.93896484375,-0.06103515625,-0.3662109375,-0.1220703125,-1.95556640625,20.445556640625,-121.607666015625
1758181429.5732863,-0.34765625,-0.02880859375,0.93896484375,-0.06103515625,-0.3662109375,-0.1220703125,-1.95556640625,20.4400634765625,-121.607666015625
1758181429.582906,-0.34912109375,-0.03515625,0.935546875,-0.30517578125,-0.3662109375,-0.06103515625,-1.9610595703125,20.4345703125,-121.607666015625
1758181429.5935094,-0.34912109375,-0.03515625,0.935546875,-0.30517578125,-0.3662109375,-0.06103515625,-1.9610595703125,20.4290771484375,-121.607666015625
1758181429.6029038,-0.34814453125,-0.0322265625,0.93603515625,-0.06103515625,-0.3662109375,0.0,-1.966552734375,20.4290771484375,-121.6131591796875
1758181429.6132865,-0.34814453125,-0.0322265625,0.93603515625,-0.06103515625,-0.3662109375,0.0,-1.966552734375,20.423583984375,-121.6131591796875
1758181429.6233816,-0.34521484375,-0.03369140625,0.939453125,-0.1220703125,-0.3662109375,0.06103515625,-1.966552734375,20.4180908203125,-121.6131591796875
1758181429.633379,-0.34521484375,-0.03369140625,0.939453125,-0.1220703125,-0.3662109375,0.06103515625,-1.966552734375,20.41259765625,-121.6131591796875
1758181429.6429534,-0.3447265625,-0.0361328125,0.93798828125,-0.48828125,-0.42724609375,0.1220703125,-1.9720458984375,20.41259765625,-121.607666015625
1758181429.6533263,-0.3447265625,-0.0361328125,0.93798828125,-0.48828125,-0.42724609375,0.1220703125,-1.9720458984375,20.4071044921875,-121.607666015625
1758181429.6636508,-0.34326171875,-0.033203125,0.9365234375,-0.1220703125,-0.48828125,0.06103515625,-1.9775390625,20.401611328125,-121.607666015625
1758181429.6734874,-0.34326171875,-0.033203125,0.9365234375,-0.1220703125,-0.48828125,0.06103515625,-1.9775390625,20.3961181640625,-121.607666015625
1758181429.683181,-0.34228515625,-0.0302734375,0.94140625,0.1220703125,-0.42724609375,0.06103515625,-1.9775390625,20.390625,-121.6131591796875
1758181429.6935399,-0.34228515625,-0.0302734375,0.94140625,0.1220703125,-0.42724609375,0.06103515625,-1.9775390625,20.3851318359375,-121.6131591796875
1758181429.7031,-0.34375,-0.0283203125,0.94091796875,-0.3662109375,-0.3662109375,0.1220703125,-1.9775390625,20.379638671875,-121.6131591796875
1758181429.7132907,-0.34375,-0.0283203125,0.94091796875,-0.3662109375,-0.3662109375,0.1220703125,-1.9830322265625,20.3741455078125,-121.607666015625
1758181429.7231858,-0.34326171875,-0.0341796875,0.94091796875,-0.79345703125,-0.30517578125,0.18310546875,-1.988525390625,20.36865234375,-121.607666015625
1758181429.7336965,-0.34326171875,-0.0341796875,0.94091796875,-0.79345703125,-0.30517578125,0.18310546875,-1.9940185546875,20.3631591796875,-121.607666015625
1758181429.7431214,-0.3486328125,-0.03857421875,0.93505859375,-0.6103515625,-0.30517578125,0.1220703125,-1.99951171875,20.3631591796875,-121.607666015625
1758181429.7535672,-0.3486328125,-0.03857421875,0.93505859375,-0.6103515625,-0.30517578125,0.1220703125,-2.0050048828125,20.357666015625,-121.607666015625
1758181429.7638543,-0.353515625,-0.0341796875,0.9345703125,0.06103515625,-0.30517578125,0.0,-2.010498046875,20.3521728515625,-121.607666015625
1758181429.7732882,-0.353515625,-0.0341796875,0.9345703125,0.06103515625,-0.30517578125,0.0,-2.0050048828125,20.3521728515625,-121.607666015625
1758181429.7835054,-0.35595703125,-0.029296875,0.93408203125,0.30517578125,-0.244140625,0.0,-2.0050048828125,20.3466796875,-121.607666015625
1758181429.7936351,-0.35595703125,-0.029296875,0.93408203125,0.30517578125,-0.244140625,0.0,-2.0050048828125,20.3466796875,-121.607666015625
1758181429.8032422,-0.3515625,-0.0283203125,0.93798828125,-0.244140625,-0.18310546875,0.06103515625,-2.0050048828125,20.3411865234375,-121.607666015625
1758181429.813332,-0.3515625,-0.0283203125,0.93798828125,-0.244140625,-0.18310546875,0.06103515625,-2.0050048828125,20.3411865234375,-121.607666015625
1758181429.8232005,-0.345703125,-0.0361328125,0.9365234375,-0.30517578125,-0.244140625,0.06103515625,-2.0050048828125,20.3411865234375,-121.607666015625
1758181429.8337433,-0.345703125,-0.0361328125,0.9365234375,-0.30517578125,-0.244140625,0.06103515625,-2.010498046875,20.335693359375,-121.607666015625
1758181429.8437889,-0.34326171875,-0.037109375,0.9384765625,0.1220703125,-0.18310546875,0.0,-2.010498046875,20.335693359375,-121.6021728515625
1758181429.8534312,-0.34326171875,-0.037109375,0.9384765625,0.1220703125,-0.18310546875,0.0,-2.010498046875,20.335693359375,-121.6021728515625
1758181429.8639357,-0.3447265625,-0.0322265625,0.93701171875,0.30517578125,-0.18310546875,0.0,-2.0050048828125,20.3302001953125,-121.607666015625
1758181429.8751967,-0.3447265625,-0.0322265625,0.93701171875,0.30517578125,-0.18310546875,0.0,-2.0050048828125,20.3302001953125,-121.607666015625
1758181429.8834631,-0.34716796875,-0.03076171875,0.93798828125,-0.18310546875,-0.244140625,0.06103515625,-2.0050048828125,20.3302001953125,-121.607666015625
1758181429.8936749,-0.34716796875,-0.03076171875,0.93798828125,-0.18310546875,-0.244140625,0.06103515625,-2.0050048828125,20.32470703125,-121.6021728515625
1758181429.903376,-0.3466796875,-0.033203125,0.9365234375,-0.42724609375,-0.30517578125,0.06103515625,-2.010498046875,20.32470703125,-121.6021728515625
1758181429.9133437,-0.3466796875,-0.033203125,0.9365234375,-0.42724609375,-0.30517578125,0.06103515625,-2.010498046875,20.3192138671875,-121.6021728515625
1758181429.9232714,-0.3447265625,-0.03369140625,0.9365234375,0.0,-0.42724609375,0.0,-2.0159912109375,20.313720703125,-121.6021728515625
1758181429.9339206,-0.3447265625,-0.03369140625,0.9365234375,0.0,-0.42724609375,0.0,-2.0159912109375,20.313720703125,-121.6021728515625
1758181429.9432979,-0.34130859375,-0.0322265625,0.93798828125,0.18310546875,-0.42724609375,0.0,-2.010498046875,20.3082275390625,-121.6021728515625
1758181429.9536088,-0.34130859375,-0.0322265625,0.93798828125,0.18310546875,-0.42724609375,0.0,-2.010498046875,20.302734375,-121.607666015625
1758181429.9644258,-0.3388671875,-0.03173828125,0.94140625,-0.18310546875,-0.48828125,0.0,-2.010498046875,20.2972412109375,-121.607666015625
1758181429.973429,-0.3388671875,-0.03173828125,0.94140625,-0.18310546875,-0.48828125,0.0,-2.010498046875,20.291748046875,-121.607666015625
1758181429.9835405,-0.3408203125,-0.03564453125,0.93994140625,-0.6103515625,-0.48828125,0.0,-2.0159912109375,20.2862548828125,-121.607666015625
1758181429.9936845,-0.3408203125,-0.03564453125,0.93994140625,-0.6103515625,-0.48828125,0.0,-2.021484375,20.28076171875,-121.607666015625
1758181430.003413,-0.34375,-0.0341796875,0.9375,0.0,-0.48828125,0.0,-2.0269775390625,20.2752685546875,-121.607666015625
1758181430.0134416,-0.34375,-0.0341796875,0.9375,0.0,-0.48828125,0.0,-2.0269775390625,20.269775390625,-121.607666015625
1758181430.0234582,-0.34130859375,-0.03076171875,0.94091796875,0.3662109375,-0.42724609375,0.0,-2.021484375,20.2642822265625,-121.607666015625
1758181430.0340416,-0.34130859375,-0.03076171875,0.94091796875,0.3662109375,-0.42724609375,0.0,-2.021484375,20.2587890625,-121.607666015625
1758181430.0434077,-0.33642578125,-0.0322265625,0.94140625,0.18310546875,-0.42724609375,0.0,-2.0159912109375,20.2532958984375,-121.607666015625
1758181430.053829,-0.33642578125,-0.0322265625,0.94140625,0.18310546875,-0.42724609375,0.0,-2.0159912109375,20.247802734375,-121.607666015625
1758181430.0645401,-0.3369140625,-0.03515625,0.939453125,0.06103515625,-0.54931640625,0.0,-2.0159912109375,20.2423095703125,-121.6131591796875
1758181430.073562,-0.3369140625,-0.03515625,0.939453125,0.06103515625,-0.54931640625,0.0,-2.010498046875,20.2313232421875,-121.6131591796875
1758181430.0835524,-0.3408203125,-0.03515625,0.939453125,0.0,-0.54931640625,0.0,-2.010498046875,20.225830078125,-121.6131591796875
1758181430.093721,-0.3408203125,-0.03515625,0.939453125,0.0,-0.54931640625,0.0,-2.010498046875,20.2203369140625,-121.6131591796875
1758181430.1035724,-0.3447265625,-0.03271484375,0.94140625,-0.1220703125,-0.42724609375,0.0,-2.0159912109375,20.21484375,-121.61865234375
1758181430.1136549,-0.3447265625,-0.03271484375,0.94140625,-0.1220703125,-0.42724609375,0.0,-2.0159912109375,20.203857421875,-121.61865234375
1758181430.123525,-0.34228515625,-0.03125,0.9404296875,0.1220703125,-0.244140625,0.0,-2.0159912109375,20.203857421875,-121.61865234375
1758181430.1341255,-0.34228515625,-0.03125,0.9404296875,0.1220703125,-0.244140625,0.0,-2.0159912109375,20.1983642578125,-121.61865234375
1758181430.1435611,-0.3408203125,-0.033203125,0.935546875,0.48828125,-0.3662109375,0.0,-2.010498046875,20.19287109375,-121.6241455078125
1758181430.1538346,-0.3408203125,-0.033203125,0.935546875,0.48828125,-0.3662109375,0.0,-2.0050048828125,20.1873779296875,-121.6241455078125
1758181430.1646461,-0.34423828125,-0.0341796875,0.93896484375,0.0,-0.48828125,-0.30517578125,-2.0050048828125,20.181884765625,-121.629638671875
1758181430.1738644,-0.34423828125,-0.0341796875,0.93896484375,0.0,-0.48828125,-0.30517578125,-2.0050048828125,20.1763916015625,-121.629638671875
1758181430.1836662,-0.34912109375,-0.03271484375,0.9404296875,-0.18310546875,-0.3662109375,-0.3662109375,-2.010498046875,20.1708984375,-121.6351318359375
1758181430.1939383,-0.34912109375,-0.03271484375,0.9404296875,-0.18310546875,-0.3662109375,-0.3662109375,-2.010498046875,20.1654052734375,-121.640625
1758181430.2037566,-0.3486328125,-0.033203125,0.93505859375,0.48828125,-0.18310546875,-0.30517578125,-2.0050048828125,20.1654052734375,-121.6461181640625
1758181430.2137096,-0.3486328125,-0.033203125,0.93505859375,0.48828125,-0.18310546875,-0.30517578125,-2.0050048828125,20.1654052734375,-121.651611328125
1758181430.223656,-0.34130859375,-0.0341796875,0.93603515625,0.6103515625,-0.244140625,-0.30517578125,-1.99951171875,20.159912109375,-121.651611328125
1758181430.2343152,-0.34130859375,-0.0341796875,0.93603515625,0.6103515625,-0.244140625,-0.30517578125,-1.9940185546875,20.159912109375,-121.6571044921875
1758181430.2437062,-0.3349609375,-0.0341796875,0.94384765625,0.1220703125,-0.30517578125,-0.30517578125,-1.9940185546875,20.1544189453125,-121.66259765625
1758181430.2542806,-0.3349609375,-0.0341796875,0.94384765625,0.1220703125,-0.30517578125,-0.30517578125,-1.9940185546875,20.14892578125,-121.6680908203125
1758181430.2648325,-0.33544921875,-0.03369140625,0.94091796875,0.18310546875,-0.18310546875,-0.3662109375,-1.9940185546875,20.14892578125,-121.673583984375
1758181430.273752,-0.33544921875,-0.03369140625,0.94091796875,0.18310546875,-0.18310546875,-0.3662109375,-1.9940185546875,20.1434326171875,-121.6790771484375
1758181430.2843986,-0.33154296875,-0.0244140625,0.943359375,0.67138671875,-0.1220703125,-0.48828125,-1.988525390625,20.1434326171875,-121.6845703125
1758181430.294032,-0.33154296875,-0.0244140625,0.943359375,0.67138671875,-0.1220703125,-0.48828125,-1.9830322265625,20.137939453125,-121.6900634765625
1758181430.3038254,-0.32958984375,-0.03271484375,0.95361328125,0.54931640625,-0.30517578125,-0.42724609375,-1.9775390625,20.1324462890625,-121.695556640625
1758181430.3140383,-0.32958984375,-0.03271484375,0.95361328125,0.54931640625,-0.30517578125,-0.42724609375,-1.9775390625,20.126953125,-121.70654296875
1758181430.3238099,-0.33056640625,-0.04296875,0.94189453125,-0.30517578125,-0.244140625,-0.3662109375,-1.9775390625,20.1214599609375,-121.7120361328125
1758181430.3344653,-0.33056640625,-0.04296875,0.94189453125,-0.30517578125,-0.244140625,-0.3662109375,-1.9830322265625,20.115966796875,-121.717529296875
1758181430.3438215,-0.3349609375,-0.04541015625,0.943359375,0.732421875,-0.54931640625,-0.30517578125,-1.9775390625,20.10498046875,-121.7230224609375
1758181430.353826,-0.3349609375,-0.04541015625,0.943359375,0.732421875,-0.54931640625,-0.30517578125,-1.9720458984375,20.0994873046875,-121.728515625
1758181430.367572,-0.34765625,-0.03955078125,0.94287109375,0.732421875,-0.42724609375,-0.30517578125,-1.9720458984375,20.093994140625,-121.7340087890625
1758181430.3742237,-0.34765625,-0.03955078125,0.94287109375,0.732421875,-0.42724609375,-0.30517578125,-1.966552734375,20.0830078125,-121.7449951171875
1758181430.3838887,-0.35107421875,-0.03076171875,0.93505859375,0.42724609375,-0.3662109375,-0.30517578125,-1.9610595703125,20.0775146484375,-121.75048828125
1758181430.3940856,-0.35107421875,-0.03076171875,0.93505859375,0.42724609375,-0.3662109375,-0.30517578125,-1.9610595703125,20.072021484375,-121.7559814453125
1758181430.403915,-0.34912109375,-0.03076171875,0.9365234375,0.30517578125,-0.30517578125,-0.30517578125,-1.9610595703125,20.072021484375,-121.761474609375
1758181430.413921,-0.34912109375,-0.03076171875,0.9365234375,0.30517578125,-0.30517578125,-0.30517578125,-1.9610595703125,20.0665283203125,-121.7669677734375
1758181430.4239564,-0.34716796875,-0.03173828125,0.93798828125,0.8544921875,-0.30517578125,-0.30517578125,-1.9500732421875,20.06103515625,-121.7779541015625
1758181430.4347677,-0.34716796875,-0.03173828125,0.93798828125,0.8544921875,-0.30517578125,-0.30517578125,-1.944580078125,20.06103515625,-121.783447265625
1758181430.4441204,-0.34814453125,-0.03125,0.9326171875,1.28173828125,-0.42724609375,-0.30517578125,-1.93359375,20.0555419921875,-121.7889404296875
1758181430.4541748,-0.34814453125,-0.03125,0.9326171875,1.28173828125,-0.42724609375,-0.30517578125,-1.922607421875,20.050048828125,-121.79443359375
1758181430.4675503,-0.34814453125,-0.0302734375,0.94091796875,0.67138671875,-0.42724609375,-0.244140625,-1.9171142578125,20.0445556640625,-121.79443359375
1758181430.4740744,-0.34814453125,-0.0302734375,0.94091796875,0.67138671875,-0.42724609375,-0.244140625,-1.91162109375,20.0445556640625,-121.7999267578125
1758181430.484144,-0.345703125,-0.0341796875,0.93798828125,0.244140625,-0.30517578125,-0.1220703125,-1.91162109375,20.0390625,-121.805419921875
1758181430.498184,-0.345703125,-0.0341796875,0.93798828125,0.244140625,-0.30517578125,-0.1220703125,-1.91162109375,20.0390625,-121.805419921875
1758181430.5042784,-0.345703125,-0.03662109375,0.93310546875,0.9765625,-0.42724609375,0.0,-1.900634765625,20.0335693359375,-121.805419921875
1758181430.5140903,-0.345703125,-0.03662109375,0.93310546875,0.9765625,-0.42724609375,0.0,-1.8951416015625,20.0335693359375,-121.805419921875
1758181430.5240514,-0.3505859375,-0.033203125,0.93701171875,1.40380859375,-0.54931640625,0.06103515625,-1.878662109375,20.028076171875,-121.8109130859375
1758181430.5365508,-0.3505859375,-0.033203125,0.93701171875,1.40380859375,-0.54931640625,0.06103515625,-1.86767578125,20.0225830078125,-121.8109130859375
1758181430.5441103,-0.35595703125,-0.0283203125,0.93798828125,0.54931640625,-0.3662109375,0.1220703125,-1.8621826171875,20.0225830078125,-121.8109130859375
1758181430.554652,-0.35595703125,-0.0283203125,0.93798828125,0.54931640625,-0.3662109375,0.1220703125,-1.856689453125,20.01708984375,-121.8109130859375
1758181430.5669925,-0.35498046875,-0.02880859375,0.9345703125,0.06103515625,-0.30517578125,0.1220703125,-1.856689453125,20.01708984375,-121.805419921875
1758181430.5741415,-0.35498046875,-0.02880859375,0.9345703125,0.06103515625,-0.30517578125,0.1220703125,-1.856689453125,20.01708984375,-121.805419921875
1758181430.5841365,-0.353515625,-0.02880859375,0.93310546875,0.42724609375,-0.3662109375,0.06103515625,-1.8511962890625,20.01708984375,-121.805419921875
1758181430.5988638,-0.353515625,-0.02880859375,0.93310546875,0.42724609375,-0.3662109375,0.06103515625,-1.845703125,20.01708984375,-121.805419921875
1758181430.6049738,-0.3525390625,-0.02880859375,0.9384765625,0.91552734375,-0.30517578125,0.0,-1.8402099609375,20.01708984375,-121.7999267578125
1758181430.6141233,-0.3525390625,-0.02880859375,0.9384765625,0.91552734375,-0.30517578125,0.0,-1.8292236328125,20.01708984375,-121.7999267578125
1758181430.6241012,-0.3515625,-0.029296875,0.93701171875,0.8544921875,-0.18310546875,0.0,-1.82373046875,20.01708984375,-121.7999267578125
1758181430.6365445,-0.3515625,-0.029296875,0.93701171875,0.8544921875,-0.18310546875,0.0,-1.812744140625,20.01708984375,-121.7999267578125
1758181430.6441774,-0.3486328125,-0.0302734375,0.93505859375,0.732421875,-0.18310546875,0.0,-1.8072509765625,20.01708984375,-121.7999267578125
1758181430.6543593,-0.3486328125,-0.0302734375,0.93505859375,0.732421875,-0.18310546875,0.0,-1.8017578125,20.0225830078125,-121.79443359375
1758181430.6645346,-0.3486328125,-0.0302734375,0.93505859375,0.8544921875,-0.244140625,-0.06103515625,-1.790771484375,20.0225830078125,-121.79443359375
1758181430.6741893,-0.3505859375,-0.0283203125,0.93798828125,0.8544921875,-0.244140625,-0.06103515625,-1.7852783203125,20.0225830078125,-121.79443359375
1758181430.6842992,-0.3505859375,-0.02587890625,0.9384765625,0.79345703125,-0.1220703125,0.0,-1.7742919921875,20.0225830078125,-121.79443359375
1758181430.6942132,-0.3505859375,-0.02587890625,0.9384765625,0.79345703125,-0.1220703125,0.0,-1.768798828125,20.0225830078125,-121.79443359375
1758181430.704211,-0.3505859375,-0.029296875,0.9365234375,0.244140625,-0.1220703125,0.0,-1.7633056640625,20.028076171875,-121.79443359375
1758181430.714403,-0.3505859375,-0.029296875,0.9365234375,0.244140625,-0.1220703125,0.0,-1.7633056640625,20.028076171875,-121.79443359375
1758181430.7242367,-0.34912109375,-0.03076171875,0.9375,0.1220703125,-0.06103515625,0.0,-1.7633056640625,20.028076171875,-121.7889404296875
1758181430.7342994,-0.34912109375,-0.03076171875,0.9375,0.1220703125,-0.06103515625,0.0,-1.7633056640625,20.0335693359375,-121.7889404296875
1758181430.7448003,-0.3515625,-0.0283203125,0.93408203125,0.30517578125,-0.1220703125,0.0,-1.7578125,20.0335693359375,-121.7889404296875
1758181430.754505,-0.3515625,-0.0283203125,0.93408203125,0.30517578125,-0.1220703125,0.0,-1.7578125,20.0335693359375,-121.7889404296875
1758181430.764626,-0.3515625,-0.02490234375,0.94287109375,0.18310546875,0.0,-0.06103515625,-1.7523193359375,20.0390625,-121.7889404296875
1758181430.7743459,-0.3515625,-0.02490234375,0.94287109375,0.18310546875,0.0,-0.06103515625,-1.7523193359375,20.0390625,-121.7889404296875
1758181430.7844076,-0.34814453125,-0.02587890625,0.935546875,0.18310546875,0.18310546875,-0.06103515625,-1.7523193359375,20.0445556640625,-121.7889404296875
1758181430.7943542,-0.34814453125,-0.02587890625,0.935546875,0.18310546875,0.18310546875,-0.06103515625,-1.746826171875,20.050048828125,-121.7889404296875
1758181430.8043733,-0.34521484375,-0.02783203125,0.93701171875,0.244140625,0.1220703125,-0.06103515625,-1.746826171875,20.050048828125,-121.7889404296875
1758181430.8143673,-0.34521484375,-0.02783203125,0.93701171875,0.244140625,0.1220703125,-0.06103515625,-1.746826171875,20.0555419921875,-121.783447265625
1758181430.8243518,-0.34619140625,-0.03076171875,0.9384765625,-0.06103515625,0.06103515625,0.0,-1.746826171875,20.06103515625,-121.783447265625
1758181430.8345637,-0.34619140625,-0.03076171875,0.9384765625,-0.06103515625,0.06103515625,0.0,-1.746826171875,20.06103515625,-121.783447265625
1758181430.8443687,-0.34814453125,-0.0302734375,0.93798828125,0.0,0.1220703125,0.0,-1.746826171875,20.0665283203125,-121.783447265625
1758181430.8544073,-0.34814453125,-0.0302734375,0.93798828125,0.0,0.1220703125,0.0,-1.746826171875,20.0665283203125,-121.783447265625
1758181430.86477,-0.34814453125,-0.02685546875,0.9375,0.18310546875,0.244140625,-0.06103515625,-1.746826171875,20.072021484375,-121.783447265625
1758181430.8744771,-0.34814453125,-0.02685546875,0.9375,0.18310546875,0.244140625,-0.06103515625,-1.7413330078125,20.0775146484375,-121.783447265625
1758181430.8845036,-0.341796875,-0.02490234375,0.9384765625,0.06103515625,0.18310546875,-0.1220703125,-1.7413330078125,20.0775146484375,-121.7889404296875
1758181430.8945446,-0.341796875,-0.02490234375,0.9384765625,0.06103515625,0.18310546875,-0.1220703125,-1.7413330078125,20.0830078125,-121.7889404296875
1758181430.9045255,-0.33642578125,-0.0263671875,0.9423828125,-0.1220703125,0.1220703125,-0.18310546875,-1.7413330078125,20.0830078125,-121.7889404296875
1758181430.9146278,-0.33642578125,-0.0263671875,0.9423828125,-0.1220703125,0.1220703125,-0.18310546875,-1.746826171875,20.0885009765625,-121.7889404296875
1758181430.9245236,-0.337890625,-0.029296875,0.943359375,0.18310546875,0.18310546875,-0.30517578125,-1.7413330078125,20.0885009765625,-121.7889404296875
1758181430.9346378,-0.337890625,-0.029296875,0.943359375,0.18310546875,0.18310546875,-0.30517578125,-1.7413330078125,20.0885009765625,-121.79443359375
1758181430.9445786,-0.3408203125,-0.03076171875,0.93701171875,0.54931640625,0.1220703125,-0.18310546875,-1.73583984375,20.093994140625,-121.79443359375
1758181430.9549077,-0.3408203125,-0.03076171875,0.93701171875,0.54931640625,0.1220703125,-0.18310546875,-1.7303466796875,20.093994140625,-121.79443359375
1758181430.9667542,-0.34033203125,-0.029296875,0.93798828125,0.1220703125,0.0,-0.18310546875,-1.7303466796875,20.093994140625,-121.7999267578125
1758181430.9746735,-0.34033203125,-0.029296875,0.93798828125,0.1220703125,0.0,-0.18310546875,-1.7303466796875,20.093994140625,-121.7999267578125
1758181430.9851792,-0.3310546875,-0.02880859375,0.943359375,-0.1220703125,-0.06103515625,-0.18310546875,-1.73583984375,20.093994140625,-121.7999267578125
1758181430.9952757,-0.3310546875,-0.02880859375,0.943359375,-0.1220703125,-0.06103515625,-0.18310546875,-1.73583984375,20.0885009765625,-121.805419921875
1758181431.0049343,-0.3310546875,-0.0283203125,0.943359375,0.30517578125,-0.06103515625,-0.06103515625,-1.7303466796875,20.0885009765625,-121.805419921875
1758181431.0151415,-0.3310546875,-0.0283203125,0.943359375,0.30517578125,-0.06103515625,-0.06103515625,-1.7303466796875,20.0830078125,-121.8109130859375
1758181431.0249329,-0.32421875,-0.0283203125,0.94580078125,0.67138671875,-0.06103515625,-0.1220703125,-1.724853515625,20.0830078125,-121.8109130859375
1758181431.035176,-0.32421875,-0.0283203125,0.94580078125,0.67138671875,-0.06103515625,-0.1220703125,-1.7193603515625,20.0775146484375,-121.81640625
1758181431.0449405,-0.3232421875,-0.0283203125,0.94580078125,0.732421875,-0.1220703125,-0.18310546875,-1.7138671875,20.0775146484375,-121.8218994140625
1758181431.0548315,-0.3232421875,-0.0283203125,0.94580078125,0.732421875,-0.1220703125,-0.18310546875,-1.702880859375,20.072021484375,-121.827392578125
1758181431.065371,-0.3193359375,-0.02880859375,0.94873046875,0.79345703125,-0.1220703125,-0.18310546875,-1.6973876953125,20.0665283203125,-121.8328857421875
1758181431.0747435,-0.3193359375,-0.02880859375,0.94873046875,0.79345703125,-0.1220703125,-0.18310546875,-1.69189453125,20.06103515625,-121.83837890625
1758181431.0853512,-0.328125,-0.02880859375,0.943359375,1.5869140625,-0.18310546875,-0.18310546875,-1.6754150390625,20.0555419921875,-121.8438720703125
1758181431.095355,-0.328125,-0.02880859375,0.943359375,1.5869140625,-0.18310546875,-0.18310546875,-1.658935546875,20.050048828125,-121.849365234375
1758181431.1050704,-0.33935546875,-0.02685546875,0.94189453125,2.01416015625,-0.18310546875,-0.06103515625,-1.6424560546875,20.0390625,-121.849365234375
1758181431.115064,-0.33935546875,-0.02685546875,0.94189453125,2.01416015625,-0.18310546875,-0.06103515625,-1.6204833984375,20.0335693359375,-121.8548583984375
1758181431.1250942,-0.34814453125,-0.0283203125,0.94189453125,0.732421875,0.0,0.06103515625,-1.614990234375,20.0335693359375,-121.8603515625
1758181431.135276,-0.34814453125,-0.0283203125,0.94189453125,0.732421875,0.0,0.06103515625,-1.6094970703125,20.028076171875,-121.8603515625
1758181431.145049,-0.345703125,-0.029296875,0.93505859375,0.244140625,0.0,0.1220703125,-1.60400390625,20.028076171875,-121.8603515625
1758181431.1552653,-0.345703125,-0.029296875,0.93505859375,0.244140625,0.0,0.1220703125,-1.60400390625,20.0225830078125,-121.8658447265625
1758181431.1654978,-0.3427734375,-0.0244140625,0.93798828125,1.15966796875,0.0,0.06103515625,-1.593017578125,20.0225830078125,-121.8658447265625
1758181431.17486,-0.3427734375,-0.0244140625,0.93798828125,1.15966796875,0.0,0.06103515625,-1.58203125,20.0225830078125,-121.8658447265625
1758181431.1850991,-0.3427734375,-0.02099609375,0.93994140625,1.52587890625,0.0,0.0,-1.5655517578125,20.01708984375,-121.871337890625
1758181431.1956165,-0.341796875,-0.02294921875,0.93994140625,0.91552734375,0.0,0.1220703125,-1.5545654296875,20.01708984375,-121.871337890625
1758181431.2051556,-0.341796875,-0.02294921875,0.93994140625,0.91552734375,0.0,0.1220703125,-1.5435791015625,20.01708984375,-121.871337890625
1758181431.215043,-0.34326171875,-0.0283203125,0.9384765625,0.3662109375,-0.06103515625,0.244140625,-1.5380859375,20.01708984375,-121.871337890625
1758181431.225206,-0.34326171875,-0.0283203125,0.9384765625,0.3662109375,-0.06103515625,0.244140625,-1.5325927734375,20.01708984375,-121.871337890625
1758181431.2352962,-0.3427734375,-0.02783203125,0.9384765625,0.3662109375,-0.06103515625,0.244140625,-1.5325927734375,20.0115966796875,-121.871337890625
1758181431.2451942,-0.3427734375,-0.02783203125,0.9384765625,0.3662109375,-0.06103515625,0.244140625,-1.527099609375,20.0115966796875,-121.871337890625
1758181431.255261,-0.3427734375,-0.02392578125,0.93994140625,0.67138671875,-0.06103515625,0.1220703125,-1.5216064453125,20.0115966796875,-121.871337890625
1758181431.2656178,-0.3427734375,-0.02392578125,0.93994140625,0.67138671875,-0.06103515625,0.1220703125,-1.51611328125,20.0115966796875,-121.871337890625
1758181431.2749743,-0.3447265625,-0.01806640625,0.9267578125,1.220703125,0.0,0.1220703125,-1.505126953125,20.0115966796875,-121.871337890625
1758181431.2852585,-0.3447265625,-0.01806640625,0.9267578125,1.220703125,0.0,0.1220703125,-1.494140625,20.0115966796875,-121.871337890625
1758181431.295379,-0.3525390625,-0.0185546875,0.93603515625,1.40380859375,-0.18310546875,0.0,-1.4776611328125,20.006103515625,-121.871337890625
1758181431.3052561,-0.3525390625,-0.0185546875,0.93603515625,1.40380859375,-0.18310546875,0.0,-1.4666748046875,20.006103515625,-121.8768310546875
1758181431.3149824,-0.34912109375,-0.02294921875,0.9423828125,0.3662109375,-0.06103515625,0.06103515625,-1.4556884765625,20.006103515625,-121.8768310546875
1758181431.3253984,-0.34912109375,-0.02294921875,0.9423828125,0.3662109375,-0.06103515625,0.06103515625,-1.4501953125,20.006103515625,-121.8768310546875
1758181431.3354847,-0.34423828125,-0.0263671875,0.9345703125,0.3662109375,-0.06103515625,0.0,-1.4501953125,20.006103515625,-121.8768310546875
1758181431.3460138,-0.34423828125,-0.0263671875,0.9345703125,0.3662109375,-0.06103515625,0.0,-1.4447021484375,20.006103515625,-121.8768310546875
1758181431.3554263,-0.34130859375,-0.021484375,0.9384765625,1.0986328125,-0.1220703125,-0.06103515625,-1.439208984375,20.006103515625,-121.8768310546875
1758181431.3661604,-0.34130859375,-0.021484375,0.9384765625,1.0986328125,-0.1220703125,-0.06103515625,-1.42822265625,20.006103515625,-121.88232421875
1758181431.375139,-0.34326171875,-0.02001953125,0.943359375,0.91552734375,-0.06103515625,0.0,-1.417236328125,20.006103515625,-121.88232421875
1758181431.3855681,-0.34326171875,-0.02001953125,0.943359375,0.91552734375,-0.06103515625,0.0,-1.40625,20.006103515625,-121.88232421875
1758181431.3955216,-0.345703125,-0.0263671875,0.9375,0.0,0.0,0.06103515625,-1.4007568359375,20.006103515625,-121.88232421875
1758181431.4054718,-0.345703125,-0.0263671875,0.9375,0.0,0.0,0.06103515625,-1.4007568359375,20.006103515625,-121.88232421875
1758181431.4152312,-0.34814453125,-0.0244140625,0.93505859375,0.0,0.0,0.06103515625,-1.4007568359375,20.0115966796875,-121.88232421875
1758181431.4255211,-0.34814453125,-0.0244140625,0.93505859375,0.0,0.0,0.06103515625,-1.4007568359375,20.0115966796875,-121.88232421875
1758181431.4354496,-0.34619140625,-0.01953125,0.9384765625,0.67138671875,0.0,0.0,-1.4007568359375,20.0115966796875,-121.88232421875
1758181431.4454825,-0.34619140625,-0.01953125,0.9384765625,0.67138671875,0.0,0.0,-1.395263671875,20.0115966796875,-121.88232421875
1758181431.4554737,-0.345703125,-0.01708984375,0.939453125,0.79345703125,0.0,0.0,-1.38427734375,20.0115966796875,-121.8878173828125
1758181431.4657736,-0.345703125,-0.01708984375,0.939453125,0.79345703125,0.0,0.0,-1.3787841796875,20.0115966796875,-121.8878173828125
1758181431.4752405,-0.33984375,-0.0185546875,0.93603515625,0.48828125,0.06103515625,0.0,-1.373291015625,20.01708984375,-121.8878173828125
1758181431.485488,-0.33984375,-0.0185546875,0.93603515625,0.48828125,0.06103515625,0.0,-1.3677978515625,20.01708984375,-121.88232421875
1758181431.495593,-0.34130859375,-0.02587890625,0.9423828125,-0.06103515625,0.0,0.0,-1.3623046875,20.01708984375,-121.88232421875
1758181431.5055223,-0.34130859375,-0.02587890625,0.9423828125,-0.06103515625,0.0,0.0,-1.3623046875,20.01708984375,-121.8878173828125
1758181431.5152543,-0.34375,-0.02978515625,0.9404296875,-0.42724609375,0.06103515625,0.30517578125,-1.3677978515625,20.01708984375,-121.88232421875
1758181431.525554,-0.34375,-0.02978515625,0.9404296875,-0.42724609375,0.06103515625,0.30517578125,-1.3677978515625,20.0225830078125,-121.88232421875
1758181431.535658,-0.34326171875,-0.02294921875,0.93701171875,0.30517578125,0.06103515625,0.244140625,-1.3677978515625,20.0225830078125,-121.88232421875
1758181431.5455303,-0.34326171875,-0.02294921875,0.93701171875,0.30517578125,0.06103515625,0.244140625,-1.3677978515625,20.0225830078125,-121.8768310546875
1758181431.5559087,-0.34228515625,-0.0146484375,0.93994140625,0.732421875,0.06103515625,0.18310546875,-1.3623046875,20.0225830078125,-121.8768310546875
1758181431.5659978,-0.34228515625,-0.0146484375,0.93994140625,0.732421875,0.06103515625,0.18310546875,-1.351318359375,20.0225830078125,-121.8768310546875
1758181431.5753856,-0.33837890625,-0.01611328125,0.94140625,0.0,0.06103515625,0.3662109375,-1.3458251953125,20.028076171875,-121.8768310546875
1758181431.5856113,-0.33837890625,-0.01611328125,0.94140625,0.0,0.06103515625,0.3662109375,-1.3458251953125,20.028076171875,-121.871337890625
1758181431.5957305,-0.3359375,-0.02490234375,0.93994140625,-0.67138671875,0.0,0.42724609375,-1.3458251953125,20.028076171875,-121.8658447265625
1758181431.6055312,-0.3359375,-0.02490234375,0.93994140625,-0.67138671875,0.0,0.42724609375,-1.351318359375,20.028076171875,-121.8658447265625
1758181431.6154401,-0.33837890625,-0.02734375,0.94189453125,-0.48828125,0.0,0.3662109375,-1.3568115234375,20.028076171875,-121.8603515625
1758181431.6255274,-0.33837890625,-0.02734375,0.94189453125,-0.48828125,0.0,0.3662109375,-1.3568115234375,20.028076171875,-121.8603515625
1758181431.6357198,-0.34228515625,-0.02099609375,0.9404296875,0.1220703125,0.0,0.244140625,-1.3623046875,20.028076171875,-121.8603515625
1758181431.6463535,-0.34228515625,-0.02099609375,0.9404296875,0.1220703125,0.0,0.244140625,-1.3568115234375,20.0225830078125,-121.8548583984375
1758181431.6555505,-0.34228515625,-0.0166015625,0.939453125,0.48828125,0.18310546875,0.18310546875,-1.3568115234375,20.028076171875,-121.8548583984375
1758181431.6668823,-0.34228515625,-0.0166015625,0.939453125,0.48828125,0.18310546875,0.18310546875,-1.3458251953125,20.028076171875,-121.8548583984375
1758181431.675522,-0.34130859375,-0.0166015625,0.9384765625,0.18310546875,0.06103515625,0.06103515625,-1.3458251953125,20.028076171875,-121.8548583984375
1758181431.6857984,-0.34130859375,-0.0166015625,0.9384765625,0.18310546875,0.06103515625,0.06103515625,-1.34033203125,20.028076171875,-121.8548583984375
1758181431.6958234,-0.341796875,-0.0205078125,0.939453125,-0.06103515625,0.0,0.06103515625,-1.34033203125,20.028076171875,-121.8548583984375
1758181431.7057006,-0.341796875,-0.0205078125,0.939453125,-0.06103515625,0.0,0.06103515625,-1.34033203125,20.028076171875,-121.8548583984375
1758181431.7154806,-0.34033203125,-0.02587890625,0.939453125,0.06103515625,0.0,0.18310546875,-1.34033203125,20.028076171875,-121.8548583984375
1758181431.725676,-0.34033203125,-0.02587890625,0.939453125,0.06103515625,0.0,0.18310546875,-1.3348388671875,20.028076171875,-121.8548583984375
1758181431.7358072,-0.333984375,-0.02490234375,0.943359375,0.06103515625,0.0,0.1220703125,-1.3348388671875,20.028076171875,-121.8548583984375
1758181431.7455857,-0.333984375,-0.02490234375,0.943359375,0.06103515625,0.0,0.1220703125,-1.3348388671875,20.028076171875,-121.8548583984375
1758181431.7558823,-0.33154296875,-0.02099609375,0.94189453125,0.244140625,-0.06103515625,0.1220703125,-1.3348388671875,20.0225830078125,-121.8548583984375
1758181431.766609,-0.33154296875,-0.02099609375,0.94189453125,0.244140625,-0.06103515625,0.1220703125,-1.329345703125,20.0225830078125,-121.8548583984375
1758181431.7756486,-0.33251953125,-0.01806640625,0.94287109375,0.42724609375,-0.1220703125,0.06103515625,-1.3238525390625,20.01708984375,-121.8603515625
1758181431.7859313,-0.33251953125,-0.01806640625,0.94287109375,0.42724609375,-0.1220703125,0.06103515625,-1.3238525390625,20.01708984375,-121.8603515625
1758181431.7959342,-0.33349609375,-0.01904296875,0.9443359375,0.30517578125,-0.1220703125,0.06103515625,-1.318359375,20.0115966796875,-121.8603515625
1758181431.805774,-0.33349609375,-0.01904296875,0.9443359375,0.30517578125,-0.1220703125,0.06103515625,-1.3128662109375,20.0115966796875,-121.8603515625
1758181431.8157425,-0.33154296875,-0.0224609375,0.94189453125,0.48828125,-0.18310546875,0.06103515625,-1.307373046875,20.006103515625,-121.8658447265625
1758181431.8257616,-0.33154296875,-0.0224609375,0.94189453125,0.48828125,-0.18310546875,0.06103515625,-1.3018798828125,20.0006103515625,-121.8658447265625
1758181431.8359368,-0.3330078125,-0.0224609375,0.94384765625,0.30517578125,-0.244140625,0.1220703125,-1.3018798828125,20.0006103515625,-121.8658447265625
1758181431.8456836,-0.3330078125,-0.0224609375,0.94384765625,0.30517578125,-0.244140625,0.1220703125,-1.29638671875,19.9951171875,-121.8658447265625
1758181431.8564773,-0.3349609375,-0.02099609375,0.9423828125,0.244140625,-0.30517578125,0.06103515625,-1.2908935546875,19.9896240234375,-121.8658447265625
1758181431.8663673,-0.3349609375,-0.02099609375,0.9423828125,0.244140625,-0.30517578125,0.06103515625,-1.2908935546875,19.984130859375,-121.871337890625
1758181431.8757844,-0.33642578125,-0.02001953125,0.94091796875,0.48828125,-0.30517578125,0.06103515625,-1.285400390625,19.9786376953125,-121.871337890625
1758181431.8861334,-0.33642578125,-0.02001953125,0.94091796875,0.48828125,-0.30517578125,0.06103515625,-1.2799072265625,19.97314453125,-121.871337890625
1758181431.896026,-0.3369140625,-0.017578125,0.943359375,0.48828125,-0.244140625,0.0,-1.2744140625,19.9676513671875,-121.871337890625
1758181431.9059482,-0.3369140625,-0.017578125,0.943359375,0.48828125,-0.244140625,0.0,-1.2689208984375,19.962158203125,-121.8768310546875
1758181431.9157538,-0.337890625,-0.02001953125,0.9404296875,0.6103515625,-0.18310546875,-0.06103515625,-1.263427734375,19.9566650390625,-121.8768310546875
1758181431.9258413,-0.337890625,-0.02001953125,0.9404296875,0.6103515625,-0.18310546875,-0.06103515625,-1.2579345703125,19.9566650390625,-121.8768310546875
1758181431.935975,-0.3388671875,-0.01953125,0.9375,0.91552734375,-0.244140625,-0.18310546875,-1.25244140625,19.951171875,-121.88232421875
1758181431.9458158,-0.3388671875,-0.01953125,0.9375,0.91552734375,-0.244140625,-0.18310546875,-1.241455078125,19.9456787109375,-121.8878173828125
1758181431.956549,-0.3408203125,-0.017578125,0.94189453125,0.79345703125,-0.244140625,-0.18310546875,-1.2359619140625,19.940185546875,-121.8878173828125
1758181431.9664404,-0.3408203125,-0.017578125,0.94189453125,0.79345703125,-0.244140625,-0.18310546875,-1.23046875,19.940185546875,-121.893310546875
1758181431.9758632,-0.3388671875,-0.01806640625,0.94140625,0.54931640625,-0.244140625,-0.244140625,-1.2249755859375,19.9346923828125,-121.893310546875
1758181431.986195,-0.3388671875,-0.01806640625,0.94140625,0.54931640625,-0.244140625,-0.244140625,-1.219482421875,19.92919921875,-121.8988037109375
1758181431.9962685,-0.337890625,-0.01904296875,0.94091796875,0.54931640625,-0.18310546875,-0.244140625,-1.2139892578125,19.92919921875,-121.904296875
1758181432.0062573,-0.337890625,-0.01904296875,0.94091796875,0.54931640625,-0.18310546875,-0.244140625,-1.20849609375,19.9237060546875,-121.9097900390625
1758181432.0159888,-0.3408203125,-0.01904296875,0.94091796875,0.6103515625,-0.18310546875,-0.244140625,-1.2030029296875,19.918212890625,-121.915283203125
1758181432.026194,-0.3408203125,-0.01904296875,0.94091796875,0.6103515625,-0.18310546875,-0.244140625,-1.197509765625,19.918212890625,-121.915283203125
1758181432.0361798,-0.34326171875,-0.0185546875,0.93798828125,0.67138671875,-0.18310546875,-0.30517578125,-1.1920166015625,19.9127197265625,-121.9207763671875
1758181432.04601,-0.34326171875,-0.0185546875,0.93798828125,0.67138671875,-0.18310546875,-0.30517578125,-1.1865234375,19.9127197265625,-121.92626953125
1758181432.0565324,-0.34033203125,-0.0185546875,0.93994140625,0.54931640625,-0.18310546875,-0.30517578125,-1.1810302734375,19.9127197265625,-121.9317626953125
1758181432.0666564,-0.34033203125,-0.0185546875,0.93994140625,0.54931640625,-0.18310546875,-0.30517578125,-1.175537109375,19.9072265625,-121.937255859375
1758181432.0760996,-0.337890625,-0.017578125,0.94140625,0.54931640625,-0.18310546875,-0.30517578125,-1.1700439453125,19.9072265625,-121.937255859375
1758181432.086274,-0.337890625,-0.017578125,0.94140625,0.54931640625,-0.18310546875,-0.30517578125,-1.1700439453125,19.9017333984375,-121.9427490234375
1758181432.0968332,-0.3408203125,-0.01806640625,0.93994140625,0.67138671875,-0.1220703125,-0.18310546875,-1.16455078125,19.9017333984375,-121.9482421875
1758181432.1062946,-0.3408203125,-0.01806640625,0.93994140625,0.67138671875,-0.1220703125,-0.18310546875,-1.153564453125,19.9017333984375,-121.9482421875
1758181432.116064,-0.3447265625,-0.02001953125,0.93994140625,0.30517578125,-0.1220703125,0.0,-1.153564453125,19.896240234375,-121.9537353515625
1758181432.1300218,-0.3447265625,-0.02001953125,0.93994140625,0.30517578125,-0.1220703125,0.0,-1.1480712890625,19.896240234375,-121.9537353515625
1758181432.137413,-0.34521484375,-0.02197265625,0.93798828125,-0.30517578125,-0.1220703125,0.06103515625,-1.1480712890625,19.896240234375,-121.9537353515625
1758181432.1460464,-0.34521484375,-0.02197265625,0.93798828125,-0.30517578125,-0.1220703125,0.06103515625,-1.153564453125,19.896240234375,-121.9537353515625
1758181432.1564593,-0.34521484375,-0.02197265625,0.93798828125,-0.244140625,-0.06103515625,0.0,-1.153564453125,19.896240234375,-121.9537353515625
1758181432.166804,-0.341796875,-0.01806640625,0.94091796875,-0.244140625,-0.06103515625,0.0,-1.1590576171875,19.896240234375,-121.9537353515625
1758181432.17639,-0.341796875,-0.01806640625,0.94091796875,0.54931640625,-0.18310546875,0.0,-1.153564453125,19.8907470703125,-121.9537353515625
1758181432.1860352,-0.3408203125,-0.01611328125,0.93701171875,0.54931640625,-0.18310546875,0.0,-1.1480712890625,19.8907470703125,-121.9537353515625
1758181432.1967616,-0.34521484375,-0.01416015625,0.93505859375,0.54931640625,-0.244140625,0.0,-1.142578125,19.8907470703125,-121.9537353515625
1758181432.2061198,-0.34521484375,-0.01416015625,0.93505859375,0.54931640625,-0.244140625,0.0,-1.1370849609375,19.8907470703125,-121.9537353515625
1758181432.2165148,-0.34228515625,-0.01708984375,0.9423828125,-0.3662109375,-0.30517578125,0.06103515625,-1.142578125,19.88525390625,-121.9537353515625
1758181432.2265925,-0.34228515625,-0.01708984375,0.9423828125,-0.3662109375,-0.30517578125,0.06103515625,-1.142578125,19.88525390625,-121.9537353515625
1758181432.237074,-0.337890625,-0.0224609375,0.94189453125,-0.732421875,-0.244140625,0.1220703125,-1.1480712890625,19.8797607421875,-121.9537353515625
1758181432.2463403,-0.337890625,-0.0224609375,0.94189453125,-0.732421875,-0.244140625,0.1220703125,-1.1590576171875,19.8797607421875,-121.9537353515625
1758181432.2568512,-0.33447265625,-0.02099609375,0.9404296875,0.06103515625,-0.30517578125,0.0,-1.1590576171875,19.874267578125,-121.9537353515625
1758181432.266714,-0.33447265625,-0.02099609375,0.9404296875,0.06103515625,-0.30517578125,0.0,-1.153564453125,19.874267578125,-121.9537353515625
1758181432.2763603,-0.33642578125,-0.01513671875,0.94287109375,0.79345703125,-0.30517578125,-0.06103515625,-1.1480712890625,19.8687744140625,-121.959228515625
1758181432.2864172,-0.33642578125,-0.01513671875,0.94287109375,0.79345703125,-0.30517578125,-0.06103515625,-1.142578125,19.8687744140625,-121.959228515625
1758181432.2966228,-0.337890625,-0.01513671875,0.9423828125,0.67138671875,-0.244140625,-0.06103515625,-1.131591796875,19.86328125,-121.959228515625
1758181432.3062553,-0.337890625,-0.01513671875,0.9423828125,0.67138671875,-0.244140625,-0.06103515625,-1.1260986328125,19.86328125,-121.959228515625
1758181432.3163629,-0.3388671875,-0.017578125,0.94140625,0.42724609375,-0.1220703125,-0.1220703125,-1.12060546875,19.8577880859375,-121.959228515625
1758181432.3266344,-0.3388671875,-0.017578125,0.94140625,0.42724609375,-0.1220703125,-0.1220703125,-1.12060546875,19.8577880859375,-121.9647216796875
1758181432.336444,-0.337890625,-0.01806640625,0.9423828125,0.54931640625,-0.06103515625,-0.1220703125,-1.1151123046875,19.8577880859375,-121.9647216796875
1758181432.3462443,-0.337890625,-0.01806640625,0.9423828125,0.54931640625,-0.06103515625,-0.1220703125,-1.109619140625,19.8577880859375,-121.9647216796875
1758181432.3565679,-0.33642578125,-0.017578125,0.9404296875,0.6103515625,-0.06103515625,-0.06103515625,-1.1041259765625,19.8577880859375,-121.97021484375
1758181432.3668015,-0.33642578125,-0.017578125,0.9404296875,0.6103515625,-0.06103515625,-0.06103515625,-1.0986328125,19.852294921875,-121.97021484375
1758181432.376391,-0.33251953125,-0.017578125,0.94287109375,0.06103515625,-0.1220703125,0.0,-1.0931396484375,19.852294921875,-121.97021484375
1758181432.386556,-0.33251953125,-0.017578125,0.94287109375,0.06103515625,-0.1220703125,0.0,-1.0931396484375,19.852294921875,-121.97021484375
1758181432.396628,-0.32958984375,-0.0185546875,0.9443359375,-0.42724609375,-0.18310546875,0.06103515625,-1.0986328125,19.8468017578125,-121.9757080078125
1758181432.4064422,-0.32958984375,-0.0185546875,0.9443359375,-0.42724609375,-0.18310546875,0.06103515625,-1.1041259765625,19.8468017578125,-121.9757080078125
1758181432.4165003,-0.3291015625,-0.0185546875,0.94580078125,-0.30517578125,-0.18310546875,0.0,-1.1041259765625,19.84130859375,-121.9757080078125
1758181432.4268193,-0.3291015625,-0.0185546875,0.94580078125,-0.30517578125,-0.18310546875,0.0,-1.109619140625,19.8358154296875,-121.9757080078125
1758181432.4365695,-0.3330078125,-0.01513671875,0.9423828125,0.244140625,-0.1220703125,-0.18310546875,-1.1041259765625,19.8358154296875,-121.981201171875
1758181432.4464476,-0.3330078125,-0.01513671875,0.9423828125,0.244140625,-0.1220703125,-0.18310546875,-1.1041259765625,19.830322265625,-121.9866943359375
1758181432.456547,-0.33544921875,-0.01318359375,0.94189453125,0.48828125,-0.244140625,-0.30517578125,-1.0986328125,19.8248291015625,-121.9921875
1758181432.466982,-0.33544921875,-0.01318359375,0.94189453125,0.48828125,-0.244140625,-0.30517578125,-1.0986328125,19.8248291015625,-121.9921875
1758181432.4765568,-0.3369140625,-0.01318359375,0.939453125,0.06103515625,-0.3662109375,-0.3662109375,-1.0986328125,19.8193359375,-121.9976806640625
1758181432.4866445,-0.3369140625,-0.01318359375,0.939453125,0.06103515625,-0.3662109375,-0.3662109375,-1.0986328125,19.8138427734375,-122.003173828125
1758181432.4968343,-0.3359375,-0.01708984375,0.94287109375,-0.732421875,-0.30517578125,-0.30517578125,-1.1041259765625,19.808349609375,-122.0086669921875
1758181432.5064778,-0.3359375,-0.01708984375,0.94287109375,-0.732421875,-0.30517578125,-0.30517578125,-1.109619140625,19.8028564453125,-122.01416015625
1758181432.5165753,-0.3359375,-0.0224609375,0.9423828125,-0.67138671875,-0.30517578125,-0.42724609375,-1.12060546875,19.79736328125,-122.0196533203125
1758181432.526998,-0.3359375,-0.0224609375,0.9423828125,-0.67138671875,-0.30517578125,-0.42724609375,-1.1260986328125,19.7918701171875,-122.025146484375
1758181432.536702,-0.33740234375,-0.01904296875,0.9384765625,0.30517578125,-0.3662109375,-0.54931640625,-1.1260986328125,19.7918701171875,-122.0306396484375
1758181432.54686,-0.33740234375,-0.01904296875,0.9384765625,0.30517578125,-0.3662109375,-0.54931640625,-1.1260986328125,19.786376953125,-122.0361328125
1758181432.556761,-0.3369140625,-0.01123046875,0.94287109375,0.6103515625,-0.30517578125,-0.732421875,-1.12060546875,19.7808837890625,-122.047119140625
1758181432.5677123,-0.3369140625,-0.01123046875,0.94287109375,0.6103515625,-0.30517578125,-0.732421875,-1.1151123046875,19.775390625,-122.0526123046875
1758181432.5766976,-0.33154296875,-0.01220703125,0.94287109375,0.0,-0.30517578125,-0.79345703125,-1.1151123046875,19.7698974609375,-122.0635986328125
1758181432.586872,-0.33154296875,-0.01220703125,0.94287109375,0.0,-0.30517578125,-0.79345703125,-1.12060546875,19.7698974609375,-122.069091796875
1758181432.5969048,-0.3291015625,-0.01806640625,0.94482421875,-0.42724609375,-0.3662109375,-0.8544921875,-1.1260986328125,19.764404296875,-122.080078125
1758181432.6067867,-0.3291015625,-0.01806640625,0.94482421875,-0.42724609375,-0.3662109375,-0.8544921875,-1.131591796875,19.7589111328125,-122.091064453125
1758181432.6167147,-0.33349609375,-0.02099609375,0.94287109375,-0.244140625,-0.30517578125,-0.8544921875,-1.1370849609375,19.75341796875,-122.0965576171875
1758181432.6271567,-0.33349609375,-0.02099609375,0.94287109375,-0.244140625,-0.30517578125,-0.8544921875,-1.142578125,19.7479248046875,-122.1075439453125
1758181432.6367946,-0.3369140625,-0.01904296875,0.94140625,0.0,-0.3662109375,-0.79345703125,-1.142578125,19.742431640625,-122.113037109375
1758181432.6467426,-0.3369140625,-0.01904296875,0.94140625,0.0,-0.3662109375,-0.79345703125,-1.1480712890625,19.7369384765625,-122.1240234375
1758181432.6567662,-0.33544921875,-0.01904296875,0.9423828125,-0.30517578125,-0.30517578125,-0.79345703125,-1.153564453125,19.7314453125,-122.1295166015625
1758181432.666904,-0.33544921875,-0.01904296875,0.9423828125,-0.30517578125,-0.30517578125,-0.79345703125,-1.1590576171875,19.7314453125,-122.1405029296875
1758181432.676821,-0.330078125,-0.0185546875,0.94287109375,-0.48828125,-0.3662109375,-0.79345703125,-1.16455078125,19.7259521484375,-122.14599609375
1758181432.686854,-0.330078125,-0.0185546875,0.94287109375,-0.48828125,-0.3662109375,-0.79345703125,-1.1700439453125,19.720458984375,-122.156982421875
1758181432.6969922,-0.33154296875,-0.01953125,0.94287109375,-0.06103515625,-0.42724609375,-0.732421875,-1.175537109375,19.7149658203125,-122.16796875
1758181432.7068284,-0.33154296875,-0.01953125,0.94287109375,-0.06103515625,-0.42724609375,-0.732421875,-1.175537109375,19.70947265625,-122.1734619140625
1758181432.7168398,-0.333984375,-0.0185546875,0.9423828125,-0.1220703125,-0.54931640625,-0.67138671875,-1.1810302734375,19.698486328125,-122.178955078125
1758181432.727035,-0.333984375,-0.0185546875,0.9423828125,-0.1220703125,-0.54931640625,-0.67138671875,-1.1810302734375,19.6929931640625,-122.18994140625
1758181432.7369742,-0.33544921875,-0.01953125,0.94091796875,-0.732421875,-0.48828125,-0.6103515625,-1.1920166015625,19.6875,-122.1954345703125
1758181432.746749,-0.33544921875,-0.01953125,0.94091796875,-0.732421875,-0.48828125,-0.6103515625,-1.2030029296875,19.6820068359375,-122.200927734375
1758181432.7569544,-0.33447265625,-0.02099609375,0.94384765625,-0.91552734375,-0.42724609375,-0.48828125,-1.2139892578125,19.676513671875,-122.2064208984375
1758181432.7704809,-0.33447265625,-0.02099609375,0.94384765625,-0.91552734375,-0.42724609375,-0.48828125,-1.219482421875,19.6710205078125,-122.2119140625
1758181432.7768555,-0.3359375,-0.02294921875,0.9404296875,-0.54931640625,-0.42724609375,-0.3662109375,-1.23046875,19.66552734375,-122.2174072265625
1758181432.78688,-0.3359375,-0.02294921875,0.9404296875,-0.54931640625,-0.42724609375,-0.3662109375,-1.2359619140625,19.6600341796875,-122.222900390625
1758181432.8026364,-0.33642578125,-0.02099609375,0.9384765625,-0.30517578125,-0.42724609375,-0.30517578125,-1.241455078125,19.654541015625,-122.2283935546875
1758181432.8088715,-0.33642578125,-0.02099609375,0.9384765625,-0.30517578125,-0.42724609375,-0.30517578125,-1.241455078125,19.6490478515625,-122.2283935546875
1758181432.816871,-0.33251953125,-0.02099609375,0.94189453125,-0.3662109375,-0.42724609375,-0.18310546875,-1.2469482421875,19.6435546875,-122.23388671875
1758181432.8331363,-0.33251953125,-0.02099609375,0.94189453125,-0.3662109375,-0.42724609375,-0.18310546875,-1.25244140625,19.6380615234375,-122.23388671875
1758181432.8393817,-0.3291015625,-0.021484375,0.94482421875,-0.79345703125,-0.3662109375,0.0,-1.2579345703125,19.6380615234375,-122.23388671875
1758181432.84686,-0.3291015625,-0.021484375,0.94482421875,-0.79345703125,-0.3662109375,0.0,-1.2689208984375,19.632568359375,-122.23388671875
1758181432.8569286,-0.32275390625,-0.0224609375,0.94921875,-0.79345703125,-0.48828125,0.0,-1.2744140625,19.6270751953125,-122.23388671875
1758181432.870426,-0.32275390625,-0.0224609375,0.94921875,-0.79345703125,-0.48828125,0.0,-1.2799072265625,19.62158203125,-122.2393798828125
1758181432.8769712,-0.32568359375,-0.0234375,0.947265625,-0.6103515625,-0.42724609375,0.1220703125,-1.285400390625,19.610595703125,-122.23388671875
1758181432.8869612,-0.32568359375,-0.0234375,0.947265625,-0.6103515625,-0.42724609375,0.1220703125,-1.2908935546875,19.6051025390625,-122.2393798828125
1758181432.9028573,-0.33154296875,-0.02392578125,0.94384765625,-0.6103515625,-0.3662109375,0.244140625,-1.29638671875,19.599609375,-122.23388671875
1758181432.9091313,-0.33154296875,-0.02392578125,0.94384765625,-0.6103515625,-0.3662109375,0.244140625,-1.3018798828125,19.5941162109375,-122.23388671875
1758181432.9170187,-0.33203125,-0.02099609375,0.943359375,-0.9765625,-0.3662109375,0.30517578125,-1.3128662109375,19.588623046875,-122.23388671875
1758181432.933071,-0.33203125,-0.02099609375,0.943359375,-0.9765625,-0.3662109375,0.30517578125,-1.318359375,19.5831298828125,-122.23388671875
1758181432.9396462,-0.3291015625,-0.02294921875,0.943359375,-0.79345703125,-0.3662109375,0.3662109375,-1.329345703125,19.57763671875,-122.2283935546875
1758181432.947005,-0.3291015625,-0.02294921875,0.943359375,-0.79345703125,-0.3662109375,0.3662109375,-1.3348388671875,19.5721435546875,-122.2283935546875
1758181432.9570553,-0.3232421875,-0.0244140625,0.947265625,-0.54931640625,-0.3662109375,0.3662109375,-1.34033203125,19.566650390625,-122.222900390625
