timestamp,acc_x,acc_y,acc_z,gyro_x,gyro_y,gyro_z,angle_x,angle_y,angle_z
1760968042.496109,-0.78955078125,0.04736328125,0.6123046875,0.18310546875,-1.52587890625,-0.79345703125,1.9830322265625,52.987060546875,-174.4134521484375
1760968042.5057151,-0.78955078125,0.04736328125,0.6123046875,0.18310546875,-1.52587890625,-0.79345703125,1.9775390625,52.9705810546875,-174.429931640625
1760968042.516379,-0.78857421875,0.0244140625,0.638671875,-1.0986328125,-0.91552734375,-0.732421875,1.95556640625,52.9595947265625,-174.44091796875
1760968042.5268528,-0.78857421875,0.0244140625,0.638671875,-1.0986328125,-0.91552734375,-0.732421875,1.9390869140625,52.9486083984375,-174.451904296875
1760968042.5372908,-0.796875,0.01953125,0.61865234375,-3.11279296875,-0.3662109375,-0.48828125,1.9061279296875,52.9376220703125,-174.4573974609375
1760968042.5470765,-0.796875,0.01953125,0.61865234375,-3.11279296875,-0.3662109375,-0.48828125,1.86767578125,52.93212890625,-174.4683837890625
1760968042.5561922,-0.7890625,-0.00439453125,0.62451171875,-1.28173828125,0.244140625,-0.6103515625,1.8511962890625,52.9266357421875,-174.4793701171875
1760968042.5652113,-0.7890625,-0.00439453125,0.62451171875,-1.28173828125,0.244140625,-0.6103515625,1.8292236328125,52.9266357421875,-174.4903564453125
1760968042.5751958,-0.7744140625,0.00732421875,0.63818359375,1.28173828125,0.54931640625,-0.79345703125,1.8292236328125,52.9266357421875,-174.5123291015625
1760968042.5859115,-0.7744140625,0.00732421875,0.63818359375,1.28173828125,0.54931640625,-0.79345703125,1.834716796875,52.9266357421875,-174.52880859375
1760968042.5939858,-0.763671875,0.0400390625,0.6259765625,2.197265625,0.30517578125,-0.9765625,1.8402099609375,52.921142578125,-174.55078125
1760968042.6040184,-0.763671875,0.0400390625,0.6259765625,2.197265625,0.30517578125,-0.9765625,1.8511962890625,52.9156494140625,-174.57275390625
1760968042.6140397,-0.76220703125,0.02880859375,0.6650390625,1.64794921875,-0.18310546875,-0.67138671875,1.856689453125,52.91015625,-174.5947265625
1760968042.6240382,-0.76220703125,0.02880859375,0.6650390625,1.64794921875,-0.18310546875,-0.67138671875,1.86767578125,52.8936767578125,-174.61669921875
1760968042.6344829,-0.755859375,-0.01318359375,0.64501953125,1.708984375,-0.48828125,0.18310546875,1.8841552734375,52.877197265625,-174.627685546875
1760968042.6439931,-0.755859375,-0.01318359375,0.64501953125,1.708984375,-0.48828125,0.18310546875,1.900634765625,52.8607177734375,-174.638671875
1760968042.6540277,-0.77734375,-0.01123046875,0.64111328125,2.38037109375,-0.67138671875,1.0986328125,1.93359375,52.84423828125,-174.6331787109375
1760968042.6643686,-0.77734375,-0.01123046875,0.64111328125,2.38037109375,-0.67138671875,1.0986328125,1.966552734375,52.822265625,-174.6331787109375
1760968042.6744282,-0.78271484375,0.02783203125,0.59912109375,2.3193359375,-1.03759765625,1.220703125,1.99951171875,52.80029296875,-174.627685546875
1760968042.684018,-0.78271484375,0.02783203125,0.59912109375,2.3193359375,-1.03759765625,1.220703125,2.032470703125,52.7783203125,-174.6221923828125
1760968042.6940398,-0.7998046875,0.03271484375,0.61328125,1.28173828125,-1.28173828125,1.3427734375,2.0599365234375,52.75634765625,-174.6112060546875
1760968042.7040582,-0.7998046875,0.03271484375,0.61328125,1.28173828125,-1.28173828125,1.3427734375,2.08740234375,52.734375,-174.5947265625
1760968042.7140615,-0.7841796875,0.02880859375,0.626953125,-0.6103515625,-1.46484375,1.52587890625,2.098388671875,52.71240234375,-174.5782470703125
1760968042.724091,-0.7841796875,0.02880859375,0.626953125,-0.6103515625,-1.46484375,1.52587890625,2.109375,52.6904296875,-174.561767578125
1760968042.7341664,-0.7861328125,0.017578125,0.62646484375,-1.89208984375,-1.52587890625,1.64794921875,2.109375,52.6629638671875,-174.5452880859375
1760968042.744176,-0.7861328125,0.017578125,0.62646484375,-1.89208984375,-1.52587890625,1.64794921875,2.109375,52.6409912109375,-174.52880859375
1760968042.7541552,-0.79638671875,0.01953125,0.6103515625,-3.5400390625,-1.77001953125,1.52587890625,2.08740234375,52.613525390625,-174.5123291015625
1760968042.76418,-0.79638671875,0.01953125,0.6103515625,-3.5400390625,-1.77001953125,1.52587890625,2.0709228515625,52.591552734375,-174.4903564453125
1760968042.774166,-0.7998046875,0.04541015625,0.6005859375,-5.18798828125,-2.13623046875,0.91552734375,2.032470703125,52.5640869140625,-174.4793701171875
1760968042.7842085,-0.80712890625,0.03955078125,0.599609375,-3.11279296875,-2.0751953125,0.3662109375,1.99951171875,52.53662109375,-174.473876953125
1760968042.794204,-0.80712890625,0.03955078125,0.599609375,-3.11279296875,-2.0751953125,0.3662109375,1.9720458984375,52.5146484375,-174.4683837890625
1760968042.8041494,-0.81298828125,0.017578125,0.58349609375,-1.03759765625,-1.77001953125,0.18310546875,1.95556640625,52.49267578125,-174.462890625
1760968042.8141413,-0.81298828125,0.017578125,0.58349609375,-1.03759765625,-1.77001953125,0.18310546875,1.9500732421875,52.4761962890625,-174.4573974609375
1760968042.8241348,-0.806640625,0.01318359375,0.587890625,-1.708984375,-1.3427734375,0.0,1.9390869140625,52.459716796875,-174.451904296875
1760968042.834148,-0.806640625,0.01318359375,0.587890625,-1.708984375,-1.3427734375,0.0,1.922607421875,52.44873046875,-174.4464111328125
1760968042.8443007,-0.79931640625,0.01806640625,0.61376953125,-0.3662109375,-0.8544921875,-0.06103515625,1.91162109375,52.437744140625,-174.44091796875
1760968042.8542032,-0.79931640625,0.01806640625,0.61376953125,-0.3662109375,-0.8544921875,-0.06103515625,1.9061279296875,52.4322509765625,-174.4354248046875
1760968042.8642328,-0.79345703125,0.01953125,0.625,0.3662109375,-0.67138671875,-0.18310546875,1.9061279296875,52.4267578125,-174.429931640625
1760968042.8742182,-0.79345703125,0.01953125,0.625,0.3662109375,-0.67138671875,-0.18310546875,1.91162109375,52.4212646484375,-174.429931640625
1760968042.8842413,-0.79345703125,0.025390625,0.5986328125,-1.77001953125,-0.6103515625,-0.1220703125,1.900634765625,52.415771484375,-174.4244384765625
1760968042.8942275,-0.79345703125,0.025390625,0.5986328125,-1.77001953125,-0.6103515625,-0.1220703125,1.8841552734375,52.4102783203125,-174.4189453125
1760968042.9042542,-0.80859375,0.01953125,0.60888671875,-0.79345703125,-0.6103515625,-0.06103515625,1.86767578125,52.40478515625,-174.4134521484375
1760968042.9142642,-0.80859375,0.01953125,0.60888671875,-0.79345703125,-0.6103515625,-0.06103515625,1.8621826171875,52.3992919921875,-174.407958984375
1760968042.9242702,-0.79443359375,0.0126953125,0.56396484375,0.0,-0.244140625,0.06103515625,1.856689453125,52.3992919921875,-174.39697265625
1760968042.934272,-0.79443359375,0.0126953125,0.56396484375,0.0,-0.244140625,0.06103515625,1.856689453125,52.3992919921875,-174.3914794921875
1760968042.9442813,-0.7919921875,0.0224609375,0.66015625,-1.77001953125,-0.79345703125,0.42724609375,1.8511962890625,52.393798828125,-174.375
1760968042.954402,-0.7919921875,0.0224609375,0.66015625,-1.77001953125,-0.79345703125,0.42724609375,1.8402099609375,52.3883056640625,-174.364013671875
1760968042.96429,-0.7763671875,0.01318359375,0.61474609375,-4.94384765625,-0.79345703125,1.0986328125,1.8182373046875,52.3828125,-174.3475341796875
1760968042.974303,-0.7763671875,0.01318359375,0.61474609375,-4.94384765625,-0.79345703125,1.0986328125,1.77978515625,52.371826171875,-174.3255615234375
1760968042.9843147,-0.787109375,0.00830078125,0.61865234375,-2.3193359375,-0.9765625,1.0986328125,1.7578125,52.36083984375,-174.3035888671875
1760968042.9943588,-0.787109375,0.00830078125,0.61865234375,-2.3193359375,-0.9765625,1.0986328125,1.746826171875,52.3553466796875,-174.2816162109375
1760968043.00447,-0.7939453125,0.0126953125,0.60205078125,-1.220703125,-1.0986328125,1.0986328125,1.746826171875,52.3388671875,-174.26513671875
1760968043.0143619,-0.7939453125,0.0126953125,0.60205078125,-1.220703125,-1.0986328125,1.0986328125,1.746826171875,52.327880859375,-174.2431640625
1760968043.024477,-0.80517578125,0.0380859375,0.611328125,-1.953125,-1.03759765625,1.15966796875,1.7413330078125,52.31689453125,-174.22119140625
1760968043.0344243,-0.80517578125,0.0380859375,0.611328125,-1.953125,-1.03759765625,1.15966796875,1.73583984375,52.3114013671875,-174.19921875
1760968043.044518,-0.79833984375,0.0234375,0.60693359375,-0.18310546875,-1.03759765625,0.79345703125,1.7413330078125,52.3004150390625,-174.17724609375
1760968043.054423,-0.79833984375,0.0234375,0.60693359375,-0.18310546875,-1.03759765625,0.79345703125,1.746826171875,52.2894287109375,-174.1607666015625
1760968043.0645163,-0.8115234375,0.0263671875,0.595703125,-4.33349609375,-0.91552734375,0.67138671875,1.73583984375,52.2784423828125,-174.144287109375
1760968043.0744178,-0.8115234375,0.0263671875,0.595703125,-4.33349609375,-0.91552734375,0.67138671875,1.702880859375,52.27294921875,-174.122314453125
1760968043.0845253,-0.8125,0.02392578125,0.5849609375,-4.638671875,-0.732421875,0.3662109375,1.669921875,52.2674560546875,-174.1058349609375
1760968043.094709,-0.8125,0.02392578125,0.5849609375,-4.638671875,-0.732421875,0.3662109375,1.6259765625,52.261962890625,-174.0948486328125
1760968043.1046178,-0.80078125,0.00732421875,0.60302734375,-3.35693359375,-0.48828125,0.06103515625,1.593017578125,52.261962890625,-174.078369140625
1760968043.1144936,-0.80078125,0.00732421875,0.60302734375,-3.35693359375,-0.48828125,0.06103515625,1.56005859375,52.261962890625,-174.0673828125
1760968043.124643,-0.8017578125,0.0087890625,0.62060546875,-2.62451171875,-0.30517578125,0.0,1.5325927734375,52.261962890625,-174.056396484375
1760968043.1344197,-0.8017578125,0.0087890625,0.62060546875,-2.62451171875,-0.30517578125,0.0,1.5106201171875,52.261962890625,-174.04541015625
1760968043.1454804,-0.79248046875,0.009765625,0.6142578125,-2.86865234375,-0.3662109375,0.0,1.483154296875,52.261962890625,-174.0399169921875
1760968043.1545217,-0.79248046875,0.009765625,0.6142578125,-2.86865234375,-0.3662109375,0.0,1.4556884765625,52.261962890625,-174.034423828125
1760968043.1647565,-0.783203125,0.00732421875,0.61474609375,0.67138671875,-0.48828125,0.0,1.4447021484375,52.261962890625,-174.0289306640625
1760968043.17496,-0.783203125,0.00732421875,0.61474609375,0.67138671875,-0.48828125,0.0,1.4501953125,52.2564697265625,-174.0234375
1760968043.1847174,-0.76953125,0.00830078125,0.62841796875,1.77001953125,-0.8544921875,0.244140625,1.461181640625,52.2509765625,-174.012451171875
1760968043.195146,-0.76953125,0.00830078125,0.62841796875,1.77001953125,-0.8544921875,0.244140625,1.483154296875,52.2454833984375,-174.0069580078125
1760968043.2055786,-0.76708984375,0.01611328125,0.6396484375,0.06103515625,-1.15966796875,0.42724609375,1.494140625,52.2344970703125,-174.00146484375
1760968043.215488,-0.76708984375,0.01611328125,0.6396484375,0.06103515625,-1.15966796875,0.42724609375,1.4996337890625,52.2235107421875,-173.990478515625
1760968043.2247813,-0.78076171875,0.0234375,0.63134765625,-3.11279296875,-1.3427734375,0.67138671875,1.4886474609375,52.20703125,-173.9794921875
1760968043.2356942,-0.78076171875,0.0234375,0.63134765625,-3.11279296875,-1.3427734375,0.67138671875,1.4666748046875,52.1905517578125,-173.968505859375
1760968043.2485447,-0.78564453125,0.0107421875,0.60595703125,-3.11279296875,-1.15966796875,1.0986328125,1.4447021484375,52.174072265625,-173.9520263671875
1760968043.2553785,-0.78564453125,0.0107421875,0.60595703125,-3.11279296875,-1.15966796875,1.0986328125,1.42822265625,52.1630859375,-173.935546875
1760968043.2711477,-0.79345703125,0.00537109375,0.62841796875,-0.91552734375,-1.28173828125,1.03759765625,1.417236328125,52.1466064453125,-173.9190673828125
1760968043.2778795,-0.79345703125,0.00537109375,0.62841796875,-0.91552734375,-1.28173828125,1.03759765625,1.4227294921875,52.130126953125,-173.8970947265625
1760968043.2848046,-0.79443359375,0.02490234375,0.6064453125,-2.3193359375,-1.52587890625,0.9765625,1.417236328125,52.1136474609375,-173.880615234375
1760968043.2949843,-0.79443359375,0.02490234375,0.6064453125,-2.3193359375,-1.52587890625,0.9765625,1.40625,52.09716796875,-173.8641357421875
1760968043.3047729,-0.8125,0.03125,0.6015625,-4.39453125,-1.52587890625,0.9765625,1.38427734375,52.0806884765625,-173.8421630859375
1760968043.3148034,-0.8125,0.03125,0.6015625,-4.39453125,-1.52587890625,0.9765625,1.3568115234375,52.0697021484375,-173.8201904296875
1760968043.325344,-0.826171875,0.013671875,0.59375,-5.859375,-1.0986328125,0.91552734375,1.318359375,52.05322265625,-173.7982177734375
1760968043.335041,-0.826171875,0.013671875,0.59375,-5.859375,-1.0986328125,0.91552734375,1.2744140625,52.0477294921875,-173.770751953125
1760968043.3449123,-0.82373046875,0.01708984375,0.57421875,-5.92041015625,-0.9765625,1.03759765625,1.2249755859375,52.042236328125,-173.7432861328125
1760968043.355061,-0.82373046875,0.01708984375,0.57421875,-5.92041015625,-0.9765625,1.03759765625,1.1810302734375,52.0367431640625,-173.7103271484375
1760968043.3651054,-0.80810546875,0.0078125,0.58544921875,-3.72314453125,-1.03759765625,1.03759765625,1.153564453125,52.03125,-173.682861328125
1760968043.3747814,-0.80810546875,0.0078125,0.58544921875,-3.72314453125,-1.03759765625,1.03759765625,1.1260986328125,52.0257568359375,-173.64990234375
1760968043.3849552,-0.81591796875,0.00048828125,0.62109375,-2.44140625,-1.03759765625,1.3427734375,1.1151123046875,52.0257568359375,-173.616943359375
1760968043.394975,-0.81591796875,0.00048828125,0.62109375,-2.44140625,-1.03759765625,1.3427734375,1.109619140625,52.020263671875,-173.5784912109375
1760968043.405017,-0.82373046875,0.00537109375,0.5615234375,-3.35693359375,-0.67138671875,1.3427734375,1.0986328125,52.020263671875,-173.5455322265625
1760968043.4148448,-0.82373046875,0.00537109375,0.5615234375,-3.35693359375,-0.67138671875,1.3427734375,1.0821533203125,52.020263671875,-173.507080078125
1760968043.4253156,-0.833984375,0.0126953125,0.5830078125,-4.45556640625,-0.54931640625,1.40380859375,1.0601806640625,52.0257568359375,-173.4686279296875
1760968043.435436,-0.833984375,0.0126953125,0.5830078125,-4.45556640625,-0.54931640625,1.40380859375,1.03271484375,52.03125,-173.43017578125
1760968043.445251,-0.7880859375,0.02099609375,0.58544921875,-3.173828125,-0.9765625,0.9765625,1.0107421875,52.03125,-173.3917236328125
1760968043.4554014,-0.7880859375,0.02099609375,0.58544921875,-3.173828125,-0.9765625,0.9765625,0.98876953125,52.03125,-173.3587646484375
1760968043.4650023,-0.787109375,0.00146484375,0.64794921875,-3.11279296875,-1.220703125,1.3427734375,0.9722900390625,52.03125,-173.3203125
1760968043.4749072,-0.787109375,0.00146484375,0.64794921875,-3.11279296875,-1.220703125,1.3427734375,0.9613037109375,52.0257568359375,-173.287353515625
1760968043.4951384,-0.77685546875,-0.0048828125,0.62060546875,-3.41796875,-1.28173828125,1.8310546875,0.9503173828125,52.020263671875,-173.2489013671875
1760968043.5120296,-0.77685546875,-0.0048828125,0.62060546875,-3.41796875,-1.28173828125,1.8310546875,0.9393310546875,52.0147705078125,-173.2049560546875
1760968043.5195339,-0.8037109375,0.00244140625,0.62109375,-6.2255859375,-0.8544921875,2.25830078125,0.911865234375,52.00927734375,-173.1610107421875
1760968043.5306733,-0.8037109375,0.00244140625,0.62109375,-6.2255859375,-0.8544921875,2.25830078125,0.87890625,52.0037841796875,-173.1170654296875
1760968043.5453124,-0.79248046875,0.013671875,0.59033203125,-4.638671875,-0.8544921875,1.953125,0.8514404296875,51.998291015625,-173.0731201171875
1760968043.552433,-0.79248046875,0.013671875,0.59033203125,-4.638671875,-0.8544921875,1.953125,0.8294677734375,51.998291015625,-173.0291748046875
1760968043.5628357,-0.78271484375,0.02197265625,0.62548828125,-2.62451171875,-1.15966796875,1.77001953125,0.81298828125,51.9927978515625,-172.99072265625
1760968043.574017,-0.78271484375,0.02197265625,0.62548828125,-2.62451171875,-1.15966796875,1.77001953125,0.81298828125,51.9818115234375,-172.9522705078125
1760968043.5826335,-0.77783203125,-0.00146484375,0.65185546875,-1.40380859375,-1.64794921875,1.708984375,0.81298828125,51.9708251953125,-172.913818359375
1760968043.5898664,-0.77783203125,-0.00146484375,0.65185546875,-1.40380859375,-1.64794921875,1.708984375,0.823974609375,51.9598388671875,-172.8753662109375
1760968043.597385,-0.77001953125,0.0009765625,0.62060546875,-2.01416015625,-1.708984375,2.0751953125,0.8294677734375,51.943359375,-172.8424072265625
1760968043.6053424,-0.77001953125,0.0009765625,0.62060546875,-2.01416015625,-1.708984375,2.0751953125,0.8349609375,51.9268798828125,-172.7984619140625
1760968043.6138237,-0.77001953125,0.0009765625,0.62060546875,-2.38037109375,-1.5869140625,2.25830078125,0.8404541015625,51.9049072265625,-172.760009765625
1760968043.6226008,-0.77880859375,0.0009765625,0.63623046875,-2.38037109375,-1.5869140625,2.25830078125,0.8404541015625,51.888427734375,-172.7215576171875
1760968043.6322749,-0.775390625,0.017578125,0.63330078125,-2.0751953125,-1.46484375,2.197265625,0.845947265625,51.8719482421875,-172.6776123046875
1760968043.6403177,-0.775390625,0.017578125,0.63330078125,-2.0751953125,-1.46484375,2.197265625,0.8514404296875,51.85546875,-172.63916015625
1760968043.651093,-0.77685546875,0.013671875,0.65283203125,-1.03759765625,-1.46484375,2.197265625,0.8624267578125,51.8389892578125,-172.6007080078125
1760968043.6597383,-0.77685546875,0.013671875,0.65283203125,-1.03759765625,-1.46484375,2.197265625,0.87890625,51.822509765625,-172.562255859375
1760968043.6686537,-0.75537109375,0.005859375,0.625,0.0,-1.89208984375,1.8310546875,0.90087890625,51.800537109375,-172.529296875
1760968043.6768086,-0.75537109375,0.005859375,0.625,0.0,-1.89208984375,1.8310546875,0.9228515625,51.778564453125,-172.496337890625
1760968043.6852334,-0.7666015625,0.01220703125,0.6552734375,-0.42724609375,-2.13623046875,1.77001953125,0.9393310546875,51.7510986328125,-172.46337890625
1760968043.698718,-0.7666015625,0.01220703125,0.6552734375,-0.42724609375,-2.13623046875,1.77001953125,0.955810546875,51.7291259765625,-172.430419921875
1760968043.7104611,-0.78173828125,0.01513671875,0.64013671875,-2.5634765625,-2.38037109375,1.77001953125,0.966796875,51.6961669921875,-172.3974609375
1760968043.720632,-0.78173828125,0.01513671875,0.64013671875,-2.5634765625,-2.38037109375,1.77001953125,0.9613037109375,51.668701171875,-172.3699951171875
1760968043.7366138,-0.798828125,0.0185546875,0.59814453125,-1.77001953125,-2.38037109375,1.64794921875,0.9613037109375,51.6412353515625,-172.3370361328125
1760968043.749402,-0.798828125,0.0185546875,0.59814453125,-1.77001953125,-2.38037109375,1.64794921875,0.9613037109375,51.61376953125,-172.3095703125
1760968043.7569416,-0.79052734375,0.0048828125,0.60693359375,2.0751953125,-2.25830078125,1.46484375,0.9832763671875,51.5863037109375,-172.276611328125
1760968043.7653975,-0.79052734375,0.0048828125,0.60693359375,2.0751953125,-2.25830078125,1.46484375,1.021728515625,51.5643310546875,-172.2491455078125
1760968043.7723384,-0.79296875,-0.0078125,0.626953125,3.23486328125,-2.01416015625,1.708984375,1.065673828125,51.5423583984375,-172.2161865234375
1760968043.7792532,-0.79296875,-0.0078125,0.626953125,3.23486328125,-2.01416015625,1.708984375,1.12060546875,51.5203857421875,-172.1832275390625
1760968043.7886515,-0.7939453125,0.01806640625,0.60498046875,2.3193359375,-1.953125,1.89208984375,1.16455078125,51.4984130859375,-172.1502685546875
1760968043.809868,-0.7939453125,0.01806640625,0.60498046875,2.3193359375,-1.953125,1.89208984375,1.20849609375,51.48193359375,-172.1173095703125
1760968043.833744,-0.806640625,0.01513671875,0.625,0.42724609375,-1.89208984375,1.89208984375,1.2359619140625,51.4599609375,-172.078857421875
1760968043.8462846,-0.806640625,0.01513671875,0.625,0.42724609375,-1.89208984375,1.89208984375,1.263427734375,51.4434814453125,-172.0404052734375
1760968043.8533893,-0.80029296875,0.02685546875,0.59765625,-1.28173828125,-1.64794921875,2.0751953125,1.2744140625,51.4324951171875,-172.001953125
1760968043.860283,-0.80029296875,0.02685546875,0.59765625,-1.28173828125,-1.64794921875,2.0751953125,1.285400390625,51.416015625,-171.9580078125
1760968043.8667915,-0.79833984375,0.0205078125,0.60791015625,-2.44140625,-1.40380859375,2.25830078125,1.285400390625,51.405029296875,-171.9085693359375
1760968043.8731205,-0.79833984375,0.0205078125,0.60791015625,-2.44140625,-1.40380859375,2.25830078125,1.2908935546875,51.39404296875,-171.859130859375
1760968043.8793972,-0.78857421875,-0.005859375,0.6298828125,-1.708984375,-1.28173828125,2.5634765625,1.307373046875,51.3885498046875,-171.8096923828125
1760968043.8866696,-0.78857421875,-0.005859375,0.6298828125,-1.708984375,-1.28173828125,2.5634765625,1.318359375,51.3775634765625,-171.7547607421875
1760968043.9080179,-0.78515625,-0.00537109375,0.63232421875,-0.8544921875,-1.03759765625,2.99072265625,1.3458251953125,51.3720703125,-171.6998291015625
1760968043.9429111,-0.78515625,-0.00537109375,0.63232421875,-0.8544921875,-1.03759765625,2.99072265625,1.3677978515625,51.361083984375,-171.6448974609375
1760968043.9574502,-0.78857421875,0.03125,0.6044921875,0.06103515625,-0.91552734375,2.74658203125,1.4007568359375,51.3555908203125,-171.595458984375
1760968043.9641843,-0.78857421875,0.03125,0.6044921875,0.06103515625,-0.91552734375,2.74658203125,1.4337158203125,51.35009765625,-171.54052734375
1760968043.9705684,-0.79296875,0.029296875,0.6171875,-0.732421875,-0.732421875,2.74658203125,1.4556884765625,51.3446044921875,-171.485595703125
1760968043.9782398,-0.79296875,0.029296875,0.6171875,-0.732421875,-0.732421875,2.74658203125,1.483154296875,51.339111328125,-171.4306640625
1760968043.9863858,-0.79296875,0.0009765625,0.63720703125,-0.6103515625,-0.48828125,2.8076171875,1.5106201171875,51.339111328125,-171.3812255859375
1760968043.9932628,-0.79296875,0.0009765625,0.63720703125,-0.6103515625,-0.48828125,2.8076171875,1.5380859375,51.3336181640625,-171.3262939453125
1760968043.999544,-0.787109375,0.0107421875,0.61083984375,-0.79345703125,-0.30517578125,2.9296875,1.5655517578125,51.3336181640625,-171.2713623046875
1760968044.0174043,-0.787109375,0.0107421875,0.61083984375,-0.79345703125,-0.30517578125,2.9296875,1.5875244140625,51.3336181640625,-171.2109375
1760968044.024255,-0.79052734375,0.03271484375,0.640625,-2.74658203125,-0.1220703125,2.9296875,1.5985107421875,51.3336181640625,-171.156005859375
1760968044.0334787,-0.79052734375,0.03271484375,0.640625,-2.74658203125,-0.1220703125,2.9296875,1.60400390625,51.339111328125,-171.10107421875
1760968044.0415814,-0.77587890625,0.0244140625,0.62841796875,-2.9296875,-0.244140625,2.9296875,1.6094970703125,51.3336181640625,-171.046142578125
1760968044.04936,-0.77587890625,0.0244140625,0.62841796875,-2.9296875,-0.244140625,2.9296875,1.6204833984375,51.3336181640625,-170.9912109375
1760968044.06103,-0.7880859375,0.017578125,0.623046875,-0.9765625,-0.48828125,2.99072265625,1.64794921875,51.328125,-170.9307861328125
1760968044.069866,-0.7880859375,0.017578125,0.623046875,-0.9765625,-0.48828125,2.99072265625,1.6754150390625,51.328125,-170.8758544921875
1760968044.0791554,-0.80322265625,0.009765625,0.59228515625,-2.01416015625,-0.6103515625,2.9296875,1.6864013671875,51.3226318359375,-170.8154296875
1760968044.0903726,-0.80322265625,0.009765625,0.59228515625,-2.01416015625,-0.6103515625,2.9296875,1.702880859375,51.317138671875,-170.760498046875
1760968044.0995414,-0.80517578125,0.01123046875,0.6142578125,-1.8310546875,-0.30517578125,2.8076171875,1.7193603515625,51.317138671875,-170.70556640625
1760968044.1086156,-0.80517578125,0.01123046875,0.6142578125,-1.8310546875,-0.30517578125,2.8076171875,1.73583984375,51.317138671875,-170.650634765625
1760968044.117744,-0.7880859375,0.0234375,0.60693359375,-2.01416015625,-0.48828125,2.685546875,1.746826171875,51.317138671875,-170.595703125
1760968044.1256008,-0.7880859375,0.0234375,0.60693359375,-2.01416015625,-0.48828125,2.685546875,1.7578125,51.317138671875,-170.540771484375
1760968044.1340542,-0.78564453125,0.03857421875,0.638671875,-0.42724609375,-0.9765625,2.44140625,1.77978515625,51.3116455078125,-170.4913330078125
1760968044.141027,-0.78564453125,0.03857421875,0.638671875,-0.42724609375,-0.9765625,2.44140625,1.8072509765625,51.30615234375,-170.44189453125
1760968044.1477423,-0.78466796875,0.0107421875,0.6396484375,-1.15966796875,-0.732421875,2.8076171875,1.8292236328125,51.3006591796875,-170.386962890625
1760968044.1587167,-0.78466796875,0.0107421875,0.6396484375,-1.15966796875,-0.732421875,2.8076171875,1.8511962890625,51.295166015625,-170.33203125
1760968044.167055,-0.7880859375,0.01318359375,0.60107421875,-0.732421875,-0.48828125,2.86865234375,1.878662109375,51.2896728515625,-170.277099609375
1760968044.1741555,-0.7880859375,0.01318359375,0.60107421875,-0.732421875,-0.48828125,2.86865234375,1.9061279296875,51.2896728515625,-170.2166748046875
1760968044.1818922,-0.775390625,0.021484375,0.61865234375,-0.6103515625,-0.67138671875,2.50244140625,1.9281005859375,51.2841796875,-170.167236328125
1760968044.1906831,-0.775390625,0.021484375,0.61865234375,-0.6103515625,-0.67138671875,2.50244140625,1.95556640625,51.2786865234375,-170.1177978515625
1760968044.2011373,-0.7578125,0.0244140625,0.6650390625,-0.30517578125,-1.0986328125,2.38037109375,1.9775390625,51.2677001953125,-170.0738525390625
1760968044.207755,-0.7578125,0.0244140625,0.6650390625,-0.30517578125,-1.0986328125,2.38037109375,2.0050048828125,51.2567138671875,-170.0244140625
1760968044.2173386,-0.75390625,0.015625,0.66650390625,0.1220703125,-1.15966796875,2.5634765625,2.032470703125,51.2457275390625,-169.98046875
1760968044.2244592,-0.75390625,0.015625,0.66650390625,0.1220703125,-1.15966796875,2.5634765625,2.0654296875,51.229248046875,-169.9365234375
1760968044.2337806,-0.74951171875,0.0263671875,0.64990234375,1.220703125,-1.15966796875,2.5634765625,2.1038818359375,51.2127685546875,-169.8980712890625
1760968044.241515,-0.74951171875,0.0263671875,0.64990234375,1.220703125,-1.15966796875,2.5634765625,2.1478271484375,51.1962890625,-169.8541259765625
1760968044.248625,-0.75830078125,0.03955078125,0.65869140625,0.0,-0.9765625,2.50244140625,2.17529296875,51.1798095703125,-169.815673828125
1760968044.2563872,-0.75830078125,0.03955078125,0.65869140625,0.0,-0.9765625,2.50244140625,2.208251953125,51.163330078125,-169.771728515625
1760968044.2656953,-0.76806640625,0.02685546875,0.6298828125,-2.25830078125,-0.79345703125,2.3193359375,2.2137451171875,51.1468505859375,-169.7332763671875
1760968044.2840033,-0.76806640625,0.02685546875,0.6298828125,-2.25830078125,-0.79345703125,2.3193359375,2.21923828125,51.1358642578125,-169.69482421875
1760968044.2909205,-0.77978515625,0.0263671875,0.64892578125,-3.47900390625,-0.8544921875,2.3193359375,2.2137451171875,51.119384765625,-169.65087890625
1760968044.2970498,-0.77978515625,0.0263671875,0.64892578125,-3.47900390625,-0.8544921875,2.3193359375,2.208251953125,51.1029052734375,-169.6124267578125
1760968044.3058379,-0.78076171875,0.03076171875,0.6171875,-1.5869140625,-0.6103515625,1.89208984375,2.2137451171875,51.0919189453125,-169.5794677734375
1760968044.31585,-0.78076171875,0.03076171875,0.6171875,-1.5869140625,-0.6103515625,1.89208984375,2.21923828125,51.0809326171875,-169.541015625
1760968044.3265631,-0.79736328125,0.0234375,0.64208984375,-1.0986328125,-0.06103515625,1.5869140625,2.230224609375,51.075439453125,-169.5135498046875
1760968044.3359504,-0.79736328125,0.0234375,0.64208984375,-1.0986328125,-0.06103515625,1.5869140625,2.2412109375,51.075439453125,-169.4805908203125
1760968044.354202,-0.80322265625,0.03662109375,0.60693359375,-2.38037109375,0.48828125,1.3427734375,2.2357177734375,51.075439453125,-169.453125
1760968044.3638651,-0.80322265625,0.03662109375,0.60693359375,-2.38037109375,0.48828125,1.3427734375,2.2247314453125,51.0809326171875,-169.420166015625
1760968044.3705876,-0.80615234375,0.03466796875,0.591796875,-2.99072265625,0.54931640625,0.79345703125,2.208251953125,51.08642578125,-169.398193359375
1760968044.378467,-0.80615234375,0.03466796875,0.591796875,-2.99072265625,0.54931640625,0.79345703125,2.1917724609375,51.0919189453125,-169.3707275390625
1760968044.3870037,-0.798828125,0.017578125,0.60546875,-2.5634765625,0.48828125,0.67138671875,2.17529296875,51.1029052734375,-169.34326171875
1760968044.3968592,-0.798828125,0.017578125,0.60546875,-2.5634765625,0.48828125,0.67138671875,2.164306640625,51.1083984375,-169.3157958984375
1760968044.4077616,-0.796875,0.015625,0.61474609375,-0.79345703125,0.3662109375,0.6103515625,2.164306640625,51.119384765625,-169.2938232421875
1760968044.417617,-0.796875,0.015625,0.61474609375,-0.79345703125,0.3662109375,0.6103515625,2.164306640625,51.1248779296875,-169.266357421875
1760968044.4314356,-0.787109375,0.03173828125,0.62109375,-0.67138671875,0.244140625,0.48828125,2.164306640625,51.13037109375,-169.244384765625
1760968044.4474988,-0.787109375,0.03173828125,0.62109375,-0.67138671875,0.244140625,0.48828125,2.164306640625,51.1358642578125,-169.222412109375
1760968044.4583702,-0.77880859375,0.0205078125,0.6435546875,-2.25830078125,0.30517578125,0.732421875,2.1533203125,51.141357421875,-169.1949462890625
1760968044.4664538,-0.77880859375,0.0205078125,0.6435546875,-2.25830078125,0.30517578125,0.732421875,2.142333984375,51.1468505859375,-169.16748046875
1760968044.473636,-0.7734375,0.01904296875,0.63037109375,-2.44140625,0.244140625,0.91552734375,2.1258544921875,51.15234375,-169.1400146484375
1760968044.4820786,-0.7734375,0.01904296875,0.63037109375,-2.44140625,0.244140625,0.91552734375,2.1148681640625,51.1578369140625,-169.1180419921875
1760968044.4978309,-0.77001953125,0.0263671875,0.62255859375,-2.01416015625,-0.1220703125,0.732421875,2.1038818359375,51.1578369140625,-169.090576171875
1760968044.5056007,-0.77001953125,0.0263671875,0.62255859375,-2.01416015625,-0.1220703125,0.732421875,2.0928955078125,51.1578369140625,-169.068603515625
1760968044.5121381,-0.76220703125,0.01806640625,0.6337890625,-2.8076171875,-0.48828125,0.91552734375,2.076416015625,51.15234375,-169.0411376953125
1760968044.5455236,-0.76220703125,0.01806640625,0.6337890625,-2.8076171875,-0.48828125,0.91552734375,2.0599365234375,51.1468505859375,-169.0191650390625
1760968044.553495,-0.76318359375,0.01220703125,0.67333984375,-3.173828125,-1.15966796875,0.91552734375,2.0379638671875,51.1358642578125,-168.9971923828125
1760968044.5613916,-0.76318359375,0.01220703125,0.67333984375,-3.173828125,-1.15966796875,0.91552734375,2.0159912109375,51.119384765625,-168.9752197265625
1760968044.5697224,-0.75390625,0.0390625,0.6357421875,-2.25830078125,-1.28173828125,0.42724609375,1.99951171875,51.1029052734375,-168.9642333984375
1760968044.582324,-0.75390625,0.0390625,0.6357421875,-2.25830078125,-1.28173828125,0.42724609375,1.9830322265625,51.08642578125,-168.94775390625
1760968044.6112754,-0.767578125,0.037109375,0.6708984375,-1.3427734375,-0.9765625,-0.30517578125,1.966552734375,51.075439453125,-168.94775390625
1760968044.6433413,-0.767578125,0.037109375,0.6708984375,-1.3427734375,-0.9765625,-0.30517578125,1.95556640625,51.0589599609375,-168.9422607421875
1760968044.664652,-0.76318359375,0.03857421875,0.6318359375,-4.7607421875,-0.54931640625,-0.732421875,1.900634765625,51.0479736328125,-168.94775390625
1760968044.6737063,-0.76318359375,0.03857421875,0.6318359375,-4.7607421875,-0.54931640625,-0.732421875,1.845703125,51.0369873046875,-168.9532470703125
1760968044.6814065,-0.79150390625,0.03076171875,0.66748046875,-4.45556640625,-0.48828125,-1.0986328125,1.7962646484375,51.031494140625,-168.958740234375
1760968044.694063,-0.79150390625,0.03076171875,0.66748046875,-4.45556640625,-0.48828125,-1.0986328125,1.7413330078125,51.0205078125,-168.9697265625
1760968044.701978,-0.783203125,0.0048828125,0.5380859375,-4.638671875,0.42724609375,-1.220703125,1.6864013671875,51.0205078125,-168.9752197265625
1760968044.7083287,-0.783203125,0.0048828125,0.5380859375,-4.638671875,0.42724609375,-1.220703125,1.6259765625,51.0260009765625,-168.980712890625
1760968044.7498202,-0.78759765625,-0.00634765625,0.72900390625,-1.40380859375,-0.06103515625,-1.15966796875,1.60400390625,51.0260009765625,-168.99169921875
1760968044.7578375,-0.78759765625,-0.00634765625,0.72900390625,-1.40380859375,-0.06103515625,-1.15966796875,1.5765380859375,51.0205078125,-169.002685546875
1760968044.767664,-0.74169921875,0.017578125,0.62255859375,-1.220703125,0.244140625,-1.03759765625,1.549072265625,51.0205078125,-169.013671875
1760968044.7788298,-0.74169921875,0.017578125,0.62255859375,-1.220703125,0.244140625,-1.03759765625,1.527099609375,51.0150146484375,-169.0191650390625
1760968044.8058083,-0.77001953125,0.01904296875,0.6552734375,-1.64794921875,-0.06103515625,-0.9765625,1.4996337890625,51.009521484375,-169.0301513671875
1760968044.8148787,-0.77001953125,0.01904296875,0.6552734375,-1.64794921875,-0.06103515625,-0.9765625,1.47216796875,51.0040283203125,-169.0411376953125
1760968044.822178,-0.76513671875,0.02099609375,0.63916015625,-1.64794921875,0.244140625,-1.0986328125,1.4447021484375,51.0040283203125,-169.0521240234375
1760968044.8310504,-0.76513671875,0.02099609375,0.63916015625,-1.64794921875,0.244140625,-1.0986328125,1.417236328125,51.0040283203125,-169.068603515625
1760968044.8557518,-0.77587890625,0.0107421875,0.6474609375,0.1220703125,0.54931640625,-1.3427734375,1.4007568359375,51.0040283203125,-169.0850830078125
1760968044.862562,-0.77587890625,0.0107421875,0.6474609375,0.1220703125,0.54931640625,-1.3427734375,1.38427734375,51.0040283203125,-169.1015625
1760968044.890096,-0.7841796875,0.01318359375,0.63916015625,-0.8544921875,0.79345703125,-1.46484375,1.3623046875,51.0040283203125,-169.1180419921875
1760968044.8971443,-0.7841796875,0.01318359375,0.63916015625,-0.8544921875,0.79345703125,-1.46484375,1.3348388671875,51.009521484375,-169.134521484375
1760968044.9040606,-0.791015625,0.02783203125,0.6083984375,-1.46484375,1.0986328125,-1.953125,1.3018798828125,51.0150146484375,-169.1619873046875
1760968044.931562,-0.791015625,0.02783203125,0.6083984375,-1.46484375,1.0986328125,-1.953125,1.263427734375,51.0260009765625,-169.1839599609375
1760968044.940651,-0.79931640625,0.0263671875,0.61474609375,-0.9765625,1.40380859375,-2.5634765625,1.2249755859375,51.0369873046875,-169.21142578125
1760968044.947192,-0.79931640625,0.0263671875,0.61474609375,-0.9765625,1.40380859375,-2.5634765625,1.1865234375,51.053466796875,-169.2388916015625
1760968044.9557605,-0.783203125,0.01416015625,0.6240234375,-0.06103515625,1.40380859375,-3.0517578125,1.153564453125,51.0699462890625,-169.2718505859375
1760968044.9721508,-0.783203125,0.0048828125,0.6337890625,0.6103515625,1.46484375,-3.35693359375,1.12060546875,51.0809326171875,-169.310302734375
1760968044.9805875,-0.783203125,0.0048828125,0.6337890625,0.6103515625,1.46484375,-3.35693359375,1.087646484375,51.097412109375,-169.354248046875
1760968044.9874458,-0.79736328125,0.0234375,0.61767578125,-0.244140625,1.89208984375,-3.5400390625,1.0491943359375,51.1138916015625,-169.398193359375
1760968044.9947765,-0.79736328125,0.0234375,0.61767578125,-0.244140625,1.89208984375,-3.5400390625,1.0107421875,51.1358642578125,-169.442138671875
1760968045.0027664,-0.798828125,0.0087890625,0.6181640625,-0.8544921875,2.38037109375,-3.5400390625,0.9613037109375,51.1578369140625,-169.486083984375
1760968045.018528,-0.798828125,0.0087890625,0.6181640625,-0.8544921875,2.38037109375,-3.5400390625,0.9173583984375,51.185302734375,-169.530029296875
1760968045.0288074,-0.79150390625,-0.00634765625,0.61376953125,0.0,2.685546875,-3.35693359375,0.8734130859375,51.2127685546875,-169.573974609375
1760968045.0359454,-0.79150390625,-0.00634765625,0.61376953125,0.0,2.685546875,-3.35693359375,0.8349609375,51.240234375,-169.6124267578125
1760968045.0458608,-0.7783203125,-0.0029296875,0.6103515625,0.9765625,2.8076171875,-3.173828125,0.7965087890625,51.2677001953125,-169.6563720703125
1760968045.053142,-0.7783203125,-0.0029296875,0.6103515625,0.9765625,2.8076171875,-3.173828125,0.76904296875,51.3006591796875,-169.69482421875
1760968045.0609317,-0.7763671875,0.00537109375,0.66796875,1.40380859375,2.74658203125,-2.99072265625,0.7470703125,51.328125,-169.7332763671875
1760968045.0679014,-0.7763671875,0.00537109375,0.66796875,1.40380859375,2.74658203125,-2.99072265625,0.7196044921875,51.361083984375,-169.771728515625
1760968045.0749526,-0.77734375,0.0126953125,0.6337890625,-2.62451171875,2.9296875,-2.50244140625,0.68115234375,51.3885498046875,-169.8101806640625
1760968045.083495,-0.77734375,0.0126953125,0.6337890625,-2.62451171875,2.9296875,-2.50244140625,0.626220703125,51.416015625,-169.8431396484375
1760968045.089864,-0.791015625,0.029296875,0.60498046875,-4.82177734375,2.8076171875,-2.50244140625,0.560302734375,51.4434814453125,-169.8760986328125
1760968045.0964005,-0.791015625,0.029296875,0.60498046875,-4.82177734375,2.8076171875,-2.50244140625,0.4833984375,51.470947265625,-169.9090576171875
1760968045.105087,-0.79736328125,-0.009765625,0.61767578125,-3.41796875,2.62451171875,-2.5634765625,0.41748046875,51.4984130859375,-169.9365234375
1760968045.1183786,-0.79736328125,-0.009765625,0.61767578125,-3.41796875,2.62451171875,-2.5634765625,0.3515625,51.5203857421875,-169.969482421875
1760968045.1290154,-0.79736328125,-0.0107421875,0.61328125,-1.03759765625,2.5634765625,-2.38037109375,0.3021240234375,51.5478515625,-170.00244140625
1760968045.1360354,-0.79736328125,-0.0107421875,0.61328125,-1.03759765625,2.5634765625,-2.38037109375,0.263671875,51.5753173828125,-170.035400390625
1760968045.1456215,-0.79345703125,-0.00732421875,0.61572265625,0.79345703125,2.74658203125,-2.44140625,0.2362060546875,51.602783203125,-170.0628662109375
1760968045.152195,-0.79345703125,-0.00732421875,0.61572265625,0.79345703125,2.74658203125,-2.44140625,0.2142333984375,51.6302490234375,-170.0958251953125
1760968045.1594298,-0.79541015625,0.0,0.6259765625,0.0,3.11279296875,-2.74658203125,0.1812744140625,51.6632080078125,-170.13427734375
1760968045.1745896,-0.79541015625,0.0,0.6259765625,0.0,3.11279296875,-2.74658203125,0.1483154296875,51.690673828125,-170.1727294921875
1760968045.1809225,-0.79541015625,0.0224609375,0.6025390625,-0.3662109375,3.0517578125,-3.173828125,0.10986328125,51.7236328125,-170.211181640625
1760968045.188469,-0.79541015625,0.0224609375,0.6025390625,-0.3662109375,3.0517578125,-3.173828125,0.0714111328125,51.756591796875,-170.255126953125
1760968045.1954,-0.80029296875,0.015625,0.6103515625,0.54931640625,2.99072265625,-3.7841796875,0.0274658203125,51.78955078125,-170.299072265625
1760968045.204585,-0.80029296875,0.015625,0.6103515625,0.54931640625,2.99072265625,-3.7841796875,-0.0054931640625,51.8170166015625,-170.3485107421875
1760968045.2121413,-0.80029296875,0.015625,0.6103515625,2.197265625,3.2958984375,-4.0283203125,-0.032958984375,51.8499755859375,-170.39794921875
1760968045.2202988,-0.794921875,-0.01318359375,0.6259765625,2.197265625,3.2958984375,-4.0283203125,-0.0604248046875,51.888427734375,-170.452880859375
1760968045.2306101,-0.791015625,-0.01318359375,0.6064453125,3.35693359375,3.35693359375,-3.90625,-0.0823974609375,51.92138671875,-170.5078125
1760968045.2382362,-0.791015625,-0.01318359375,0.6064453125,3.35693359375,3.35693359375,-3.90625,-0.098876953125,51.954345703125,-170.562744140625
1760968045.2472808,-0.78564453125,0.00341796875,0.603515625,2.3193359375,2.8076171875,-3.84521484375,-0.1153564453125,51.9873046875,-170.61767578125
1760968045.2549937,-0.78564453125,0.00341796875,0.603515625,2.3193359375,2.8076171875,-3.84521484375,-0.142822265625,52.0147705078125,-170.672607421875
1760968045.2616596,-0.78076171875,-0.01025390625,0.6328125,1.64794921875,2.38037109375,-3.41796875,-0.164794921875,52.042236328125,-170.7220458984375
1760968045.2708442,-0.78076171875,-0.01025390625,0.6328125,1.64794921875,2.38037109375,-3.41796875,-0.1922607421875,52.064208984375,-170.771484375
1760968045.2780542,-0.7802734375,-0.02294921875,0.63720703125,2.86865234375,2.25830078125,-2.9296875,-0.208740234375,52.086181640625,-170.8209228515625
1760968045.284609,-0.7802734375,-0.02294921875,0.63720703125,2.86865234375,2.25830078125,-2.9296875,-0.2197265625,52.108154296875,-170.8648681640625
1760968045.2914004,-0.78515625,-0.0068359375,0.615234375,4.5166015625,2.50244140625,-2.9296875,-0.2252197265625,52.130126953125,-170.9088134765625
1760968045.299189,-0.78515625,-0.0068359375,0.615234375,4.5166015625,2.50244140625,-2.9296875,-0.2197265625,52.152099609375,-170.958251953125
1760968045.3069446,-0.78857421875,-0.0029296875,0.61962890625,3.84521484375,2.50244140625,-2.9296875,-0.2142333984375,52.174072265625,-171.002197265625
1760968045.3151243,-0.78857421875,-0.0029296875,0.61962890625,3.84521484375,2.50244140625,-2.9296875,-0.2142333984375,52.196044921875,-171.0516357421875
1760968045.3230188,-0.78857421875,0.0,0.623046875,1.8310546875,2.50244140625,-2.685546875,-0.2252197265625,52.2235107421875,-171.0955810546875
1760968045.332173,-0.78857421875,0.0,0.623046875,1.8310546875,2.50244140625,-2.685546875,-0.24169921875,52.2454833984375,-171.1395263671875
1760968045.34004,-0.78466796875,-0.00390625,0.6279296875,2.01416015625,2.38037109375,-2.5634765625,-0.2581787109375,52.261962890625,-171.1834716796875
1760968045.346893,-0.78466796875,-0.00390625,0.6279296875,2.01416015625,2.38037109375,-2.5634765625,-0.274658203125,52.283935546875,-171.221923828125
1760968045.3556967,-0.7783203125,-0.0107421875,0.61767578125,3.7841796875,2.3193359375,-2.74658203125,-0.2801513671875,52.305908203125,-171.2713623046875
1760968045.3623538,-0.7783203125,-0.0107421875,0.61767578125,3.7841796875,2.3193359375,-2.74658203125,-0.274658203125,52.3223876953125,-171.3153076171875
1760968045.3691773,-0.77734375,0.0,0.630859375,4.45556640625,2.01416015625,-2.99072265625,-0.274658203125,52.3388671875,-171.36474609375
1760968045.377744,-0.77734375,0.0,0.630859375,4.45556640625,2.01416015625,-2.99072265625,-0.2691650390625,52.3553466796875,-171.419677734375
1760968045.3843095,-0.77587890625,0.00634765625,0.63916015625,3.47900390625,1.708984375,-3.11279296875,-0.2691650390625,52.371826171875,-171.4691162109375
1760968045.390391,-0.77587890625,0.00634765625,0.63916015625,3.47900390625,1.708984375,-3.11279296875,-0.274658203125,52.3828125,-171.5240478515625
1760968045.3993523,-0.79736328125,0.00634765625,0.61181640625,1.40380859375,1.708984375,-3.0517578125,-0.2911376953125,52.393798828125,-171.5789794921875
1760968045.4091794,-0.79736328125,0.00634765625,0.61181640625,1.40380859375,1.708984375,-3.0517578125,-0.3131103515625,52.40478515625,-171.6339111328125
1760968045.4174411,-0.7890625,-0.00048828125,0.607421875,-0.18310546875,1.40380859375,-3.11279296875,-0.3460693359375,52.415771484375,-171.6888427734375
1760968045.426166,-0.7890625,-0.00048828125,0.607421875,-0.18310546875,1.40380859375,-3.11279296875,-0.3900146484375,52.4212646484375,-171.7437744140625
1760968045.4349017,-0.79638671875,-0.01611328125,0.6259765625,-0.48828125,1.708984375,-2.86865234375,-0.428466796875,52.4322509765625,-171.793212890625
1760968045.442715,-0.79638671875,-0.01611328125,0.6259765625,-0.48828125,1.708984375,-2.86865234375,-0.472412109375,52.44873046875,-171.8426513671875
1760968045.4499576,-0.7890625,0.00537109375,0.59033203125,2.25830078125,1.52587890625,-2.86865234375,-0.4998779296875,52.459716796875,-171.89208984375
1760968045.470654,-0.7890625,0.00537109375,0.59033203125,2.25830078125,1.52587890625,-2.86865234375,-0.5108642578125,52.470703125,-171.9415283203125
1760968045.477165,-0.8046875,-0.0126953125,0.61865234375,4.21142578125,1.3427734375,-2.74658203125,-0.5108642578125,52.481689453125,-171.9854736328125
1760968045.486442,-0.8046875,-0.0126953125,0.61865234375,4.21142578125,1.3427734375,-2.74658203125,-0.50537109375,52.49267578125,-172.0294189453125
1760968045.4930286,-0.81201171875,-0.02099609375,0.59814453125,-1.0986328125,1.28173828125,-2.74658203125,-0.52734375,52.503662109375,-172.078857421875
1760968045.501841,-0.81201171875,-0.02099609375,0.59814453125,-1.0986328125,1.28173828125,-2.74658203125,-0.5712890625,52.5146484375,-172.122802734375
1760968045.515128,-0.810546875,-0.005859375,0.58447265625,-1.03759765625,1.40380859375,-2.9296875,-0.6207275390625,52.525634765625,-172.1722412109375
1760968045.5264575,-0.810546875,-0.005859375,0.58447265625,-1.03759765625,1.40380859375,-2.9296875,-0.670166015625,52.5421142578125,-172.2161865234375
1760968045.534538,-0.80859375,-0.0029296875,0.59912109375,-1.46484375,1.3427734375,-2.9296875,-0.7196044921875,52.5531005859375,-172.2601318359375
1760968045.5487506,-0.80859375,-0.0029296875,0.59912109375,-1.46484375,1.3427734375,-2.9296875,-0.7745361328125,52.569580078125,-172.3040771484375
1760968045.5604994,-0.8056640625,-0.01025390625,0.6025390625,-2.5634765625,1.0986328125,-2.74658203125,-0.8294677734375,52.58056640625,-172.3480224609375
1760968045.5753937,-0.8056640625,-0.01025390625,0.6025390625,-2.5634765625,1.0986328125,-2.74658203125,-0.889892578125,52.591552734375,-172.3919677734375
1760968045.584155,-0.81201171875,-0.00634765625,0.57861328125,-2.685546875,1.03759765625,-2.50244140625,-0.94482421875,52.6080322265625,-172.4249267578125
1760968045.6019042,-0.81201171875,-0.00634765625,0.57861328125,-2.685546875,1.03759765625,-2.50244140625,-1.0052490234375,52.6190185546875,-172.46337890625
1760968045.6209323,-0.81787109375,-0.02685546875,0.58447265625,-1.28173828125,1.15966796875,-2.62451171875,-1.0546875,52.635498046875,-172.496337890625
1760968045.6296792,-0.81787109375,-0.02685546875,0.58447265625,-1.28173828125,1.15966796875,-2.62451171875,-1.1041259765625,52.646484375,-172.529296875
1760968045.647359,-0.81591796875,-0.0400390625,0.60400390625,2.25830078125,1.5869140625,-2.5634765625,-1.131591796875,52.66845703125,-172.5677490234375
1760968045.6546738,-0.81591796875,-0.0400390625,0.60400390625,2.25830078125,1.5869140625,-2.5634765625,-1.142578125,52.6849365234375,-172.606201171875
1760968045.6647792,-0.806640625,-0.02197265625,0.587890625,3.173828125,1.708984375,-2.44140625,-1.153564453125,52.7069091796875,-172.6446533203125
1760968045.671211,-0.806640625,-0.02197265625,0.587890625,3.173828125,1.708984375,-2.44140625,-1.1590576171875,52.7288818359375,-172.6776123046875
1760968045.684795,-0.8056640625,-0.0078125,0.60107421875,1.953125,1.46484375,-2.3193359375,-1.16455078125,52.7508544921875,-172.716064453125
1760968045.7095337,-0.8056640625,-0.0078125,0.60107421875,1.953125,1.46484375,-2.3193359375,-1.1810302734375,52.767333984375,-172.7490234375
1760968045.7240374,-0.798828125,-0.00439453125,0.61279296875,0.48828125,1.28173828125,-2.25830078125,-1.197509765625,52.7838134765625,-172.781982421875
1760968045.741982,-0.798828125,-0.00439453125,0.61279296875,0.48828125,1.28173828125,-2.25830078125,-1.2249755859375,52.80029296875,-172.81494140625
1760968045.7548294,-0.80078125,-0.00732421875,0.6015625,-0.54931640625,1.3427734375,-2.25830078125,-1.2579345703125,52.8167724609375,-172.847900390625
1760968045.776822,-0.80078125,-0.00732421875,0.6015625,-0.54931640625,1.3427734375,-2.25830078125,-1.2908935546875,52.833251953125,-172.880859375
1760968045.7886426,-0.79931640625,-0.02587890625,0.6083984375,-0.732421875,1.46484375,-2.25830078125,-1.329345703125,52.8497314453125,-172.913818359375
1760968045.8104985,-0.79931640625,-0.02587890625,0.6083984375,-0.732421875,1.46484375,-2.25830078125,-1.3623046875,52.8662109375,-172.9522705078125
1760968045.8275394,-0.794921875,-0.0302734375,0.61328125,0.0,1.52587890625,-2.25830078125,-1.4007568359375,52.877197265625,-172.9852294921875
1760968045.8407981,-0.794921875,-0.0302734375,0.61328125,0.0,1.52587890625,-2.25830078125,-1.42822265625,52.8936767578125,-173.023681640625
1760968045.8491123,-0.7919921875,-0.01025390625,0.6171875,1.3427734375,1.28173828125,-2.5634765625,-1.4556884765625,52.91015625,-173.067626953125
1760968045.8595598,-0.7919921875,-0.01025390625,0.6171875,1.3427734375,1.28173828125,-2.5634765625,-1.4776611328125,52.921142578125,-173.111572265625
1760968045.8667746,-0.79248046875,-0.0068359375,0.603515625,3.23486328125,1.0986328125,-2.99072265625,-1.494140625,52.93212890625,-173.155517578125
1760968045.8769176,-0.79248046875,-0.0068359375,0.603515625,3.23486328125,1.0986328125,-2.99072265625,-1.4996337890625,52.943115234375,-173.2049560546875
1760968045.884221,-0.80126953125,-0.01123046875,0.60009765625,3.0517578125,0.67138671875,-3.41796875,-1.5106201171875,52.9486083984375,-173.2598876953125
1760968045.8911045,-0.80126953125,-0.01123046875,0.60009765625,3.0517578125,0.67138671875,-3.41796875,-1.5216064453125,52.9541015625,-173.3148193359375
1760968045.9052434,-0.81005859375,-0.01416015625,0.59912109375,1.0986328125,0.67138671875,-3.35693359375,-1.549072265625,52.9595947265625,-173.375244140625
1760968045.9133832,-0.81005859375,-0.01416015625,0.59912109375,1.0986328125,0.67138671875,-3.35693359375,-1.5765380859375,52.965087890625,-173.4246826171875
1760968045.9213393,-0.81787109375,-0.01806640625,0.599609375,0.3662109375,0.91552734375,-3.173828125,-1.614990234375,52.9705810546875,-173.4796142578125
1760968045.92791,-0.81787109375,-0.01806640625,0.599609375,0.3662109375,0.91552734375,-3.173828125,-1.6534423828125,52.9815673828125,-173.529052734375
1760968045.9361668,-0.81396484375,-0.01806640625,0.56982421875,0.79345703125,0.9765625,-3.11279296875,-1.680908203125,52.9925537109375,-173.5784912109375
1760968045.951263,-0.81396484375,-0.01806640625,0.56982421875,0.79345703125,0.9765625,-3.11279296875,-1.7138671875,53.0035400390625,-173.6279296875
1760968045.958628,-0.8076171875,-0.0341796875,0.5830078125,2.50244140625,0.79345703125,-2.9296875,-1.7303466796875,53.0145263671875,-173.6773681640625
1760968045.966824,-0.8076171875,-0.0341796875,0.5830078125,2.50244140625,0.79345703125,-2.9296875,-1.7413330078125,53.02001953125,-173.7213134765625
1760968045.9749184,-0.80126953125,-0.03955078125,0.603515625,4.45556640625,0.6103515625,-2.685546875,-1.73583984375,53.031005859375,-173.7652587890625
1760968045.9821486,-0.80126953125,-0.03955078125,0.603515625,4.45556640625,0.6103515625,-2.685546875,-1.7303466796875,53.0364990234375,-173.8092041015625
1760968045.9897957,-0.80224609375,-0.033203125,0.61083984375,5.31005859375,0.6103515625,-2.3193359375,-1.7083740234375,53.0474853515625,-173.8531494140625
1760968045.9965825,-0.80224609375,-0.033203125,0.61083984375,5.31005859375,0.6103515625,-2.3193359375,-1.69189453125,53.052978515625,-173.8970947265625
1760968046.0092714,-0.8076171875,-0.01318359375,0.5966796875,2.38037109375,0.8544921875,-1.77001953125,-1.6973876953125,53.06396484375,-173.924560546875
1760968046.0159268,-0.8076171875,-0.01318359375,0.5966796875,2.38037109375,0.8544921875,-1.77001953125,-1.6973876953125,53.074951171875,-173.95751953125
1760968046.0222273,-0.80224609375,-0.00537109375,0.59814453125,1.0986328125,0.8544921875,-1.46484375,-1.7083740234375,53.0804443359375,-173.9849853515625
1760968046.0297487,-0.80224609375,-0.00537109375,0.59814453125,1.0986328125,0.8544921875,-1.46484375,-1.7193603515625,53.0914306640625,-174.012451171875
1760968046.0436757,-0.798828125,-0.03466796875,0.60595703125,2.8076171875,0.8544921875,-1.15966796875,-1.7083740234375,53.1024169921875,-174.034423828125
1760968046.050731,-0.798828125,-0.03466796875,0.60595703125,2.8076171875,0.8544921875,-1.15966796875,-1.6973876953125,53.10791015625,-174.056396484375
1760968046.0587852,-0.80224609375,-0.03076171875,0.6005859375,2.86865234375,0.54931640625,-0.9765625,-1.6864013671875,53.118896484375,-174.078369140625
1760968046.065904,-0.80224609375,-0.03076171875,0.6005859375,2.86865234375,0.54931640625,-0.9765625,-1.6754150390625,53.1243896484375,-174.0948486328125
1760968046.072773,-0.80078125,-0.021484375,0.58740234375,2.74658203125,0.54931640625,-0.9765625,-1.6644287109375,53.1298828125,-174.1168212890625
1760968046.0804205,-0.80078125,-0.021484375,0.58740234375,2.74658203125,0.54931640625,-0.9765625,-1.6534423828125,53.1353759765625,-174.13330078125
1760968046.0992827,-0.802734375,-0.00634765625,0.60791015625,0.732421875,0.67138671875,-0.9765625,-1.658935546875,53.140869140625,-174.1552734375
1760968046.1056504,-0.802734375,-0.00634765625,0.60791015625,0.732421875,0.67138671875,-0.9765625,-1.669921875,53.1463623046875,-174.1717529296875
1760968046.1128368,-0.79833984375,-0.01611328125,0.626953125,-0.91552734375,0.91552734375,-0.79345703125,-1.69189453125,53.1573486328125,-174.188232421875
1760968046.1189456,-0.79833984375,-0.01611328125,0.626953125,-0.91552734375,0.91552734375,-0.79345703125,-1.7083740234375,53.162841796875,-174.2047119140625
1760968046.12571,-0.79931640625,-0.01904296875,0.59814453125,-3.0517578125,0.79345703125,-0.67138671875,-1.7523193359375,53.173828125,-174.22119140625
1760968046.142089,-0.79931640625,-0.01904296875,0.59814453125,-3.0517578125,0.79345703125,-0.67138671875,-1.790771484375,53.1793212890625,-174.2376708984375
1760968046.1491125,-0.80126953125,-0.02490234375,0.583984375,-2.685546875,0.67138671875,-0.6103515625,-1.8292236328125,53.184814453125,-174.2486572265625
1760968046.1556945,-0.80126953125,-0.02490234375,0.583984375,-2.685546875,0.67138671875,-0.6103515625,-1.8621826171875,53.1903076171875,-174.2596435546875
1760968046.1632166,-0.7900390625,-0.03564453125,0.61474609375,-1.5869140625,0.67138671875,-0.6103515625,-1.8896484375,53.19580078125,-174.276123046875
1760968046.1778145,-0.7900390625,-0.03564453125,0.61474609375,-1.5869140625,0.67138671875,-0.6103515625,-1.91162109375,53.2012939453125,-174.2926025390625
1760968046.1846597,-0.783203125,-0.0361328125,0.638671875,1.0986328125,0.91552734375,-0.42724609375,-1.91162109375,53.206787109375,-174.3035888671875
1760968046.1917002,-0.783203125,-0.0361328125,0.638671875,1.0986328125,0.91552734375,-0.42724609375,-1.91162109375,53.2122802734375,-174.320068359375
1760968046.198184,-0.783203125,-0.0361328125,0.638671875,0.91552734375,1.03759765625,-0.244140625,-1.9061279296875,53.2177734375,-174.3310546875
1760968046.2054708,-0.78857421875,-0.0146484375,0.61865234375,0.91552734375,1.03759765625,-0.244140625,-1.900634765625,53.2232666015625,-174.3475341796875
1760968046.2201283,-0.79541015625,-0.01025390625,0.61181640625,-2.0751953125,0.9765625,0.0,-1.9281005859375,53.228759765625,-174.3585205078125
1760968046.2267516,-0.79541015625,-0.01025390625,0.61181640625,-2.0751953125,0.9765625,0.0,-1.944580078125,53.2342529296875,-174.364013671875
1760968046.2330744,-0.7958984375,-0.0263671875,0.61328125,-3.84521484375,0.91552734375,0.06103515625,-1.9830322265625,53.23974609375,-174.3695068359375
1760968046.2393646,-0.7958984375,-0.0263671875,0.61328125,-3.84521484375,0.91552734375,0.06103515625,-2.021484375,53.2452392578125,-174.3804931640625
1760968046.245625,-0.7939453125,-0.02880859375,0.6083984375,-0.42724609375,1.03759765625,-0.06103515625,-2.032470703125,53.250732421875,-174.3914794921875
1760968046.2615619,-0.7939453125,-0.02880859375,0.6083984375,-0.42724609375,1.03759765625,-0.06103515625,-2.0379638671875,53.2562255859375,-174.39697265625
1760968046.287377,-0.798828125,-0.02685546875,0.59716796875,2.99072265625,1.15966796875,-0.244140625,-2.010498046875,53.26171875,-174.4134521484375
1760968046.3384354,-0.798828125,-0.02685546875,0.59716796875,2.99072265625,1.15966796875,-0.244140625,-1.988525390625,53.2672119140625,-174.4244384765625
1760968046.3460429,-0.8056640625,-0.013671875,0.595703125,2.685546875,1.220703125,-0.30517578125,-1.966552734375,53.2781982421875,-174.44091796875
1760968046.3535552,-0.8056640625,-0.013671875,0.595703125,2.685546875,1.220703125,-0.30517578125,-1.944580078125,53.28369140625,-174.451904296875
1760968046.359534,-0.798828125,-0.02197265625,0.62109375,3.47900390625,1.3427734375,-0.48828125,-1.9171142578125,53.294677734375,-174.4683837890625
1760968046.3664458,-0.798828125,-0.02197265625,0.62109375,3.47900390625,1.3427734375,-0.48828125,-1.8896484375,53.3056640625,-174.4793701171875
1760968046.3739047,-0.79931640625,-0.02099609375,0.60888671875,4.8828125,1.52587890625,-0.732421875,-1.856689453125,53.316650390625,-174.5013427734375
1760968046.380535,-0.79931640625,-0.02099609375,0.60888671875,4.8828125,1.52587890625,-0.732421875,-1.8182373046875,53.32763671875,-174.517822265625
1760968046.386849,-0.80517578125,-0.00927734375,0.56982421875,4.8828125,1.40380859375,-1.03759765625,-1.7852783203125,53.338623046875,-174.5452880859375
1760968046.3936393,-0.80517578125,-0.00927734375,0.56982421875,4.8828125,1.40380859375,-1.03759765625,-1.7523193359375,53.349609375,-174.5672607421875
1760968046.4004912,-0.814453125,-0.02587890625,0.578125,4.638671875,0.8544921875,-0.9765625,-1.7193603515625,53.3551025390625,-174.583740234375
1760968046.4139464,-0.814453125,-0.02587890625,0.578125,4.638671875,0.8544921875,-0.9765625,-1.6864013671875,53.360595703125,-174.605712890625
1760968046.427198,-0.810546875,-0.03271484375,0.59375,2.86865234375,0.6103515625,-0.54931640625,-1.669921875,53.37158203125,-174.6221923828125
1760968046.4438963,-0.810546875,-0.03271484375,0.59375,2.86865234375,0.6103515625,-0.54931640625,-1.6534423828125,53.3770751953125,-174.6331787109375
1760968046.4602988,-0.8095703125,-0.015625,0.5888671875,-0.1220703125,0.54931640625,0.0,-1.658935546875,53.382568359375,-174.638671875
1760968046.4777377,-0.8095703125,-0.015625,0.5888671875,-0.1220703125,0.54931640625,0.0,-1.658935546875,53.3880615234375,-174.6441650390625
1760968046.5060842,-0.80322265625,-0.01123046875,0.599609375,-2.197265625,0.42724609375,0.54931640625,-1.6754150390625,53.3935546875,-174.638671875
1760968046.51415,-0.80322265625,-0.01123046875,0.599609375,-2.197265625,0.42724609375,0.54931640625,-1.69189453125,53.3990478515625,-174.6331787109375
1760968046.538915,-0.80224609375,-0.0302734375,0.60791015625,-3.23486328125,0.30517578125,0.9765625,-1.7138671875,53.3990478515625,-174.61669921875
1760968046.558955,-0.80224609375,-0.0302734375,0.60791015625,-3.23486328125,0.30517578125,0.9765625,-1.73583984375,53.404541015625,-174.605712890625
1760968046.5775952,-0.79248046875,-0.0361328125,0.60546875,-1.15966796875,0.06103515625,1.15966796875,-1.73583984375,53.404541015625,-174.5947265625
1760968046.584318,-0.79248046875,-0.0361328125,0.60546875,-1.15966796875,0.06103515625,1.15966796875,-1.73583984375,53.404541015625,-174.583740234375
1760968046.591312,-0.798828125,-0.02734375,0.60107421875,1.708984375,0.1220703125,1.03759765625,-1.7083740234375,53.404541015625,-174.5782470703125
1760968046.6266184,-0.798828125,-0.02734375,0.60107421875,1.708984375,0.1220703125,1.03759765625,-1.680908203125,53.404541015625,-174.5672607421875
1760968046.6603105,-0.8095703125,-0.00927734375,0.5810546875,0.30517578125,0.54931640625,0.91552734375,-1.669921875,53.4100341796875,-174.561767578125
1760968046.6760526,-0.8095703125,-0.00927734375,0.5810546875,0.30517578125,0.54931640625,0.91552734375,-1.6534423828125,53.41552734375,-174.55078125
1760968046.7115405,-0.8046875,0.0029296875,0.63037109375,-0.79345703125,0.54931640625,0.67138671875,-1.6534423828125,53.4210205078125,-174.5452880859375
1760968046.734473,-0.8046875,0.0029296875,0.63037109375,-0.79345703125,0.54931640625,0.67138671875,-1.6534423828125,53.4210205078125,-174.539794921875
1760968046.75528,-0.796875,-0.0107421875,0.603515625,-4.82177734375,0.732421875,0.732421875,-1.69189453125,53.426513671875,-174.5343017578125
1760968046.7679095,-0.796875,-0.0107421875,0.603515625,-4.82177734375,0.732421875,0.732421875,-1.7303466796875,53.4320068359375,-174.52880859375
1760968046.7766361,-0.7841796875,-0.00341796875,0.599609375,-4.5166015625,0.54931640625,0.42724609375,-1.768798828125,53.4375,-174.5233154296875
1760968046.8086598,-0.7841796875,-0.00341796875,0.599609375,-4.5166015625,0.54931640625,0.42724609375,-1.8072509765625,53.4375,-174.5233154296875
1760968046.8311095,-0.79345703125,-0.03173828125,0.61865234375,-2.50244140625,0.6103515625,0.30517578125,-1.82373046875,53.4429931640625,-174.5233154296875
1760968046.8680663,-0.79345703125,-0.03173828125,0.61865234375,-2.50244140625,0.6103515625,0.30517578125,-1.845703125,53.4429931640625,-174.5233154296875
1760968046.8802552,-0.79443359375,-0.0341796875,0.62353515625,-6.28662109375,0.54931640625,0.42724609375,-1.900634765625,53.448486328125,-174.5233154296875
1760968046.9102068,-0.79443359375,-0.0341796875,0.62353515625,-6.28662109375,0.54931640625,0.42724609375,-1.95556640625,53.448486328125,-174.52880859375
1760968046.9190094,-0.79052734375,-0.01611328125,0.60400390625,-5.859375,0.6103515625,0.6103515625,-2.010498046875,53.448486328125,-174.52880859375
1760968046.9308705,-0.79052734375,-0.01611328125,0.60400390625,-5.859375,0.6103515625,0.6103515625,-2.0599365234375,53.448486328125,-174.5233154296875
1760968046.9389305,-0.79541015625,-0.02197265625,0.6201171875,-5.18798828125,0.54931640625,0.8544921875,-2.098388671875,53.448486328125,-174.517822265625
1760968046.9461899,-0.79541015625,-0.02197265625,0.6201171875,-5.18798828125,0.54931640625,0.8544921875,-2.1368408203125,53.448486328125,-174.5123291015625
1760968046.9838226,-0.80517578125,-0.02685546875,0.60400390625,-8.30078125,0.54931640625,1.15966796875,-2.2027587890625,53.448486328125,-174.5013427734375
1760968046.9960833,-0.80517578125,-0.02685546875,0.60400390625,-8.30078125,0.54931640625,1.15966796875,-2.2686767578125,53.4539794921875,-174.4903564453125
1760968047.0237772,-0.8212890625,-0.01953125,0.5703125,-10.19287109375,0.42724609375,1.46484375,-2.35107421875,53.4539794921875,-174.473876953125
1760968047.0536664,-0.8212890625,-0.01953125,0.5703125,-10.19287109375,0.42724609375,1.46484375,-2.427978515625,53.4539794921875,-174.451904296875
1760968047.0628855,-0.83544921875,-0.0302734375,0.56494140625,-8.9111328125,0.67138671875,1.5869140625,-2.493896484375,53.45947265625,-174.429931640625
1760968047.097565,-0.83544921875,-0.0302734375,0.56494140625,-8.9111328125,0.67138671875,1.5869140625,-2.559814453125,53.470458984375,-174.407958984375
1760968047.105206,-0.8291015625,-0.0498046875,0.56787109375,-5.615234375,0.9765625,1.708984375,-2.5927734375,53.4814453125,-174.3804931640625
1760968047.1154647,-0.8291015625,-0.0498046875,0.56787109375,-5.615234375,0.9765625,1.708984375,-2.625732421875,53.492431640625,-174.35302734375
1760968047.1297953,-0.83203125,-0.0498046875,0.54638671875,-3.0517578125,1.220703125,1.89208984375,-2.6312255859375,53.5089111328125,-174.3255615234375
1760968047.1408927,-0.83203125,-0.0498046875,0.54638671875,-3.0517578125,1.220703125,1.89208984375,-2.6422119140625,53.5308837890625,-174.2926025390625
1760968047.1769335,-0.82373046875,-0.0380859375,0.57080078125,-1.64794921875,1.3427734375,2.197265625,-2.6312255859375,53.5528564453125,-174.254150390625
1760968047.1871786,-0.82373046875,-0.0380859375,0.57080078125,-1.64794921875,1.3427734375,2.197265625,-2.625732421875,53.5693359375,-174.22119140625
1760968047.2016265,-0.8193359375,-0.02294921875,0.59375,-0.79345703125,1.28173828125,2.13623046875,-2.6092529296875,53.59130859375,-174.1827392578125
1760968047.2099135,-0.8193359375,-0.02294921875,0.59375,-0.79345703125,1.28173828125,2.13623046875,-2.5872802734375,53.6077880859375,-174.144287109375
1760968047.2288585,-0.8251953125,-0.01025390625,0.58056640625,-2.86865234375,1.28173828125,2.197265625,-2.5927734375,53.6297607421875,-174.111328125
1760968047.2423506,-0.8251953125,-0.01025390625,0.58056640625,-2.86865234375,1.28173828125,2.197265625,-2.5927734375,53.646240234375,-174.0673828125
1760968047.2623956,-0.82080078125,-0.01904296875,0.57958984375,-5.06591796875,1.28173828125,2.13623046875,-2.61474609375,53.668212890625,-174.0289306640625
1760968047.2736146,-0.82080078125,-0.01904296875,0.57958984375,-5.06591796875,1.28173828125,2.13623046875,-2.63671875,53.6846923828125,-173.990478515625
1760968047.2827692,-0.8193359375,-0.0341796875,0.58740234375,-4.5166015625,1.40380859375,2.01416015625,-2.6531982421875,53.7066650390625,-173.9520263671875
1760968047.295072,-0.81201171875,-0.03271484375,0.5791015625,-3.5400390625,1.5869140625,1.77001953125,-2.669677734375,53.7286376953125,-173.91357421875
1760968047.3015954,-0.81201171875,-0.03271484375,0.5791015625,-3.5400390625,1.5869140625,1.77001953125,-2.6806640625,53.7506103515625,-173.880615234375
1760968047.309661,-0.810546875,-0.0380859375,0.5869140625,-0.54931640625,1.5869140625,1.46484375,-2.6806640625,53.7725830078125,-173.8531494140625
1760968047.3163676,-0.810546875,-0.0380859375,0.5869140625,-0.54931640625,1.5869140625,1.46484375,-2.669677734375,53.7890625,-173.82568359375
1760968047.3234055,-0.810546875,-0.03076171875,0.5927734375,0.18310546875,1.46484375,1.15966796875,-2.65869140625,53.81103515625,-173.8037109375
1760968047.3307097,-0.810546875,-0.03076171875,0.5927734375,0.18310546875,1.46484375,1.15966796875,-2.6422119140625,53.8275146484375,-173.7872314453125
1760968047.3387165,-0.81396484375,-0.021484375,0.59033203125,-1.03759765625,1.3427734375,1.03759765625,-2.6312255859375,53.843994140625,-173.770751953125
1760968047.34644,-0.81396484375,-0.021484375,0.59033203125,-1.03759765625,1.3427734375,1.03759765625,-2.6312255859375,53.8604736328125,-173.7542724609375
1760968047.3544884,-0.81689453125,-0.01513671875,0.583984375,-2.197265625,1.52587890625,1.0986328125,-2.63671875,53.8824462890625,-173.73779296875
1760968047.3621056,-0.81689453125,-0.01513671875,0.583984375,-2.197265625,1.52587890625,1.0986328125,-2.6422119140625,53.89892578125,-173.7158203125
1760968047.3723283,-0.8212890625,-0.0185546875,0.58349609375,-3.84521484375,1.64794921875,0.9765625,-2.65869140625,53.9154052734375,-173.6993408203125
1760968047.3812075,-0.8212890625,-0.0185546875,0.58349609375,-3.84521484375,1.64794921875,0.9765625,-2.6861572265625,53.9373779296875,-173.682861328125
1760968047.3914952,-0.81787109375,-0.029296875,0.595703125,-5.55419921875,1.77001953125,1.03759765625,-2.713623046875,53.953857421875,-173.660888671875
1760968047.4006257,-0.81787109375,-0.029296875,0.595703125,-5.55419921875,1.77001953125,1.03759765625,-2.757568359375,53.975830078125,-173.6444091796875
1760968047.4077575,-0.8115234375,-0.04541015625,0.5810546875,-6.16455078125,1.708984375,0.8544921875,-2.801513671875,53.997802734375,-173.6279296875
1760968047.4161594,-0.8115234375,-0.04541015625,0.5810546875,-6.16455078125,1.708984375,0.8544921875,-2.8509521484375,54.0142822265625,-173.616943359375
1760968047.4240935,-0.80859375,-0.0341796875,0.568359375,-4.0283203125,1.40380859375,0.79345703125,-2.8948974609375,54.03076171875,-173.6004638671875
1760968047.4326887,-0.80859375,-0.0341796875,0.568359375,-4.0283203125,1.40380859375,0.79345703125,-2.92236328125,54.0472412109375,-173.5894775390625
1760968047.4403238,-0.810546875,-0.0322265625,0.59130859375,-2.25830078125,1.3427734375,0.6103515625,-2.9443359375,54.063720703125,-173.5784912109375
1760968047.4490428,-0.810546875,-0.0322265625,0.59130859375,-2.25830078125,1.3427734375,0.6103515625,-2.9608154296875,54.0802001953125,-173.5675048828125
1760968047.4573405,-0.80712890625,-0.02783203125,0.60546875,-3.173828125,1.28173828125,0.732421875,-2.9827880859375,54.0966796875,-173.5565185546875
1760968047.4647377,-0.80712890625,-0.02783203125,0.60546875,-3.173828125,1.28173828125,0.732421875,-3.0047607421875,54.107666015625,-173.551025390625
1760968047.471891,-0.8125,-0.02685546875,0.59375,-4.638671875,1.3427734375,0.91552734375,-3.0322265625,54.11865234375,-173.5345458984375
1760968047.4801016,-0.8125,-0.02685546875,0.59375,-4.638671875,1.3427734375,0.91552734375,-3.065185546875,54.1351318359375,-173.5235595703125
1760968047.4870617,-0.81103515625,-0.02734375,0.58642578125,-6.04248046875,1.220703125,0.8544921875,-3.1036376953125,54.1461181640625,-173.5125732421875
1760968047.4940789,-0.81103515625,-0.02734375,0.58642578125,-6.04248046875,1.220703125,0.8544921875,-3.153076171875,54.1571044921875,-173.49609375
1760968047.503148,-0.810546875,-0.03564453125,0.578125,-4.94384765625,0.91552734375,0.6103515625,-3.197021484375,54.1680908203125,-173.485107421875
1760968047.5097103,-0.810546875,-0.03564453125,0.578125,-4.94384765625,0.91552734375,0.6103515625,-3.2354736328125,54.1790771484375,-173.47412109375
1760968047.5181236,-0.810546875,-0.04443359375,0.58837890625,-3.90625,0.732421875,0.54931640625,-3.2684326171875,54.1845703125,-173.4686279296875
1760968047.525909,-0.810546875,-0.04443359375,0.58837890625,-3.90625,0.732421875,0.54931640625,-3.3013916015625,54.195556640625,-173.463134765625
1760968047.5359366,-0.8154296875,-0.03515625,0.58544921875,-4.0283203125,0.91552734375,0.3662109375,-3.3343505859375,54.2010498046875,-173.4576416015625
1760968047.543948,-0.8154296875,-0.03515625,0.58544921875,-4.0283203125,0.91552734375,0.3662109375,-3.372802734375,54.2120361328125,-173.4521484375
1760968047.551608,-0.81884765625,-0.025390625,0.58251953125,-3.84521484375,0.9765625,0.30517578125,-3.40576171875,54.217529296875,-173.4466552734375
1760968047.559961,-0.81884765625,-0.025390625,0.58251953125,-3.84521484375,0.9765625,0.30517578125,-3.438720703125,54.228515625,-173.441162109375
1760968047.567808,-0.81298828125,-0.03662109375,0.58544921875,-4.45556640625,1.03759765625,0.30517578125,-3.4771728515625,54.239501953125,-173.4356689453125
1760968047.5782566,-0.81298828125,-0.03662109375,0.58544921875,-4.45556640625,1.03759765625,0.30517578125,-3.515625,54.25048828125,-173.43017578125
1760968047.585804,-0.80615234375,-0.041015625,0.5927734375,-4.08935546875,0.79345703125,0.1220703125,-3.5540771484375,54.2559814453125,-173.43017578125
1760968047.5927434,-0.80615234375,-0.041015625,0.5927734375,-4.08935546875,0.79345703125,0.1220703125,-3.592529296875,54.2669677734375,-173.43017578125
1760968047.6020596,-0.8076171875,-0.0380859375,0.58642578125,-3.60107421875,0.67138671875,0.0,-3.62548828125,54.2724609375,-173.43017578125
1760968047.616863,-0.8076171875,-0.0380859375,0.58642578125,-3.60107421875,0.67138671875,0.0,-3.6639404296875,54.2779541015625,-173.43017578125
1760968047.6284773,-0.81103515625,-0.0361328125,0.5869140625,-3.35693359375,0.42724609375,-0.18310546875,-3.6968994140625,54.2779541015625,-173.4356689453125
1760968047.6371908,-0.81103515625,-0.0361328125,0.5869140625,-3.35693359375,0.42724609375,-0.18310546875,-3.7298583984375,54.283447265625,-173.4356689453125
1760968047.644355,-0.814453125,-0.04296875,0.58984375,-3.41796875,0.42724609375,-0.244140625,-3.768310546875,54.283447265625,-173.441162109375
1760968047.659623,-0.814453125,-0.04296875,0.58984375,-3.41796875,0.42724609375,-0.244140625,-3.80126953125,54.2889404296875,-173.4466552734375
1760968047.6663063,-0.81396484375,-0.03759765625,0.5751953125,-3.23486328125,0.42724609375,-0.30517578125,-3.8397216796875,54.2889404296875,-173.4521484375
1760968047.6732516,-0.81396484375,-0.03759765625,0.5751953125,-3.23486328125,0.42724609375,-0.30517578125,-3.8726806640625,54.29443359375,-173.4576416015625
1760968047.6800675,-0.81494140625,-0.0380859375,0.58984375,-2.01416015625,0.48828125,-0.42724609375,-3.9056396484375,54.2999267578125,-173.463134765625
1760968047.6985705,-0.81494140625,-0.0380859375,0.58984375,-2.01416015625,0.48828125,-0.42724609375,-3.9276123046875,54.2999267578125,-173.47412109375
1760968047.7068703,-0.8173828125,-0.048828125,0.5830078125,-2.3193359375,0.54931640625,-0.48828125,-3.955078125,54.305419921875,-173.4796142578125
1760968047.7158833,-0.8173828125,-0.048828125,0.5830078125,-2.3193359375,0.54931640625,-0.48828125,-3.9825439453125,54.3109130859375,-173.4906005859375
1760968047.7236261,-0.81494140625,-0.04638671875,0.57177734375,0.06103515625,0.54931640625,-0.67138671875,-4.0045166015625,54.31640625,-173.5015869140625
1760968047.731418,-0.81494140625,-0.04638671875,0.57177734375,0.06103515625,0.54931640625,-0.67138671875,-4.010009765625,54.31640625,-173.5125732421875
1760968047.7488976,-0.82177734375,-0.048828125,0.57080078125,1.40380859375,0.42724609375,-0.79345703125,-4.0155029296875,54.3218994140625,-173.5235595703125
1760968047.7564032,-0.82177734375,-0.048828125,0.57080078125,1.40380859375,0.42724609375,-0.79345703125,-4.0155029296875,54.327392578125,-173.5400390625
1760968047.7638662,-0.826171875,-0.04052734375,0.57080078125,-0.30517578125,0.54931640625,-0.79345703125,-4.02099609375,54.3328857421875,-173.551025390625
1760968047.77326,-0.826171875,-0.04052734375,0.57080078125,-0.30517578125,0.54931640625,-0.79345703125,-4.0374755859375,54.33837890625,-173.56201171875
1760968047.7906463,-0.822265625,-0.03515625,0.5751953125,-0.30517578125,0.67138671875,-0.8544921875,-4.0484619140625,54.3438720703125,-173.572998046875
1760968047.7977443,-0.822265625,-0.03515625,0.5751953125,-0.30517578125,0.67138671875,-0.8544921875,-4.06494140625,54.3548583984375,-173.583984375
1760968047.807287,-0.822265625,-0.03515625,0.5751953125,0.0,0.732421875,-0.67138671875,-4.0814208984375,54.3603515625,-173.594970703125
1760968047.8140845,-0.8203125,-0.04736328125,0.580078125,0.0,0.732421875,-0.67138671875,-4.0869140625,54.371337890625,-173.60595703125
1760968047.820724,-0.81884765625,-0.04638671875,0.5732421875,0.244140625,0.79345703125,-0.732421875,-4.097900390625,54.38232421875,-173.616943359375
1760968047.8363855,-0.81884765625,-0.04638671875,0.5732421875,0.244140625,0.79345703125,-0.732421875,-4.10888671875,54.3878173828125,-173.6279296875
1760968047.8444083,-0.8115234375,-0.04541015625,0.576171875,3.0517578125,0.6103515625,-1.0986328125,-4.1033935546875,54.3988037109375,-173.638916015625
1760968047.8523135,-0.8115234375,-0.04541015625,0.576171875,3.0517578125,0.6103515625,-1.0986328125,-4.0924072265625,54.404296875,-173.660888671875
1760968047.8677497,-0.80810546875,-0.04638671875,0.57666015625,3.23486328125,0.54931640625,-1.28173828125,-4.0814208984375,54.4097900390625,-173.6773681640625
1760968047.878502,-0.80810546875,-0.04638671875,0.57666015625,3.23486328125,0.54931640625,-1.28173828125,-4.06494140625,54.415283203125,-173.6993408203125
1760968047.8856595,-0.8046875,-0.0498046875,0.60107421875,4.94384765625,0.48828125,-1.28173828125,-4.0484619140625,54.4207763671875,-173.7213134765625
1760968047.893518,-0.8046875,-0.0498046875,0.60107421875,4.94384765625,0.48828125,-1.28173828125,-4.0155029296875,54.42626953125,-173.748779296875
1760968047.910892,-0.80224609375,-0.0400390625,0.59423828125,5.31005859375,0.42724609375,-1.15966796875,-3.988037109375,54.4317626953125,-173.770751953125
1760968047.9180944,-0.80224609375,-0.0400390625,0.59423828125,5.31005859375,0.42724609375,-1.15966796875,-3.9495849609375,54.4317626953125,-173.792724609375
1760968047.92519,-0.79931640625,-0.0419921875,0.6083984375,4.21142578125,0.30517578125,-0.91552734375,-3.922119140625,54.4317626953125,-173.814697265625
1760968047.9390972,-0.79931640625,-0.0419921875,0.6083984375,4.21142578125,0.30517578125,-0.91552734375,-3.8946533203125,54.4317626953125,-173.836669921875
1760968047.9548845,-0.79736328125,-0.044921875,0.60400390625,3.96728515625,0.30517578125,-0.8544921875,-3.8671875,54.4317626953125,-173.858642578125
1760968047.9638896,-0.79736328125,-0.044921875,0.60400390625,3.96728515625,0.30517578125,-0.8544921875,-3.84521484375,54.4317626953125,-173.8751220703125
1760968047.9710388,-0.794921875,-0.04296875,0.58935546875,6.28662109375,0.0,-1.03759765625,-3.8067626953125,54.42626953125,-173.902587890625
1760968047.9782708,-0.794921875,-0.04296875,0.58935546875,6.28662109375,0.0,-1.03759765625,-3.7628173828125,54.4207763671875,-173.924560546875
1760968047.9941173,-0.79736328125,-0.05322265625,0.60009765625,7.8125,-0.06103515625,-1.220703125,-3.7078857421875,54.415283203125,-173.95751953125
1760968048.0017385,-0.79736328125,-0.05322265625,0.60009765625,7.8125,-0.06103515625,-1.220703125,-3.6529541015625,54.4097900390625,-173.9849853515625
1760968048.009593,-0.8017578125,-0.0380859375,0.6005859375,8.544921875,-0.3662109375,-1.3427734375,-3.592529296875,54.404296875,-174.0179443359375
1760968048.0164485,-0.8017578125,-0.0380859375,0.6005859375,8.544921875,-0.3662109375,-1.3427734375,-3.5321044921875,54.393310546875,-174.0509033203125
1760968048.0242023,-0.8115234375,-0.02880859375,0.58154296875,6.28662109375,-0.3662109375,-1.0986328125,-3.4771728515625,54.38232421875,-174.078369140625
1760968048.0403645,-0.8115234375,-0.02880859375,0.58154296875,6.28662109375,-0.3662109375,-1.0986328125,-3.4332275390625,54.371337890625,-174.1058349609375
1760968048.0498857,-0.80859375,-0.01708984375,0.5810546875,4.94384765625,-0.42724609375,-1.220703125,-3.4002685546875,54.3603515625,-174.13330078125
1760968048.0587103,-0.80859375,-0.01708984375,0.5810546875,4.94384765625,-0.42724609375,-1.220703125,-3.3673095703125,54.3548583984375,-174.1607666015625
1760968048.0658116,-0.78466796875,-0.02685546875,0.6171875,7.9345703125,-0.67138671875,-1.03759765625,-3.31787109375,54.3438720703125,-174.188232421875
1760968048.0723915,-0.78466796875,-0.02685546875,0.6171875,7.9345703125,-0.67138671875,-1.03759765625,-3.2574462890625,54.3328857421875,-174.210205078125
1760968048.0862846,-0.78759765625,-0.0576171875,0.6201171875,6.40869140625,-0.6103515625,-0.6103515625,-3.197021484375,54.31640625,-174.232177734375
1760968048.093181,-0.78759765625,-0.0576171875,0.6201171875,6.40869140625,-0.6103515625,-0.6103515625,-3.14208984375,54.305419921875,-174.254150390625
1760968048.1002991,-0.78662109375,-0.02685546875,0.6181640625,3.23486328125,-0.48828125,-0.54931640625,-3.1036376953125,54.29443359375,-174.276123046875
1760968048.1070774,-0.78662109375,-0.02685546875,0.6181640625,3.23486328125,-0.48828125,-0.54931640625,-3.0816650390625,54.2779541015625,-174.298095703125
1760968048.1146848,-0.791015625,-0.01220703125,0.6220703125,0.8544921875,-0.54931640625,-0.54931640625,-3.0706787109375,54.2669677734375,-174.320068359375
1760968048.1286352,-0.791015625,-0.01220703125,0.6220703125,0.8544921875,-0.54931640625,-0.54931640625,-3.0706787109375,54.25048828125,-174.342041015625
1760968048.1367328,-0.79443359375,-0.0107421875,0.6240234375,-2.99072265625,-0.8544921875,-0.732421875,-3.0926513671875,54.2340087890625,-174.364013671875
1760968048.143975,-0.79443359375,-0.0107421875,0.6240234375,-2.99072265625,-0.8544921875,-0.732421875,-3.131103515625,54.2120361328125,-174.385986328125
1760968048.1503925,-0.81201171875,-0.02099609375,0.58642578125,-6.2255859375,-1.0986328125,-1.03759765625,-3.18603515625,54.1900634765625,-174.407958984375
1760968048.167575,-0.81201171875,-0.02099609375,0.58642578125,-6.2255859375,-1.0986328125,-1.03759765625,-3.2574462890625,54.173583984375,-174.4354248046875
1760968048.1742914,-0.8046875,-0.033203125,0.5546875,-4.21142578125,-1.708984375,-1.5869140625,-3.3233642578125,54.151611328125,-174.462890625
1760968048.1810012,-0.8046875,-0.033203125,0.5546875,-4.21142578125,-1.708984375,-1.5869140625,-3.3782958984375,54.1241455078125,-174.495849609375
1760968048.1881182,-0.8017578125,-0.05908203125,0.578125,0.48828125,-1.64794921875,-2.01416015625,-3.416748046875,54.1021728515625,-174.52880859375
1760968048.2034183,-0.8017578125,-0.05908203125,0.578125,0.48828125,-1.64794921875,-2.01416015625,-3.438720703125,54.0802001953125,-174.5672607421875
1760968048.212162,-0.83203125,-0.0439453125,0.6025390625,2.99072265625,-1.28173828125,-2.197265625,-3.4332275390625,54.063720703125,-174.605712890625
1760968048.2197678,-0.83203125,-0.0439453125,0.6025390625,2.99072265625,-1.28173828125,-2.197265625,-3.4332275390625,54.0472412109375,-174.6441650390625
1760968048.2277875,-0.83056640625,-0.01806640625,0.55712890625,-2.74658203125,-1.03759765625,-2.685546875,-3.49365234375,54.03076171875,-174.693603515625
1760968048.235202,-0.83056640625,-0.01806640625,0.55712890625,-2.74658203125,-1.03759765625,-2.685546875,-3.5540771484375,54.019775390625,-174.7320556640625
1760968048.2507863,-0.83984375,-0.0390625,0.544921875,-3.7841796875,-0.67138671875,-2.50244140625,-3.62548828125,54.0142822265625,-174.7705078125
1760968048.258676,-0.83984375,-0.0390625,0.544921875,-3.7841796875,-0.67138671875,-2.50244140625,-3.69140625,54.0087890625,-174.8089599609375
1760968048.2676985,-0.8330078125,-0.06201171875,0.568359375,0.732421875,-0.6103515625,-2.8076171875,-3.724365234375,54.0032958984375,-174.847412109375
1760968048.27464,-0.8330078125,-0.06201171875,0.568359375,0.732421875,-0.6103515625,-2.8076171875,-3.7518310546875,53.997802734375,-174.891357421875
1760968048.2809393,-0.8447265625,-0.05859375,0.54833984375,1.953125,-0.42724609375,-2.86865234375,-3.7738037109375,53.997802734375,-174.935302734375
1760968048.2998106,-0.8447265625,-0.05859375,0.54833984375,1.953125,-0.42724609375,-2.86865234375,-3.7957763671875,53.997802734375,-174.9737548828125
1760968048.3063838,-0.841796875,-0.0322265625,0.5419921875,7.6904296875,-0.42724609375,-2.99072265625,-3.7628173828125,53.997802734375,-175.0177001953125
1760968048.312844,-0.841796875,-0.0322265625,0.5419921875,7.6904296875,-0.42724609375,-2.99072265625,-3.7298583984375,54.0032958984375,-175.0616455078125
1760968048.3196867,-0.84326171875,-0.05419921875,0.5537109375,8.23974609375,-0.18310546875,-2.8076171875,-3.6859130859375,54.0087890625,-175.10009765625
1760968048.3333547,-0.84326171875,-0.05419921875,0.5537109375,8.23974609375,-0.18310546875,-2.8076171875,-3.6474609375,54.0142822265625,-175.1385498046875
1760968048.3398168,-0.84765625,-0.03662109375,0.56201171875,4.94384765625,0.18310546875,-2.44140625,-3.636474609375,54.0252685546875,-175.1715087890625
1760968048.347064,-0.84765625,-0.03662109375,0.56201171875,4.94384765625,0.18310546875,-2.44140625,-3.62548828125,54.0362548828125,-175.2044677734375
1760968048.353673,-0.849609375,-0.025390625,0.56201171875,2.01416015625,0.48828125,-2.3193359375,-3.6419677734375,54.052734375,-175.23193359375
1760968048.360635,-0.849609375,-0.025390625,0.56201171875,2.01416015625,0.48828125,-2.3193359375,-3.6529541015625,54.063720703125,-175.2593994140625
1760968048.3675892,-0.84423828125,-0.03955078125,0.54248046875,1.3427734375,0.67138671875,-2.01416015625,-3.66943359375,54.0802001953125,-175.2813720703125
1760968048.3814328,-0.84423828125,-0.03955078125,0.54248046875,1.3427734375,0.67138671875,-2.01416015625,-3.6859130859375,54.1021728515625,-175.3033447265625
1760968048.3879564,-0.8359375,-0.06640625,0.5498046875,2.685546875,1.0986328125,-1.708984375,-3.6859130859375,54.1241455078125,-175.3253173828125
1760968048.3956516,-0.8359375,-0.06640625,0.5498046875,2.685546875,1.0986328125,-1.708984375,-3.69140625,54.1461181640625,-175.341796875
1760968048.4028068,-0.83642578125,-0.0478515625,0.57421875,2.197265625,1.52587890625,-1.03759765625,-3.69140625,54.173583984375,-175.352783203125
1760968048.4088275,-0.83642578125,-0.0478515625,0.57421875,2.197265625,1.52587890625,-1.03759765625,-3.69140625,54.195556640625,-175.36376953125
1760968048.4152417,-0.83251953125,-0.0234375,0.57861328125,-0.3662109375,1.8310546875,-0.54931640625,-3.7078857421875,54.228515625,-175.3692626953125
1760968048.4286115,-0.83251953125,-0.0234375,0.57861328125,-0.3662109375,1.8310546875,-0.54931640625,-3.724365234375,54.2559814453125,-175.3692626953125
1760968048.435243,-0.82763671875,-0.03955078125,0.5751953125,-2.25830078125,1.953125,-0.30517578125,-3.7518310546875,54.283447265625,-175.36376953125
1760968048.4418306,-0.82763671875,-0.03955078125,0.5751953125,-2.25830078125,1.953125,-0.30517578125,-3.7847900390625,54.3109130859375,-175.36376953125
1760968048.4486058,-0.818359375,-0.05810546875,0.55859375,-1.40380859375,2.01416015625,0.0,-3.80126953125,54.33837890625,-175.3582763671875
1760968048.4557905,-0.818359375,-0.05810546875,0.55859375,-1.40380859375,2.01416015625,0.0,-3.8232421875,54.371337890625,-175.3582763671875
1760968048.462019,-0.81689453125,-0.048828125,0.56884765625,1.5869140625,1.8310546875,0.0,-3.812255859375,54.393310546875,-175.352783203125
1760968048.4757204,-0.81689453125,-0.048828125,0.56884765625,1.5869140625,1.8310546875,0.0,-3.80126953125,54.4207763671875,-175.352783203125
1760968048.4821308,-0.8056640625,-0.044921875,0.59228515625,1.40380859375,1.77001953125,0.1220703125,-3.790283203125,54.4427490234375,-175.352783203125
1760968048.4892416,-0.8056640625,-0.044921875,0.59228515625,1.40380859375,1.77001953125,0.1220703125,-3.779296875,54.4647216796875,-175.352783203125
1760968048.4955504,-0.80712890625,-0.04345703125,0.6064453125,0.6103515625,1.64794921875,0.67138671875,-3.7738037109375,54.4866943359375,-175.341796875
1760968048.5018647,-0.80712890625,-0.04345703125,0.6064453125,0.6103515625,1.64794921875,0.67138671875,-3.7628173828125,54.5086669921875,-175.3363037109375
1760968048.5168393,-0.802734375,-0.03271484375,0.58642578125,-1.46484375,1.52587890625,1.03759765625,-3.768310546875,54.525146484375,-175.3253173828125
1760968048.5235758,-0.802734375,-0.03271484375,0.58642578125,-1.46484375,1.52587890625,1.03759765625,-3.768310546875,54.5416259765625,-175.3143310546875
1760968048.5299811,-0.80712890625,-0.03662109375,0.591796875,-1.3427734375,1.40380859375,1.03759765625,-3.7738037109375,54.55810546875,-175.2978515625
1760968048.5372503,-0.80712890625,-0.03662109375,0.591796875,-1.3427734375,1.40380859375,1.03759765625,-3.7738037109375,54.569091796875,-175.286865234375
1760968048.5446608,-0.79931640625,-0.05029296875,0.5947265625,-0.9765625,1.15966796875,1.03759765625,-3.7738037109375,54.580078125,-175.27587890625
1760968048.5512118,-0.79931640625,-0.05029296875,0.5947265625,-0.9765625,1.15966796875,1.03759765625,-3.7738037109375,54.591064453125,-175.264892578125
1760968048.5586028,-0.794921875,-0.04736328125,0.60302734375,-0.18310546875,0.8544921875,0.9765625,-3.7628173828125,54.5965576171875,-175.2593994140625
1760968048.5649033,-0.794921875,-0.04736328125,0.60302734375,-0.18310546875,0.8544921875,0.9765625,-3.75732421875,54.60205078125,-175.2484130859375
1760968048.571856,-0.80322265625,-0.02734375,0.5986328125,-0.732421875,0.54931640625,0.8544921875,-3.7518310546875,54.6075439453125,-175.242919921875
1760968048.5783262,-0.80322265625,-0.02734375,0.5986328125,-0.732421875,0.54931640625,0.8544921875,-3.7518310546875,54.6075439453125,-175.242919921875
1760968048.5846217,-0.802734375,-0.015625,0.591796875,-1.15966796875,0.1220703125,0.42724609375,-3.75732421875,54.60205078125,-175.242919921875
1760968048.5924056,-0.802734375,-0.015625,0.591796875,-1.15966796875,0.1220703125,0.42724609375,-3.7628173828125,54.60205078125,-175.242919921875
1760968048.6096547,-0.79736328125,-0.04248046875,0.603515625,-0.79345703125,-0.18310546875,0.1220703125,-3.768310546875,54.591064453125,-175.2484130859375
1760968048.6267395,-0.79736328125,-0.04248046875,0.603515625,-0.79345703125,-0.18310546875,0.1220703125,-3.7738037109375,54.5855712890625,-175.2484130859375
1760968048.6463163,-0.80224609375,-0.04248046875,0.59716796875,0.67138671875,-0.54931640625,-0.3662109375,-3.768310546875,54.5745849609375,-175.264892578125
1760968048.6676073,-0.80224609375,-0.04248046875,0.59716796875,0.67138671875,-0.54931640625,-0.3662109375,-3.768310546875,54.5635986328125,-175.27587890625
1760968048.673855,-0.80322265625,-0.03369140625,0.5791015625,1.40380859375,-1.03759765625,-1.0986328125,-3.768310546875,54.547119140625,-175.3033447265625
1760968048.6801713,-0.80322265625,-0.03369140625,0.5791015625,1.40380859375,-1.03759765625,-1.0986328125,-3.768310546875,54.5306396484375,-175.3253173828125
1760968048.6865146,-0.8037109375,-0.0361328125,0.60107421875,0.244140625,-1.40380859375,-1.03759765625,-3.7738037109375,54.5086669921875,-175.3472900390625
1760968048.6927183,-0.8037109375,-0.0361328125,0.60107421875,0.244140625,-1.40380859375,-1.03759765625,-3.7847900390625,54.4866943359375,-175.374755859375
1760968048.698793,-0.8037109375,-0.0361328125,0.59814453125,-2.3193359375,-1.5869140625,-0.8544921875,-3.8177490234375,54.4647216796875,-175.3912353515625
1760968048.7055755,-0.8037109375,-0.0361328125,0.59814453125,-2.3193359375,-1.5869140625,-0.8544921875,-3.8507080078125,54.4427490234375,-175.4132080078125
1760968048.7121649,-0.794921875,-0.03857421875,0.58642578125,0.30517578125,-1.77001953125,-0.67138671875,-3.8507080078125,54.4207763671875,-175.4296875
1760968048.718984,-0.794921875,-0.03857421875,0.58642578125,0.30517578125,-1.77001953125,-0.67138671875,-3.856201171875,54.3988037109375,-175.4461669921875
1760968048.7253187,-0.80908203125,-0.05908203125,0.599609375,1.953125,-1.5869140625,-0.06103515625,-3.834228515625,54.3768310546875,-175.45166015625
1760968048.7383962,-0.80908203125,-0.05908203125,0.599609375,1.953125,-1.5869140625,-0.06103515625,-3.8177490234375,54.3548583984375,-175.4571533203125
1760968048.7449205,-0.7763671875,-0.04736328125,0.6083984375,3.90625,-1.953125,-0.48828125,-3.7847900390625,54.327392578125,-175.4736328125
1760968048.751018,-0.7763671875,-0.04736328125,0.6083984375,3.90625,-1.953125,-0.48828125,-3.7518310546875,54.305419921875,-175.4901123046875
1760968048.7571661,-0.79931640625,-0.0517578125,0.63330078125,-0.79345703125,-1.89208984375,0.3662109375,-3.75732421875,54.2779541015625,-175.49560546875
1760968048.7637951,-0.79931640625,-0.0517578125,0.63330078125,-0.79345703125,-1.89208984375,0.3662109375,-3.75732421875,54.25048828125,-175.5010986328125
1760968048.7703395,-0.79345703125,0.00390625,0.60107421875,-4.638671875,-2.197265625,0.30517578125,-3.80126953125,54.2230224609375,-175.506591796875
1760968048.7768323,-0.79345703125,0.00390625,0.60107421875,-4.638671875,-2.197265625,0.30517578125,-3.8397216796875,54.1900634765625,-175.506591796875
1760968048.7830522,-0.8017578125,-0.03466796875,0.59716796875,-3.0517578125,-2.197265625,0.30517578125,-3.856201171875,54.16259765625,-175.5120849609375
1760968048.7897074,-0.8017578125,-0.03466796875,0.59716796875,-3.0517578125,-2.197265625,0.30517578125,-3.878173828125,54.129638671875,-175.5120849609375
1760968048.8011718,-0.8056640625,-0.05517578125,0.60400390625,-2.99072265625,-1.8310546875,0.48828125,-3.900146484375,54.107666015625,-175.506591796875
1760968048.8080413,-0.8056640625,-0.05517578125,0.60400390625,-2.99072265625,-1.8310546875,0.48828125,-3.9166259765625,54.0802001953125,-175.506591796875
1760968048.8158505,-0.822265625,-0.04541015625,0.58349609375,-3.662109375,-1.64794921875,0.06103515625,-3.9495849609375,54.0582275390625,-175.5120849609375
1760968048.8223236,-0.822265625,-0.04541015625,0.58349609375,-3.662109375,-1.64794921875,0.06103515625,-3.988037109375,54.041748046875,-175.517578125
1760968048.8290346,-0.84765625,-0.029296875,0.5517578125,-5.79833984375,-1.46484375,-0.1220703125,-4.04296875,54.019775390625,-175.5230712890625
1760968048.8366587,-0.84765625,-0.029296875,0.5517578125,-5.79833984375,-1.46484375,-0.1220703125,-4.097900390625,54.0032958984375,-175.5230712890625
1760968048.8444037,-0.841796875,-0.033203125,0.51904296875,-7.080078125,-1.708984375,-0.3662109375,-4.1693115234375,53.9923095703125,-175.528564453125
1760968048.8512855,-0.841796875,-0.033203125,0.51904296875,-7.080078125,-1.708984375,-0.3662109375,-4.24072265625,53.975830078125,-175.528564453125
1760968048.8582737,-0.82421875,-0.07470703125,0.56640625,-4.69970703125,-1.953125,-0.48828125,-4.2901611328125,53.9593505859375,-175.528564453125
1760968048.865567,-0.82421875,-0.07470703125,0.56640625,-4.69970703125,-1.953125,-0.48828125,-4.339599609375,53.9483642578125,-175.528564453125
1760968048.8726928,-0.83154296875,-0.07470703125,0.5859375,-2.99072265625,-1.708984375,0.0,-4.37255859375,53.9373779296875,-175.5230712890625
1760968048.8797617,-0.83154296875,-0.07470703125,0.5859375,-2.99072265625,-1.708984375,0.0,-4.4000244140625,53.9263916015625,-175.517578125
1760968048.886396,-0.82958984375,-0.037109375,0.56201171875,-0.91552734375,-1.46484375,0.0,-4.4110107421875,53.9154052734375,-175.5120849609375
1760968048.8929167,-0.82958984375,-0.037109375,0.56201171875,-0.91552734375,-1.46484375,0.0,-4.4219970703125,53.9044189453125,-175.506591796875
1760968048.9015656,-0.83203125,-0.037109375,0.56201171875,-1.5869140625,-1.28173828125,0.3662109375,-4.4329833984375,53.89892578125,-175.4901123046875
1760968048.907854,-0.83203125,-0.037109375,0.56201171875,-1.5869140625,-1.28173828125,0.3662109375,-4.4439697265625,53.89892578125,-175.4791259765625
1760968048.9139373,-0.8349609375,-0.0654296875,0.576171875,-3.41796875,-1.0986328125,0.732421875,-4.4659423828125,53.8934326171875,-175.4571533203125
1760968048.921719,-0.8349609375,-0.0654296875,0.576171875,-3.41796875,-1.0986328125,0.732421875,-4.493408203125,53.8934326171875,-175.4351806640625
1760968048.9406276,-0.8388671875,-0.06005859375,0.5517578125,-2.38037109375,-0.8544921875,1.220703125,-4.50439453125,53.8934326171875,-175.40771484375
1760968048.9488995,-0.8388671875,-0.06005859375,0.5517578125,-2.38037109375,-0.8544921875,1.220703125,-4.515380859375,53.8934326171875,-175.3802490234375
1760968048.9605532,-0.845703125,-0.0478515625,0.5361328125,1.3427734375,-0.79345703125,1.15966796875,-4.4879150390625,53.89892578125,-175.3472900390625
1760968048.9758596,-0.845703125,-0.0478515625,0.5361328125,1.3427734375,-0.79345703125,1.15966796875,-4.46044921875,53.89892578125,-175.31982421875
1760968048.9964595,-0.81982421875,-0.06591796875,0.54736328125,4.8828125,-1.03759765625,0.79345703125,-4.405517578125,53.9044189453125,-175.2923583984375
1760968049.0104277,-0.81982421875,-0.06591796875,0.54736328125,4.8828125,-1.03759765625,0.79345703125,-4.3505859375,53.9044189453125,-175.2703857421875
1760968049.0167122,-0.8154296875,-0.06103515625,0.61181640625,7.99560546875,-1.220703125,0.91552734375,-4.2626953125,53.9044189453125,-175.242919921875
1760968049.023727,-0.8154296875,-0.06103515625,0.61181640625,7.99560546875,-1.220703125,0.91552734375,-4.1802978515625,53.89892578125,-175.220947265625
1760968049.030013,-0.818359375,-0.02783203125,0.5693359375,5.43212890625,-1.220703125,0.732421875,-4.119873046875,53.89892578125,-175.2044677734375
1760968049.0369537,-0.818359375,-0.02783203125,0.5693359375,5.43212890625,-1.220703125,0.732421875,-4.0594482421875,53.8934326171875,-175.18798828125
1760968049.0498478,-0.8232421875,-0.01611328125,0.57373046875,4.08935546875,-1.3427734375,0.6103515625,-4.0155029296875,53.887939453125,-175.166015625
1760968049.0664122,-0.8232421875,-0.01611328125,0.57373046875,4.08935546875,-1.3427734375,0.6103515625,-3.966064453125,53.8824462890625,-175.1495361328125
1760968049.1004078,-0.80419921875,-0.05322265625,0.59228515625,1.953125,-1.5869140625,0.3662109375,-3.944091796875,53.876953125,-175.1385498046875
1760968049.1107502,-0.7822265625,-0.0439453125,0.60791015625,3.35693359375,-2.38037109375,0.1220703125,-3.9166259765625,53.865966796875,-175.1275634765625
1760968049.1278422,-0.7822265625,-0.0439453125,0.60791015625,3.35693359375,-2.38037109375,0.1220703125,-3.878173828125,53.843994140625,-175.1165771484375
1760968049.140844,-0.7861328125,-0.0361328125,0.6259765625,4.5166015625,-2.74658203125,0.1220703125,-3.8397216796875,53.822021484375,-175.111083984375
1760968049.1491585,-0.7861328125,-0.0361328125,0.6259765625,4.5166015625,-2.74658203125,0.1220703125,-3.7957763671875,53.800048828125,-175.1055908203125
1760968049.1569362,-0.78662109375,-0.02587890625,0.60888671875,3.173828125,-3.41796875,0.0,-3.7518310546875,53.76708984375,-175.10009765625
1760968049.1668162,-0.78662109375,-0.02587890625,0.60888671875,3.173828125,-3.41796875,0.0,-3.7188720703125,53.734130859375,-175.0946044921875
1760968049.1747813,-0.79345703125,-0.03857421875,0.60595703125,0.54931640625,-4.0283203125,0.1220703125,-3.6968994140625,53.6956787109375,-175.089111328125
1760968049.182572,-0.79345703125,-0.03857421875,0.60595703125,0.54931640625,-4.0283203125,0.1220703125,-3.69140625,53.6517333984375,-175.0836181640625
1760968049.1935012,-0.79345703125,-0.03857421875,0.60595703125,-0.42724609375,-4.39453125,0.54931640625,-3.680419921875,53.61328125,-175.0726318359375
1760968049.2029037,-0.79833984375,-0.04541015625,0.595703125,-0.42724609375,-4.39453125,0.54931640625,-3.6749267578125,53.5638427734375,-175.0616455078125
1760968049.2248175,-0.81103515625,-0.04541015625,0.61083984375,0.42724609375,-4.57763671875,0.91552734375,-3.6639404296875,53.5198974609375,-175.045166015625
1760968049.2356176,-0.81103515625,-0.04541015625,0.61083984375,0.42724609375,-4.57763671875,0.91552734375,-3.6419677734375,53.4759521484375,-175.0286865234375
1760968049.2431467,-0.818359375,-0.0361328125,0.578125,1.64794921875,-4.69970703125,0.91552734375,-3.6199951171875,53.426513671875,-175.0067138671875
1760968049.253276,-0.818359375,-0.0361328125,0.578125,1.64794921875,-4.69970703125,0.91552734375,-3.5870361328125,53.382568359375,-174.990234375
1760968049.262455,-0.833984375,-0.03857421875,0.55126953125,3.2958984375,-4.57763671875,0.79345703125,-3.5540771484375,53.338623046875,-174.96826171875
1760968049.2705362,-0.833984375,-0.03857421875,0.55126953125,3.2958984375,-4.57763671875,0.79345703125,-3.504638671875,53.294677734375,-174.9462890625
1760968049.2792451,-0.8388671875,-0.0419921875,0.5615234375,3.96728515625,-4.39453125,0.8544921875,-3.460693359375,53.2562255859375,-174.92431640625
1760968049.2864952,-0.8388671875,-0.0419921875,0.5615234375,3.96728515625,-4.39453125,0.8544921875,-3.40576171875,53.2232666015625,-174.8968505859375
1760968049.29834,-0.83544921875,-0.04296875,0.56982421875,5.43212890625,-3.60107421875,0.6103515625,-3.350830078125,53.1903076171875,-174.8748779296875
1760968049.3060145,-0.83544921875,-0.04296875,0.56982421875,5.43212890625,-3.60107421875,0.6103515625,-3.2904052734375,53.162841796875,-174.8529052734375
1760968049.3146644,-0.8232421875,-0.0322265625,0.57177734375,7.4462890625,-2.9296875,0.48828125,-3.218994140625,53.140869140625,-174.8309326171875
1760968049.3235068,-0.8232421875,-0.0322265625,0.57177734375,7.4462890625,-2.9296875,0.48828125,-3.14208984375,53.118896484375,-174.8089599609375
1760968049.3326943,-0.81396484375,-0.0302734375,0.59912109375,5.4931640625,-2.685546875,0.732421875,-3.0706787109375,53.1024169921875,-174.7869873046875
1760968049.3402224,-0.81396484375,-0.0302734375,0.59912109375,5.4931640625,-2.685546875,0.732421875,-3.01025390625,53.0859375,-174.7650146484375
1760968049.3484352,-0.798828125,-0.0244140625,0.611328125,2.44140625,-2.685546875,1.03759765625,-2.9608154296875,53.0694580078125,-174.737548828125
1760968049.359849,-0.798828125,-0.0244140625,0.611328125,2.44140625,-2.685546875,1.03759765625,-2.9278564453125,53.0474853515625,-174.7100830078125
1760968049.367312,-0.78369140625,-0.033203125,0.61865234375,2.8076171875,-2.8076171875,1.0986328125,-2.8839111328125,53.0255126953125,-174.6826171875
1760968049.3748717,-0.78369140625,-0.033203125,0.61865234375,2.8076171875,-2.8076171875,1.0986328125,-2.845458984375,53.0035400390625,-174.6551513671875
1760968049.3835633,-0.77294921875,-0.04052734375,0.6328125,5.06591796875,-2.74658203125,1.220703125,-2.79052734375,52.9815673828125,-174.627685546875
1760968049.3903615,-0.77294921875,-0.04052734375,0.6328125,5.06591796875,-2.74658203125,1.220703125,-2.724609375,52.9595947265625,-174.605712890625
1760968049.3979213,-0.77099609375,-0.03564453125,0.6376953125,5.92041015625,-2.86865234375,1.46484375,-2.65869140625,52.93212890625,-174.583740234375
1760968049.4071307,-0.77099609375,-0.03564453125,0.6376953125,5.92041015625,-2.86865234375,1.46484375,-2.581787109375,52.9046630859375,-174.5562744140625
1760968049.4174337,-0.77099609375,-0.03564453125,0.6376953125,5.2490234375,-2.74658203125,2.0751953125,-2.5048828125,52.8717041015625,-174.52880859375
1760968049.4255443,-0.78125,-0.0234375,0.634765625,5.2490234375,-2.74658203125,2.0751953125,-2.427978515625,52.84423828125,-174.495849609375
1760968049.4338453,-0.7802734375,-0.029296875,0.6259765625,3.72314453125,-2.5634765625,2.197265625,-2.3565673828125,52.8167724609375,-174.462890625
1760968049.4413905,-0.7802734375,-0.029296875,0.6259765625,3.72314453125,-2.5634765625,2.197265625,-2.296142578125,52.789306640625,-174.4244384765625
1760968049.452798,-0.7724609375,-0.02685546875,0.6240234375,5.92041015625,-2.50244140625,2.13623046875,-2.2247314453125,52.7618408203125,-174.39697265625
1760968049.4604156,-0.7724609375,-0.02685546875,0.6240234375,5.92041015625,-2.50244140625,2.13623046875,-2.1368408203125,52.7288818359375,-174.364013671875
1760968049.4683743,-0.763671875,-0.02880859375,0.64794921875,8.4228515625,-2.86865234375,2.197265625,-2.04345703125,52.701416015625,-174.3310546875
1760968049.4765437,-0.763671875,-0.02880859375,0.64794921875,8.4228515625,-2.86865234375,2.197265625,-1.93359375,52.6629638671875,-174.3035888671875
1760968049.487152,-0.7724609375,-0.01708984375,0.63818359375,8.4228515625,-3.2958984375,2.25830078125,-1.82373046875,52.6300048828125,-174.276123046875
1760968049.4966102,-0.7724609375,-0.01708984375,0.63818359375,8.4228515625,-3.2958984375,2.25830078125,-1.7193603515625,52.5860595703125,-174.2486572265625
1760968049.5053742,-0.7890625,-0.00927734375,0.60791015625,7.14111328125,-3.60107421875,2.3193359375,-1.614990234375,52.547607421875,-174.2156982421875
1760968049.5143352,-0.7890625,-0.00927734375,0.60791015625,7.14111328125,-3.60107421875,2.3193359375,-1.51611328125,52.503662109375,-174.1827392578125
1760968049.520884,-0.78857421875,-0.0234375,0.61328125,4.82177734375,-3.7841796875,2.50244140625,-1.42822265625,52.4652099609375,-174.1497802734375
1760968049.5302846,-0.78857421875,-0.0234375,0.61328125,4.82177734375,-3.7841796875,2.50244140625,-1.351318359375,52.4212646484375,-174.1168212890625
1760968049.541236,-0.7744140625,-0.01025390625,0.63623046875,5.67626953125,-4.5166015625,2.44140625,-1.2744140625,52.3773193359375,-174.0838623046875
1760968049.560995,-0.7744140625,-0.01025390625,0.63623046875,5.67626953125,-4.5166015625,2.44140625,-1.1865234375,52.327880859375,-174.04541015625
1760968049.577668,-0.76318359375,0.0107421875,0.61669921875,5.615234375,-5.7373046875,2.01416015625,-1.1041259765625,52.2674560546875,-174.012451171875
1760968049.5869884,-0.76318359375,0.0107421875,0.61669921875,5.615234375,-5.7373046875,2.01416015625,-1.0272216796875,52.20703125,-173.9849853515625
1760968049.5947642,-0.7578125,0.00146484375,0.630859375,2.3193359375,-7.01904296875,2.13623046875,-0.9613037109375,52.14111328125,-173.95751953125
1760968049.6080585,-0.7578125,0.00146484375,0.630859375,2.3193359375,-7.01904296875,2.13623046875,-0.911865234375,52.064208984375,-173.924560546875
1760968049.6145697,-0.76513671875,-0.00927734375,0.63720703125,-0.9765625,-7.75146484375,2.685546875,-0.8734130859375,51.9873046875,-173.8861083984375
1760968049.6206994,-0.76513671875,-0.00927734375,0.63720703125,-0.9765625,-7.75146484375,2.685546875,-0.8514404296875,51.9049072265625,-173.84765625
1760968049.6269374,-0.77099609375,-0.00830078125,0.64697265625,-4.0283203125,-7.38525390625,3.60107421875,-0.8349609375,51.822509765625,-173.7982177734375
1760968049.6403725,-0.77099609375,-0.00830078125,0.64697265625,-4.0283203125,-7.38525390625,3.60107421875,-0.8294677734375,51.74560546875,-173.7432861328125
1760968049.649455,-0.76611328125,-0.02099609375,0.67529296875,-6.2255859375,-6.28662109375,4.150390625,-0.8349609375,51.668701171875,-173.6883544921875
1760968049.6559796,-0.76611328125,-0.02099609375,0.67529296875,-6.2255859375,-6.28662109375,4.150390625,-0.8404541015625,51.602783203125,-173.6224365234375
1760968049.6756961,-0.75732421875,-0.0029296875,0.6748046875,-5.859375,-5.2490234375,4.150390625,-0.8514404296875,51.536865234375,-173.56201171875
1760968049.6863053,-0.75732421875,-0.0029296875,0.6748046875,-5.859375,-5.2490234375,4.150390625,-0.85693359375,51.4764404296875,-173.5015869140625
1760968049.699771,-0.75,-0.02734375,0.67138671875,2.13623046875,-3.96728515625,3.60107421875,-0.8294677734375,51.4215087890625,-173.4466552734375
1760968049.7244143,-0.75,-0.02734375,0.67138671875,2.13623046875,-3.96728515625,3.60107421875,-0.7635498046875,51.3720703125,-173.397216796875
1760968049.7305825,-0.76904296875,-0.0380859375,0.63720703125,12.02392578125,-2.74658203125,2.50244140625,-0.6591796875,51.328125,-173.353271484375
1760968049.7369683,-0.76904296875,-0.0380859375,0.63720703125,12.02392578125,-2.74658203125,2.50244140625,-0.5108642578125,51.295166015625,-173.3258056640625
1760968049.7459126,-0.7978515625,0.0009765625,0.609375,19.8974609375,-2.0751953125,1.0986328125,-0.340576171875,51.26220703125,-173.3038330078125
1760968049.7694857,-0.7978515625,0.0009765625,0.609375,19.8974609375,-2.0751953125,1.0986328125,-0.1318359375,51.2347412109375,-173.29833984375
1760968049.77672,-0.791015625,0.02294921875,0.60888671875,16.357421875,-2.13623046875,0.48828125,0.0439453125,51.207275390625,-173.2928466796875
1760968049.7927027,-0.791015625,0.02294921875,0.60888671875,16.357421875,-2.13623046875,0.48828125,0.208740234375,51.185302734375,-173.287353515625
1760968049.81439,-0.7724609375,0.05419921875,0.64404296875,9.1552734375,-2.8076171875,-0.18310546875,0.32958984375,51.15234375,-173.287353515625
1760968049.821102,-0.7724609375,0.05419921875,0.64404296875,9.1552734375,-2.8076171875,-0.18310546875,0.41748046875,51.1248779296875,-173.287353515625
1760968049.8291981,-0.79443359375,0.04052734375,0.64892578125,7.080078125,-3.23486328125,-1.3427734375,0.4888916015625,51.0919189453125,-173.29833984375
1760968049.836296,-0.79443359375,0.04052734375,0.64892578125,7.080078125,-3.23486328125,-1.3427734375,0.5438232421875,51.053466796875,-173.3148193359375
1760968049.8431919,-0.7978515625,-0.01025390625,0.55908203125,7.6904296875,-3.662109375,-2.25830078125,0.5987548828125,51.0205078125,-173.3367919921875
1760968049.8560996,-0.7978515625,-0.01025390625,0.55908203125,7.6904296875,-3.662109375,-2.25830078125,0.6427001953125,50.9820556640625,-173.3642578125
1760968049.862315,-0.84326171875,0.0146484375,0.57080078125,5.43212890625,-3.5400390625,-2.5634765625,0.68115234375,50.95458984375,-173.397216796875
1760968049.8684933,-0.84326171875,0.0146484375,0.57080078125,5.43212890625,-3.5400390625,-2.5634765625,0.703125,50.921630859375,-173.4246826171875
1760968049.8748355,-0.83056640625,0.02587890625,0.59619140625,0.48828125,-3.35693359375,-2.25830078125,0.703125,50.899658203125,-173.4466552734375
1760968049.8884718,-0.83056640625,0.02587890625,0.59619140625,0.48828125,-3.35693359375,-2.25830078125,0.68115234375,50.8721923828125,-173.463134765625
1760968049.8949046,-0.8291015625,-0.001953125,0.59765625,-2.99072265625,-2.50244140625,-1.03759765625,0.648193359375,50.855712890625,-173.4686279296875
1760968049.901045,-0.8291015625,-0.001953125,0.59765625,-2.99072265625,-2.50244140625,-1.03759765625,0.604248046875,50.8447265625,-173.463134765625
1760968049.9073222,-0.822265625,0.00244140625,0.5810546875,-5.859375,-1.77001953125,-0.244140625,0.5548095703125,50.833740234375,-173.4521484375
1760968049.9205642,-0.822265625,0.00244140625,0.5810546875,-5.859375,-1.77001953125,-0.244140625,0.494384765625,50.8282470703125,-173.4356689453125
1760968049.9271903,-0.818359375,-0.01708984375,0.59814453125,-1.5869140625,-1.15966796875,0.06103515625,0.4559326171875,50.833740234375,-173.4136962890625
1760968049.9342237,-0.818359375,-0.01708984375,0.59814453125,-1.5869140625,-1.15966796875,0.06103515625,0.439453125,50.833740234375,-173.3917236328125
1760968049.9420533,-0.798828125,-0.03125,0.62255859375,2.13623046875,-0.9765625,0.79345703125,0.4449462890625,50.8392333984375,-173.3697509765625
1760968049.9642665,-0.798828125,-0.03125,0.62255859375,2.13623046875,-0.9765625,0.79345703125,0.472412109375,50.8447265625,-173.3367919921875
1760968049.9809434,-0.7841796875,-0.0107421875,0.6142578125,7.75146484375,-1.77001953125,0.79345703125,0.52734375,50.8447265625,-173.309326171875
1760968050.0042422,-0.7841796875,-0.0107421875,0.6142578125,7.75146484375,-1.77001953125,0.79345703125,0.6097412109375,50.8392333984375,-173.287353515625
1760968050.0106854,-0.80908203125,0.03662109375,0.58740234375,9.521484375,-2.5634765625,0.1220703125,0.692138671875,50.8282470703125,-173.265380859375
1760968050.0180779,-0.80908203125,0.03662109375,0.58740234375,9.521484375,-2.5634765625,0.1220703125,0.7855224609375,50.8172607421875,-173.2489013671875
1760968050.0390735,-0.8173828125,0.03125,0.59130859375,6.89697265625,-2.685546875,-0.3662109375,0.8624267578125,50.8062744140625,-173.2379150390625
1760968050.0557172,-0.8173828125,0.03125,0.59130859375,6.89697265625,-2.685546875,-0.3662109375,0.9228515625,50.789794921875,-173.221435546875
1760968050.068047,-0.7919921875,0.0224609375,0.61962890625,2.25830078125,-2.86865234375,-0.42724609375,0.9613037109375,50.77880859375,-173.21044921875
1760968050.0824695,-0.7919921875,0.0224609375,0.61962890625,2.25830078125,-2.86865234375,-0.42724609375,0.977783203125,50.767822265625,-173.199462890625
1760968050.0895145,-0.7685546875,0.03564453125,0.658203125,-1.03759765625,-2.50244140625,-0.79345703125,0.977783203125,50.7513427734375,-173.1939697265625
1760968050.110209,-0.7685546875,0.03564453125,0.658203125,-1.03759765625,-2.50244140625,-0.79345703125,0.955810546875,50.7403564453125,-173.1884765625
1760968050.1172593,-0.7568359375,0.00927734375,0.65087890625,-1.708984375,-2.01416015625,-1.3427734375,0.933837890625,50.723876953125,-173.1884765625
1760968050.1311052,-0.7568359375,0.00927734375,0.65087890625,-1.708984375,-2.01416015625,-1.3427734375,0.90087890625,50.712890625,-173.1939697265625
1760968050.1490297,-0.7705078125,0.00244140625,0.6484375,-2.685546875,-1.52587890625,-1.5869140625,0.85693359375,50.701904296875,-173.2049560546875
1760968050.1555884,-0.7705078125,0.00244140625,0.6484375,-2.685546875,-1.52587890625,-1.5869140625,0.81298828125,50.6964111328125,-173.2159423828125
1760968050.163873,-0.78076171875,0.03076171875,0.64453125,-6.53076171875,-1.28173828125,-1.5869140625,0.7305908203125,50.6854248046875,-173.232421875
1760968050.1701252,-0.78076171875,0.03076171875,0.64453125,-6.53076171875,-1.28173828125,-1.5869140625,0.648193359375,50.679931640625,-173.243408203125
1760968050.1768272,-0.77978515625,0.015625,0.60400390625,-9.27734375,-0.6103515625,-1.15966796875,0.5438232421875,50.679931640625,-173.243408203125
1760968050.188393,-0.77978515625,0.015625,0.60400390625,-9.27734375,-0.6103515625,-1.15966796875,0.4449462890625,50.6744384765625,-173.2489013671875
1760968050.195624,-0.79052734375,-0.04736328125,0.66064453125,-3.90625,1.0986328125,-0.54931640625,0.4010009765625,50.69091796875,-173.243408203125
1760968050.2019808,-0.79052734375,-0.04736328125,0.66064453125,-3.90625,1.0986328125,-0.54931640625,0.3570556640625,50.7073974609375,-173.243408203125
1760968050.209211,-0.7734375,-0.02685546875,0.6669921875,1.220703125,2.197265625,0.3662109375,0.37353515625,50.7293701171875,-173.232421875
1760968050.2174878,-0.7734375,-0.02685546875,0.6669921875,1.220703125,2.197265625,0.3662109375,0.384521484375,50.7513427734375,-173.221435546875
1760968050.2367816,-0.77587890625,0.04052734375,0.61669921875,-0.67138671875,2.38037109375,0.18310546875,0.3790283203125,50.77880859375,-173.2159423828125
1760968050.2523973,-0.77587890625,0.04052734375,0.61669921875,-0.67138671875,2.38037109375,0.18310546875,0.3790283203125,50.80078125,-173.2049560546875
1760968050.2708282,-0.7705078125,0.0126953125,0.6435546875,-1.0986328125,2.74658203125,-0.42724609375,0.362548828125,50.833740234375,-173.2049560546875
1760968050.2778292,-0.7705078125,0.0126953125,0.6435546875,-1.0986328125,2.74658203125,-0.42724609375,0.3460693359375,50.8612060546875,-173.2049560546875
1760968050.288679,-0.75830078125,0.0,0.67236328125,-2.3193359375,3.662109375,-1.03759765625,0.3131103515625,50.8941650390625,-173.2159423828125
1760968050.295448,-0.75830078125,0.0,0.67236328125,-2.3193359375,3.662109375,-1.03759765625,0.2801513671875,50.9271240234375,-173.2269287109375
1760968050.3175647,-0.7724609375,0.02587890625,0.6484375,-2.25830078125,4.08935546875,-1.708984375,0.24169921875,50.965576171875,-173.2489013671875
1760968050.3242502,-0.7724609375,0.02587890625,0.6484375,-2.25830078125,4.08935546875,-1.708984375,0.19775390625,51.0040283203125,-173.2708740234375
1760968050.3314898,-0.78125,0.02783203125,0.6064453125,-6.53076171875,3.60107421875,-2.01416015625,0.1153564453125,51.0369873046875,-173.29833984375
1760968050.3377838,-0.78125,0.02783203125,0.6064453125,-6.53076171875,3.60107421875,-2.01416015625,0.032958984375,51.0699462890625,-173.3203125
1760968050.350381,-0.77001953125,-0.0234375,0.63037109375,-7.080078125,2.50244140625,-1.708984375,-0.0494384765625,51.0919189453125,-173.3367919921875
1760968050.3653884,-0.77001953125,-0.0234375,0.63037109375,-7.080078125,2.50244140625,-1.708984375,-0.1373291015625,51.1138916015625,-173.3587646484375
1760968050.3718946,-0.77783203125,-0.0341796875,0.64453125,-4.0283203125,1.89208984375,-0.9765625,-0.186767578125,51.13037109375,-173.3697509765625
1760968050.3780992,-0.77783203125,-0.0341796875,0.64453125,-4.0283203125,1.89208984375,-0.9765625,-0.2362060546875,51.1468505859375,-173.3807373046875
1760968050.3908188,-0.7880859375,0.00439453125,0.6142578125,-5.0048828125,2.25830078125,-0.48828125,-0.2911376953125,51.163330078125,-173.38623046875
1760968050.415277,-0.7880859375,0.00439453125,0.6142578125,-5.0048828125,2.25830078125,-0.48828125,-0.3460693359375,51.185302734375,-173.3917236328125
1760968050.4236112,-0.7861328125,-0.001953125,0.640625,-6.04248046875,2.9296875,0.0,-0.406494140625,51.2127685546875,-173.3917236328125
1760968050.4304423,-0.7861328125,-0.001953125,0.640625,-6.04248046875,2.9296875,0.0,-0.46142578125,51.240234375,-173.38623046875
1760968050.4365964,-0.7705078125,-0.01416015625,0.65625,-5.126953125,3.173828125,0.42724609375,-0.50537109375,51.2677001953125,-173.3807373046875
1760968050.459921,-0.7705078125,-0.01416015625,0.65625,-5.126953125,3.173828125,0.42724609375,-0.5548095703125,51.295166015625,-173.375244140625
1760968050.4664297,-0.7744140625,-0.015625,0.62646484375,-0.42724609375,3.11279296875,0.244140625,-0.5548095703125,51.3226318359375,-173.375244140625
1760968050.474476,-0.7744140625,-0.015625,0.62646484375,-0.42724609375,3.11279296875,0.244140625,-0.5548095703125,51.35009765625,-173.3697509765625
1760968050.4811726,-0.7841796875,-0.00341796875,0.59912109375,0.67138671875,2.86865234375,-0.3662109375,-0.54931640625,51.3775634765625,-173.375244140625
1760968050.4876206,-0.7841796875,-0.00341796875,0.59912109375,0.67138671875,2.86865234375,-0.3662109375,-0.54931640625,51.3995361328125,-173.3807373046875
1760968050.4947727,-0.7841796875,-0.00341796875,0.59912109375,-0.1220703125,2.50244140625,-0.9765625,-0.560302734375,51.427001953125,-173.397216796875
1760968050.521805,-0.7822265625,0.01025390625,0.626953125,-0.1220703125,2.50244140625,-0.9765625,-0.5712890625,51.448974609375,-173.408203125
1760968050.5283778,-0.78369140625,0.0048828125,0.63623046875,-5.0048828125,2.44140625,-0.9765625,-0.6317138671875,51.470947265625,-173.419189453125
1760968050.5513177,-0.78369140625,0.0048828125,0.63623046875,-5.0048828125,2.44140625,-0.9765625,-0.692138671875,51.492919921875,-173.4356689453125
1760968050.5582802,-0.77880859375,0.0009765625,0.63720703125,-6.40869140625,2.50244140625,-0.9765625,-0.7635498046875,51.514892578125,-173.4466552734375
1760968050.5669687,-0.77880859375,0.0009765625,0.63720703125,-6.40869140625,2.50244140625,-0.9765625,-0.8349609375,51.536865234375,-173.4576416015625
1760968050.5738618,-0.7783203125,0.00244140625,0.630859375,-6.4697265625,2.5634765625,-1.03759765625,-0.911865234375,51.558837890625,-173.4686279296875
1760968050.5804703,-0.7783203125,0.00244140625,0.630859375,-6.4697265625,2.5634765625,-1.03759765625,-0.9832763671875,51.580810546875,-173.485107421875
1760968050.604386,-0.78662109375,-0.0205078125,0.63671875,-4.7607421875,2.50244140625,-1.15966796875,-1.0382080078125,51.602783203125,-173.49609375
1760968050.6117766,-0.78662109375,-0.0205078125,0.63671875,-4.7607421875,2.50244140625,-1.15966796875,-1.0986328125,51.6192626953125,-173.5125732421875
1760968050.6181622,-0.7822265625,-0.0380859375,0.6123046875,-3.7841796875,2.62451171875,-0.9765625,-1.142578125,51.6412353515625,-173.529052734375
1760968050.6260533,-0.7822265625,-0.0380859375,0.6123046875,-3.7841796875,2.62451171875,-0.9765625,-1.1920166015625,51.668701171875,-173.5400390625
1760968050.6329234,-0.77197265625,-0.04150390625,0.62939453125,0.0,2.685546875,-0.54931640625,-1.2030029296875,51.690673828125,-173.551025390625
1760968050.654846,-0.77197265625,-0.04150390625,0.62939453125,0.0,2.685546875,-0.54931640625,-1.20849609375,51.712646484375,-173.56201171875
1760968050.6617348,-0.77978515625,-0.01220703125,0.6259765625,1.40380859375,2.74658203125,-0.1220703125,-1.197509765625,51.734619140625,-173.56201171875
1760968050.66929,-0.77978515625,-0.01220703125,0.6259765625,1.40380859375,2.74658203125,-0.1220703125,-1.1865234375,51.7620849609375,-173.5675048828125
1760968050.6774297,-0.78369140625,-0.00732421875,0.61962890625,1.46484375,2.44140625,0.0,-1.175537109375,51.7840576171875,-173.5675048828125
1760968050.6836195,-0.78369140625,-0.00732421875,0.61962890625,1.46484375,2.44140625,0.0,-1.16455078125,51.800537109375,-173.5675048828125
1760968050.6996644,-0.77685546875,-0.02734375,0.63525390625,0.91552734375,2.25830078125,0.30517578125,-1.153564453125,51.822509765625,-173.5675048828125
1760968050.7071366,-0.77685546875,-0.02734375,0.63525390625,0.91552734375,2.25830078125,0.30517578125,-1.142578125,51.8389892578125,-173.56201171875
1760968050.7137055,-0.7734375,-0.0224609375,0.6337890625,1.64794921875,2.44140625,0.79345703125,-1.1151123046875,51.8609619140625,-173.5565185546875
1760968050.7198863,-0.7734375,-0.0224609375,0.6337890625,1.64794921875,2.44140625,0.79345703125,-1.0931396484375,51.87744140625,-173.5455322265625
1760968050.7275302,-0.76953125,-0.01171875,0.64501953125,2.5634765625,2.74658203125,1.03759765625,-1.0601806640625,51.8994140625,-173.5345458984375
1760968050.743692,-0.76953125,-0.01171875,0.64501953125,2.5634765625,2.74658203125,1.03759765625,-1.021728515625,51.92138671875,-173.5235595703125
1760968050.751297,-0.7734375,-0.00439453125,0.6376953125,0.42724609375,2.5634765625,1.46484375,-1.0052490234375,51.943359375,-173.507080078125
1760968050.7576177,-0.7734375,-0.00439453125,0.6376953125,0.42724609375,2.5634765625,1.46484375,-0.9832763671875,51.9598388671875,-173.4906005859375
1760968050.7637496,-0.779296875,-0.005859375,0.634765625,-2.197265625,1.89208984375,1.77001953125,-0.9832763671875,51.9708251953125,-173.4686279296875
1760968050.7806835,-0.779296875,-0.005859375,0.634765625,-2.197265625,1.89208984375,1.77001953125,-0.9832763671875,51.9873046875,-173.4521484375
1760968050.7884212,-0.7900390625,-0.01708984375,0.6044921875,-0.79345703125,1.46484375,1.708984375,-0.9722900390625,51.9927978515625,-173.43017578125
1760968050.7948732,-0.7900390625,-0.01708984375,0.6044921875,-0.79345703125,1.46484375,1.708984375,-0.9613037109375,52.0037841796875,-173.408203125
1760968050.801396,-0.80029296875,-0.0048828125,0.595703125,-0.732421875,1.03759765625,1.40380859375,-0.9503173828125,52.00927734375,-173.38623046875
1760968050.8086,-0.80029296875,-0.0048828125,0.595703125,-0.732421875,1.03759765625,1.40380859375,-0.94482421875,52.0147705078125,-173.3642578125
1760968050.8148742,-0.80810546875,-0.00732421875,0.61865234375,-2.01416015625,1.220703125,1.3427734375,-0.94482421875,52.0257568359375,-173.3477783203125
1760968050.8304613,-0.80810546875,-0.00732421875,0.61865234375,-2.01416015625,1.220703125,1.3427734375,-0.9503173828125,52.0367431640625,-173.3258056640625
1760968050.837009,-0.80712890625,-0.0048828125,0.6025390625,-3.72314453125,1.52587890625,1.40380859375,-0.9722900390625,52.05322265625,-173.29833984375
1760968050.8436093,-0.80712890625,-0.0048828125,0.6025390625,-3.72314453125,1.52587890625,1.40380859375,-0.98876953125,52.064208984375,-173.2763671875
1760968050.851001,-0.8037109375,-0.00146484375,0.59375,-1.77001953125,1.52587890625,0.79345703125,-0.9942626953125,52.0806884765625,-173.2598876953125
1760968050.857526,-0.8037109375,-0.00146484375,0.59375,-1.77001953125,1.52587890625,0.79345703125,-1.0052490234375,52.09716796875,-173.2379150390625
