timestamp,acc_x,acc_y,acc_z,gyro_x,gyro_y,gyro_z,angle_x,angle_y,angle_z
1758182895.6551201,-0.49560546875,-0.0380859375,0.8779296875,5.2490234375,-1.8310546875,-2.9296875,-2.669677734375,29.2840576171875,-18.6053466796875
1758182895.6650033,-0.49560546875,-0.04345703125,0.8564453125,5.0048828125,-2.197265625,-3.11279296875,-2.6422119140625,29.2620849609375,-18.6383056640625
1758182895.6743078,-0.49560546875,-0.04345703125,0.8564453125,5.0048828125,-2.197265625,-3.11279296875,-2.6092529296875,29.2401123046875,-18.6767578125
1758182895.687142,-0.5029296875,-0.04345703125,0.865234375,7.32421875,-2.44140625,-3.41796875,-2.5543212890625,29.212646484375,-18.7152099609375
1758182895.7005312,-0.5029296875,-0.04345703125,0.865234375,7.32421875,-2.44140625,-3.41796875,-2.5048828125,29.1851806640625,-18.7591552734375
1758182895.710328,-0.50341796875,-0.04296875,0.8564453125,9.6435546875,-2.38037109375,-3.7841796875,-2.427978515625,29.1632080078125,-18.8031005859375
1758182895.7183394,-0.50341796875,-0.04296875,0.8564453125,9.6435546875,-2.38037109375,-3.7841796875,-2.3565673828125,29.1412353515625,-18.8470458984375
1758182895.7255697,-0.49462890625,-0.04443359375,0.8603515625,8.1787109375,-2.5634765625,-3.7841796875,-2.3016357421875,29.1192626953125,-18.896484375
1758182895.7334013,-0.49462890625,-0.04443359375,0.8603515625,8.1787109375,-2.5634765625,-3.7841796875,-2.2412109375,29.091796875,-18.9404296875
1758182895.7434301,-0.4892578125,-0.03759765625,0.87109375,4.08935546875,-2.5634765625,-3.2958984375,-2.2247314453125,29.06982421875,-18.984375
1758182895.753925,-0.4892578125,-0.03759765625,0.87109375,4.08935546875,-2.5634765625,-3.2958984375,-2.2027587890625,29.0478515625,-19.0283203125
1758182895.7635972,-0.4873046875,-0.03955078125,0.865234375,2.38037109375,-2.5634765625,-3.11279296875,-2.197265625,29.0203857421875,-19.0667724609375
1758182895.7734306,-0.4873046875,-0.03955078125,0.865234375,2.38037109375,-2.5634765625,-3.11279296875,-2.197265625,28.9984130859375,-19.105224609375
1758182895.7835972,-0.48876953125,-0.04443359375,0.87451171875,5.43212890625,-2.44140625,-3.11279296875,-2.164306640625,28.9764404296875,-19.149169921875
1758182895.7943802,-0.48876953125,-0.04443359375,0.87451171875,5.43212890625,-2.44140625,-3.11279296875,-2.1258544921875,28.9544677734375,-19.1876220703125
1758182895.8030262,-0.47705078125,-0.0439453125,0.86865234375,8.1787109375,-2.44140625,-2.86865234375,-2.0654296875,28.9324951171875,-19.22607421875
1758182895.813029,-0.47705078125,-0.0439453125,0.86865234375,8.1787109375,-2.44140625,-2.86865234375,-2.0050048828125,28.9105224609375,-19.259033203125
1758182895.8238423,-0.4697265625,-0.03857421875,0.87646484375,7.50732421875,-2.3193359375,-2.685546875,-1.9500732421875,28.8885498046875,-19.2974853515625
1758182895.8331387,-0.4697265625,-0.03857421875,0.87646484375,7.50732421875,-2.3193359375,-2.685546875,-1.8951416015625,28.861083984375,-19.3304443359375
1758182895.8430882,-0.47509765625,-0.03564453125,0.89453125,3.7841796875,-1.5869140625,-1.89208984375,-1.8731689453125,28.85009765625,-19.35791015625
1758182895.853175,-0.47509765625,-0.03564453125,0.89453125,3.7841796875,-1.5869140625,-1.89208984375,-1.845703125,28.8336181640625,-19.3798828125
1758182895.8631392,-0.47119140625,-0.0341796875,0.87744140625,3.0517578125,-0.8544921875,-1.46484375,-1.8292236328125,28.8226318359375,-19.40185546875
1758182895.8731303,-0.47119140625,-0.0341796875,0.87744140625,3.0517578125,-0.8544921875,-1.46484375,-1.812744140625,28.8116455078125,-19.423828125
1758182895.883283,-0.47314453125,-0.0302734375,0.87939453125,3.84521484375,-0.54931640625,-1.220703125,-1.7852783203125,28.80615234375,-19.4403076171875
1758182895.8931508,-0.47314453125,-0.0302734375,0.87939453125,3.84521484375,-0.54931640625,-1.220703125,-1.7578125,28.8006591796875,-19.456787109375
1758182895.9031603,-0.46826171875,-0.025390625,0.88427734375,3.173828125,-0.1220703125,-0.8544921875,-1.73583984375,28.8006591796875,-19.4677734375
1758182895.9131756,-0.462890625,-0.0322265625,0.88134765625,0.9765625,-0.244140625,-0.54931640625,-1.7193603515625,28.795166015625,-19.478759765625
1758182895.9231937,-0.462890625,-0.0322265625,0.88134765625,0.9765625,-0.244140625,-0.54931640625,-1.7193603515625,28.7896728515625,-19.4842529296875
1758182895.933191,-0.46533203125,-0.0244140625,0.8916015625,-3.23486328125,-0.18310546875,-0.06103515625,-1.73583984375,28.7841796875,-19.48974609375
1758182895.9432156,-0.46533203125,-0.0244140625,0.8916015625,-3.23486328125,-0.18310546875,-0.06103515625,-1.768798828125,28.7786865234375,-19.48974609375
1758182895.9532108,-0.47900390625,-0.0146484375,0.88427734375,-7.080078125,0.0,0.48828125,-1.82373046875,28.7786865234375,-19.48974609375
1758182895.9632325,-0.47900390625,-0.0146484375,0.88427734375,-7.080078125,0.0,0.48828125,-1.8896484375,28.773193359375,-19.4842529296875
1758182895.9732351,-0.47705078125,-0.0244140625,0.8720703125,-8.544921875,0.0,0.8544921875,-1.966552734375,28.773193359375,-19.4732666015625
1758182895.9832456,-0.47705078125,-0.0244140625,0.8720703125,-8.544921875,0.0,0.8544921875,-2.04345703125,28.7677001953125,-19.4622802734375
1758182895.9932585,-0.48291015625,-0.04638671875,0.87158203125,-6.65283203125,-0.1220703125,0.91552734375,-2.1148681640625,28.7677001953125,-19.456787109375
1758182896.003267,-0.48291015625,-0.04638671875,0.87158203125,-6.65283203125,-0.1220703125,0.91552734375,-2.17529296875,28.76220703125,-19.44580078125
1758182896.0132906,-0.490234375,-0.0498046875,0.87646484375,-4.2724609375,-0.244140625,0.91552734375,-2.2247314453125,28.76220703125,-19.434814453125
1758182896.0232944,-0.490234375,-0.0498046875,0.87646484375,-4.2724609375,-0.244140625,0.91552734375,-2.26318359375,28.7567138671875,-19.4293212890625
1758182896.033305,-0.47998046875,-0.0478515625,0.86669921875,-3.35693359375,-0.6103515625,0.8544921875,-2.296142578125,28.751220703125,-19.4183349609375
1758182896.043317,-0.47998046875,-0.0478515625,0.86669921875,-3.35693359375,-0.6103515625,0.8544921875,-2.3236083984375,28.7457275390625,-19.412841796875
1758182896.0533242,-0.47998046875,-0.01953125,0.87890625,-5.2490234375,-0.732421875,1.46484375,-2.362060546875,28.740234375,-19.40185546875
1758182896.0633438,-0.47998046875,-0.01953125,0.87890625,-5.2490234375,-0.732421875,1.46484375,-2.406005859375,28.7347412109375,-19.3853759765625
1758182896.0735378,-0.486328125,-0.041015625,0.86962890625,-6.04248046875,-0.42724609375,1.77001953125,-2.449951171875,28.729248046875,-19.368896484375
1758182896.0833728,-0.486328125,-0.041015625,0.86962890625,-6.04248046875,-0.42724609375,1.77001953125,-2.4993896484375,28.7237548828125,-19.346923828125
1758182896.0933702,-0.4755859375,-0.056640625,0.87744140625,-1.64794921875,-0.30517578125,2.13623046875,-2.52685546875,28.71826171875,-19.3304443359375
1758182896.103387,-0.4755859375,-0.056640625,0.87744140625,-1.64794921875,-0.30517578125,2.13623046875,-2.5323486328125,28.71826171875,-19.3084716796875
1758182896.1134017,-0.478515625,-0.0615234375,0.8818359375,-0.8544921875,-0.244140625,2.0751953125,-2.5323486328125,28.71826171875,-19.2864990234375
1758182896.1234634,-0.478515625,-0.0615234375,0.8818359375,-0.8544921875,-0.244140625,2.0751953125,-2.5323486328125,28.7127685546875,-19.2645263671875
1758182896.1334863,-0.46923828125,-0.052734375,0.87060546875,2.0751953125,-0.18310546875,1.953125,-2.515869140625,28.7127685546875,-19.248046875
1758182896.1435459,-0.46923828125,-0.052734375,0.87060546875,2.0751953125,-0.18310546875,1.953125,-2.4884033203125,28.7127685546875,-19.22607421875
1758182896.153522,-0.4716796875,-0.04345703125,0.8798828125,3.60107421875,-0.1220703125,1.708984375,-2.4554443359375,28.707275390625,-19.2095947265625
1758182896.1557777,-0.4716796875,-0.04345703125,0.8798828125,3.60107421875,-0.1220703125,1.708984375,1.29638671875,158.90625,121.4044189453125
1758182896.1635146,-0.4716796875,-0.04345703125,0.8798828125,3.60107421875,-0.1220703125,1.708984375,-2.4114990234375,28.707275390625,-19.193115234375
1758182896.1735036,-0.47119140625,-0.03076171875,0.8681640625,3.23486328125,-0.18310546875,1.953125,-2.3675537109375,28.707275390625,-19.1766357421875
1758182896.1836817,-0.47119140625,-0.03076171875,0.8681640625,3.23486328125,-0.18310546875,1.953125,-2.3291015625,28.7017822265625,-19.16015625
1758182896.1938844,-0.47998046875,-0.0322265625,0.8740234375,0.67138671875,-0.1220703125,1.953125,-2.3016357421875,28.7017822265625,-19.1436767578125
1758182896.2036471,-0.47998046875,-0.0322265625,0.8740234375,0.67138671875,-0.1220703125,1.953125,-2.28515625,28.7017822265625,-19.1217041015625
1758182896.2139077,-0.48779296875,-0.0380859375,0.880859375,2.50244140625,-0.244140625,1.5869140625,-2.26318359375,28.6962890625,-19.105224609375
1758182896.223616,-0.48779296875,-0.0380859375,0.880859375,2.50244140625,-0.244140625,1.5869140625,-2.230224609375,28.6962890625,-19.09423828125
1758182896.2339454,-0.48828125,-0.03564453125,0.87451171875,4.33349609375,-0.30517578125,1.40380859375,-2.1917724609375,28.6962890625,-19.0777587890625
1758182896.2440038,-0.48828125,-0.03564453125,0.87451171875,4.33349609375,-0.30517578125,1.40380859375,-2.142333984375,28.6907958984375,-19.0667724609375
1758182896.254092,-0.486328125,-0.03515625,0.8623046875,4.8828125,-0.42724609375,1.15966796875,-2.0928955078125,28.6907958984375,-19.061279296875
1758182896.2641451,-0.486328125,-0.03515625,0.8623046875,4.8828125,-0.42724609375,1.15966796875,-2.04345703125,28.685302734375,-19.05029296875
1758182896.2739353,-0.48486328125,-0.03271484375,0.86572265625,3.2958984375,-0.244140625,1.15966796875,-1.99951171875,28.685302734375,-19.0447998046875
1758182896.2843692,-0.48486328125,-0.03271484375,0.86572265625,3.2958984375,-0.244140625,1.15966796875,-1.9610595703125,28.6798095703125,-19.039306640625
1758182896.2941434,-0.47900390625,-0.04931640625,0.8671875,5.7373046875,-0.48828125,0.48828125,-1.91162109375,28.6798095703125,-19.0338134765625
1758182896.3037682,-0.47900390625,-0.04931640625,0.8671875,5.7373046875,-0.48828125,0.48828125,-1.856689453125,28.6798095703125,-19.0338134765625
1758182896.3140757,-0.4765625,-0.03857421875,0.8896484375,7.26318359375,-0.6103515625,0.3662109375,-1.7962646484375,28.67431640625,-19.0338134765625
1758182896.3244004,-0.4765625,-0.03857421875,0.8896484375,7.26318359375,-0.6103515625,0.3662109375,-1.724853515625,28.6688232421875,-19.039306640625
1758182896.3340626,-0.4814453125,-0.01611328125,0.8720703125,8.056640625,-0.79345703125,0.244140625,-1.6534423828125,28.663330078125,-19.0447998046875
1758182896.343824,-0.4814453125,-0.01611328125,0.8720703125,8.056640625,-0.79345703125,0.244140625,-1.5765380859375,28.65234375,-19.0447998046875
1758182896.3540692,-0.48291015625,-0.0205078125,0.8701171875,8.11767578125,-0.9765625,0.244140625,-1.4996337890625,28.6468505859375,-19.05029296875
1758182896.3653204,-0.48291015625,-0.0205078125,0.8701171875,8.11767578125,-0.9765625,0.244140625,-1.417236328125,28.6358642578125,-19.05029296875
1758182896.3739522,-0.47705078125,-0.0205078125,0.8662109375,5.7373046875,-1.220703125,0.06103515625,-1.351318359375,28.63037109375,-19.0557861328125
1758182896.3838682,-0.47705078125,-0.0205078125,0.8662109375,5.7373046875,-1.220703125,0.06103515625,-1.3018798828125,28.619384765625,-19.061279296875
1758182896.3942928,-0.47509765625,-0.01611328125,0.87158203125,7.568359375,-1.5869140625,-0.18310546875,-1.2359619140625,28.6029052734375,-19.0667724609375
1758182896.4038365,-0.47509765625,-0.01611328125,0.87158203125,7.568359375,-1.5869140625,-0.18310546875,-1.16455078125,28.5919189453125,-19.0777587890625
1758182896.4140337,-0.47021484375,-0.01513671875,0.88037109375,8.7890625,-1.708984375,-0.3662109375,-1.0931396484375,28.575439453125,-19.083251953125
1758182896.42438,-0.47021484375,-0.01513671875,0.88037109375,8.7890625,-1.708984375,-0.3662109375,-1.0107421875,28.5589599609375,-19.09423828125
1758182896.435762,-0.46240234375,-0.0146484375,0.876953125,5.4931640625,-1.89208984375,-0.3662109375,-0.94482421875,28.54248046875,-19.105224609375
1758182896.4439132,-0.46240234375,-0.0146484375,0.876953125,5.4931640625,-1.89208984375,-0.3662109375,-0.8953857421875,28.5205078125,-19.1107177734375
1758182896.4540734,-0.462890625,0.0,0.8818359375,3.35693359375,-1.953125,-0.1220703125,-0.85693359375,28.5040283203125,-19.1162109375
1758182896.46406,-0.462890625,0.0,0.8818359375,3.35693359375,-1.953125,-0.1220703125,-0.823974609375,28.4820556640625,-19.1217041015625
1758182896.474446,-0.4580078125,0.0,0.89599609375,3.11279296875,-1.8310546875,0.0,-0.7965087890625,28.465576171875,-19.1217041015625
1758182896.4839132,-0.4580078125,0.0,0.89599609375,3.11279296875,-1.8310546875,0.0,-0.7635498046875,28.443603515625,-19.1217041015625
1758182896.4941235,-0.45556640625,-0.0048828125,0.896484375,1.3427734375,-2.01416015625,0.1220703125,-0.7415771484375,28.421630859375,-19.1217041015625
1758182896.5057209,-0.45556640625,-0.0048828125,0.896484375,1.3427734375,-2.01416015625,0.1220703125,-0.7305908203125,28.399658203125,-19.1162109375
1758182896.5147357,-0.4619140625,-0.01513671875,0.9013671875,-1.953125,-2.25830078125,0.06103515625,-0.736083984375,28.377685546875,-19.1162109375
1758182896.5245178,-0.4619140625,-0.01513671875,0.9013671875,-1.953125,-2.25830078125,0.06103515625,-0.7525634765625,28.3502197265625,-19.1162109375
1758182896.5345774,-0.4833984375,0.0126953125,0.904296875,-8.7890625,-2.3193359375,0.79345703125,-0.8074951171875,28.32275390625,-19.1107177734375
1758182896.5453634,-0.4833984375,0.0126953125,0.904296875,-8.7890625,-2.3193359375,0.79345703125,-0.889892578125,28.2952880859375,-19.0997314453125
1758182896.5555315,-0.50732421875,0.01171875,0.89990234375,-11.8408203125,-2.50244140625,0.79345703125,-0.9832763671875,28.2733154296875,-19.0887451171875
1758182896.5647497,-0.50732421875,0.01171875,0.89990234375,-11.8408203125,-2.50244140625,0.79345703125,-1.0931396484375,28.245849609375,-19.0777587890625
1758182896.574509,-0.5419921875,-0.01708984375,0.875,-13.24462890625,-2.38037109375,1.40380859375,-1.20849609375,28.2183837890625,-19.061279296875
1758182896.5858548,-0.5419921875,-0.01708984375,0.875,-13.24462890625,-2.38037109375,1.40380859375,-1.329345703125,28.1964111328125,-19.05029296875
1758182896.5953188,-0.55908203125,-0.0439453125,0.8369140625,-10.7421875,-2.38037109375,1.64794921875,-1.4337158203125,28.179931640625,-19.0338134765625
1758182896.6043472,-0.55908203125,-0.0439453125,0.8369140625,-10.7421875,-2.38037109375,1.64794921875,-1.527099609375,28.1634521484375,-19.0228271484375
1758182896.614367,-0.56982421875,-0.0615234375,0.8203125,-6.9580078125,-2.01416015625,1.46484375,-1.60400390625,28.1524658203125,-19.0118408203125
1758182896.6247807,-0.56982421875,-0.0615234375,0.8203125,-6.9580078125,-2.01416015625,1.46484375,-1.6644287109375,28.14697265625,-19.00634765625
1758182896.6342976,-0.56787109375,-0.07080078125,0.80517578125,3.662109375,-1.77001953125,0.79345703125,-1.669921875,28.1414794921875,-19.00634765625
1758182896.6441665,-0.56787109375,-0.07080078125,0.80517578125,3.662109375,-1.77001953125,0.79345703125,-1.6314697265625,28.1414794921875,-19.017333984375
1758182896.6550112,-0.55224609375,-0.060546875,0.80517578125,17.822265625,-1.3427734375,-0.06103515625,-1.527099609375,28.14697265625,-19.0338134765625
1758182896.6643937,-0.55224609375,-0.060546875,0.80517578125,17.822265625,-1.3427734375,-0.06103515625,-1.351318359375,28.157958984375,-19.061279296875
1758182896.6742322,-0.53466796875,-0.0263671875,0.8173828125,20.3857421875,-1.52587890625,-0.30517578125,-1.1700439453125,28.1689453125,-19.0887451171875
1758182896.6842198,-0.53466796875,-0.0263671875,0.8173828125,20.3857421875,-1.52587890625,-0.30517578125,-0.9722900390625,28.1744384765625,-19.1162109375
1758182896.694907,-0.525390625,0.01953125,0.82763671875,9.09423828125,-1.52587890625,0.0,-0.8349609375,28.1854248046875,-19.1436767578125
1758182896.704131,-0.525390625,0.01953125,0.82763671875,9.09423828125,-1.52587890625,0.0,-0.7470703125,28.19091796875,-19.171142578125
1758182896.7151425,-0.52587890625,0.0302734375,0.8212890625,-1.15966796875,-1.52587890625,0.67138671875,-0.7086181640625,28.201904296875,-19.193115234375
1758182896.724228,-0.52587890625,0.0302734375,0.8212890625,-1.15966796875,-1.52587890625,0.67138671875,-0.7196044921875,28.212890625,-19.2041015625
1758182896.7343793,-0.5205078125,0.00390625,0.82421875,-5.92041015625,-1.15966796875,1.220703125,-0.7525634765625,28.223876953125,-19.2205810546875
1758182896.7444239,-0.5205078125,0.00390625,0.82421875,-5.92041015625,-1.15966796875,1.220703125,-0.802001953125,28.23486328125,-19.22607421875
1758182896.755112,-0.50439453125,-0.0322265625,0.82958984375,-6.65283203125,-0.8544921875,1.28173828125,-0.85693359375,28.2513427734375,-19.2315673828125
1758182896.7643085,-0.50439453125,-0.0322265625,0.82958984375,-6.65283203125,-0.8544921875,1.28173828125,-0.9173583984375,28.267822265625,-19.237060546875
1758182896.7742763,-0.48974609375,-0.0380859375,0.87255859375,-2.685546875,-0.244140625,1.0986328125,-0.955810546875,28.2843017578125,-19.248046875
1758182896.7853935,-0.48974609375,-0.0380859375,0.87255859375,-2.685546875,-0.244140625,1.0986328125,-0.977783203125,28.30078125,-19.2535400390625
1758182896.794356,-0.4609375,-0.0283203125,0.89453125,2.0751953125,0.0,0.732421875,-0.977783203125,28.32275390625,-19.2645263671875
1758182896.8043027,-0.4609375,-0.0283203125,0.89453125,2.0751953125,0.0,0.732421875,-0.955810546875,28.3392333984375,-19.27001953125
1758182896.814605,-0.42578125,-0.0087890625,0.93212890625,2.25830078125,0.244140625,0.42724609375,-0.933837890625,28.3502197265625,-19.281005859375
1758182896.8243594,-0.42578125,-0.0087890625,0.93212890625,2.25830078125,0.244140625,0.42724609375,-0.911865234375,28.36669921875,-19.2919921875
1758182896.8343873,-0.421875,0.00048828125,0.96435546875,1.3427734375,0.54931640625,0.06103515625,-0.8953857421875,28.377685546875,-19.2974853515625
1758182896.8453493,-0.421875,0.00048828125,0.96435546875,1.3427734375,0.54931640625,0.06103515625,-0.87890625,28.3831787109375,-19.302978515625
1758182896.8543622,-0.4443359375,-0.0244140625,0.9345703125,10.1318359375,1.15966796875,-0.67138671875,-0.823974609375,28.3941650390625,-19.3084716796875
1758182896.8644252,-0.4443359375,-0.0244140625,0.9345703125,10.1318359375,1.15966796875,-0.67138671875,-0.7305908203125,28.399658203125,-19.3194580078125
1758182896.8751028,-0.4267578125,-0.048828125,0.8984375,24.5361328125,0.732421875,-1.708984375,-0.5657958984375,28.4051513671875,-19.3304443359375
1758182896.8844163,-0.4267578125,-0.048828125,0.8984375,24.5361328125,0.732421875,-1.708984375,-0.3350830078125,28.41064453125,-19.3524169921875
1758182896.8944478,-0.4072265625,-0.0107421875,0.916015625,26.3671875,0.06103515625,-2.01416015625,-0.098876953125,28.4051513671875,-19.3743896484375
1758182896.9054518,-0.4072265625,-0.0107421875,0.916015625,26.3671875,0.06103515625,-2.01416015625,0.1373291015625,28.399658203125,-19.3963623046875
1758182896.9144435,-0.40087890625,0.03271484375,0.9228515625,16.2353515625,-0.79345703125,-2.197265625,0.32958984375,28.3831787109375,-19.4183349609375
1758182896.9245713,-0.40087890625,0.03271484375,0.9228515625,16.2353515625,-0.79345703125,-2.197265625,0.472412109375,28.36669921875,-19.4403076171875
1758182896.9350166,-0.40625,0.044921875,0.94482421875,17.15087890625,-1.52587890625,-2.13623046875,0.6207275390625,28.3392333984375,-19.456787109375
1758182896.9445088,-0.40625,0.044921875,0.94482421875,17.15087890625,-1.52587890625,-2.13623046875,0.7745361328125,28.311767578125,-19.4732666015625
1758182896.9545815,-0.4013671875,0.0146484375,0.95458984375,19.4091796875,-2.0751953125,-1.8310546875,0.955810546875,28.2733154296875,-19.4842529296875
1758182896.9655075,-0.4013671875,0.0146484375,0.95458984375,19.4091796875,-2.0751953125,-1.8310546875,1.131591796875,28.23486328125,-19.4952392578125
1758182896.9744954,-0.40869140625,0.00830078125,0.8984375,13.671875,-2.50244140625,-1.5869140625,1.25244140625,28.19091796875,-19.5062255859375
1758182896.9845965,-0.40869140625,0.00830078125,0.8984375,13.671875,-2.50244140625,-1.5869140625,1.373291015625,28.14697265625,-19.51171875
1758182896.995155,-0.44775390625,0.013671875,0.90087890625,14.95361328125,-2.3193359375,-2.13623046875,1.505126953125,28.1085205078125,-19.5281982421875
1758182897.0045831,-0.44775390625,0.013671875,0.90087890625,14.95361328125,-2.3193359375,-2.13623046875,1.6314697265625,28.070068359375,-19.544677734375
1758182897.014613,-0.447265625,0.02734375,0.9013671875,20.8740234375,-1.8310546875,-2.50244140625,1.8182373046875,28.0316162109375,-19.566650390625
1758182897.0253139,-0.447265625,0.02734375,0.9013671875,20.8740234375,-1.8310546875,-2.50244140625,2.0050048828125,27.9986572265625,-19.588623046875
1758182897.036425,-0.423828125,0.025390625,0.8740234375,23.0712890625,-1.89208984375,-2.5634765625,2.2137451171875,27.9656982421875,-19.610595703125
1758182897.044597,-0.423828125,0.025390625,0.8740234375,23.0712890625,-1.89208984375,-2.5634765625,2.4224853515625,27.938232421875,-19.632568359375
1758182897.0546784,-0.4306640625,0.033203125,0.8916015625,19.95849609375,-2.13623046875,-2.62451171875,2.5982666015625,27.8997802734375,-19.654541015625
1758182897.0657132,-0.4306640625,0.033203125,0.8916015625,19.95849609375,-2.13623046875,-2.62451171875,2.7685546875,27.8668212890625,-19.6820068359375
1758182897.0747623,-0.4501953125,0.04638671875,0.8818359375,15.869140625,-1.89208984375,-2.3193359375,2.9058837890625,27.83935546875,-19.7039794921875
1758182897.085521,-0.4501953125,0.04638671875,0.8818359375,15.869140625,-1.89208984375,-2.3193359375,3.043212890625,27.806396484375,-19.7259521484375
1758182897.0950837,-0.47705078125,0.04833984375,0.890625,18.37158203125,-2.01416015625,-2.0751953125,3.2025146484375,27.7789306640625,-19.7479248046875
1758182897.1047368,-0.47705078125,0.04833984375,0.890625,18.37158203125,-2.01416015625,-2.0751953125,3.3673095703125,27.75146484375,-19.7698974609375
1758182897.1147995,-0.47119140625,0.060546875,0.86767578125,15.13671875,-2.13623046875,-1.52587890625,3.4991455078125,27.7239990234375,-19.786376953125
1758182897.1259537,-0.47119140625,0.060546875,0.86767578125,15.13671875,-2.13623046875,-1.52587890625,3.6309814453125,27.696533203125,-19.808349609375
1758182897.1347284,-0.4765625,0.07080078125,0.85595703125,6.04248046875,-2.197265625,-0.9765625,3.680419921875,27.6690673828125,-19.8193359375
1758182897.1448383,-0.4765625,0.07080078125,0.85595703125,6.04248046875,-2.197265625,-0.9765625,3.724365234375,27.6470947265625,-19.8358154296875
1758182897.1554184,-0.48876953125,0.06201171875,0.8466796875,3.173828125,-1.77001953125,-0.6103515625,3.746337890625,27.6251220703125,-19.8468017578125
1758182897.165144,-0.48876953125,0.06201171875,0.8466796875,3.173828125,-1.77001953125,-0.6103515625,3.768310546875,27.608642578125,-19.8577880859375
1758182897.1747265,-0.4951171875,0.06396484375,0.86279296875,1.52587890625,-1.5869140625,-0.3662109375,3.779296875,27.5921630859375,-19.8687744140625
1758182897.1851838,-0.4951171875,0.06396484375,0.86279296875,1.52587890625,-1.5869140625,-0.3662109375,3.7847900390625,27.5811767578125,-19.8797607421875
1758182897.1956413,-0.50439453125,0.0703125,0.8681640625,-2.8076171875,-1.46484375,0.0,3.7518310546875,27.5701904296875,-19.8907470703125
1758182897.2047603,-0.50439453125,0.0703125,0.8681640625,-2.8076171875,-1.46484375,0.0,3.724365234375,27.5592041015625,-19.896240234375
1758182897.214929,-0.50146484375,0.05078125,0.86669921875,0.6103515625,-1.953125,-0.244140625,3.724365234375,27.5482177734375,-19.9127197265625
1758182897.2256722,-0.50146484375,0.05078125,0.86669921875,0.6103515625,-1.953125,-0.244140625,3.7298583984375,27.53173828125,-19.9237060546875
1758182897.2348826,-0.48388671875,0.052734375,0.88232421875,10.986328125,-1.953125,-0.732421875,3.8287353515625,27.520751953125,-19.9456787109375
1758182897.2451332,-0.48388671875,0.052734375,0.88232421875,10.986328125,-1.953125,-0.732421875,3.93310546875,27.509765625,-19.962158203125
1758182897.2555122,-0.4560546875,0.07275390625,0.86328125,7.87353515625,-1.77001953125,-0.67138671875,4.0045166015625,27.498779296875,-19.984130859375
1758182897.2652552,-0.4560546875,0.07275390625,0.86328125,7.87353515625,-1.77001953125,-0.67138671875,4.075927734375,27.48779296875,-20.0006103515625
1758182897.2749147,-0.4501953125,0.08056640625,0.84521484375,-0.3662109375,-1.77001953125,-0.3662109375,4.0704345703125,27.476806640625,-20.0115966796875
1758182897.2852829,-0.4501953125,0.08056640625,0.84521484375,-0.3662109375,-1.77001953125,-0.3662109375,4.06494140625,27.4658203125,-20.0225830078125
1758182897.2956219,-0.46142578125,0.06689453125,0.86865234375,-2.8076171875,-1.46484375,-0.30517578125,4.031982421875,27.4603271484375,-20.0335693359375
1758182897.3052492,-0.46142578125,0.06689453125,0.86865234375,-2.8076171875,-1.46484375,-0.30517578125,4.0045166015625,27.4493408203125,-20.0445556640625
1758182897.3149874,-0.46484375,0.06298828125,0.89990234375,2.3193359375,-1.46484375,-0.48828125,4.02099609375,27.4383544921875,-20.06103515625
1758182897.325848,-0.46484375,0.06298828125,0.89990234375,2.3193359375,-1.46484375,-0.48828125,4.04296875,27.4273681640625,-20.072021484375
1758182897.3355823,-0.4716796875,0.06982421875,0.90625,0.48828125,-1.77001953125,-0.30517578125,4.04296875,27.4163818359375,-20.0830078125
1758182897.3453305,-0.4716796875,0.06982421875,0.90625,0.48828125,-1.77001953125,-0.30517578125,4.0484619140625,27.39990234375,-20.093994140625
1758182897.355528,-0.458984375,0.091796875,0.86962890625,-3.7841796875,-2.01416015625,-0.244140625,4.010009765625,27.3834228515625,-20.0994873046875
1758182897.3652918,-0.458984375,0.091796875,0.86962890625,-3.7841796875,-2.01416015625,-0.244140625,3.9715576171875,27.366943359375,-20.10498046875
1758182897.3750005,-0.470703125,0.06787109375,0.86962890625,-1.89208984375,-2.13623046875,-0.54931640625,3.955078125,27.3504638671875,-20.115966796875
1758182897.3858318,-0.470703125,0.06787109375,0.86962890625,-1.89208984375,-2.13623046875,-0.54931640625,3.93310546875,27.333984375,-20.126953125
1758182897.3952334,-0.47021484375,0.0556640625,0.876953125,2.25830078125,-1.708984375,-0.8544921875,3.955078125,27.322998046875,-20.1434326171875
1758182897.4053812,-0.47021484375,0.0556640625,0.876953125,2.25830078125,-1.708984375,-0.8544921875,3.9715576171875,27.31201171875,-20.159912109375
1758182897.4151862,-0.46630859375,0.06494140625,0.87841796875,2.9296875,-1.5869140625,-1.15966796875,3.9990234375,27.301025390625,-20.1763916015625
1758182897.4256408,-0.46630859375,0.06494140625,0.87841796875,2.9296875,-1.5869140625,-1.15966796875,4.02099609375,27.2900390625,-20.19287109375
1758182897.4350948,-0.46240234375,0.07861328125,0.87451171875,-1.52587890625,-1.220703125,-0.91552734375,4.0045166015625,27.2845458984375,-20.2093505859375
1758182897.4455152,-0.46240234375,0.07861328125,0.87451171875,-1.52587890625,-1.220703125,-0.91552734375,3.988037109375,27.2735595703125,-20.225830078125
1758182897.4558005,-0.47314453125,0.06787109375,0.88134765625,-4.2724609375,-1.46484375,-0.732421875,3.944091796875,27.26806640625,-20.23681640625
1758182897.4654436,-0.47314453125,0.06787109375,0.88134765625,-4.2724609375,-1.46484375,-0.732421875,3.900146484375,27.257080078125,-20.2532958984375
1758182897.4753618,-0.47412109375,0.0556640625,0.89208984375,-1.64794921875,-1.46484375,-0.6103515625,3.8836669921875,27.24609375,-20.2642822265625
1758182897.4857104,-0.47412109375,0.0556640625,0.89208984375,-1.64794921875,-1.46484375,-0.6103515625,3.8671875,27.235107421875,-20.2752685546875
1758182897.4951882,-0.45361328125,0.06396484375,0.88671875,1.708984375,-1.3427734375,-0.732421875,3.878173828125,27.2296142578125,-20.291748046875
1758182897.505502,-0.45361328125,0.06396484375,0.88671875,1.708984375,-1.3427734375,-0.732421875,3.8946533203125,27.2186279296875,-20.302734375
1758182897.5158937,-0.4482421875,0.0654296875,0.88037109375,-2.25830078125,-1.220703125,-0.48828125,3.8726806640625,27.2076416015625,-20.313720703125
1758182897.5255375,-0.4482421875,0.0654296875,0.88037109375,-2.25830078125,-1.220703125,-0.48828125,3.8507080078125,27.2021484375,-20.32470703125
1758182897.535179,-0.447265625,0.06689453125,0.89306640625,-6.4697265625,-1.220703125,0.0,3.7847900390625,27.191162109375,-20.3302001953125
1758182897.5456204,-0.447265625,0.06689453125,0.89306640625,-6.4697265625,-1.220703125,0.0,3.724365234375,27.18017578125,-20.3302001953125
1758182897.5552633,-0.447265625,0.0556640625,0.89892578125,-6.7138671875,-1.15966796875,0.0,3.658447265625,27.169189453125,-20.335693359375
1758182897.5655818,-0.447265625,0.0556640625,0.89892578125,-6.7138671875,-1.15966796875,0.0,3.5980224609375,27.158203125,-20.335693359375
1758182897.5757024,-0.44677734375,0.0537109375,0.90283203125,-2.44140625,-0.91552734375,-0.30517578125,3.570556640625,27.1527099609375,-20.3411865234375
1758182897.5858874,-0.44677734375,0.0537109375,0.90283203125,-2.44140625,-0.91552734375,-0.30517578125,3.548583984375,27.1417236328125,-20.3466796875
1758182897.595252,-0.4443359375,0.0693359375,0.91650390625,-4.08935546875,-0.54931640625,-0.18310546875,3.5101318359375,27.13623046875,-20.3466796875
1758182897.60559,-0.4443359375,0.0693359375,0.91650390625,-4.08935546875,-0.54931640625,-0.18310546875,3.4716796875,27.125244140625,-20.3466796875
1758182897.6160834,-0.431640625,0.06787109375,0.896484375,-12.39013671875,-0.244140625,0.3662109375,3.350830078125,27.125244140625,-20.3411865234375
1758182897.6256077,-0.431640625,0.06787109375,0.896484375,-12.39013671875,-0.244140625,0.3662109375,3.2354736328125,27.1197509765625,-20.335693359375
1758182897.6353872,-0.4267578125,0.04248046875,0.8681640625,-12.5732421875,-0.18310546875,0.30517578125,3.1146240234375,27.1142578125,-20.3302001953125
1758182897.64585,-0.4267578125,0.04248046875,0.8681640625,-12.5732421875,-0.18310546875,0.30517578125,2.999267578125,27.1087646484375,-20.3192138671875
1758182897.6554232,-0.43701171875,0.03515625,0.90673828125,-4.33349609375,-0.06103515625,-0.18310546875,2.9608154296875,27.103271484375,-20.3192138671875
1758182897.6656644,-0.43701171875,0.03515625,0.90673828125,-4.33349609375,-0.06103515625,-0.18310546875,2.9168701171875,27.0977783203125,-20.3192138671875
1758182897.6757035,-0.423828125,0.046875,0.91357421875,-0.6103515625,0.06103515625,-0.3662109375,2.911376953125,27.09228515625,-20.3192138671875
1758182897.6860087,-0.423828125,0.046875,0.91357421875,-0.6103515625,0.06103515625,-0.3662109375,2.911376953125,27.0867919921875,-20.3192138671875
1758182897.6954305,-0.41162109375,0.05322265625,0.89013671875,-2.13623046875,-0.244140625,-0.18310546875,2.889404296875,27.081298828125,-20.3192138671875
1758182897.705732,-0.41162109375,0.05322265625,0.89013671875,-2.13623046875,-0.244140625,-0.18310546875,2.8729248046875,27.0703125,-20.313720703125
1758182897.716109,-0.41552734375,0.04833984375,0.8876953125,-6.28662109375,-0.67138671875,0.0,2.8125,27.0538330078125,-20.3082275390625
1758182897.7257185,-0.41552734375,0.04833984375,0.8876953125,-6.28662109375,-0.67138671875,0.0,2.7520751953125,27.0428466796875,-20.302734375
1758182897.7354314,-0.42919921875,0.0390625,0.91357421875,-3.11279296875,-0.8544921875,0.0,2.724609375,27.0263671875,-20.2972412109375
1758182897.745972,-0.42919921875,0.0390625,0.91357421875,-3.11279296875,-0.8544921875,0.0,2.6971435546875,27.0098876953125,-20.291748046875
1758182897.7554991,-0.41845703125,0.03759765625,0.91796875,-2.197265625,-0.6103515625,0.3662109375,2.6806640625,26.993408203125,-20.28076171875
1758182897.7658024,-0.41845703125,0.03759765625,0.91796875,-2.197265625,-0.6103515625,0.3662109375,2.6641845703125,26.9769287109375,-20.269775390625
1758182897.7758236,-0.421875,0.04052734375,0.89453125,-7.14111328125,-0.91552734375,0.79345703125,2.5982666015625,26.96044921875,-20.2532958984375
1758182897.7861824,-0.421875,0.04052734375,0.89453125,-7.14111328125,-0.91552734375,0.79345703125,2.5323486328125,26.9384765625,-20.2423095703125
1758182897.7954886,-0.423828125,0.03662109375,0.88671875,-10.25390625,-1.03759765625,0.8544921875,2.4334716796875,26.91650390625,-20.225830078125
1758182897.8059266,-0.423828125,0.03662109375,0.88671875,-10.25390625,-1.03759765625,0.8544921875,2.340087890625,26.9000244140625,-20.2093505859375
1758182897.8161218,-0.4345703125,0.0263671875,0.8984375,-5.0048828125,-1.15966796875,0.8544921875,2.296142578125,26.8780517578125,-20.19287109375
1758182897.825917,-0.4345703125,0.0263671875,0.8984375,-5.0048828125,-1.15966796875,0.8544921875,2.252197265625,26.8560791015625,-20.181884765625
1758182897.8355417,-0.4287109375,0.01904296875,0.88134765625,1.708984375,-0.6103515625,0.54931640625,2.274169921875,26.8450927734375,-20.1708984375
1758182897.8461165,-0.4287109375,0.01904296875,0.88134765625,1.708984375,-0.6103515625,0.54931640625,2.296142578125,26.82861328125,-20.159912109375
1758182897.855836,-0.423828125,0.0244140625,0.86474609375,1.0986328125,-0.48828125,0.48828125,2.30712890625,26.817626953125,-20.14892578125
1758182897.8659413,-0.423828125,0.0244140625,0.86474609375,1.0986328125,-0.48828125,0.48828125,2.3236083984375,26.806640625,-20.1434326171875
1758182897.875593,-0.4326171875,0.0380859375,0.87890625,-3.72314453125,-0.3662109375,0.48828125,2.28515625,26.795654296875,-20.1324462890625
1758182897.8862805,-0.4326171875,0.0380859375,0.87890625,-3.72314453125,-0.3662109375,0.48828125,2.252197265625,26.78466796875,-20.126953125
1758182897.8956466,-0.45361328125,0.03564453125,0.900390625,-2.86865234375,-0.3662109375,0.6103515625,2.2247314453125,26.773681640625,-20.115966796875
1758182897.9060342,-0.45361328125,0.03564453125,0.900390625,-2.86865234375,-0.3662109375,0.6103515625,2.2027587890625,26.7681884765625,-20.1104736328125
1758182897.9164457,-0.47509765625,0.041015625,0.90576171875,0.42724609375,-0.30517578125,0.79345703125,2.208251953125,26.7572021484375,-20.0994873046875
1758182897.9261067,-0.47509765625,0.041015625,0.90576171875,0.42724609375,-0.30517578125,0.79345703125,2.21923828125,26.751708984375,-20.0885009765625
1758182897.9364834,-0.4716796875,0.02880859375,0.86376953125,2.685546875,0.1220703125,0.42724609375,2.2467041015625,26.751708984375,-20.0885009765625
1758182897.946257,-0.4716796875,0.02880859375,0.86376953125,2.685546875,0.1220703125,0.42724609375,2.2796630859375,26.751708984375,-20.0830078125
1758182897.9561625,-0.4833984375,0.04150390625,0.9033203125,-0.79345703125,-0.1220703125,0.42724609375,2.274169921875,26.751708984375,-20.0830078125
1758182897.9660246,-0.4833984375,0.04150390625,0.9033203125,-0.79345703125,-0.1220703125,0.42724609375,2.2686767578125,26.751708984375,-20.0830078125
1758182897.9758842,-0.4833984375,0.05517578125,0.91796875,-6.77490234375,-0.18310546875,0.3662109375,2.2027587890625,26.751708984375,-20.0830078125
1758182897.9864588,-0.466796875,0.04833984375,0.90380859375,-7.01904296875,-0.67138671875,0.244140625,2.1368408203125,26.7462158203125,-20.0830078125
1758182897.9957936,-0.466796875,0.04833984375,0.90380859375,-7.01904296875,-0.67138671875,0.244140625,2.0709228515625,26.74072265625,-20.0830078125
1758182898.0061946,-0.45458984375,0.0498046875,0.8916015625,-5.126953125,-0.3662109375,0.30517578125,2.0159912109375,26.74072265625,-20.0830078125
1758182898.016177,-0.45458984375,0.0498046875,0.8916015625,-5.126953125,-0.3662109375,0.30517578125,1.966552734375,26.7352294921875,-20.0830078125
1758182898.0261862,-0.45458984375,0.0498046875,0.8916015625,-2.9296875,-0.54931640625,0.30517578125,1.93359375,26.7352294921875,-20.0830078125
1758182898.0358183,-0.44091796875,0.02734375,0.875,-2.9296875,-0.54931640625,0.30517578125,1.91162109375,26.729736328125,-20.0830078125
1758182898.0467114,-0.44921875,0.01904296875,0.888671875,-0.3662109375,-0.67138671875,0.1220703125,1.900634765625,26.729736328125,-20.0830078125
1758182898.0560787,-0.44921875,0.01904296875,0.888671875,-0.3662109375,-0.67138671875,0.1220703125,1.900634765625,26.7242431640625,-20.0885009765625
1758182898.0661032,-0.4443359375,0.02197265625,0.904296875,2.3193359375,-0.6103515625,0.0,1.91162109375,26.71875,-20.0885009765625
1758182898.0758653,-0.4443359375,0.02197265625,0.904296875,2.3193359375,-0.6103515625,0.0,1.93359375,26.7132568359375,-20.093994140625
1758182898.0864859,-0.4521484375,0.033203125,0.9052734375,-2.86865234375,-0.732421875,0.1220703125,1.93359375,26.707763671875,-20.093994140625
1758182898.095917,-0.4521484375,0.033203125,0.9052734375,-2.86865234375,-0.732421875,0.1220703125,1.9061279296875,26.69677734375,-20.0994873046875
1758182898.1062667,-0.4482421875,0.0458984375,0.89111328125,-7.14111328125,-1.03759765625,0.06103515625,1.856689453125,26.6912841796875,-20.0994873046875
1758182898.1167393,-0.4482421875,0.0458984375,0.89111328125,-7.14111328125,-1.03759765625,0.06103515625,1.790771484375,26.6802978515625,-20.0994873046875
1758182898.1262884,-0.451171875,0.03076171875,0.89794921875,-7.2021484375,-1.15966796875,0.244140625,1.724853515625,26.6693115234375,-20.0994873046875
1758182898.1360443,-0.451171875,0.03076171875,0.89794921875,-7.2021484375,-1.15966796875,0.244140625,1.6534423828125,26.6583251953125,-20.0994873046875
1758182898.1462584,-0.4521484375,0.015625,0.8955078125,-0.6103515625,-1.0986328125,-0.06103515625,1.6204833984375,26.6473388671875,-20.0994873046875
1758182898.1566253,-0.4521484375,0.015625,0.8955078125,-0.6103515625,-1.0986328125,-0.06103515625,1.614990234375,26.6363525390625,-20.10498046875
1758182898.1662195,-0.447265625,0.00732421875,0.8798828125,5.37109375,-1.0986328125,-0.18310546875,1.6424560546875,26.6253662109375,-20.1104736328125
1758182898.1760232,-0.447265625,0.00732421875,0.8798828125,5.37109375,-1.0986328125,-0.18310546875,1.69189453125,26.619873046875,-20.115966796875
1758182898.1864114,-0.4423828125,0.0244140625,0.8857421875,2.99072265625,-1.03759765625,-0.3662109375,1.73583984375,26.60888671875,-20.1214599609375
1758182898.1960735,-0.4423828125,0.0244140625,0.8857421875,2.99072265625,-1.03759765625,-0.3662109375,1.7633056640625,26.597900390625,-20.126953125
1758182898.2062347,-0.44384765625,0.0419921875,0.89306640625,-1.03759765625,-0.8544921875,-0.244140625,1.768798828125,26.5924072265625,-20.137939453125
1758182898.2160866,-0.44384765625,0.0419921875,0.89306640625,-1.03759765625,-0.8544921875,-0.244140625,1.7578125,26.5814208984375,-20.1434326171875
1758182898.2267113,-0.4560546875,0.03125,0.89404296875,-1.3427734375,-0.67138671875,-0.1220703125,1.746826171875,26.575927734375,-20.14892578125
1758182898.2362998,-0.4560546875,0.03125,0.89404296875,-1.3427734375,-0.67138671875,-0.1220703125,1.7303466796875,26.5704345703125,-20.14892578125
1758182898.24636,-0.45751953125,0.0146484375,0.89892578125,5.126953125,-0.67138671875,-0.42724609375,1.7523193359375,26.56494140625,-20.1544189453125
1758182898.256476,-0.45751953125,0.0146484375,0.89892578125,5.126953125,-0.67138671875,-0.42724609375,1.8017578125,26.5594482421875,-20.1654052734375
1758182898.2663841,-0.45068359375,0.01318359375,0.9013671875,11.5966796875,-0.732421875,-0.6103515625,1.878662109375,26.553955078125,-20.1763916015625
1758182898.2762864,-0.45068359375,0.01318359375,0.9013671875,11.5966796875,-0.732421875,-0.6103515625,1.988525390625,26.5484619140625,-20.1873779296875
1758182898.286887,-0.43017578125,0.0283203125,0.88525390625,8.60595703125,-0.79345703125,-0.67138671875,2.08740234375,26.54296875,-20.1983642578125
1758182898.2962246,-0.43017578125,0.0283203125,0.88525390625,8.60595703125,-0.79345703125,-0.67138671875,2.164306640625,26.531982421875,-20.2093505859375
1758182898.3062527,-0.42236328125,0.04736328125,0.87744140625,4.82177734375,-1.03759765625,-0.54931640625,2.2247314453125,26.5264892578125,-20.2203369140625
1758182898.3162818,-0.42236328125,0.04736328125,0.87744140625,4.82177734375,-1.03759765625,-0.54931640625,2.2686767578125,26.5155029296875,-20.2313232421875
1758182898.3268902,-0.41748046875,0.05419921875,0.9072265625,3.60107421875,-0.91552734375,-0.48828125,2.3016357421875,26.5045166015625,-20.23681640625
1758182898.3363812,-0.41748046875,0.05419921875,0.9072265625,3.60107421875,-0.91552734375,-0.48828125,2.3345947265625,26.4935302734375,-20.247802734375
1758182898.3463686,-0.4208984375,0.0380859375,0.908203125,4.5166015625,-1.0986328125,-0.18310546875,2.373046875,26.4825439453125,-20.2532958984375
1758182898.357298,-0.4208984375,0.0380859375,0.908203125,4.5166015625,-1.0986328125,-0.18310546875,2.4169921875,26.466064453125,-20.2532958984375
1758182898.3668826,-0.41650390625,0.03955078125,0.9150390625,1.89208984375,-1.0986328125,0.06103515625,2.4444580078125,26.455078125,-20.2532958984375
1758182898.3763092,-0.41650390625,0.03955078125,0.9150390625,1.89208984375,-1.0986328125,0.06103515625,2.4664306640625,26.4385986328125,-20.2532958984375
1758182898.386292,-0.40869140625,0.04345703125,0.91259765625,-2.44140625,-1.220703125,0.244140625,2.4609375,26.422119140625,-20.2532958984375
1758182898.3968692,-0.40869140625,0.04345703125,0.91259765625,-2.44140625,-1.220703125,0.244140625,2.43896484375,26.400146484375,-20.247802734375
1758182898.4069123,-0.4189453125,0.041015625,0.92041015625,-1.708984375,-1.3427734375,0.06103515625,2.4169921875,26.3836669921875,-20.2423095703125
1758182898.416318,-0.4189453125,0.041015625,0.92041015625,-1.708984375,-1.3427734375,0.06103515625,2.4005126953125,26.3616943359375,-20.23681640625
1758182898.4263701,-0.40966796875,0.03857421875,0.916015625,1.953125,-1.0986328125,0.06103515625,2.4005126953125,26.34521484375,-20.23681640625
1758182898.436898,-0.40966796875,0.03857421875,0.916015625,1.953125,-1.0986328125,0.06103515625,2.4169921875,26.3232421875,-20.2313232421875
1758182898.4464405,-0.40966796875,0.0439453125,0.904296875,-0.67138671875,-1.15966796875,0.18310546875,2.427978515625,26.3067626953125,-20.225830078125
1758182898.456368,-0.40966796875,0.0439453125,0.904296875,-0.67138671875,-1.15966796875,0.18310546875,2.4224853515625,26.2847900390625,-20.2203369140625
1758182898.466718,-0.4169921875,0.05517578125,0.90771484375,-7.62939453125,-1.15966796875,0.67138671875,2.3785400390625,26.2628173828125,-20.2093505859375
1758182898.4773312,-0.4169921875,0.05517578125,0.90771484375,-7.62939453125,-1.15966796875,0.67138671875,2.30712890625,26.246337890625,-20.1983642578125
1758182898.4863408,-0.42236328125,0.052734375,0.923828125,-10.3759765625,-1.46484375,0.9765625,2.2247314453125,26.2188720703125,-20.181884765625
1758182898.496498,-0.42236328125,0.052734375,0.923828125,-10.3759765625,-1.46484375,0.9765625,2.13134765625,26.1968994140625,-20.1654052734375
1758182898.5070693,-0.4248046875,0.0380859375,0.9169921875,-11.77978515625,-1.40380859375,1.220703125,2.0269775390625,26.1749267578125,-20.14892578125
1758182898.5165322,-0.4248046875,0.0380859375,0.9169921875,-11.77978515625,-1.40380859375,1.220703125,1.922607421875,26.1529541015625,-20.126953125
1758182898.5264328,-0.42529296875,0.02490234375,0.8994140625,-11.474609375,-1.708984375,1.220703125,1.8182373046875,26.12548828125,-20.1104736328125
1758182898.5365255,-0.42529296875,0.02490234375,0.8994140625,-11.474609375,-1.708984375,1.220703125,1.7138671875,26.103515625,-20.0885009765625
1758182898.5471928,-0.42529296875,0.02490234375,0.8994140625,-9.94873046875,-1.52587890625,1.15966796875,1.614990234375,26.08154296875,-20.072021484375
1758182898.556592,-0.42822265625,0.02197265625,0.89892578125,-9.94873046875,-1.52587890625,1.15966796875,1.527099609375,26.0540771484375,-20.0555419921875
1758182898.5665221,-0.431640625,0.02099609375,0.89892578125,-8.4228515625,-1.52587890625,1.220703125,1.4447021484375,26.03759765625,-20.0390625
1758182898.5774548,-0.431640625,0.02099609375,0.89892578125,-8.4228515625,-1.52587890625,1.220703125,1.373291015625,26.015625,-20.0225830078125
1758182898.5868106,-0.4375,0.0234375,0.90234375,-11.04736328125,-1.708984375,1.46484375,1.285400390625,25.99365234375,-20.0006103515625
1758182898.5965257,-0.4375,0.0234375,0.90234375,-11.04736328125,-1.708984375,1.46484375,1.1865234375,25.9716796875,-19.984130859375
1758182898.6066127,-0.4453125,0.02587890625,0.88427734375,-14.09912109375,-1.64794921875,1.8310546875,1.07666015625,25.94970703125,-19.962158203125
1758182898.6176035,-0.4453125,0.02587890625,0.88427734375,-14.09912109375,-1.64794921875,1.8310546875,0.9503173828125,25.927734375,-19.940185546875
1758182898.6265736,-0.431640625,0.01806640625,0.88720703125,-10.92529296875,-1.46484375,1.28173828125,0.8349609375,25.9112548828125,-19.9237060546875
1758182898.6367168,-0.431640625,0.01806640625,0.88720703125,-10.92529296875,-1.46484375,1.28173828125,0.7415771484375,25.894775390625,-19.9072265625
1758182898.6472163,-0.439453125,-0.00048828125,0.9140625,-7.75146484375,-1.46484375,1.46484375,0.6591796875,25.8782958984375,-19.8907470703125
1758182898.657619,-0.439453125,-0.00048828125,0.9140625,-7.75146484375,-1.46484375,1.46484375,0.59326171875,25.86181640625,-19.874267578125
1758182898.6666975,-0.43505859375,0.00146484375,0.89013671875,-3.23486328125,-1.28173828125,1.15966796875,0.54931640625,25.8453369140625,-19.86328125
1758182898.6767764,-0.43505859375,0.00146484375,0.89013671875,-3.23486328125,-1.28173828125,1.15966796875,0.52734375,25.828857421875,-19.8468017578125
1758182898.6873577,-0.4443359375,0.00048828125,0.89208984375,-2.99072265625,-1.46484375,1.28173828125,0.5108642578125,25.81787109375,-19.8358154296875
1758182898.6966932,-0.4443359375,0.00048828125,0.89208984375,-2.99072265625,-1.46484375,1.28173828125,0.4888916015625,25.8013916015625,-19.8248291015625
1758182898.7075996,-0.44580078125,0.00634765625,0.8876953125,-0.8544921875,-1.40380859375,0.9765625,0.4779052734375,25.7904052734375,-19.8138427734375
1758182898.7168932,-0.44580078125,0.00634765625,0.8876953125,-0.8544921875,-1.40380859375,0.9765625,0.4779052734375,25.77392578125,-19.808349609375
1758182898.726779,-0.44140625,0.00341796875,0.8955078125,4.7607421875,-1.52587890625,1.03759765625,0.4998779296875,25.762939453125,-19.8028564453125
1758182898.7368188,-0.44140625,0.00341796875,0.8955078125,4.7607421875,-1.52587890625,1.03759765625,0.5548095703125,25.7464599609375,-19.7918701171875
1758182898.747325,-0.443359375,0.005859375,0.89599609375,2.38037109375,-1.77001953125,0.91552734375,0.5987548828125,25.7354736328125,-19.786376953125
1758182898.7568386,-0.443359375,0.005859375,0.89599609375,2.38037109375,-1.77001953125,0.91552734375,0.626220703125,25.718994140625,-19.7808837890625
1758182898.7668366,-0.44287109375,0.0146484375,0.89599609375,-2.9296875,-1.8310546875,0.9765625,0.626220703125,25.7025146484375,-19.775390625
1758182898.7780244,-0.44287109375,0.0146484375,0.89599609375,-2.9296875,-1.8310546875,0.9765625,0.604248046875,25.68603515625,-19.7698974609375
1758182898.786831,-0.44580078125,0.017578125,0.89599609375,-3.2958984375,-1.77001953125,0.8544921875,0.5767822265625,25.6695556640625,-19.7698974609375
1758182898.7968364,-0.44580078125,0.017578125,0.89599609375,-3.2958984375,-1.77001953125,0.8544921875,0.54931640625,25.653076171875,-19.764404296875
1758182898.8070607,-0.455078125,-0.00537109375,0.8994140625,-0.48828125,-1.52587890625,0.48828125,0.538330078125,25.64208984375,-19.764404296875
1758182898.817763,-0.455078125,-0.00537109375,0.8994140625,-0.48828125,-1.52587890625,0.48828125,0.5328369140625,25.631103515625,-19.764404296875
1758182898.8269882,-0.4521484375,-0.0087890625,0.8994140625,5.37109375,-1.28173828125,0.3662109375,0.560302734375,25.6201171875,-19.764404296875
1758182898.8383095,-0.4521484375,-0.0087890625,0.8994140625,5.37109375,-1.28173828125,0.3662109375,0.615234375,25.6146240234375,-19.7698974609375
1758182898.8475657,-0.44677734375,-0.009765625,0.87841796875,9.27734375,-1.28173828125,-0.3662109375,0.6866455078125,25.6036376953125,-19.7808837890625
1758182898.856957,-0.44677734375,-0.009765625,0.87841796875,9.27734375,-1.28173828125,-0.3662109375,0.7745361328125,25.59814453125,-19.79736328125
1758182898.8669257,-0.43896484375,0.00732421875,0.89794921875,10.8642578125,-1.52587890625,-0.42724609375,0.867919921875,25.587158203125,-19.808349609375
1758182898.8777242,-0.43896484375,0.00732421875,0.89794921875,10.8642578125,-1.52587890625,-0.42724609375,0.9722900390625,25.576171875,-19.8248291015625
1758182898.8870807,-0.42578125,0.01904296875,0.90380859375,12.451171875,-1.52587890625,-0.54931640625,1.0821533203125,25.5706787109375,-19.84130859375
1758182898.8969665,-0.42578125,0.01904296875,0.90380859375,12.451171875,-1.52587890625,-0.54931640625,1.197509765625,25.5596923828125,-19.8577880859375
1758182898.9070146,-0.41650390625,0.02001953125,0.9013671875,10.6201171875,-1.46484375,-0.54931640625,1.307373046875,25.5487060546875,-19.874267578125
1758182898.91787,-0.41650390625,0.02001953125,0.9013671875,10.6201171875,-1.46484375,-0.54931640625,1.40625,25.5322265625,-19.8907470703125
1758182898.9270692,-0.4267578125,0.025390625,0.900390625,5.0048828125,-1.46484375,-0.1220703125,1.4776611328125,25.521240234375,-19.9017333984375
1758182898.9370499,-0.4267578125,0.025390625,0.900390625,5.0048828125,-1.46484375,-0.1220703125,1.5216064453125,25.51025390625,-19.9072265625
1758182898.947858,-0.42236328125,0.02783203125,0.90380859375,5.79833984375,-1.3427734375,-0.42724609375,1.571044921875,25.499267578125,-19.918212890625
1758182898.9573772,-0.42236328125,0.02783203125,0.90380859375,5.79833984375,-1.3427734375,-0.42724609375,1.6204833984375,25.48828125,-19.9346923828125
1758182898.967023,-0.41748046875,0.0107421875,0.90478515625,10.009765625,-1.46484375,-0.8544921875,1.69189453125,25.4718017578125,-19.9456787109375
1758182898.9770446,-0.41748046875,0.0107421875,0.90478515625,10.009765625,-1.46484375,-0.8544921875,1.77978515625,25.4608154296875,-19.962158203125
1758182898.988326,-0.40576171875,0.005859375,0.91650390625,17.88330078125,-1.40380859375,-1.46484375,1.91162109375,25.4443359375,-19.984130859375
1758182898.9974566,-0.40576171875,0.005859375,0.91650390625,17.88330078125,-1.40380859375,-1.46484375,2.076416015625,25.433349609375,-20.006103515625
1758182899.0071344,-0.3994140625,0.0185546875,0.91455078125,20.5078125,-1.3427734375,-1.52587890625,2.252197265625,25.4168701171875,-20.028076171875
1758182899.0174851,-0.3994140625,0.0185546875,0.91455078125,20.5078125,-1.3427734375,-1.52587890625,2.43896484375,25.400390625,-20.0555419921875
1758182899.0277205,-0.3994140625,0.0185546875,0.91455078125,15.9912109375,-1.46484375,-1.220703125,2.581787109375,25.3839111328125,-20.072021484375
1758182899.0374851,-0.40625,0.0537109375,0.9033203125,15.9912109375,-1.46484375,-1.220703125,2.7301025390625,25.367431640625,-20.093994140625
1758182899.0471675,-0.40625,0.060546875,0.8994140625,14.95361328125,-1.3427734375,-1.3427734375,2.8619384765625,25.3509521484375,-20.1104736328125
1758182899.0581846,-0.40625,0.060546875,0.8994140625,14.95361328125,-1.3427734375,-1.3427734375,2.999267578125,25.33447265625,-20.1324462890625
1758182899.0672336,-0.40966796875,0.05859375,0.91015625,11.5966796875,-1.5869140625,-1.15966796875,3.1036376953125,25.3179931640625,-20.14892578125
1758182899.0774484,-0.40966796875,0.05859375,0.91015625,11.5966796875,-1.5869140625,-1.15966796875,3.2080078125,25.2960205078125,-20.159912109375
1758182899.0876253,-0.41845703125,0.0546875,0.8984375,8.97216796875,-1.46484375,-0.9765625,3.284912109375,25.279541015625,-20.1763916015625
1758182899.0975063,-0.41845703125,0.0546875,0.8984375,8.97216796875,-1.46484375,-0.9765625,3.36181640625,25.2630615234375,-20.19287109375
1758182899.1074264,-0.42431640625,0.0556640625,0.90380859375,11.16943359375,-1.52587890625,-1.3427734375,3.460693359375,25.24658203125,-20.2093505859375
1758182899.117878,-0.42431640625,0.0556640625,0.90380859375,11.16943359375,-1.52587890625,-1.3427734375,3.5595703125,25.224609375,-20.2313232421875
1758182899.1273375,-0.4208984375,0.0517578125,0.89501953125,11.90185546875,-1.5869140625,-1.40380859375,3.66943359375,25.2081298828125,-20.247802734375
1758182899.1383312,-0.4208984375,0.0517578125,0.89501953125,11.90185546875,-1.5869140625,-1.40380859375,3.7738037109375,25.191650390625,-20.269775390625
1758182899.1475794,-0.42529296875,0.06298828125,0.89990234375,9.70458984375,-1.64794921875,-1.28173828125,3.856201171875,25.1751708984375,-20.2862548828125
1758182899.1576061,-0.42529296875,0.06298828125,0.89990234375,9.70458984375,-1.64794921875,-1.28173828125,3.944091796875,25.15869140625,-20.3082275390625
1758182899.167393,-0.42822265625,0.0693359375,0.89404296875,5.859375,-1.5869140625,-1.220703125,3.988037109375,25.1422119140625,-20.32470703125
1758182899.1778202,-0.42822265625,0.0693359375,0.89404296875,5.859375,-1.5869140625,-1.220703125,4.0374755859375,25.125732421875,-20.3466796875
1758182899.1875074,-0.4267578125,0.0654296875,0.89404296875,4.94384765625,-1.52587890625,-1.15966796875,4.075927734375,25.1092529296875,-20.3631591796875
1758182899.1976933,-0.4267578125,0.0654296875,0.89404296875,4.94384765625,-1.52587890625,-1.15966796875,4.1143798828125,25.0982666015625,-20.379638671875
1758182899.2080855,-0.431640625,0.07373046875,0.90673828125,6.04248046875,-1.64794921875,-1.220703125,4.163818359375,25.081787109375,-20.401611328125
1758182899.2176895,-0.431640625,0.07373046875,0.90673828125,6.04248046875,-1.64794921875,-1.220703125,4.2132568359375,25.0653076171875,-20.4180908203125
1758182899.2273395,-0.43115234375,0.07763671875,0.9150390625,6.89697265625,-1.52587890625,-1.0986328125,4.273681640625,25.0543212890625,-20.4345703125
1758182899.2377868,-0.43115234375,0.07763671875,0.9150390625,6.89697265625,-1.52587890625,-1.0986328125,4.3341064453125,25.037841796875,-20.45654296875
1758182899.2480624,-0.43310546875,0.08544921875,0.9091796875,4.39453125,-1.708984375,-1.220703125,4.37255859375,25.0213623046875,-20.4730224609375
1758182899.2577095,-0.43310546875,0.08544921875,0.9091796875,4.39453125,-1.708984375,-1.220703125,4.405517578125,25.0103759765625,-20.4949951171875
1758182899.2674417,-0.45751953125,0.0888671875,0.908203125,-0.1220703125,-2.0751953125,-0.79345703125,4.4000244140625,24.9884033203125,-20.5059814453125
1758182899.2777407,-0.45751953125,0.0888671875,0.908203125,-0.1220703125,-2.0751953125,-0.79345703125,4.39453125,24.971923828125,-20.5224609375
1758182899.2882092,-0.47412109375,0.087890625,0.92236328125,-1.46484375,-2.3193359375,-0.732421875,4.3780517578125,24.9554443359375,-20.5389404296875
1758182899.297857,-0.47412109375,0.087890625,0.92236328125,-1.46484375,-2.3193359375,-0.732421875,4.361572265625,24.93896484375,-20.555419921875
1758182899.3075104,-0.484375,0.08544921875,0.9111328125,-6.77490234375,-2.62451171875,-0.244140625,4.2901611328125,24.9169921875,-20.56640625
1758182899.3181021,-0.484375,0.08544921875,0.9111328125,-6.77490234375,-2.62451171875,-0.244140625,4.2242431640625,24.9005126953125,-20.577392578125
1758182899.327693,-0.49267578125,0.09130859375,0.892578125,-11.90185546875,-3.11279296875,0.06103515625,4.10888671875,24.8785400390625,-20.58837890625
1758182899.3378384,-0.49267578125,0.09130859375,0.892578125,-11.90185546875,-3.11279296875,0.06103515625,3.9935302734375,24.8565673828125,-20.599365234375
1758182899.3475559,-0.49609375,0.07861328125,0.87353515625,-17.15087890625,-3.11279296875,0.42724609375,3.834228515625,24.8345947265625,-20.6048583984375
1758182899.358425,-0.49609375,0.07861328125,0.87353515625,-17.15087890625,-3.11279296875,0.42724609375,3.66943359375,24.818115234375,-20.6103515625
1758182899.3675742,-0.4990234375,0.064453125,0.85302734375,-15.93017578125,-3.173828125,0.42724609375,3.5211181640625,24.8016357421875,-20.621337890625
1758182899.3777995,-0.4990234375,0.064453125,0.85302734375,-15.93017578125,-3.173828125,0.42724609375,3.372802734375,24.78515625,-20.6268310546875
1758182899.3887284,-0.48974609375,0.04150390625,0.86181640625,-11.65771484375,-3.0517578125,0.3662109375,3.262939453125,24.774169921875,-20.6378173828125
1758182899.3978977,-0.48974609375,0.04150390625,0.86181640625,-11.65771484375,-3.0517578125,0.3662109375,3.1585693359375,24.76318359375,-20.654296875
1758182899.4076068,-0.4892578125,0.03271484375,0.8486328125,-9.70458984375,-2.8076171875,0.18310546875,3.065185546875,24.7576904296875,-20.665283203125
1758182899.4179611,-0.4892578125,0.03271484375,0.8486328125,-9.70458984375,-2.8076171875,0.18310546875,2.977294921875,24.752197265625,-20.6817626953125
1758182899.428548,-0.4775390625,0.0390625,0.85791015625,-5.79833984375,-2.62451171875,-0.06103515625,2.9278564453125,24.7467041015625,-20.7037353515625
1758182899.437987,-0.4775390625,0.0390625,0.85791015625,-5.79833984375,-2.62451171875,-0.06103515625,2.8729248046875,24.7412109375,-20.7257080078125
1758182899.4476473,-0.46484375,0.05078125,0.86669921875,-5.18798828125,-2.50244140625,-0.244140625,2.823486328125,24.7412109375,-20.7476806640625
1758182899.4587617,-0.46484375,0.05078125,0.86669921875,-5.18798828125,-2.50244140625,-0.244140625,2.779541015625,24.7357177734375,-20.7696533203125
1758182899.467881,-0.45263671875,0.05126953125,0.88134765625,-5.126953125,-2.3193359375,0.1220703125,2.735595703125,24.7357177734375,-20.7861328125
1758182899.4779384,-0.45263671875,0.05126953125,0.88134765625,-5.126953125,-2.3193359375,0.1220703125,2.6861572265625,24.7357177734375,-20.80810546875
1758182899.4878056,-0.44384765625,0.03125,0.890625,-5.4931640625,-2.13623046875,0.48828125,2.6422119140625,24.730224609375,-20.819091796875
1758182899.4982383,-0.44384765625,0.03125,0.890625,-5.4931640625,-2.13623046875,0.48828125,2.5927734375,24.730224609375,-20.830078125
1758182899.5077794,-0.4287109375,0.0244140625,0.88623046875,-3.47900390625,-2.01416015625,0.3662109375,2.5653076171875,24.730224609375,-20.8465576171875
1758182899.5188751,-0.4287109375,0.0244140625,0.88623046875,-3.47900390625,-2.01416015625,0.3662109375,2.5323486328125,24.7247314453125,-20.8575439453125
1758182899.528081,-0.3984375,0.04052734375,0.9208984375,-1.5869140625,-1.953125,0.06103515625,2.5213623046875,24.71923828125,-20.8740234375
1758182899.5380354,-0.3984375,0.04052734375,0.9208984375,-1.5869140625,-1.953125,0.06103515625,2.5048828125,24.7137451171875,-20.885009765625
1758182899.5477953,-0.3984375,0.04052734375,0.9208984375,-4.82177734375,-2.01416015625,0.0,2.4609375,24.7027587890625,-20.89599609375
1758182899.558457,-0.3876953125,0.05859375,0.93603515625,-4.82177734375,-2.01416015625,0.0,2.4169921875,24.6917724609375,-20.906982421875
1758182899.5679421,-0.38525390625,0.05712890625,0.93408203125,-5.43212890625,-1.953125,0.0,2.3675537109375,24.67529296875,-20.9124755859375
1758182899.5779982,-0.38525390625,0.05712890625,0.93408203125,-5.43212890625,-1.953125,0.0,2.318115234375,24.664306640625,-20.91796875
1758182899.5885882,-0.3916015625,0.02783203125,0.93212890625,-4.33349609375,-1.77001953125,0.244140625,2.2796630859375,24.6478271484375,-20.91796875
1758182899.5982378,-0.3916015625,0.02783203125,0.93212890625,-4.33349609375,-1.77001953125,0.244140625,2.2412109375,24.63134765625,-20.91796875
1758182899.6079063,-0.380859375,0.009765625,0.923828125,-5.37109375,-1.89208984375,0.6103515625,2.1917724609375,24.609375,-20.91796875
1758182899.6183703,-0.380859375,0.009765625,0.923828125,-5.37109375,-1.89208984375,0.6103515625,2.142333984375,24.5928955078125,-20.9124755859375
1758182899.6287537,-0.37353515625,0.01953125,0.9306640625,-5.55419921875,-1.953125,0.48828125,2.0928955078125,24.5709228515625,-20.906982421875
1758182899.6381726,-0.37353515625,0.01953125,0.9306640625,-5.55419921875,-1.953125,0.48828125,2.0379638671875,24.54345703125,-20.906982421875
1758182899.647909,-0.3759765625,0.0361328125,0.95068359375,-0.6103515625,-1.77001953125,0.0,2.032470703125,24.521484375,-20.906982421875
1758182899.658539,-0.3759765625,0.0361328125,0.95068359375,-0.6103515625,-1.77001953125,0.0,2.0269775390625,24.49951171875,-20.9014892578125
1758182899.6679845,-0.36767578125,0.04052734375,0.947265625,2.5634765625,-1.64794921875,-0.18310546875,2.054443359375,24.4775390625,-20.906982421875
1758182899.678261,-0.36767578125,0.04052734375,0.947265625,2.5634765625,-1.64794921875,-0.18310546875,2.076416015625,24.4500732421875,-20.906982421875
1758182899.688716,-0.36328125,0.03466796875,0.9296875,-0.244140625,-2.13623046875,0.30517578125,2.076416015625,24.422607421875,-20.9014892578125
1758182899.6983287,-0.36328125,0.03466796875,0.9296875,-0.244140625,-2.13623046875,0.30517578125,2.076416015625,24.3896484375,-20.89599609375
1758182899.7080483,-0.3759765625,0.03173828125,0.94580078125,-4.638671875,-2.44140625,0.732421875,2.032470703125,24.356689453125,-20.8795166015625
1758182899.7184618,-0.3759765625,0.03173828125,0.94580078125,-4.638671875,-2.44140625,0.732421875,1.9940185546875,24.3182373046875,-20.8685302734375
1758182899.7282014,-0.38427734375,0.0263671875,0.93115234375,-4.0283203125,-2.5634765625,0.8544921875,1.95556640625,24.2852783203125,-20.8575439453125
1758182899.7386417,-0.38427734375,0.0263671875,0.93115234375,-4.0283203125,-2.5634765625,0.8544921875,1.922607421875,24.246826171875,-20.841064453125
1758182899.7486987,-0.38818359375,0.0205078125,0.921875,-2.74658203125,-2.62451171875,1.03759765625,1.900634765625,24.2083740234375,-20.830078125
1758182899.7584093,-0.38818359375,0.0205078125,0.921875,-2.74658203125,-2.62451171875,1.03759765625,1.8731689453125,24.1754150390625,-20.8135986328125
1758182899.768049,-0.38916015625,0.03173828125,0.91650390625,-3.2958984375,-2.38037109375,0.67138671875,1.845703125,24.136962890625,-20.80810546875
1758182899.7783682,-0.38916015625,0.03173828125,0.91650390625,-3.2958984375,-2.38037109375,0.67138671875,1.8182373046875,24.1094970703125,-20.797119140625
1758182899.7887573,-0.40576171875,0.029296875,0.91845703125,-2.74658203125,-2.0751953125,0.6103515625,1.790771484375,24.0765380859375,-20.7861328125
1758182899.798633,-0.40576171875,0.029296875,0.91845703125,-2.74658203125,-2.0751953125,0.6103515625,1.768798828125,24.049072265625,-20.7806396484375
1758182899.8082006,-0.4130859375,0.025390625,0.90673828125,-0.48828125,-1.8310546875,0.1220703125,1.7633056640625,24.027099609375,-20.775146484375
1758182899.8184986,-0.4130859375,0.025390625,0.90673828125,-0.48828125,-1.8310546875,0.1220703125,1.7578125,23.9996337890625,-20.775146484375
1758182899.8291678,-0.4189453125,0.02978515625,0.89892578125,1.3427734375,-1.64794921875,-0.18310546875,1.7742919921875,23.983154296875,-20.7806396484375
1758182899.8384414,-0.4189453125,0.02978515625,0.89892578125,1.3427734375,-1.64794921875,-0.18310546875,1.7852783203125,23.961181640625,-20.7806396484375
1758182899.8483229,-0.41552734375,0.02978515625,0.89892578125,2.0751953125,-1.46484375,-0.732421875,1.8017578125,23.9447021484375,-20.7916259765625
1758182899.8589978,-0.41552734375,0.02978515625,0.89892578125,2.0751953125,-1.46484375,-0.732421875,1.82373046875,23.92822265625,-20.8026123046875
1758182899.86827,-0.41845703125,0.03857421875,0.9072265625,1.77001953125,-1.28173828125,-1.03759765625,1.834716796875,23.917236328125,-20.819091796875
1758182899.878383,-0.41845703125,0.03857421875,0.9072265625,1.77001953125,-1.28173828125,-1.03759765625,1.845703125,23.9007568359375,-20.830078125
1758182899.8882957,-0.40673828125,0.0400390625,0.9033203125,1.40380859375,-1.220703125,-1.03759765625,1.856689453125,23.8897705078125,-20.8465576171875
1758182899.8988042,-0.40673828125,0.0400390625,0.9033203125,1.40380859375,-1.220703125,-1.03759765625,1.86767578125,23.8787841796875,-20.863037109375
1758182899.908277,-0.40869140625,0.03125,0.904296875,0.18310546875,-1.40380859375,-0.91552734375,1.86767578125,23.8677978515625,-20.8795166015625
1758182899.91899,-0.40869140625,0.03125,0.904296875,0.18310546875,-1.40380859375,-0.91552734375,1.86767578125,23.8568115234375,-20.8905029296875
1758182899.928448,-0.40380859375,0.02685546875,0.91162109375,-1.220703125,-1.52587890625,-0.6103515625,1.8511962890625,23.84033203125,-20.9014892578125
1758182899.938503,-0.40380859375,0.02685546875,0.91162109375,-1.220703125,-1.52587890625,-0.6103515625,1.8402099609375,23.8238525390625,-20.9124755859375
1758182899.9488256,-0.373046875,0.01953125,0.912109375,-1.28173828125,-1.708984375,-0.30517578125,1.82373046875,23.807373046875,-20.9234619140625
1758182899.9586532,-0.373046875,0.01953125,0.912109375,-1.28173828125,-1.708984375,-0.30517578125,1.812744140625,23.7908935546875,-20.928955078125
1758182899.9683125,-0.36328125,0.03173828125,0.94140625,-5.67626953125,-1.89208984375,0.0,1.7523193359375,23.7744140625,-20.9344482421875
1758182899.9784813,-0.36328125,0.03173828125,0.94140625,-5.67626953125,-1.89208984375,0.0,1.6973876953125,23.75244140625,-20.9344482421875
1758182899.9896836,-0.36767578125,0.03466796875,0.943359375,-9.6435546875,-1.953125,0.30517578125,1.60400390625,23.7249755859375,-20.9344482421875
1758182899.9984741,-0.36767578125,0.03466796875,0.943359375,-9.6435546875,-1.953125,0.30517578125,1.5106201171875,23.7030029296875,-20.928955078125
1758182900.0085294,-0.37158203125,0.01904296875,0.931640625,-6.04248046875,-1.708984375,0.30517578125,1.4556884765625,23.6810302734375,-20.9234619140625
1758182900.0191617,-0.37158203125,0.01904296875,0.931640625,-6.04248046875,-1.708984375,0.30517578125,1.395263671875,23.653564453125,-20.91796875
1758182900.0285852,-0.37158203125,0.01904296875,0.931640625,-0.244140625,-1.220703125,0.18310546875,1.395263671875,23.6370849609375,-20.91796875
1758182900.0389295,-0.37939453125,0.0029296875,0.93115234375,1.0986328125,-0.91552734375,0.06103515625,1.4007568359375,23.62060546875,-20.9124755859375
1758182900.049876,-0.37939453125,0.0029296875,0.93115234375,1.0986328125,-0.91552734375,0.06103515625,1.4117431640625,23.6041259765625,-20.9124755859375
1758182900.058543,-0.37939453125,0.0029296875,0.93115234375,1.0986328125,-0.732421875,-0.06103515625,1.4227294921875,23.587646484375,-20.9124755859375
1758182900.0684676,-0.3857421875,0.02099609375,0.92333984375,1.0986328125,-0.732421875,-0.06103515625,1.4337158203125,23.5711669921875,-20.9124755859375
1758182900.0788252,-0.38916015625,0.0322265625,0.9169921875,-0.67138671875,-0.67138671875,0.06103515625,1.4337158203125,23.5601806640625,-20.9124755859375
1758182900.0897334,-0.38916015625,0.0322265625,0.9169921875,-0.67138671875,-0.67138671875,0.06103515625,1.42822265625,23.5491943359375,-20.9124755859375
1758182900.0985265,-0.3935546875,0.033203125,0.9072265625,-1.64794921875,-0.8544921875,0.1220703125,1.417236328125,23.53271484375,-20.906982421875
1758182900.1085644,-0.3935546875,0.033203125,0.9072265625,-1.64794921875,-0.8544921875,0.1220703125,1.4007568359375,23.521728515625,-20.906982421875
1758182900.1192093,-0.39306640625,0.02734375,0.91357421875,-2.44140625,-0.8544921875,0.30517578125,1.3787841796875,23.5052490234375,-20.906982421875
1758182900.128635,-0.39306640625,0.02734375,0.91357421875,-2.44140625,-0.8544921875,0.30517578125,1.3568115234375,23.4942626953125,-20.9014892578125
1758182900.1386526,-0.3916015625,0.01611328125,0.9072265625,-3.11279296875,-0.8544921875,0.48828125,1.3348388671875,23.4832763671875,-20.89599609375
1758182900.1491773,-0.3916015625,0.01611328125,0.9072265625,-3.11279296875,-0.8544921875,0.48828125,1.307373046875,23.466796875,-20.89599609375
1758182900.1586854,-0.392578125,0.01806640625,0.92578125,-4.5166015625,-1.0986328125,0.54931640625,1.2689208984375,23.455810546875,-20.8905029296875
1758182900.1686242,-0.392578125,0.01806640625,0.92578125,-4.5166015625,-1.0986328125,0.54931640625,1.23046875,23.4393310546875,-20.885009765625
1758182900.178825,-0.40478515625,0.0126953125,0.90966796875,-3.84521484375,-1.03759765625,0.54931640625,1.1920166015625,23.4283447265625,-20.8795166015625
1758182900.1896195,-0.40478515625,0.0126953125,0.90966796875,-3.84521484375,-1.03759765625,0.54931640625,1.153564453125,23.4173583984375,-20.8740234375
1758182900.1986747,-0.40478515625,0.01220703125,0.90673828125,-0.30517578125,-1.03759765625,0.30517578125,1.1370849609375,23.4063720703125,-20.8740234375
1758182900.2086866,-0.40478515625,0.01220703125,0.90673828125,-0.30517578125,-1.03759765625,0.30517578125,1.1370849609375,23.389892578125,-20.8740234375
1758182900.2193758,-0.40185546875,0.0146484375,0.9111328125,-0.54931640625,-0.8544921875,0.30517578125,1.131591796875,23.3843994140625,-20.8740234375
1758182900.2287567,-0.40185546875,0.0146484375,0.9111328125,-0.54931640625,-0.8544921875,0.30517578125,1.131591796875,23.3734130859375,-20.8740234375
1758182900.23881,-0.40673828125,0.02099609375,0.90771484375,-2.25830078125,-0.9765625,0.244140625,1.1151123046875,23.3624267578125,-20.8795166015625
1758182900.2497506,-0.40673828125,0.02099609375,0.90771484375,-2.25830078125,-0.9765625,0.244140625,1.0931396484375,23.35693359375,-20.8795166015625
1758182900.258852,-0.4111328125,0.01904296875,0.91162109375,-2.8076171875,-1.15966796875,0.1220703125,1.0711669921875,23.345947265625,-20.885009765625
1758182900.2687507,-0.4111328125,0.01904296875,0.91162109375,-2.8076171875,-1.15966796875,0.1220703125,1.043701171875,23.3349609375,-20.885009765625
1758182900.2794507,-0.400390625,0.01708984375,0.908203125,-0.06103515625,-1.15966796875,-0.06103515625,1.03271484375,23.323974609375,-20.8905029296875
1758182900.2890332,-0.400390625,0.01708984375,0.908203125,-0.06103515625,-1.15966796875,-0.06103515625,1.03271484375,23.3184814453125,-20.89599609375
1758182900.2987976,-0.3955078125,0.01220703125,0.90771484375,0.244140625,-1.15966796875,-0.244140625,1.03271484375,23.3074951171875,-20.906982421875
1758182900.3098886,-0.3955078125,0.01220703125,0.90771484375,0.244140625,-1.15966796875,-0.244140625,1.03271484375,23.2965087890625,-20.9124755859375
1758182900.3188207,-0.392578125,0.02001953125,0.92236328125,-1.15966796875,-1.15966796875,-0.3662109375,1.0272216796875,23.291015625,-20.9234619140625
1758182900.3289313,-0.392578125,0.02001953125,0.92236328125,-1.15966796875,-1.15966796875,-0.3662109375,1.0162353515625,23.280029296875,-20.9344482421875
1758182900.3391738,-0.39111328125,0.01513671875,0.9169921875,-1.77001953125,-1.220703125,-0.42724609375,0.999755859375,23.26904296875,-20.93994140625
1758182900.348883,-0.39111328125,0.01513671875,0.9169921875,-1.77001953125,-1.220703125,-0.42724609375,0.977783203125,23.258056640625,-20.950927734375
1758182900.3588567,-0.36669921875,-0.005859375,0.91162109375,3.96728515625,-1.220703125,-1.15966796875,0.98876953125,23.2470703125,-20.9674072265625
1758182900.3699121,-0.36669921875,-0.005859375,0.91162109375,3.96728515625,-1.220703125,-1.15966796875,1.021728515625,23.236083984375,-20.98388671875
1758182900.3788755,-0.3486328125,-0.0009765625,0.9462890625,12.87841796875,-0.8544921875,-2.44140625,1.0986328125,23.22509765625,-21.005859375
1758182900.3888774,-0.3486328125,-0.0009765625,0.9462890625,12.87841796875,-0.8544921875,-2.44140625,1.2139892578125,23.214111328125,-21.0333251953125
1758182900.3993165,-0.3525390625,0.01318359375,0.94873046875,15.19775390625,-0.48828125,-2.62451171875,1.34033203125,23.203125,-21.0662841796875
1758182900.4091778,-0.3525390625,0.01318359375,0.94873046875,15.19775390625,-0.48828125,-2.62451171875,1.47216796875,23.1976318359375,-21.09375
1758182900.4189484,-0.3642578125,0.033203125,0.93896484375,10.986328125,-0.30517578125,-2.3193359375,1.5875244140625,23.1866455078125,-21.1212158203125
1758182900.4289904,-0.3642578125,0.033203125,0.93896484375,10.986328125,-0.30517578125,-2.3193359375,1.6864013671875,23.1756591796875,-21.148681640625
1758182900.4397843,-0.3681640625,0.04541015625,0.9296875,5.859375,-0.06103515625,-1.52587890625,1.7578125,23.170166015625,-21.1651611328125
1758182900.4489963,-0.3681640625,0.04541015625,0.9296875,5.859375,-0.06103515625,-1.52587890625,1.8017578125,23.1591796875,-21.181640625
1758182900.459015,-0.3662109375,0.041015625,0.9326171875,0.244140625,-0.244140625,-0.3662109375,1.8292236328125,23.1536865234375,-21.192626953125
1758182900.4699175,-0.3662109375,0.041015625,0.9326171875,0.244140625,-0.244140625,-0.3662109375,1.82373046875,23.1427001953125,-21.192626953125
1758182900.4789684,-0.36865234375,0.03076171875,0.9169921875,-3.11279296875,-0.48828125,0.0,1.8072509765625,23.1317138671875,-21.192626953125
1758182900.4890165,-0.36865234375,0.03076171875,0.9169921875,-3.11279296875,-0.48828125,0.0,1.7742919921875,23.1207275390625,-21.1871337890625
1758182900.5000198,-0.37451171875,0.01953125,0.9208984375,-3.5400390625,-0.91552734375,0.244140625,1.7413330078125,23.104248046875,-21.1871337890625
1758182900.509252,-0.37451171875,0.01953125,0.9208984375,-3.5400390625,-0.91552734375,0.244140625,1.7083740234375,23.0877685546875,-21.181640625
1758182900.5189989,-0.36669921875,0.01611328125,0.90283203125,-1.5869140625,-0.91552734375,0.42724609375,1.680908203125,23.0712890625,-21.1761474609375
1758182900.5291862,-0.36669921875,0.01611328125,0.90283203125,-1.5869140625,-0.91552734375,0.42724609375,1.6644287109375,23.0548095703125,-21.170654296875
1758182900.539753,-0.38037109375,0.02734375,0.92041015625,-2.50244140625,-1.46484375,0.732421875,1.64794921875,23.038330078125,-21.15966796875
1758182900.5490868,-0.38037109375,0.02734375,0.92041015625,-2.50244140625,-1.46484375,0.732421875,1.6204833984375,23.016357421875,-21.1541748046875
1758182900.5591784,-0.38916015625,0.02685546875,0.92041015625,-5.7373046875,-1.220703125,1.46484375,1.5875244140625,22.994384765625,-21.1431884765625
1758182900.570483,-0.38916015625,0.02685546875,0.92041015625,-5.7373046875,-1.220703125,1.46484375,1.5325927734375,22.9779052734375,-21.126708984375
1758182900.5791185,-0.3916015625,0.02294921875,0.9189453125,-7.75146484375,-1.40380859375,1.89208984375,1.47216796875,22.96142578125,-21.104736328125
1758182900.5891812,-0.3916015625,0.02294921875,0.9189453125,-7.75146484375,-1.40380859375,1.89208984375,1.40625,22.939453125,-21.0882568359375
1758182900.5995617,-0.39892578125,0.01611328125,0.9052734375,-7.6904296875,-1.3427734375,1.708984375,1.3348388671875,22.9229736328125,-21.07177734375
1758182900.6092286,-0.39892578125,0.01611328125,0.9052734375,-7.6904296875,-1.3427734375,1.708984375,1.2689208984375,22.906494140625,-21.0552978515625
1758182900.6191409,-0.39892578125,0.0166015625,0.923828125,-5.55419921875,-1.3427734375,1.3427734375,1.20849609375,22.8955078125,-21.038818359375
1758182900.6296508,-0.39892578125,0.0166015625,0.923828125,-5.55419921875,-1.3427734375,1.3427734375,1.1590576171875,22.8790283203125,-21.02783203125
1758182900.6398337,-0.3974609375,0.02294921875,0.92138671875,-4.82177734375,-1.220703125,0.9765625,1.1151123046875,22.862548828125,-21.016845703125
1758182900.6492696,-0.3974609375,0.02294921875,0.92138671875,-4.82177734375,-1.220703125,0.9765625,1.0711669921875,22.8515625,-21.0113525390625
1758182900.6592214,-0.384765625,0.01708984375,0.91552734375,-4.21142578125,-1.0986328125,0.91552734375,1.03271484375,22.840576171875,-21.005859375
1758182900.6702237,-0.384765625,0.01708984375,0.91552734375,-4.21142578125,-1.0986328125,0.91552734375,0.9942626953125,22.82958984375,-21.0003662109375
1758182900.6794558,-0.39453125,0.01708984375,0.9306640625,-5.43212890625,-1.03759765625,1.220703125,0.9503173828125,22.818603515625,-20.9893798828125
1758182900.6892748,-0.39453125,0.01708984375,0.9306640625,-5.43212890625,-1.03759765625,1.220703125,0.9063720703125,22.8076171875,-20.9783935546875
1758182900.7000597,-0.38916015625,0.0107421875,0.91162109375,-5.0048828125,-0.91552734375,1.03759765625,0.8624267578125,22.796630859375,-20.9674072265625
1758182900.7095814,-0.38916015625,0.0107421875,0.91162109375,-5.0048828125,-0.91552734375,1.03759765625,0.8184814453125,22.7911376953125,-20.9619140625
1758182900.7193727,-0.3798828125,0.00537109375,0.9189453125,-3.2958984375,-1.15966796875,0.9765625,0.780029296875,22.7801513671875,-20.9564208984375
1758182900.7301588,-0.3798828125,0.00537109375,0.9189453125,-3.2958984375,-1.15966796875,0.9765625,0.7525634765625,22.7691650390625,-20.9454345703125
1758182900.7393472,-0.37841796875,0.0126953125,0.9267578125,-5.126953125,-0.91552734375,0.732421875,0.7196044921875,22.7581787109375,-20.93994140625
1758182900.7497337,-0.37841796875,0.0126953125,0.9267578125,-5.126953125,-0.91552734375,0.732421875,0.670166015625,22.7471923828125,-20.93994140625
1758182900.7598872,-0.373046875,0.0166015625,0.927734375,-5.31005859375,-0.79345703125,0.48828125,0.6207275390625,22.74169921875,-20.9344482421875
1758182900.7696934,-0.373046875,0.0166015625,0.927734375,-5.31005859375,-0.79345703125,0.48828125,0.5767822265625,22.730712890625,-20.9344482421875
1758182900.779428,-0.384765625,0.01611328125,0.93017578125,-5.0048828125,-0.42724609375,0.42724609375,0.52734375,22.7252197265625,-20.928955078125
1758182900.790106,-0.384765625,0.01611328125,0.93017578125,-5.0048828125,-0.42724609375,0.42724609375,0.4833984375,22.7197265625,-20.928955078125
1758182900.799574,-0.3916015625,0.0087890625,0.91455078125,-4.69970703125,-0.3662109375,0.1220703125,0.439453125,22.7142333984375,-20.928955078125
1758182900.8097498,-0.3916015625,0.0087890625,0.91455078125,-4.69970703125,-0.3662109375,0.1220703125,0.3955078125,22.708740234375,-20.928955078125
1758182900.8198702,-0.3935546875,0.0029296875,0.9169921875,-4.638671875,-0.3662109375,0.18310546875,0.3515625,22.708740234375,-20.928955078125
1758182900.830012,-0.3935546875,0.0029296875,0.9169921875,-4.638671875,-0.3662109375,0.18310546875,0.3076171875,22.7032470703125,-20.928955078125
1758182900.8395293,-0.39697265625,-0.00048828125,0.92333984375,-5.0048828125,-0.244140625,0.1220703125,0.263671875,22.69775390625,-20.928955078125
1758182900.849913,-0.39697265625,-0.00048828125,0.92333984375,-5.0048828125,-0.244140625,0.1220703125,0.2142333984375,22.69775390625,-20.928955078125
1758182900.860258,-0.39208984375,-0.00244140625,0.92138671875,-4.5166015625,-0.1220703125,0.18310546875,0.1702880859375,22.69775390625,-20.9344482421875
1758182900.869882,-0.39208984375,-0.00244140625,0.92138671875,-4.5166015625,-0.1220703125,0.18310546875,0.1318359375,22.69775390625,-20.9344482421875
1758182900.8795846,-0.39990234375,-0.001953125,0.9189453125,-4.2724609375,-0.54931640625,0.06103515625,0.087890625,22.69775390625,-20.93994140625
1758182900.8903894,-0.39990234375,-0.001953125,0.9189453125,-4.2724609375,-0.54931640625,0.06103515625,0.0494384765625,22.6922607421875,-20.93994140625
1758182900.8998973,-0.40576171875,0.001953125,0.912109375,-5.859375,-0.79345703125,0.06103515625,0.0,22.686767578125,-20.9454345703125
1758182900.9098563,-0.40576171875,0.001953125,0.912109375,-5.859375,-0.79345703125,0.06103515625,-0.0494384765625,22.6812744140625,-20.950927734375
1758182900.9196353,-0.40234375,-0.00634765625,0.908203125,-4.2724609375,-0.9765625,0.0,-0.098876953125,22.67578125,-20.9564208984375
1758182900.9309084,-0.40234375,-0.00634765625,0.908203125,-4.2724609375,-0.9765625,0.0,-0.1373291015625,22.6702880859375,-20.9619140625
1758182900.9400263,-0.3974609375,-0.01513671875,0.92041015625,-0.8544921875,-0.9765625,-0.244140625,-0.164794921875,22.664794921875,-20.9674072265625
1758182900.9499989,-0.3974609375,-0.01513671875,0.92041015625,-0.8544921875,-0.9765625,-0.244140625,-0.1702880859375,22.6593017578125,-20.9783935546875
1758182900.9601433,-0.39501953125,-0.0126953125,0.91796875,0.8544921875,-1.03759765625,-0.42724609375,-0.1702880859375,22.65380859375,-20.98388671875
1758182900.9701924,-0.39501953125,-0.0126953125,0.91796875,0.8544921875,-1.03759765625,-0.42724609375,-0.164794921875,22.6483154296875,-21.0003662109375
1758182900.9796457,-0.40087890625,-0.005859375,0.92138671875,0.0,-1.220703125,-0.42724609375,-0.164794921875,22.6373291015625,-21.0113525390625
1758182900.9902976,-0.40087890625,-0.005859375,0.92138671875,0.0,-1.220703125,-0.42724609375,-0.164794921875,22.6318359375,-21.0223388671875
1758182901.0003157,-0.3984375,-0.01171875,0.90625,0.244140625,-1.40380859375,-0.42724609375,-0.164794921875,22.620849609375,-21.0333251953125
1758182901.0100183,-0.3984375,-0.01171875,0.90625,0.244140625,-1.40380859375,-0.42724609375,-0.164794921875,22.6153564453125,-21.0443115234375
1758182901.019785,-0.38720703125,-0.0068359375,0.91162109375,4.21142578125,-1.46484375,-1.0986328125,-0.1483154296875,22.6043701171875,-21.060791015625
1758182901.030206,-0.38720703125,-0.0068359375,0.91162109375,4.21142578125,-1.46484375,-1.0986328125,-0.10986328125,22.5933837890625,-21.082763671875
1758182901.039803,-0.38232421875,0.0029296875,0.93701171875,3.60107421875,-1.3427734375,-1.03759765625,-0.076904296875,22.5823974609375,-21.104736328125
1758182901.0502052,-0.38232421875,0.0029296875,0.93701171875,3.60107421875,-1.3427734375,-1.03759765625,-0.0439453125,22.576904296875,-21.1212158203125
1758182901.0606313,-0.39013671875,0.01123046875,0.921875,-0.3662109375,-1.28173828125,-0.91552734375,-0.054931640625,22.56591796875,-21.1376953125
1758182901.0701709,-0.39013671875,0.01123046875,0.921875,-0.3662109375,-1.28173828125,-0.91552734375,-0.0604248046875,22.554931640625,-21.1541748046875
1758182901.0798197,-0.39404296875,0.00537109375,0.91796875,-1.64794921875,-1.28173828125,-0.67138671875,-0.0823974609375,22.5439453125,-21.170654296875
1758182901.0904734,-0.39404296875,0.00537109375,0.91796875,-1.64794921875,-1.28173828125,-0.67138671875,-0.098876953125,22.5384521484375,-21.181640625
1758182901.0998843,-0.3955078125,-0.005859375,0.91015625,-2.13623046875,-1.28173828125,-0.54931640625,-0.120849609375,22.5274658203125,-21.192626953125
1758182901.1102128,-0.3955078125,-0.005859375,0.91015625,-2.13623046875,-1.28173828125,-0.54931640625,-0.1483154296875,22.52197265625,-21.2091064453125
1758182901.1205142,-0.3955078125,-0.00927734375,0.9189453125,-1.8310546875,-1.28173828125,-0.42724609375,-0.164794921875,22.510986328125,-21.2200927734375
1758182901.13022,-0.3955078125,-0.00927734375,0.9189453125,-1.8310546875,-1.28173828125,-0.42724609375,-0.186767578125,22.5,-21.2310791015625
1758182901.139919,-0.40625,-0.01220703125,0.91455078125,-2.74658203125,-1.220703125,-0.42724609375,-0.2142333984375,22.4945068359375,-21.2420654296875
1758182901.1506014,-0.40625,-0.01220703125,0.91455078125,-2.74658203125,-1.220703125,-0.42724609375,-0.24169921875,22.489013671875,-21.2530517578125
1758182901.1599903,-0.41162109375,-0.01171875,0.90771484375,-1.15966796875,-1.15966796875,-0.42724609375,-0.2581787109375,22.4835205078125,-21.26953125
1758182901.170323,-0.41162109375,-0.01171875,0.90771484375,-1.15966796875,-1.15966796875,-0.42724609375,-0.2691650390625,22.47802734375,-21.280517578125
1758182901.1803787,-0.40625,-0.0087890625,0.912109375,-0.54931640625,-0.8544921875,-0.42724609375,-0.2801513671875,22.4725341796875,-21.2969970703125
1758182901.190294,-0.40625,-0.0087890625,0.912109375,-0.54931640625,-0.8544921875,-0.42724609375,-0.28564453125,22.4725341796875,-21.3079833984375
1758182901.200015,-0.39892578125,-0.01220703125,0.91064453125,-0.3662109375,-0.8544921875,-0.48828125,-0.2911376953125,22.4725341796875,-21.324462890625
1758182901.2103248,-0.39892578125,-0.01220703125,0.91064453125,-0.3662109375,-0.8544921875,-0.48828125,-0.3021240234375,22.4725341796875,-21.33544921875
1758182901.2207112,-0.39111328125,-0.0087890625,0.9267578125,1.46484375,-0.67138671875,-0.6103515625,-0.28564453125,22.4725341796875,-21.357421875
1758182901.230309,-0.39111328125,-0.0087890625,0.9267578125,1.46484375,-0.67138671875,-0.6103515625,-0.274658203125,22.467041015625,-21.3739013671875
1758182901.2401,-0.38720703125,-0.00439453125,0.919921875,0.48828125,-0.67138671875,-0.54931640625,-0.274658203125,22.467041015625,-21.3848876953125
1758182901.2507105,-0.38720703125,-0.00439453125,0.919921875,0.48828125,-0.67138671875,-0.54931640625,-0.274658203125,22.467041015625,-21.4013671875
1758182901.2600908,-0.39111328125,-0.00439453125,0.91650390625,0.244140625,-0.8544921875,-0.3662109375,-0.274658203125,22.467041015625,-21.412353515625
1758182901.2704139,-0.39111328125,-0.00439453125,0.91650390625,0.244140625,-0.8544921875,-0.3662109375,-0.274658203125,22.4615478515625,-21.4288330078125
1758182901.2801666,-0.38037109375,-0.00830078125,0.9208984375,-1.0986328125,-0.732421875,-0.1220703125,-0.28564453125,22.4560546875,-21.4398193359375
1758182901.2911086,-0.38037109375,-0.00830078125,0.9208984375,-1.0986328125,-0.732421875,-0.1220703125,-0.296630859375,22.4560546875,-21.4453125
1758182901.3002498,-0.373046875,-0.0107421875,0.919921875,-2.62451171875,-0.732421875,-0.06103515625,-0.3240966796875,22.4505615234375,-21.456298828125
1758182901.3104355,-0.373046875,-0.0107421875,0.919921875,-2.62451171875,-0.732421875,-0.06103515625,-0.3515625,22.4505615234375,-21.4617919921875
1758182901.321005,-0.37255859375,-0.0078125,0.93603515625,-0.6103515625,-0.48828125,-0.3662109375,-0.362548828125,22.445068359375,-21.4727783203125
1758182901.3304236,-0.37255859375,-0.0078125,0.93603515625,-0.6103515625,-0.48828125,-0.3662109375,-0.3680419921875,22.445068359375,-21.4837646484375
1758182901.3403537,-0.36279296875,-0.00732421875,0.93603515625,1.46484375,-0.18310546875,-0.42724609375,-0.3570556640625,22.4395751953125,-21.4947509765625
1758182901.3508725,-0.36279296875,-0.00732421875,0.93603515625,1.46484375,-0.18310546875,-0.42724609375,-0.3460693359375,22.4395751953125,-21.500244140625
1758182901.3602962,-0.35498046875,-0.00927734375,0.92822265625,-0.30517578125,-0.42724609375,-0.18310546875,-0.3515625,22.43408203125,-21.5057373046875
1758182901.3705285,-0.35498046875,-0.00927734375,0.92822265625,-0.30517578125,-0.42724609375,-0.18310546875,-0.3515625,22.4285888671875,-21.51123046875
1758182901.380627,-0.3515625,-0.01123046875,0.9326171875,-0.48828125,-0.6103515625,-0.18310546875,-0.362548828125,22.423095703125,-21.5167236328125
1758182901.3906038,-0.3515625,-0.01123046875,0.9326171875,-0.48828125,-0.6103515625,-0.18310546875,-0.3680419921875,22.412109375,-21.5167236328125
1758182901.400219,-0.3486328125,-0.0107421875,0.94482421875,0.8544921875,-0.6103515625,-0.18310546875,-0.362548828125,22.401123046875,-21.522216796875
1758182901.4105558,-0.3486328125,-0.0107421875,0.94482421875,0.8544921875,-0.6103515625,-0.18310546875,-0.3515625,22.39013671875,-21.522216796875
1758182901.421019,-0.3544921875,-0.01025390625,0.93603515625,-0.54931640625,-0.3662109375,-0.06103515625,-0.362548828125,22.3846435546875,-21.522216796875
1758182901.430555,-0.3544921875,-0.01025390625,0.93603515625,-0.54931640625,-0.3662109375,-0.06103515625,-0.3680419921875,22.3736572265625,-21.522216796875
1758182901.440283,-0.3623046875,-0.00048828125,0.9423828125,-1.0986328125,0.1220703125,-0.1220703125,-0.3790283203125,22.3681640625,-21.522216796875
1758182901.4508953,-0.3623046875,-0.00048828125,0.9423828125,-1.0986328125,0.1220703125,-0.1220703125,-0.3900146484375,22.3626708984375,-21.522216796875
1758182901.4603493,-0.3671875,-0.005859375,0.935546875,-1.89208984375,0.42724609375,0.0,-0.4119873046875,22.3626708984375,-21.522216796875
1758182901.470532,-0.3671875,-0.005859375,0.935546875,-1.89208984375,0.42724609375,0.0,-0.428466796875,22.357177734375,-21.522216796875
1758182901.4847646,-0.35546875,0.00634765625,0.91357421875,0.91552734375,0.6103515625,0.0,-0.41748046875,22.357177734375,-21.5167236328125
1758182901.491494,-0.35546875,0.00634765625,0.91357421875,0.91552734375,0.6103515625,0.0,-0.4119873046875,22.357177734375,-21.5167236328125
1758182901.5003815,-0.359375,-0.0126953125,0.931640625,0.6103515625,0.42724609375,-0.1220703125,-0.406494140625,22.357177734375,-21.5167236328125
1758182901.510654,-0.359375,-0.0126953125,0.931640625,0.6103515625,0.42724609375,-0.1220703125,-0.4010009765625,22.357177734375,-21.5167236328125
1758182901.5207698,-0.36376953125,-0.0048828125,0.92724609375,-4.2724609375,0.30517578125,0.244140625,-0.439453125,22.3516845703125,-21.51123046875
1758182901.5307074,-0.36376953125,-0.0048828125,0.92724609375,-4.2724609375,0.30517578125,0.244140625,-0.4833984375,22.3516845703125,-21.5057373046875
1758182901.54052,-0.361328125,-0.00634765625,0.92578125,-6.04248046875,0.244140625,0.732421875,-0.538330078125,22.34619140625,-21.4947509765625
1758182901.550964,-0.361328125,-0.00634765625,0.92578125,-6.04248046875,0.244140625,0.732421875,-0.59326171875,22.3406982421875,-21.4892578125
1758182901.560616,-0.3603515625,-0.0126953125,0.9267578125,-4.2724609375,0.1220703125,0.67138671875,-0.6317138671875,22.335205078125,-21.478271484375
1758182901.5706475,-0.3603515625,-0.0126953125,0.9267578125,-4.2724609375,0.1220703125,0.67138671875,-0.670166015625,22.3297119140625,-21.46728515625
1758182901.5810015,-0.35986328125,-0.02197265625,0.9326171875,-2.62451171875,-0.18310546875,1.03759765625,-0.692138671875,22.32421875,-21.456298828125
1758182901.591084,-0.35986328125,-0.02197265625,0.9326171875,-2.62451171875,-0.18310546875,1.03759765625,-0.714111328125,22.3187255859375,-21.4398193359375
1758182901.6005027,-0.373046875,-0.02490234375,0.92919921875,-3.23486328125,-0.42724609375,0.79345703125,-0.7415771484375,22.3077392578125,-21.434326171875
1758182901.6107507,-0.373046875,-0.02490234375,0.92919921875,-3.23486328125,-0.42724609375,0.79345703125,-0.76904296875,22.2967529296875,-21.42333984375
1758182901.6212084,-0.3603515625,-0.01513671875,0.9228515625,-6.04248046875,-0.30517578125,1.5869140625,-0.823974609375,22.2857666015625,-21.4068603515625
1758182901.6307046,-0.3603515625,-0.01513671875,0.9228515625,-6.04248046875,-0.30517578125,1.5869140625,-0.87890625,22.2802734375,-21.3848876953125
1758182901.6405406,-0.361328125,-0.01220703125,0.92724609375,-5.859375,-0.30517578125,1.220703125,-0.9283447265625,22.269287109375,-21.3739013671875
1758182901.6510243,-0.361328125,-0.01220703125,0.92724609375,-5.859375,-0.30517578125,1.220703125,-0.9832763671875,22.2637939453125,-21.357421875
1758182901.6605616,-0.36181640625,-0.02001953125,0.91943359375,-6.77490234375,0.06103515625,1.5869140625,-1.043701171875,22.25830078125,-21.3409423828125
1758182901.6707265,-0.36181640625,-0.02001953125,0.91943359375,-6.77490234375,0.06103515625,1.5869140625,-1.1041259765625,22.2528076171875,-21.324462890625
1758182901.6809058,-0.36962890625,-0.02099609375,0.9267578125,-6.9580078125,0.0,1.64794921875,-1.16455078125,22.247314453125,-21.302490234375
1758182901.6906984,-0.36962890625,-0.02099609375,0.9267578125,-6.9580078125,0.0,1.64794921875,-1.2249755859375,22.247314453125,-21.2860107421875
1758182901.7006853,-0.3759765625,-0.021484375,0.94189453125,-8.6669921875,0.1220703125,1.3427734375,-1.307373046875,22.2418212890625,-21.26953125
1758182901.7109427,-0.3759765625,-0.021484375,0.94189453125,-8.6669921875,0.1220703125,1.3427734375,-1.38427734375,22.236328125,-21.2530517578125
1758182901.7213008,-0.3671875,-0.0263671875,0.92431640625,-5.43212890625,0.30517578125,1.15966796875,-1.4337158203125,22.236328125,-21.2420654296875
1758182901.730706,-0.3671875,-0.0263671875,0.92431640625,-5.43212890625,0.30517578125,1.15966796875,-1.4776611328125,22.236328125,-21.2310791015625
1758182901.7407215,-0.359375,-0.0302734375,0.923828125,-3.41796875,0.1220703125,0.8544921875,-1.5106201171875,22.236328125,-21.2200927734375
1758182901.7510822,-0.359375,-0.0302734375,0.923828125,-3.41796875,0.1220703125,0.8544921875,-1.5380859375,22.2308349609375,-21.2091064453125
1758182901.7607188,-0.3681640625,-0.029296875,0.92333984375,-4.150390625,0.06103515625,0.91552734375,-1.5765380859375,22.225341796875,-21.1981201171875
1758182901.770827,-0.3681640625,-0.029296875,0.92333984375,-4.150390625,0.06103515625,0.91552734375,-1.6094970703125,22.225341796875,-21.1871337890625
1758182901.780778,-0.38232421875,-0.0302734375,0.9326171875,-2.01416015625,-0.06103515625,0.732421875,-1.6259765625,22.2198486328125,-21.181640625
1758182901.7913797,-0.38232421875,-0.0302734375,0.9326171875,-2.01416015625,-0.06103515625,0.732421875,-1.6424560546875,22.21435546875,-21.1761474609375
1758182901.800805,-0.37744140625,-0.03515625,0.9326171875,-1.28173828125,-0.18310546875,0.732421875,-1.6534423828125,22.2088623046875,-21.170654296875
1758182901.8110716,-0.37744140625,-0.03515625,0.9326171875,-1.28173828125,-0.18310546875,0.732421875,-1.658935546875,22.2088623046875,-21.15966796875
1758182901.8218598,-0.37353515625,-0.0322265625,0.91015625,-2.86865234375,0.0,0.79345703125,-1.6864013671875,22.203369140625,-21.1541748046875
1758182901.8309655,-0.37353515625,-0.0322265625,0.91015625,-2.86865234375,0.0,0.79345703125,-1.7083740234375,22.203369140625,-21.148681640625
1758182901.8423622,-0.38037109375,-0.033203125,0.92529296875,-3.84521484375,0.0,0.732421875,-1.746826171875,22.1978759765625,-21.1431884765625
1758182901.8511105,-0.38037109375,-0.033203125,0.92529296875,-3.84521484375,0.0,0.732421875,-1.77978515625,22.1978759765625,-21.1376953125
1758182901.8608234,-0.37109375,-0.0341796875,0.92236328125,-1.40380859375,0.30517578125,0.6103515625,-1.790771484375,22.1978759765625,-21.1376953125
1758182901.8709671,-0.37109375,-0.0341796875,0.92236328125,-1.40380859375,0.30517578125,0.6103515625,-1.8017578125,22.203369140625,-21.1322021484375
1758182901.8809085,-0.37548828125,-0.04052734375,0.92431640625,2.99072265625,0.18310546875,0.244140625,-1.7742919921875,22.203369140625,-21.1322021484375
1758182901.891436,-0.37548828125,-0.04052734375,0.92431640625,2.99072265625,0.18310546875,0.244140625,-1.746826171875,22.203369140625,-21.1376953125
1758182901.9009593,-0.37548828125,-0.0322265625,0.9326171875,1.28173828125,0.18310546875,0.244140625,-1.7303466796875,22.203369140625,-21.1376953125
1758182901.9112263,-0.37548828125,-0.0322265625,0.9326171875,1.28173828125,0.18310546875,0.244140625,-1.7193603515625,22.203369140625,-21.1376953125
1758182901.9220443,-0.3779296875,-0.03125,0.9287109375,-2.197265625,-0.1220703125,0.3662109375,-1.7413330078125,22.203369140625,-21.1376953125
1758182901.93094,-0.3779296875,-0.03125,0.9287109375,-2.197265625,-0.1220703125,0.3662109375,-1.7633056640625,22.1978759765625,-21.1376953125
1758182901.9409394,-0.39111328125,-0.0302734375,0.935546875,-3.2958984375,-0.244140625,0.30517578125,-1.7962646484375,22.1978759765625,-21.1376953125
1758182901.951239,-0.39111328125,-0.0302734375,0.935546875,-3.2958984375,-0.244140625,0.30517578125,-1.8292236328125,22.1923828125,-21.1376953125
1758182901.9609513,-0.38818359375,-0.03759765625,0.91943359375,-0.54931640625,-0.1220703125,0.0,-1.834716796875,22.1923828125,-21.1376953125
1758182901.97097,-0.38818359375,-0.03759765625,0.91943359375,-0.54931640625,-0.1220703125,0.0,-1.8402099609375,22.1923828125,-21.1431884765625
1758182901.9809241,-0.37109375,-0.03564453125,0.8955078125,1.3427734375,0.06103515625,0.0,-1.8292236328125,22.1923828125,-21.148681640625
1758182901.9915605,-0.37109375,-0.03564453125,0.8955078125,1.3427734375,0.06103515625,0.0,-1.8182373046875,22.1923828125,-21.1541748046875
1758182902.001094,-0.36962890625,-0.0224609375,0.9208984375,-0.54931640625,-0.06103515625,-0.18310546875,-1.82373046875,22.1923828125,-21.15966796875
1758182902.0110893,-0.36962890625,-0.0224609375,0.9208984375,-0.54931640625,-0.06103515625,-0.18310546875,-1.8292236328125,22.1923828125,-21.1651611328125
1758182902.022086,-0.384765625,-0.02783203125,0.947265625,-5.18798828125,-0.3662109375,-0.1220703125,-1.8841552734375,22.1868896484375,-21.170654296875
1758182902.0310292,-0.384765625,-0.02783203125,0.947265625,-5.18798828125,-0.3662109375,-0.1220703125,-1.93359375,22.1868896484375,-21.1761474609375
1758182902.0411932,-0.37841796875,-0.0361328125,0.923828125,-2.99072265625,-0.42724609375,-0.244140625,-1.966552734375,22.181396484375,-21.181640625
1758182902.051325,-0.37841796875,-0.0361328125,0.923828125,-2.99072265625,-0.42724609375,-0.244140625,-1.9940185546875,22.1759033203125,-21.1871337890625
1758182902.0611165,-0.375,-0.04638671875,0.9248046875,-0.6103515625,-0.6103515625,-0.3662109375,-2.0050048828125,22.17041015625,-21.192626953125
1758182902.0711021,-0.375,-0.04638671875,0.9248046875,-0.6103515625,-0.6103515625,-0.3662109375,-2.010498046875,22.1649169921875,-21.1981201171875
1758182902.0810902,-0.388671875,-0.0419921875,0.927734375,-2.74658203125,-0.67138671875,-0.3662109375,-2.04345703125,22.159423828125,-21.2091064453125
1758182902.0916865,-0.39208984375,-0.0400390625,0.91748046875,-2.5634765625,-0.42724609375,-0.48828125,-2.0709228515625,22.1539306640625,-21.214599609375
1758182902.101188,-0.39208984375,-0.0400390625,0.91748046875,-2.5634765625,-0.42724609375,-0.48828125,-2.098388671875,22.1484375,-21.2255859375
1758182902.1112604,-0.3935546875,-0.03759765625,0.91845703125,-0.8544921875,-0.244140625,-0.91552734375,-2.120361328125,22.1484375,-21.2420654296875
1758182902.1221232,-0.3935546875,-0.03759765625,0.91845703125,-0.8544921875,-0.244140625,-0.91552734375,-2.13134765625,22.1484375,-21.258544921875
1758182902.1312222,-0.408203125,-0.03662109375,0.9189453125,0.18310546875,-0.06103515625,-1.0986328125,-2.142333984375,22.1484375,-21.2750244140625
1758182902.1412785,-0.408203125,-0.03662109375,0.9189453125,0.18310546875,-0.06103515625,-1.0986328125,-2.142333984375,22.1484375,-21.29150390625
1758182902.15157,-0.4296875,-0.0361328125,0.92236328125,-0.244140625,0.244140625,-1.220703125,-2.1478271484375,22.1539306640625,-21.3079833984375
1758182902.1612751,-0.4296875,-0.0361328125,0.92236328125,-0.244140625,0.244140625,-1.220703125,-2.1588134765625,22.159423828125,-21.3299560546875
1758182902.1712554,-0.44970703125,-0.0458984375,0.8984375,-0.42724609375,0.54931640625,-1.15966796875,-2.164306640625,22.17041015625,-21.3519287109375
1758182902.181265,-0.44970703125,-0.0458984375,0.8984375,-0.42724609375,0.54931640625,-1.15966796875,-2.17529296875,22.1868896484375,-21.3739013671875
1758182902.1919968,-0.47216796875,-0.0546875,0.88232421875,-0.1220703125,0.91552734375,-1.03759765625,-2.186279296875,22.203369140625,-21.3958740234375
1758182902.2016487,-0.47216796875,-0.0546875,0.88232421875,-0.1220703125,0.91552734375,-1.03759765625,-2.1917724609375,22.225341796875,-21.42333984375
1758182902.211575,-0.46630859375,-0.05908203125,0.8486328125,3.0517578125,1.52587890625,-1.15966796875,-2.186279296875,22.2528076171875,-21.4508056640625
1758182902.2225976,-0.46630859375,-0.05908203125,0.8486328125,3.0517578125,1.52587890625,-1.15966796875,-2.1588134765625,22.2857666015625,-21.4837646484375
1758182902.2313342,-0.4609375,-0.04931640625,0.8671875,5.79833984375,2.13623046875,-1.40380859375,-2.1258544921875,22.3187255859375,-21.522216796875
1758182902.241386,-0.4609375,-0.04931640625,0.8671875,5.79833984375,2.13623046875,-1.40380859375,-2.076416015625,22.3626708984375,-21.55517578125
1758182902.251621,-0.4501953125,-0.03076171875,0.88134765625,7.32421875,2.685546875,-1.64794921875,-2.021484375,22.4066162109375,-21.59912109375
1758182902.2613752,-0.4501953125,-0.03076171875,0.88134765625,7.32421875,2.685546875,-1.64794921875,-1.9610595703125,22.4560546875,-21.6375732421875
1758182902.271581,-0.4462890625,-0.0205078125,0.8935546875,6.77490234375,2.9296875,-1.52587890625,-1.900634765625,22.5054931640625,-21.6815185546875
1758182902.2814124,-0.4462890625,-0.0205078125,0.8935546875,6.77490234375,2.9296875,-1.52587890625,-1.845703125,22.554931640625,-21.719970703125
1758182902.2919686,-0.4462890625,-0.0205078125,0.8935546875,3.41796875,3.173828125,-0.9765625,-1.8017578125,22.6043701171875,-21.7529296875
1758182902.3020349,-0.44580078125,-0.013671875,0.9052734375,3.41796875,3.173828125,-0.9765625,-1.7742919921875,22.6593017578125,-21.785888671875
1758182902.3115711,-0.4423828125,-0.0224609375,0.908203125,4.21142578125,3.2958984375,-0.42724609375,-1.7413330078125,22.708740234375,-21.8133544921875
1758182902.324651,-0.4423828125,-0.0224609375,0.908203125,4.21142578125,3.2958984375,-0.42724609375,-1.702880859375,22.763671875,-21.8408203125
1758182902.3319135,-0.43359375,-0.04443359375,0.9228515625,5.7373046875,2.9296875,0.0,-1.658935546875,22.8131103515625,-21.86279296875
1758182902.3414693,-0.43359375,-0.04443359375,0.9228515625,5.7373046875,2.9296875,0.0,-1.60400390625,22.862548828125,-21.884765625
1758182902.351647,-0.42138671875,-0.03955078125,0.93505859375,5.9814453125,2.5634765625,0.06103515625,-1.549072265625,22.906494140625,-21.9012451171875
1758182902.362621,-0.42138671875,-0.03955078125,0.93505859375,5.9814453125,2.5634765625,0.06103515625,-1.4886474609375,22.950439453125,-21.917724609375
1758182902.3715568,-0.41064453125,-0.0234375,0.93359375,4.94384765625,2.3193359375,0.1220703125,-1.439208984375,22.9888916015625,-21.9342041015625
1758182902.3818848,-0.41064453125,-0.0234375,0.93359375,4.94384765625,2.3193359375,0.1220703125,-1.395263671875,23.02734375,-21.95068359375
1758182902.3922157,-0.4111328125,-0.02587890625,0.94140625,8.9111328125,2.197265625,-0.06103515625,-1.329345703125,23.0657958984375,-21.9671630859375
1758182902.40192,-0.4111328125,-0.02587890625,0.94140625,8.9111328125,2.197265625,-0.06103515625,-1.241455078125,23.0987548828125,-21.983642578125
1758182902.411608,-0.39697265625,-0.0263671875,0.939453125,11.53564453125,2.25830078125,0.1220703125,-1.1480712890625,23.1317138671875,-21.99462890625
1758182902.4221432,-0.39697265625,-0.0263671875,0.939453125,11.53564453125,2.25830078125,0.1220703125,-1.0382080078125,23.1646728515625,-22.005615234375
1758182902.4317844,-0.38720703125,-0.0224609375,0.9189453125,11.04736328125,2.0751953125,0.48828125,-0.9283447265625,23.192138671875,-22.0166015625
1758182902.4419594,-0.38720703125,-0.0224609375,0.9189453125,11.04736328125,2.0751953125,0.48828125,-0.8184814453125,23.2196044921875,-22.0220947265625
1758182902.452079,-0.384765625,-0.0166015625,0.93505859375,7.01904296875,1.89208984375,0.79345703125,-0.736083984375,23.2470703125,-22.0220947265625
1758182902.4619548,-0.384765625,-0.0166015625,0.93505859375,7.01904296875,1.89208984375,0.79345703125,-0.6646728515625,23.26904296875,-22.0220947265625
1758182902.4715922,-0.38330078125,-0.01171875,0.92431640625,5.92041015625,2.01416015625,1.0986328125,-0.604248046875,23.2965087890625,-22.0220947265625
1758182902.4819605,-0.38330078125,-0.01171875,0.92431640625,5.92041015625,2.01416015625,1.0986328125,-0.5438232421875,23.3184814453125,-22.0166015625
1758182902.4920292,-0.380859375,-0.0263671875,0.93408203125,14.892578125,2.13623046875,0.54931640625,-0.4449462890625,23.3404541015625,-22.0166015625
1758182902.5019646,-0.380859375,-0.0263671875,0.93408203125,14.892578125,2.13623046875,0.54931640625,-0.3021240234375,23.3624267578125,-22.0166015625
1758182902.5119605,-0.3818359375,-0.02685546875,0.93359375,21.66748046875,2.44140625,0.732421875,-0.120849609375,23.3843994140625,-22.0166015625
1758182902.522284,-0.3818359375,-0.02685546875,0.93359375,21.66748046875,2.44140625,0.732421875,0.0823974609375,23.4063720703125,-22.0166015625
1758182902.5317292,-0.39697265625,-0.0068359375,0.92333984375,22.52197265625,2.38037109375,1.03759765625,0.296630859375,23.4283447265625,-22.0111083984375
1758182902.5420966,-0.39697265625,-0.0068359375,0.92333984375,22.52197265625,2.38037109375,1.03759765625,0.516357421875,23.4503173828125,-22.005615234375
1758182902.552373,-0.38818359375,0.017578125,0.904296875,18.4326171875,2.197265625,1.40380859375,0.714111328125,23.4722900390625,-22.0001220703125
1758182902.5620744,-0.38818359375,0.017578125,0.904296875,18.4326171875,2.197265625,1.40380859375,0.8953857421875,23.4942626953125,-21.9891357421875
1758182902.571838,-0.3916015625,0.0244140625,0.91064453125,15.2587890625,1.953125,1.46484375,1.0546875,23.5107421875,-21.983642578125
1758182902.5821257,-0.3916015625,0.0244140625,0.91064453125,15.2587890625,1.953125,1.46484375,1.2030029296875,23.5272216796875,-21.97265625
1758182902.592247,-0.4052734375,0.02099609375,0.90478515625,26.42822265625,1.8310546875,0.8544921875,1.40625,23.5491943359375,-21.961669921875
1758182902.602102,-0.4052734375,0.02099609375,0.90478515625,26.42822265625,1.8310546875,0.8544921875,1.6644287109375,23.565673828125,-21.9561767578125
1758182902.611889,-0.39599609375,0.04052734375,0.92822265625,31.73828125,1.5869140625,1.0986328125,1.9500732421875,23.57666015625,-21.95068359375
1758182902.6224506,-0.39599609375,0.04052734375,0.92822265625,31.73828125,1.5869140625,1.0986328125,2.2576904296875,23.5931396484375,-21.9451904296875
1758182902.6318083,-0.361328125,0.1318359375,0.92138671875,0.3662109375,1.77001953125,2.25830078125,2.4169921875,23.609619140625,-21.9287109375
1758182902.6422496,-0.361328125,0.1318359375,0.92138671875,0.3662109375,1.77001953125,2.25830078125,2.4224853515625,23.62060546875,-21.90673828125
1758182902.6524506,-0.4287109375,0.1298828125,0.80126953125,-30.94482421875,0.79345703125,4.21142578125,2.28515625,23.631591796875,-21.8682861328125
1758182902.6622255,-0.4287109375,0.1298828125,0.80126953125,-30.94482421875,0.79345703125,4.21142578125,1.9940185546875,23.6370849609375,-21.81884765625
1758182902.6719825,-0.47509765625,0.08984375,0.884765625,-22.705078125,-0.244140625,4.57763671875,1.7523193359375,23.6370849609375,-21.7694091796875
1758182902.6822743,-0.47509765625,0.08984375,0.884765625,-22.705078125,-0.244140625,4.57763671875,1.56005859375,23.6370849609375,-21.7144775390625
1758182902.6922834,-0.44482421875,0.00146484375,0.87255859375,-15.380859375,-0.30517578125,6.04248046875,1.4007568359375,23.642578125,-21.6595458984375
1758182902.7022338,-0.44482421875,0.00146484375,0.87255859375,-15.380859375,-0.30517578125,6.04248046875,1.285400390625,23.642578125,-21.5936279296875
1758182902.712102,-0.42578125,-0.02734375,0.88037109375,-9.521484375,-0.79345703125,5.55419921875,1.197509765625,23.6480712890625,-21.533203125
1758182902.722541,-0.42578125,-0.02734375,0.88037109375,-9.521484375,-0.79345703125,5.55419921875,1.131591796875,23.6480712890625,-21.478271484375
1758182902.7323308,-0.39892578125,-0.056640625,0.9169921875,-7.2021484375,-0.48828125,5.43212890625,1.07666015625,23.6480712890625,-21.4288330078125
1758182902.7423582,-0.39892578125,-0.056640625,0.9169921875,-7.2021484375,-0.48828125,5.43212890625,1.03271484375,23.6480712890625,-21.37939453125
1758182902.7525976,-0.36669921875,-0.021484375,0.96826171875,-7.62939453125,0.244140625,4.45556640625,0.977783203125,23.653564453125,-21.33544921875
1758182902.7623897,-0.36669921875,-0.021484375,0.96826171875,-7.62939453125,0.244140625,4.45556640625,0.9228515625,23.6590576171875,-21.29150390625
1758182902.7719753,-0.3701171875,0.00732421875,0.92138671875,-11.53564453125,0.91552734375,4.39453125,0.845947265625,23.6700439453125,-21.2530517578125
1758182902.782318,-0.3701171875,0.00732421875,0.92138671875,-11.53564453125,0.91552734375,4.39453125,0.7470703125,23.675537109375,-21.2091064453125
1758182902.7923083,-0.37158203125,0.01708984375,0.90771484375,-3.84521484375,1.0986328125,3.41796875,0.6866455078125,23.6865234375,-21.170654296875
1758182902.802342,-0.37158203125,0.01708984375,0.90771484375,-3.84521484375,1.0986328125,3.41796875,0.6591796875,23.697509765625,-21.1376953125
1758182902.8121114,-0.36865234375,-0.0029296875,0.9482421875,5.7373046875,1.40380859375,2.74658203125,0.6866455078125,23.70849609375,-21.104736328125
1758182902.8226366,-0.36865234375,-0.0029296875,0.9482421875,5.7373046875,1.40380859375,2.74658203125,0.7525634765625,23.719482421875,-21.0772705078125
1758182902.8320868,-0.359375,0.02294921875,0.9423828125,-1.89208984375,1.52587890625,2.3193359375,0.780029296875,23.7249755859375,-21.0498046875
1758182902.8423986,-0.359375,0.02294921875,0.9423828125,-1.89208984375,1.52587890625,2.3193359375,0.76904296875,23.7359619140625,-21.0223388671875
1758182902.8523345,-0.36767578125,0.0439453125,0.89990234375,-6.591796875,1.5869140625,2.25830078125,0.7415771484375,23.7469482421875,-21.0003662109375
1758182902.862374,-0.36767578125,0.0439453125,0.89990234375,-6.591796875,1.5869140625,2.25830078125,0.6866455078125,23.75244140625,-20.972900390625
1758182902.8721035,-0.37060546875,0.00341796875,0.931640625,-0.732421875,1.708984375,2.44140625,0.6591796875,23.763427734375,-20.93994140625
1758182902.8824375,-0.37060546875,0.00341796875,0.931640625,-0.732421875,1.708984375,2.44140625,0.6646728515625,23.7689208984375,-20.906982421875
1758182902.8923652,-0.37060546875,-0.02099609375,0.9501953125,1.52587890625,1.8310546875,1.708984375,0.68115234375,23.7799072265625,-20.8795166015625
1758182902.9023967,-0.37060546875,-0.02099609375,0.9501953125,1.52587890625,1.8310546875,1.708984375,0.703125,23.7908935546875,-20.8575439453125
1758182902.912176,-0.361328125,-0.0009765625,0.92626953125,2.01416015625,1.46484375,0.9765625,0.72509765625,23.79638671875,-20.841064453125
1758182902.923007,-0.361328125,-0.0009765625,0.92626953125,2.01416015625,1.46484375,0.9765625,0.7470703125,23.8018798828125,-20.8245849609375
1758182902.9321759,-0.35595703125,0.02490234375,0.91943359375,0.48828125,1.0986328125,1.03759765625,0.7635498046875,23.8018798828125,-20.80810546875
1758182902.9425285,-0.35595703125,0.02490234375,0.91943359375,0.48828125,1.0986328125,1.03759765625,0.76904296875,23.8018798828125,-20.7861328125
1758182902.9525294,-0.35205078125,0.0146484375,0.94189453125,-0.79345703125,1.220703125,1.28173828125,0.7745361328125,23.8018798828125,-20.7696533203125
1758182902.9625266,-0.35205078125,0.0146484375,0.94189453125,-0.79345703125,1.220703125,1.28173828125,0.76904296875,23.8018798828125,-20.7476806640625
1758182902.9722261,-0.35791015625,0.0048828125,0.953125,-0.48828125,1.40380859375,1.03759765625,0.76904296875,23.8018798828125,-20.7257080078125
1758182902.9828212,-0.35791015625,0.0048828125,0.953125,-0.48828125,1.40380859375,1.03759765625,0.76904296875,23.8018798828125,-20.7037353515625
1758182902.9925678,-0.37451171875,0.00244140625,0.92626953125,-0.42724609375,1.28173828125,0.79345703125,0.7635498046875,23.79638671875,-20.6817626953125
1758182903.0024853,-0.37451171875,0.00244140625,0.92626953125,-0.42724609375,1.28173828125,0.79345703125,0.7635498046875,23.79638671875,-20.665283203125
1758182903.0123043,-0.3623046875,0.01220703125,0.912109375,2.197265625,1.3427734375,0.30517578125,0.7745361328125,23.79638671875,-20.6488037109375
1758182903.022812,-0.3623046875,0.01220703125,0.912109375,2.197265625,1.3427734375,0.30517578125,0.7965087890625,23.79638671875,-20.6378173828125
1758182903.0322409,-0.3623046875,0.01220703125,0.912109375,2.5634765625,1.5869140625,0.30517578125,0.8184814453125,23.79638671875,-20.621337890625
1758182903.0425718,-0.3671875,0.013671875,0.9541015625,2.5634765625,1.5869140625,0.30517578125,0.845947265625,23.79638671875,-20.6103515625
1758182903.052803,-0.3759765625,0.005859375,0.92724609375,3.2958984375,1.77001953125,0.3662109375,0.8734130859375,23.8018798828125,-20.599365234375
1758182903.062604,-0.3759765625,0.005859375,0.92724609375,3.2958984375,1.77001953125,0.3662109375,0.9063720703125,23.807373046875,-20.5828857421875
1758182903.072508,-0.38525390625,0.005859375,0.92138671875,8.056640625,1.8310546875,0.18310546875,0.9613037109375,23.8128662109375,-20.5718994140625
1758182903.0826647,-0.38525390625,0.005859375,0.92138671875,8.056640625,1.8310546875,0.18310546875,1.043701171875,23.818359375,-20.5609130859375
1758182903.092514,-0.39453125,0.01513671875,0.91943359375,5.0048828125,1.89208984375,0.1220703125,1.1041259765625,23.8238525390625,-20.5499267578125
1758182903.1026554,-0.39453125,0.01513671875,0.91943359375,5.0048828125,1.89208984375,0.1220703125,1.153564453125,23.829345703125,-20.5389404296875
1758182903.1123912,-0.39306640625,0.025390625,0.9189453125,2.3193359375,1.953125,0.18310546875,1.1865234375,23.84033203125,-20.533447265625
1758182903.1229284,-0.39306640625,0.025390625,0.9189453125,2.3193359375,1.953125,0.18310546875,1.20849609375,23.8458251953125,-20.5224609375
1758182903.1324117,-0.40185546875,0.03125,0.935546875,1.40380859375,2.25830078125,0.244140625,1.2249755859375,23.8568115234375,-20.5169677734375
1758182903.1427286,-0.40185546875,0.03125,0.935546875,1.40380859375,2.25830078125,0.244140625,1.241455078125,23.873291015625,-20.5059814453125
1758182903.1530278,-0.4228515625,0.0224609375,0.9140625,0.18310546875,2.13623046875,0.3662109375,1.241455078125,23.88427734375,-20.4949951171875
1758182903.1626856,-0.4228515625,0.0224609375,0.9140625,0.18310546875,2.13623046875,0.3662109375,1.241455078125,23.9007568359375,-20.489501953125
1758182903.1723952,-0.42822265625,0.09912109375,0.90087890625,-7.568359375,2.197265625,0.3662109375,1.1700439453125,23.917236328125,-20.478515625
1758182903.1828523,-0.42822265625,0.09912109375,0.90087890625,-7.568359375,2.197265625,0.3662109375,1.1041259765625,23.9337158203125,-20.467529296875
1758182903.1926126,-0.42236328125,0.01953125,0.84814453125,-9.1552734375,1.64794921875,1.46484375,1.021728515625,23.9501953125,-20.4510498046875
1758182903.2028058,-0.42236328125,0.01953125,0.84814453125,-9.1552734375,1.64794921875,1.46484375,0.94482421875,23.9666748046875,-20.4290771484375
1758182903.2125149,-0.4375,-0.0078125,0.9326171875,-5.7373046875,1.77001953125,0.67138671875,0.8953857421875,23.983154296875,-20.423583984375
1758182903.2233944,-0.4375,-0.0078125,0.9326171875,-5.7373046875,1.77001953125,0.67138671875,0.8404541015625,23.9996337890625,-20.41259765625
1758182903.2324817,-0.43896484375,-0.0078125,0.908203125,-0.9765625,1.8310546875,0.6103515625,0.8404541015625,24.0216064453125,-20.4071044921875
1758182903.2428546,-0.43896484375,-0.0078125,0.908203125,-0.9765625,1.8310546875,0.6103515625,0.8349609375,24.0380859375,-20.4071044921875
1758182903.2529964,-0.4130859375,0.0068359375,0.8564453125,4.2724609375,1.3427734375,0.18310546875,0.87890625,24.0545654296875,-20.4071044921875
1758182903.262855,-0.4130859375,0.0068359375,0.8564453125,4.2724609375,1.3427734375,0.18310546875,0.9228515625,24.071044921875,-20.41259765625
1758182903.2724965,-0.40380859375,0.0107421875,0.94287109375,-1.0986328125,2.0751953125,0.67138671875,0.911865234375,24.0985107421875,-20.4071044921875
1758182903.282764,-0.40380859375,0.0107421875,0.94287109375,-1.0986328125,2.0751953125,0.67138671875,0.9063720703125,24.1204833984375,-20.401611328125
1758182903.2931628,-0.40380859375,0.0107421875,0.94287109375,-9.33837890625,1.953125,1.03759765625,0.8184814453125,24.1424560546875,-20.390625
1758182903.3028493,-0.439453125,0.0517578125,0.94091796875,-9.33837890625,1.953125,1.03759765625,0.736083984375,24.158935546875,-20.3851318359375
1758182903.3126297,-0.4453125,0.02734375,0.85546875,-6.34765625,1.40380859375,0.54931640625,0.6756591796875,24.180908203125,-20.379638671875
1758182903.3236578,-0.4453125,0.02734375,0.85546875,-6.34765625,1.40380859375,0.54931640625,0.6207275390625,24.1973876953125,-20.3741455078125
1758182903.332991,-0.4072265625,-0.0244140625,0.84912109375,7.75146484375,1.0986328125,0.79345703125,0.703125,24.2138671875,-20.36865234375
1758182903.3429353,-0.4072265625,-0.0244140625,0.84912109375,7.75146484375,1.0986328125,0.79345703125,0.7855224609375,24.2303466796875,-20.36865234375
1758182903.3532553,-0.41064453125,-0.0126953125,0.92578125,13.5498046875,1.40380859375,-0.54931640625,0.9173583984375,24.246826171875,-20.379638671875
1758182903.363122,-0.41064453125,-0.0126953125,0.92578125,13.5498046875,1.40380859375,-0.54931640625,1.0491943359375,24.268798828125,-20.390625
1758182903.3726995,-0.40966796875,0.0185546875,0.9091796875,2.685546875,1.77001953125,-0.30517578125,1.0711669921875,24.2852783203125,-20.401611328125
1758182903.3828561,-0.40966796875,0.0185546875,0.9091796875,2.685546875,1.77001953125,-0.30517578125,1.0986328125,24.3072509765625,-20.4071044921875
1758182903.3928375,-0.40673828125,0.04541015625,0.91748046875,-8.6669921875,2.25830078125,-0.3662109375,1.0052490234375,24.334716796875,-20.4180908203125
1758182903.4029408,-0.40673828125,0.04541015625,0.91748046875,-8.6669921875,2.25830078125,-0.3662109375,0.9173583984375,24.356689453125,-20.423583984375
1758182903.4126441,-0.3740234375,0.02685546875,0.90673828125,-4.0283203125,2.3193359375,-0.30517578125,0.87890625,24.3841552734375,-20.4290771484375
1758182903.4232612,-0.3740234375,0.02685546875,0.90673828125,-4.0283203125,2.3193359375,-0.30517578125,0.8404541015625,24.4061279296875,-20.4290771484375
1758182903.4327464,-0.38818359375,-0.00244140625,0.92333984375,8.9111328125,2.25830078125,-0.6103515625,0.9283447265625,24.422607421875,-20.4345703125
1758182903.4429755,-0.38818359375,-0.00244140625,0.92333984375,8.9111328125,2.25830078125,-0.6103515625,1.0162353515625,24.444580078125,-20.4400634765625
1758182903.4532483,-0.39404296875,0.0087890625,0.9189453125,10.80322265625,2.3193359375,-0.8544921875,1.1151123046875,24.466552734375,-20.445556640625
1758182903.462979,-0.39404296875,0.0087890625,0.9189453125,10.80322265625,2.3193359375,-0.8544921875,1.219482421875,24.4830322265625,-20.45654296875
1758182903.472718,-0.37060546875,0.0185546875,0.89208984375,2.685546875,2.3193359375,-0.3662109375,1.241455078125,24.5050048828125,-20.45654296875
1758182903.482962,-0.37060546875,0.0185546875,0.89208984375,2.685546875,2.3193359375,-0.3662109375,1.263427734375,24.521484375,-20.45654296875
1758182903.4928863,-0.36767578125,0.005859375,0.921875,3.662109375,2.197265625,-0.6103515625,1.29638671875,24.5379638671875,-20.4620361328125
1758182903.5029206,-0.36767578125,0.005859375,0.921875,3.662109375,2.197265625,-0.6103515625,1.329345703125,24.5489501953125,-20.4620361328125
1758182903.5127747,-0.38232421875,0.02001953125,0.9453125,10.009765625,2.5634765625,-1.15966796875,1.4227294921875,24.5654296875,-20.4730224609375
1758182903.5234377,-0.38232421875,0.02001953125,0.9453125,10.009765625,2.5634765625,-1.15966796875,1.5106201171875,24.58740234375,-20.478515625
1758182903.5327766,-0.4072265625,0.0546875,0.9404296875,-0.54931640625,2.74658203125,-0.54931640625,1.4996337890625,24.6038818359375,-20.478515625
1758182903.5429409,-0.4072265625,0.0546875,0.9404296875,-0.54931640625,2.74658203125,-0.54931640625,1.494140625,24.620361328125,-20.4730224609375
1758182903.5531137,-0.3916015625,0.0419921875,0.88427734375,-1.953125,2.44140625,0.1220703125,1.47216796875,24.6368408203125,-20.467529296875
1758182903.5629652,-0.3916015625,0.0419921875,0.88427734375,-1.953125,2.44140625,0.1220703125,1.4556884765625,24.6533203125,-20.45654296875
1758182903.5727904,-0.37060546875,0.00634765625,0.8857421875,5.79833984375,2.13623046875,0.0,1.51611328125,24.664306640625,-20.4510498046875
1758182903.5828743,-0.37060546875,0.00634765625,0.8857421875,5.79833984375,2.13623046875,0.0,1.571044921875,24.67529296875,-20.445556640625
1758182903.5934725,-0.40087890625,0.02587890625,0.95068359375,1.52587890625,2.3193359375,-0.3662109375,1.5875244140625,24.6917724609375,-20.4400634765625
1758182903.6029146,-0.40087890625,0.02587890625,0.95068359375,1.52587890625,2.3193359375,-0.3662109375,1.5985107421875,24.7027587890625,-20.4345703125
1758182903.6129394,-0.41552734375,0.02685546875,0.916015625,0.79345703125,2.44140625,-0.06103515625,1.60400390625,24.71923828125,-20.4290771484375
1758182903.6233716,-0.41552734375,0.02685546875,0.916015625,0.79345703125,2.44140625,-0.06103515625,1.614990234375,24.7357177734375,-20.423583984375
1758182903.6334891,-0.40380859375,0.02099609375,0.88427734375,4.94384765625,2.44140625,0.48828125,1.6644287109375,24.752197265625,-20.41259765625
1758182903.6431644,-0.40380859375,0.02099609375,0.88427734375,4.94384765625,2.44140625,0.48828125,1.7138671875,24.7686767578125,-20.401611328125
1758182903.6532276,-0.41357421875,0.03076171875,0.93017578125,-3.2958984375,2.74658203125,0.67138671875,1.680908203125,24.7906494140625,-20.3851318359375
1758182903.6634932,-0.41357421875,0.03076171875,0.93017578125,-3.2958984375,2.74658203125,0.67138671875,1.6534423828125,24.80712890625,-20.3741455078125
1758182903.6729288,-0.4296875,0.0263671875,0.8837890625,-7.4462890625,2.50244140625,0.8544921875,1.58203125,24.8291015625,-20.357666015625
1758182903.6829336,-0.4296875,0.0263671875,0.8837890625,-7.4462890625,2.50244140625,0.8544921875,1.5106201171875,24.8455810546875,-20.3411865234375
1758182903.6935937,-0.4130859375,0.01220703125,0.87646484375,10.986328125,2.99072265625,-0.1220703125,1.6204833984375,24.873046875,-20.3411865234375
