timestamp,acc_x,acc_y,acc_z,gyro_x,gyro_y,gyro_z,angle_x,angle_y,angle_z
1760968075.1913984,-0.81787109375,0.00537109375,0.5751953125,-5.126953125,0.54931640625,2.13623046875,-0.2801513671875,53.096923828125,-171.529541015625
1760968075.2008407,-0.81494140625,-0.00244140625,0.5859375,-5.43212890625,0.42724609375,1.64794921875,-0.3076171875,53.1024169921875,-171.49658203125
1760968075.2109852,-0.81494140625,-0.00244140625,0.5859375,-5.43212890625,0.42724609375,1.64794921875,-0.340576171875,53.10791015625,-171.4581298828125
1760968075.2210612,-0.81787109375,-0.00146484375,0.58154296875,-3.41796875,0.42724609375,0.91552734375,-0.3570556640625,53.1134033203125,-171.4361572265625
1760968075.231156,-0.81787109375,-0.00146484375,0.58154296875,-3.41796875,0.42724609375,0.91552734375,-0.3790283203125,53.118896484375,-171.40869140625
1760968075.240883,-0.81396484375,0.01171875,0.5927734375,-1.28173828125,0.732421875,0.18310546875,-0.384521484375,53.1298828125,-171.397705078125
1760968075.2507515,-0.81396484375,0.01171875,0.5927734375,-1.28173828125,0.732421875,0.18310546875,-0.3900146484375,53.140869140625,-171.38671875
1760968075.260905,-0.814453125,0.00244140625,0.60888671875,-2.9296875,1.708984375,0.06103515625,-0.41748046875,53.162841796875,-171.3702392578125
1760968075.2698405,-0.814453125,0.00244140625,0.60888671875,-2.9296875,1.708984375,0.06103515625,-0.439453125,53.1793212890625,-171.3592529296875
1760968075.2798057,-0.80224609375,-0.00927734375,0.5869140625,-5.7373046875,2.25830078125,0.42724609375,-0.4888916015625,53.206787109375,-171.3427734375
1760968075.289848,-0.80224609375,-0.00927734375,0.5869140625,-5.7373046875,2.25830078125,0.42724609375,-0.538330078125,53.228759765625,-171.3262939453125
1760968075.302371,-0.7900390625,-0.009765625,0.60400390625,-4.7607421875,1.953125,0.54931640625,-0.5767822265625,53.250732421875,-171.3043212890625
1760968075.3098507,-0.7900390625,-0.009765625,0.60400390625,-4.7607421875,1.953125,0.54931640625,-0.615234375,53.272705078125,-171.287841796875
1760968075.319889,-0.7724609375,-0.029296875,0.66064453125,-1.220703125,1.220703125,0.54931640625,-0.615234375,53.28369140625,-171.2713623046875
1760968075.3298943,-0.7724609375,-0.029296875,0.66064453125,-1.220703125,1.220703125,0.54931640625,-0.6207275390625,53.294677734375,-171.2603759765625
1760968075.339865,-0.77099609375,-0.0185546875,0.6337890625,1.89208984375,0.3662109375,0.48828125,-0.5987548828125,53.294677734375,-171.2548828125
1760968075.3498712,-0.77099609375,-0.0185546875,0.6337890625,1.89208984375,0.3662109375,0.48828125,-0.5712890625,53.2891845703125,-171.243896484375
1760968075.3602219,-0.8095703125,0.0126953125,0.59130859375,-0.30517578125,0.0,0.48828125,-0.5712890625,53.28369140625,-171.2384033203125
1760968075.3699296,-0.8095703125,0.0126953125,0.59130859375,-0.30517578125,0.0,0.48828125,-0.5657958984375,53.28369140625,-171.2274169921875
1760968075.3799765,-0.78125,0.001953125,0.5283203125,-3.662109375,0.244140625,0.42724609375,-0.5987548828125,53.28369140625,-171.2164306640625
1760968075.3899658,-0.78125,0.001953125,0.5283203125,-3.662109375,0.244140625,0.42724609375,-0.626220703125,53.28369140625,-171.2054443359375
1760968075.3999865,-0.79638671875,-0.03173828125,0.72705078125,-1.5869140625,0.0,0.732421875,-0.6317138671875,53.2781982421875,-171.18896484375
1760968075.4099684,-0.79638671875,-0.03173828125,0.72705078125,-1.5869140625,0.0,0.732421875,-0.63720703125,53.272705078125,-171.177978515625
1760968075.4199827,-0.75341796875,-0.0068359375,0.6259765625,-3.84521484375,0.0,0.67138671875,-0.670166015625,53.2672119140625,-171.1724853515625
1760968075.429974,-0.75341796875,-0.0068359375,0.6259765625,-3.84521484375,0.0,0.67138671875,-0.6976318359375,53.2562255859375,-171.1669921875
1760968075.439984,-0.77685546875,-0.01416015625,0.6298828125,-0.6103515625,-0.30517578125,0.18310546875,-0.703125,53.2452392578125,-171.1669921875
1760968075.4499807,-0.77685546875,-0.01416015625,0.6298828125,-0.6103515625,-0.30517578125,0.18310546875,-0.7086181640625,53.228759765625,-171.1724853515625
1760968075.459981,-0.779296875,0.01220703125,0.6015625,-1.46484375,-0.54931640625,-0.1220703125,-0.72509765625,53.2177734375,-171.177978515625
1760968075.4699748,-0.779296875,0.01220703125,0.6015625,-1.46484375,-0.54931640625,-0.1220703125,-0.7415771484375,53.2012939453125,-171.1834716796875
1760968075.4800382,-0.787109375,0.0,0.62255859375,-0.1220703125,-0.3662109375,-0.42724609375,-0.7470703125,53.1903076171875,-171.18896484375
1760968075.489996,-0.787109375,0.0,0.62255859375,-0.1220703125,-0.3662109375,-0.42724609375,-0.7470703125,53.1793212890625,-171.199951171875
1760968075.500027,-0.783203125,-0.0068359375,0.64208984375,-0.6103515625,0.0,-0.48828125,-0.758056640625,53.1683349609375,-171.2109375
1760968075.510022,-0.783203125,-0.0068359375,0.64208984375,-0.6103515625,0.0,-0.48828125,-0.76904296875,53.1573486328125,-171.221923828125
1760968075.5200524,-0.7744140625,-0.00439453125,0.63232421875,-2.13623046875,-0.06103515625,-0.42724609375,-0.7965087890625,53.1463623046875,-171.23291015625
1760968075.5300474,-0.7744140625,-0.00439453125,0.63232421875,-2.13623046875,-0.06103515625,-0.42724609375,-0.8184814453125,53.1353759765625,-171.243896484375
1760968075.5400572,-0.7919921875,-0.01220703125,0.60400390625,-4.21142578125,-0.244140625,-0.48828125,-0.867919921875,53.1243896484375,-171.2548828125
1760968075.5500655,-0.7919921875,-0.01220703125,0.60400390625,-4.21142578125,-0.244140625,-0.48828125,-0.911865234375,53.1134033203125,-171.265869140625
1760968075.560076,-0.802734375,-0.00244140625,0.58642578125,-2.86865234375,-0.48828125,-1.03759765625,-0.955810546875,53.096923828125,-171.287841796875
1760968075.5700874,-0.802734375,-0.00244140625,0.58642578125,-2.86865234375,-0.48828125,-1.03759765625,-0.9942626953125,53.0859375,-171.3043212890625
1760968075.5800958,-0.80615234375,-0.01171875,0.61279296875,0.0,-0.54931640625,-1.52587890625,-1.0107421875,53.074951171875,-171.3262939453125
1760968075.5901015,-0.80615234375,-0.01171875,0.61279296875,0.0,-0.54931640625,-1.52587890625,-1.0272216796875,53.06396484375,-171.3482666015625
1760968075.600137,-0.810546875,-0.01708984375,0.5947265625,0.67138671875,-0.54931640625,-1.52587890625,-1.0382080078125,53.052978515625,-171.3702392578125
1760968075.6101322,-0.810546875,-0.01708984375,0.5947265625,0.67138671875,-0.54931640625,-1.52587890625,-1.0491943359375,53.0419921875,-171.3922119140625
1760968075.6201353,-0.8212890625,-0.0009765625,0.5478515625,0.06103515625,-0.54931640625,-1.46484375,-1.065673828125,53.0364990234375,-171.4141845703125
1760968075.630143,-0.8212890625,-0.0009765625,0.5478515625,0.06103515625,-0.54931640625,-1.46484375,-1.0821533203125,53.031005859375,-171.4306640625
1760968075.6401534,-0.8212890625,-0.0107421875,0.59228515625,-0.30517578125,-0.42724609375,-1.3427734375,-1.1041259765625,53.0255126953125,-171.441650390625
1760968075.6501708,-0.8212890625,-0.0107421875,0.59228515625,-0.30517578125,-0.42724609375,-1.3427734375,-1.12060546875,53.0255126953125,-171.4581298828125
1760968075.6601832,-0.8173828125,-0.03173828125,0.60302734375,0.732421875,-0.3662109375,-1.3427734375,-1.131591796875,53.0255126953125,-171.4691162109375
1760968075.6701856,-0.8173828125,-0.03173828125,0.60302734375,0.732421875,-0.3662109375,-1.3427734375,-1.142578125,53.02001953125,-171.485595703125
1760968075.6802442,-0.8193359375,-0.0185546875,0.55419921875,1.40380859375,-0.6103515625,-1.28173828125,-1.142578125,53.02001953125,-171.49658203125
1760968075.690221,-0.8193359375,-0.0185546875,0.55419921875,1.40380859375,-0.6103515625,-1.28173828125,-1.1480712890625,53.0145263671875,-171.507568359375
1760968075.7002492,-0.82421875,-0.001953125,0.57275390625,3.11279296875,-0.67138671875,-1.40380859375,-1.1370849609375,53.0145263671875,-171.5185546875
1760968075.7102492,-0.82421875,-0.001953125,0.57275390625,3.11279296875,-0.67138671875,-1.40380859375,-1.1260986328125,53.0145263671875,-171.529541015625
1760968075.7203226,-0.8193359375,-0.017578125,0.59375,2.62451171875,-0.30517578125,-1.220703125,-1.1151123046875,53.02001953125,-171.54052734375
1760968075.7302716,-0.8193359375,-0.017578125,0.59375,2.62451171875,-0.30517578125,-1.220703125,-1.1041259765625,53.02001953125,-171.551513671875
1760968075.7402828,-0.81005859375,-0.0234375,0.6015625,3.11279296875,0.0,-1.03759765625,-1.087646484375,53.0255126953125,-171.5570068359375
1760968075.7503076,-0.81005859375,-0.0234375,0.6015625,3.11279296875,0.0,-1.03759765625,-1.0711669921875,53.031005859375,-171.5679931640625
1760968075.7603993,-0.80419921875,-0.00927734375,0.580078125,1.77001953125,-0.06103515625,-1.03759765625,-1.0711669921875,53.0364990234375,-171.573486328125
1760968075.7704642,-0.80419921875,-0.00927734375,0.580078125,1.77001953125,-0.06103515625,-1.03759765625,-1.0711669921875,53.0419921875,-171.5789794921875
1760968075.7806098,-0.79638671875,-0.00927734375,0.61572265625,1.5869140625,-0.6103515625,-1.220703125,-1.0711669921875,53.0419921875,-171.5899658203125
1760968075.7905576,-0.79638671875,-0.00927734375,0.61572265625,1.5869140625,-0.6103515625,-1.220703125,-1.0711669921875,53.0364990234375,-171.6009521484375
1760968075.800542,-0.7958984375,0.00732421875,0.61669921875,6.2255859375,-0.79345703125,-1.89208984375,-1.03271484375,53.031005859375,-171.62841796875
1760968075.810538,-0.7958984375,0.00732421875,0.61669921875,6.2255859375,-0.79345703125,-1.89208984375,-0.9942626953125,53.0255126953125,-171.650390625
1760968075.8203695,-0.80517578125,0.00439453125,0.57470703125,6.2255859375,-0.732421875,-2.13623046875,-0.9613037109375,53.0255126953125,-171.67236328125
1760968075.8306088,-0.80517578125,0.00439453125,0.57470703125,6.2255859375,-0.732421875,-2.13623046875,-0.9283447265625,53.02001953125,-171.6998291015625
1760968075.848854,-0.814453125,-0.0166015625,0.59814453125,1.5869140625,-0.244140625,-1.8310546875,-0.933837890625,53.02001953125,-171.71630859375
1760968075.8550622,-0.814453125,-0.0166015625,0.59814453125,1.5869140625,-0.244140625,-1.8310546875,-0.9393310546875,53.02001953125,-171.73828125
1760968075.8612888,-0.8017578125,-0.0185546875,0.61767578125,1.52587890625,0.06103515625,-1.64794921875,-0.94482421875,53.0255126953125,-171.7547607421875
1760968075.8707962,-0.8037109375,-0.00634765625,0.60498046875,2.0751953125,0.30517578125,-1.8310546875,-0.9503173828125,53.0255126953125,-171.7767333984375
1760968075.8806114,-0.8037109375,-0.00634765625,0.60498046875,2.0751953125,0.30517578125,-1.8310546875,-0.955810546875,53.031005859375,-171.80419921875
1760968075.8905447,-0.78466796875,0.00244140625,0.57177734375,1.0986328125,0.0,-1.64794921875,-0.9613037109375,53.0364990234375,-171.8206787109375
1760968075.9006822,-0.78466796875,0.00244140625,0.57177734375,1.0986328125,0.0,-1.64794921875,-0.9722900390625,53.0364990234375,-171.8426513671875
1760968075.910728,-0.79150390625,-0.0283203125,0.6259765625,3.47900390625,-0.30517578125,-1.64794921875,-0.966796875,53.0364990234375,-171.859130859375
1760968075.920728,-0.79150390625,-0.0283203125,0.6259765625,3.47900390625,-0.30517578125,-1.64794921875,-0.955810546875,53.0364990234375,-171.8756103515625
1760968075.930581,-0.80126953125,-0.02783203125,0.642578125,3.662109375,-0.1220703125,-1.5869140625,-0.94482421875,53.0364990234375,-171.8975830078125
1760968075.9408615,-0.80126953125,-0.02783203125,0.642578125,3.662109375,-0.1220703125,-1.5869140625,-0.9283447265625,53.031005859375,-171.925048828125
1760968075.950947,-0.81494140625,-0.0009765625,0.5791015625,5.06591796875,0.06103515625,-1.52587890625,-0.9063720703125,53.031005859375,-171.947021484375
1760968075.9609063,-0.81494140625,-0.0009765625,0.5791015625,5.06591796875,0.06103515625,-1.52587890625,-0.87890625,53.031005859375,-171.968994140625
1760968075.9716024,-0.8173828125,-0.0205078125,0.55908203125,4.08935546875,0.30517578125,-1.46484375,-0.85693359375,53.031005859375,-171.9854736328125
1760968075.9808333,-0.8173828125,-0.0205078125,0.55908203125,4.08935546875,0.30517578125,-1.46484375,-0.8349609375,53.0364990234375,-172.0074462890625
1760968075.9908485,-0.8271484375,-0.01513671875,0.61767578125,2.50244140625,0.732421875,-0.8544921875,-0.823974609375,53.0474853515625,-172.0184326171875
1760968076.001343,-0.8271484375,-0.01513671875,0.61767578125,2.50244140625,0.732421875,-0.8544921875,-0.81298828125,53.0584716796875,-172.02392578125
1760968076.0112784,-0.81884765625,-0.01123046875,0.5888671875,2.9296875,0.8544921875,-0.79345703125,-0.7965087890625,53.0694580078125,-172.034912109375
1760968076.0209222,-0.81884765625,-0.01123046875,0.5888671875,2.9296875,0.8544921875,-0.79345703125,-0.780029296875,53.0804443359375,-172.0404052734375
1760968076.031628,-0.81884765625,-0.01123046875,0.55712890625,4.39453125,0.6103515625,-1.03759765625,-0.7635498046875,53.0914306640625,-172.0513916015625
1760968076.0415707,-0.81884765625,-0.01123046875,0.55712890625,4.39453125,0.6103515625,-1.03759765625,-0.736083984375,53.1024169921875,-172.0623779296875
1760968076.0510404,-0.82177734375,-0.01123046875,0.5732421875,3.5400390625,0.54931640625,-1.15966796875,-0.714111328125,53.1134033203125,-172.0733642578125
1760968076.0611267,-0.82177734375,-0.01123046875,0.5732421875,3.5400390625,0.54931640625,-1.15966796875,-0.6976318359375,53.1243896484375,-172.0843505859375
1760968076.0709012,-0.82080078125,-0.01171875,0.6103515625,3.84521484375,0.91552734375,-0.9765625,-0.6756591796875,53.1353759765625,-172.0953369140625
1760968076.0809393,-0.82080078125,-0.01171875,0.6103515625,3.84521484375,0.91552734375,-0.9765625,-0.6536865234375,53.15185546875,-172.100830078125
1760968076.090715,-0.81884765625,0.00244140625,0.58056640625,3.5400390625,1.40380859375,-0.8544921875,-0.6317138671875,53.1683349609375,-172.11181640625
1760968076.1011748,-0.81884765625,0.00244140625,0.58056640625,3.5400390625,1.40380859375,-0.8544921875,-0.6097412109375,53.1903076171875,-172.1173095703125
1760968076.1107833,-0.81884765625,-0.001953125,0.5546875,1.28173828125,1.220703125,-0.8544921875,-0.604248046875,53.206787109375,-172.1282958984375
1760968076.1210876,-0.81884765625,-0.001953125,0.5546875,1.28173828125,1.220703125,-0.8544921875,-0.604248046875,53.228759765625,-172.1337890625
1760968076.1317437,-0.81884765625,-0.001953125,0.5546875,-0.6103515625,0.8544921875,-0.67138671875,-0.6097412109375,53.2452392578125,-172.1337890625
1760968076.1411967,-0.81201171875,-0.01025390625,0.583984375,-0.6103515625,0.8544921875,-0.67138671875,-0.626220703125,53.26171875,-172.1337890625
1760968076.1508157,-0.81005859375,-0.01611328125,0.60546875,3.11279296875,0.6103515625,-1.0986328125,-0.626220703125,53.272705078125,-172.1392822265625
1760968076.162351,-0.81005859375,-0.01611328125,0.60546875,3.11279296875,0.6103515625,-1.0986328125,-0.615234375,53.28369140625,-172.1502685546875
1760968076.1715024,-0.8076171875,-0.0029296875,0.59375,5.55419921875,0.48828125,-1.28173828125,-0.5877685546875,53.294677734375,-172.1612548828125
1760968076.1814027,-0.8076171875,-0.0029296875,0.59375,5.55419921875,0.48828125,-1.28173828125,-0.5548095703125,53.3056640625,-172.177734375
1760968076.191135,-0.80126953125,-0.00634765625,0.58837890625,4.82177734375,0.42724609375,-1.40380859375,-0.5218505859375,53.316650390625,-172.188720703125
1760968076.2019856,-0.80126953125,-0.00634765625,0.58837890625,4.82177734375,0.42724609375,-1.40380859375,-0.494384765625,53.3221435546875,-172.2052001953125
1760968076.2119632,-0.80615234375,-0.00341796875,0.6123046875,2.5634765625,0.54931640625,-1.28173828125,-0.4779052734375,53.3331298828125,-172.2216796875
1760968076.2233381,-0.80615234375,-0.00341796875,0.6123046875,2.5634765625,0.54931640625,-1.28173828125,-0.4669189453125,53.3441162109375,-172.24365234375
1760968076.2314994,-0.7978515625,-0.01025390625,0.6015625,6.28662109375,0.67138671875,-1.46484375,-0.4449462890625,53.349609375,-172.2601318359375
1760968076.2431757,-0.7978515625,-0.01025390625,0.6015625,6.28662109375,0.67138671875,-1.46484375,-0.406494140625,53.360595703125,-172.2821044921875
1760968076.2511933,-0.79443359375,-0.015625,0.603515625,9.82666015625,0.67138671875,-1.5869140625,-0.3460693359375,53.3660888671875,-172.3095703125
1760968076.2622955,-0.79443359375,-0.015625,0.603515625,9.82666015625,0.67138671875,-1.5869140625,-0.274658203125,53.3770751953125,-172.33154296875
1760968076.2713733,-0.79443359375,-0.00341796875,0.59423828125,6.77490234375,0.6103515625,-1.3427734375,-0.2142333984375,53.382568359375,-172.3590087890625
1760968076.281812,-0.79443359375,-0.00341796875,0.59423828125,6.77490234375,0.6103515625,-1.3427734375,-0.1702880859375,53.3880615234375,-172.386474609375
1760968076.293215,-0.78515625,0.005859375,0.63134765625,4.45556640625,0.67138671875,-1.03759765625,-0.1318359375,53.3935546875,-172.408447265625
1760968076.30175,-0.78515625,0.005859375,0.63134765625,4.45556640625,0.67138671875,-1.03759765625,-0.1043701171875,53.3990478515625,-172.430419921875
1760968076.3136883,-0.77490234375,-0.00439453125,0.64990234375,3.84521484375,1.28173828125,-0.6103515625,-0.076904296875,53.4100341796875,-172.4468994140625
1760968076.3229496,-0.77490234375,-0.00439453125,0.64990234375,3.84521484375,1.28173828125,-0.6103515625,-0.0494384765625,53.41552734375,-172.46337890625
1760968076.3314176,-0.7685546875,-0.00537109375,0.63232421875,2.685546875,1.220703125,-0.1220703125,-0.02197265625,53.4210205078125,-172.4798583984375
1760968076.3430135,-0.7685546875,-0.00537109375,0.63232421875,2.685546875,1.220703125,-0.1220703125,0.0,53.426513671875,-172.4908447265625
1760968076.3511655,-0.7685546875,-0.00537109375,0.63232421875,1.8310546875,0.8544921875,0.06103515625,0.010986328125,53.4320068359375,-172.5018310546875
1760968076.3613942,-0.787109375,0.0009765625,0.6083984375,1.8310546875,0.8544921875,0.06103515625,0.0274658203125,53.4320068359375,-172.5128173828125
1760968076.3717866,-0.79541015625,0.00244140625,0.59375,2.197265625,0.732421875,0.1220703125,0.0439453125,53.4320068359375,-172.518310546875
1760968076.3819947,-0.79541015625,0.00244140625,0.59375,2.197265625,0.732421875,0.1220703125,0.06591796875,53.4320068359375,-172.529296875
1760968076.3937893,-0.79736328125,-0.0068359375,0.6259765625,2.44140625,0.6103515625,0.244140625,0.087890625,53.4320068359375,-172.529296875
1760968076.4050863,-0.79736328125,-0.0068359375,0.6259765625,2.44140625,0.6103515625,0.244140625,0.1153564453125,53.4320068359375,-172.5347900390625
1760968076.4120145,-0.7939453125,-0.0087890625,0.6064453125,1.5869140625,0.54931640625,0.54931640625,0.1373291015625,53.4320068359375,-172.540283203125
1760968076.4227781,-0.7939453125,-0.0087890625,0.6064453125,1.5869140625,0.54931640625,0.54931640625,0.1593017578125,53.426513671875,-172.5347900390625
1760968076.4340909,-0.8056640625,0.00927734375,0.5810546875,1.03759765625,0.54931640625,0.6103515625,0.17578125,53.426513671875,-172.5347900390625
1760968076.442638,-0.8056640625,0.00927734375,0.5810546875,1.03759765625,0.54931640625,0.6103515625,0.1922607421875,53.426513671875,-172.529296875
1760968076.4515865,-0.81884765625,0.01953125,0.5888671875,1.46484375,0.91552734375,0.30517578125,0.208740234375,53.4320068359375,-172.529296875
1760968076.4616117,-0.81884765625,0.01953125,0.5888671875,1.46484375,0.91552734375,0.30517578125,0.2252197265625,53.4375,-172.5238037109375
1760968076.471531,-0.81591796875,-0.01123046875,0.5927734375,0.1220703125,1.3427734375,0.06103515625,0.2362060546875,53.4429931640625,-172.5238037109375
1760968076.4813852,-0.81591796875,-0.01123046875,0.5927734375,0.1220703125,1.3427734375,0.06103515625,0.2362060546875,53.4539794921875,-172.5238037109375
1760968076.4918737,-0.80615234375,-0.00439453125,0.5849609375,1.15966796875,1.40380859375,-0.1220703125,0.24169921875,53.470458984375,-172.5238037109375
1760968076.5016024,-0.80615234375,-0.00439453125,0.5849609375,1.15966796875,1.40380859375,-0.1220703125,0.2471923828125,53.4814453125,-172.529296875
1760968076.511938,-0.806640625,0.02099609375,0.587890625,2.8076171875,1.0986328125,-0.54931640625,0.263671875,53.492431640625,-172.5347900390625
1760968076.5219426,-0.806640625,0.02099609375,0.587890625,2.8076171875,1.0986328125,-0.54931640625,0.2801513671875,53.50341796875,-172.5457763671875
1760968076.5314162,-0.80615234375,0.00830078125,0.60107421875,1.28173828125,1.28173828125,-0.48828125,0.296630859375,53.514404296875,-172.55126953125
1760968076.5427697,-0.80615234375,0.00830078125,0.60107421875,1.28173828125,1.28173828125,-0.48828125,0.3021240234375,53.525390625,-172.562255859375
1760968076.555476,-0.80517578125,0.00390625,0.5859375,0.1220703125,1.40380859375,-0.30517578125,0.3021240234375,53.536376953125,-172.5677490234375
1760968076.5660653,-0.80517578125,0.00390625,0.5859375,0.1220703125,1.40380859375,-0.30517578125,0.3021240234375,53.5528564453125,-172.5732421875
1760968076.578381,-0.80517578125,0.00341796875,0.6123046875,0.18310546875,1.0986328125,-0.42724609375,0.296630859375,53.5638427734375,-172.5787353515625
1760968076.5865264,-0.80517578125,0.00341796875,0.6123046875,0.18310546875,1.0986328125,-0.42724609375,0.296630859375,53.5748291015625,-172.5897216796875
1760968076.5943432,-0.80322265625,0.00732421875,0.5859375,2.13623046875,1.03759765625,-0.732421875,0.296630859375,53.5858154296875,-172.6007080078125
1760968076.6012025,-0.80322265625,0.00732421875,0.5859375,2.13623046875,1.03759765625,-0.732421875,0.3131103515625,53.59130859375,-172.6116943359375
1760968076.6124396,-0.80126953125,-0.00439453125,0.580078125,2.62451171875,1.0986328125,-0.67138671875,0.3240966796875,53.602294921875,-172.6226806640625
1760968076.62645,-0.80126953125,-0.00439453125,0.580078125,2.62451171875,1.0986328125,-0.67138671875,0.340576171875,53.61328125,-172.6336669921875
1760968076.6335585,-0.79296875,-0.0087890625,0.646484375,2.25830078125,1.15966796875,-0.3662109375,0.3570556640625,53.624267578125,-172.6446533203125
1760968076.6414437,-0.79296875,-0.0087890625,0.646484375,2.25830078125,1.15966796875,-0.3662109375,0.37353515625,53.63525390625,-172.6556396484375
1760968076.6554418,-0.767578125,0.0205078125,0.6220703125,0.67138671875,1.220703125,0.0,0.384521484375,53.6407470703125,-172.6611328125
1760968076.6639485,-0.767578125,0.0205078125,0.6220703125,0.67138671875,1.220703125,0.0,0.3900146484375,53.6517333984375,-172.6666259765625
1760968076.6713743,-0.76123046875,0.0029296875,0.6484375,2.13623046875,0.54931640625,-0.3662109375,0.406494140625,53.6517333984375,-172.6776123046875
1760968076.6823447,-0.76123046875,0.0029296875,0.6484375,2.13623046875,0.54931640625,-0.3662109375,0.41748046875,53.6517333984375,-172.694091796875
1760968076.6931067,-0.7548828125,-0.0087890625,0.6630859375,2.3193359375,0.48828125,-0.3662109375,0.439453125,53.646240234375,-172.7105712890625
1760968076.702171,-0.7548828125,-0.0087890625,0.6630859375,2.3193359375,0.48828125,-0.3662109375,0.4559326171875,53.63525390625,-172.7325439453125
1760968076.7152572,-0.78466796875,0.005859375,0.64111328125,2.50244140625,0.42724609375,-0.18310546875,0.472412109375,53.6297607421875,-172.7545166015625
1760968076.7228038,-0.78466796875,0.005859375,0.64111328125,2.50244140625,0.42724609375,-0.18310546875,0.4888916015625,53.6187744140625,-172.7764892578125
1760968076.731633,-0.83740234375,0.0234375,0.54638671875,0.42724609375,0.8544921875,-0.18310546875,0.4998779296875,53.61328125,-172.79296875
1760968076.7433434,-0.83740234375,0.0234375,0.54638671875,0.42724609375,0.8544921875,-0.18310546875,0.50537109375,53.61328125,-172.8094482421875
1760968076.7516508,-0.85791015625,0.0146484375,0.51416015625,2.3193359375,0.42724609375,-0.79345703125,0.5108642578125,53.61328125,-172.825927734375
1760968076.7616918,-0.85791015625,0.0146484375,0.51416015625,2.3193359375,0.42724609375,-0.79345703125,0.5218505859375,53.61328125,-172.8424072265625
1760968076.7743728,-0.8779296875,-0.01318359375,0.52978515625,1.28173828125,0.91552734375,-0.91552734375,0.5328369140625,53.6187744140625,-172.85888671875
1760968076.7827992,-0.8779296875,-0.01318359375,0.52978515625,1.28173828125,0.91552734375,-0.91552734375,0.5328369140625,53.63525390625,-172.869873046875
1760968076.792024,-0.8603515625,-0.0087890625,0.529296875,4.69970703125,1.220703125,-1.3427734375,0.5438232421875,53.6517333984375,-172.880859375
1760968076.80275,-0.8603515625,-0.0087890625,0.529296875,4.69970703125,1.220703125,-1.3427734375,0.5712890625,53.6737060546875,-172.8973388671875
1760968076.8125916,-0.86669921875,0.00732421875,0.541015625,4.0283203125,1.8310546875,-1.0986328125,0.5987548828125,53.6956787109375,-172.9083251953125
1760968076.8226397,-0.86669921875,0.00732421875,0.541015625,4.0283203125,1.8310546875,-1.0986328125,0.6207275390625,53.7286376953125,-172.9193115234375
1760968076.8318481,-0.85986328125,0.02685546875,0.51904296875,-0.91552734375,2.25830078125,-0.8544921875,0.6207275390625,53.7615966796875,-172.9193115234375
1760968076.8422937,-0.85986328125,0.02685546875,0.51904296875,-0.91552734375,2.25830078125,-0.8544921875,0.5987548828125,53.800048828125,-172.9193115234375
1760968076.8584156,-0.8564453125,0.00732421875,0.56103515625,-1.40380859375,2.86865234375,-0.6103515625,0.5767822265625,53.843994140625,-172.913818359375
1760968076.8749123,-0.8564453125,0.00732421875,0.56103515625,-1.40380859375,2.86865234375,-0.6103515625,0.5548095703125,53.8824462890625,-172.9083251953125
1760968076.8867671,-0.83837890625,-0.0126953125,0.56591796875,-0.30517578125,3.5400390625,-0.244140625,0.54931640625,53.9373779296875,-172.8973388671875
1760968076.9016817,-0.83837890625,-0.0126953125,0.56591796875,-0.30517578125,3.5400390625,-0.244140625,0.538330078125,53.98681640625,-172.8863525390625
1760968076.9110444,-0.8203125,-0.00341796875,0.572265625,0.9765625,3.662109375,-0.1220703125,0.54931640625,54.0362548828125,-172.8753662109375
1760968076.9187136,-0.8203125,-0.00341796875,0.572265625,0.9765625,3.662109375,-0.1220703125,0.5548095703125,54.0802001953125,-172.8643798828125
1760968076.9568245,-0.81201171875,0.0078125,0.5869140625,-0.1220703125,3.35693359375,0.0,0.54931640625,54.129638671875,-172.8533935546875
1760968076.9688075,-0.81201171875,0.0078125,0.5869140625,-0.1220703125,3.35693359375,0.0,0.54931640625,54.1680908203125,-172.8424072265625
1760968076.9768202,-0.80859375,0.0126953125,0.59326171875,-1.708984375,3.173828125,0.1220703125,0.5328369140625,54.2120361328125,-172.8314208984375
1760968076.9968224,-0.80859375,0.0126953125,0.59326171875,-1.708984375,3.173828125,0.1220703125,0.516357421875,54.25048828125,-172.825927734375
1760968077.004745,-0.8076171875,0.0,0.61572265625,-0.91552734375,3.41796875,0.30517578125,0.5108642578125,54.2889404296875,-172.81494140625
1760968077.0150034,-0.8076171875,0.0,0.61572265625,-0.91552734375,3.41796875,0.30517578125,0.50537109375,54.327392578125,-172.803955078125
1760968077.021939,-0.79345703125,0.0,0.58740234375,0.0,3.60107421875,0.42724609375,0.5108642578125,54.3658447265625,-172.7984619140625
1760968077.044206,-0.79345703125,0.0,0.58740234375,0.0,3.60107421875,0.42724609375,0.516357421875,54.3988037109375,-172.79296875
1760968077.0523632,-0.79345703125,0.01123046875,0.607421875,0.18310546875,3.173828125,0.18310546875,0.5218505859375,54.4317626953125,-172.7874755859375
1760968077.07372,-0.79345703125,0.01123046875,0.607421875,0.18310546875,3.173828125,0.18310546875,0.5218505859375,54.4647216796875,-172.7874755859375
1760968077.0816457,-0.7919921875,-0.00146484375,0.62548828125,0.6103515625,2.86865234375,0.1220703125,0.5328369140625,54.4921875,-172.7874755859375
1760968077.0904002,-0.7919921875,-0.00146484375,0.62548828125,0.6103515625,2.86865234375,0.1220703125,0.538330078125,54.51416015625,-172.79296875
1760968077.1190937,-0.7890625,0.015625,0.6005859375,1.64794921875,2.5634765625,-0.1220703125,0.5548095703125,54.5361328125,-172.803955078125
1760968077.1277912,-0.7890625,0.015625,0.6005859375,1.64794921875,2.5634765625,-0.1220703125,0.5657958984375,54.5526123046875,-172.81494140625
1760968077.1365757,-0.79248046875,0.01123046875,0.60400390625,1.28173828125,2.13623046875,-0.42724609375,0.5767822265625,54.569091796875,-172.8314208984375
1760968077.1547637,-0.79248046875,0.01123046875,0.60400390625,1.28173828125,2.13623046875,-0.42724609375,0.582275390625,54.5855712890625,-172.847900390625
1760968077.1665828,-0.79248046875,0.005859375,0.6240234375,0.54931640625,1.52587890625,-0.54931640625,0.582275390625,54.591064453125,-172.8643798828125
1760968077.1757565,-0.79248046875,0.005859375,0.6240234375,0.54931640625,1.52587890625,-0.54931640625,0.5767822265625,54.5965576171875,-172.8863525390625
1760968077.1859534,-0.798828125,0.0,0.591796875,1.40380859375,1.220703125,-0.54931640625,0.582275390625,54.60205078125,-172.9083251953125
1760968077.1948595,-0.798828125,0.0,0.591796875,1.40380859375,1.220703125,-0.54931640625,0.5877685546875,54.6075439453125,-172.9302978515625
1760968077.2055323,-0.802734375,0.0185546875,0.58935546875,2.0751953125,1.15966796875,-0.8544921875,0.5987548828125,54.6075439453125,-172.957763671875
1760968077.2191937,-0.802734375,0.0185546875,0.58935546875,2.0751953125,1.15966796875,-0.8544921875,0.6097412109375,54.613037109375,-172.9852294921875
1760968077.2292821,-0.802734375,0.0185546875,0.58935546875,2.38037109375,1.28173828125,-1.03759765625,0.615234375,54.6185302734375,-173.0126953125
1760968077.237665,-0.80322265625,0.00439453125,0.6103515625,2.38037109375,1.28173828125,-1.03759765625,0.626220703125,54.6185302734375,-173.045654296875
1760968077.2465754,-0.80810546875,-0.00732421875,0.603515625,4.21142578125,1.15966796875,-1.15966796875,0.6536865234375,54.6240234375,-173.0731201171875
1760968077.260643,-0.80810546875,-0.00732421875,0.603515625,4.21142578125,1.15966796875,-1.15966796875,0.6756591796875,54.6240234375,-173.111572265625
1760968077.2709844,-0.8125,0.0166015625,0.5498046875,4.94384765625,0.8544921875,-1.5869140625,0.703125,54.6295166015625,-173.1500244140625
1760968077.2793026,-0.8125,0.0166015625,0.5498046875,4.94384765625,0.8544921875,-1.5869140625,0.7305908203125,54.6295166015625,-173.1829833984375
1760968077.2881467,-0.798828125,0.0185546875,0.5791015625,4.2724609375,0.79345703125,-2.01416015625,0.7415771484375,54.635009765625,-173.2269287109375
1760968077.2987635,-0.798828125,0.0185546875,0.5791015625,4.2724609375,0.79345703125,-2.01416015625,0.758056640625,54.635009765625,-173.2708740234375
1760968077.3076303,-0.78466796875,0.00341796875,0.61083984375,1.708984375,1.0986328125,-2.0751953125,0.7470703125,54.6405029296875,-173.3148193359375
1760968077.3189502,-0.78466796875,0.00341796875,0.61083984375,1.708984375,1.0986328125,-2.0751953125,0.736083984375,54.64599609375,-173.3642578125
1760968077.3264494,-0.7822265625,0.0126953125,0.6650390625,0.30517578125,0.30517578125,-2.01416015625,0.7086181640625,54.6405029296875,-173.408203125
1760968077.3438127,-0.7822265625,0.0126953125,0.6650390625,0.30517578125,0.30517578125,-2.01416015625,0.6866455078125,54.6295166015625,-173.4576416015625
1760968077.352922,-0.79150390625,0.02685546875,0.58447265625,-0.48828125,0.06103515625,-2.197265625,0.648193359375,54.6240234375,-173.5125732421875
1760968077.3600292,-0.79150390625,0.02685546875,0.58447265625,-0.48828125,0.06103515625,-2.197265625,0.615234375,54.613037109375,-173.56201171875
1760968077.367935,-0.7861328125,0.02197265625,0.595703125,2.0751953125,-0.244140625,-2.8076171875,0.604248046875,54.5965576171875,-173.6224365234375
1760968077.3774931,-0.7861328125,0.02197265625,0.595703125,2.0751953125,-0.244140625,-2.8076171875,0.5877685546875,54.5855712890625,-173.682861328125
1760968077.3852918,-0.78564453125,-0.0048828125,0.6259765625,-1.8310546875,-0.06103515625,-2.44140625,0.538330078125,54.5745849609375,-173.73779296875
1760968077.4000766,-0.78564453125,-0.0048828125,0.6259765625,-1.8310546875,-0.06103515625,-2.44140625,0.4888916015625,54.5635986328125,-173.792724609375
1760968077.407309,-0.77978515625,0.0029296875,0.6435546875,-3.60107421875,0.0,-1.953125,0.428466796875,54.5526123046875,-173.8421630859375
1760968077.4146364,-0.77978515625,0.0029296875,0.6435546875,-3.60107421875,0.0,-1.953125,0.3680419921875,54.5361328125,-173.8916015625
1760968077.4236884,-0.7939453125,0.03466796875,0.611328125,-6.65283203125,-0.1220703125,-2.0751953125,0.274658203125,54.5196533203125,-173.946533203125
1760968077.4445453,-0.7939453125,0.03466796875,0.611328125,-6.65283203125,-0.1220703125,-2.0751953125,0.186767578125,54.5086669921875,-173.9959716796875
1760968077.4540608,-0.80810546875,0.044921875,0.56005859375,-14.95361328125,-0.42724609375,-1.953125,0.0164794921875,54.4921875,-174.0399169921875
1760968077.4769835,-0.80810546875,0.044921875,0.56005859375,-14.95361328125,-0.42724609375,-1.953125,-0.142822265625,54.4757080078125,-174.078369140625
1760968077.4847403,-0.7890625,0.00146484375,0.60009765625,-16.6015625,-1.3427734375,-2.50244140625,-0.32958984375,54.4537353515625,-174.1278076171875
1760968077.4971423,-0.7890625,0.00146484375,0.60009765625,-16.6015625,-1.3427734375,-2.50244140625,-0.5218505859375,54.42626953125,-174.17724609375
1760968077.5181093,-0.81787109375,-0.0458984375,0.60546875,-17.51708984375,-0.8544921875,-1.89208984375,-0.7086181640625,54.4097900390625,-174.2156982421875
1760968077.5269642,-0.81787109375,-0.0458984375,0.60546875,-17.51708984375,-0.8544921875,-1.89208984375,-0.9063720703125,54.393310546875,-174.254150390625
1760968077.535307,-0.81787109375,-0.0458984375,0.60546875,-14.22119140625,-1.3427734375,-1.953125,-1.065673828125,54.371337890625,-174.298095703125
1760968077.5432742,-0.81787109375,-0.01904296875,0.5576171875,-14.22119140625,-1.3427734375,-1.953125,-1.2249755859375,54.349365234375,-174.3365478515625
1760968077.551499,-0.83349609375,-0.0341796875,0.5576171875,-9.765625,-0.67138671875,-1.77001953125,-1.34033203125,54.33837890625,-174.3695068359375
1760968077.5582006,-0.83349609375,-0.0341796875,0.5576171875,-9.765625,-0.67138671875,-1.77001953125,-1.461181640625,54.327392578125,-174.4024658203125
1760968077.566655,-0.8447265625,-0.00927734375,0.572265625,-10.31494140625,0.0,-1.5869140625,-1.5765380859375,54.327392578125,-174.4354248046875
1760968077.5745766,-0.8447265625,-0.00927734375,0.572265625,-10.31494140625,0.0,-1.5869140625,-1.6973876953125,54.327392578125,-174.4573974609375
1760968077.582416,-0.82470703125,-0.02978515625,0.54736328125,-2.44140625,0.30517578125,-2.13623046875,-1.746826171875,54.327392578125,-174.495849609375
1760968077.5904727,-0.82470703125,-0.02978515625,0.54736328125,-2.44140625,0.30517578125,-2.13623046875,-1.7962646484375,54.3328857421875,-174.52880859375
1760968077.597763,-0.82177734375,-0.060546875,0.55908203125,-3.41796875,0.30517578125,-1.5869140625,-1.8511962890625,54.33837890625,-174.5562744140625
1760968077.6055188,-0.82177734375,-0.060546875,0.55908203125,-3.41796875,0.30517578125,-1.5869140625,-1.9061279296875,54.3438720703125,-174.5782470703125
1760968077.6138344,-0.8154296875,-0.021484375,0.60888671875,-1.15966796875,0.06103515625,-1.40380859375,-1.9390869140625,54.349365234375,-174.605712890625
1760968077.622597,-0.8154296875,-0.021484375,0.60888671875,-1.15966796875,0.06103515625,-1.40380859375,-1.9720458984375,54.349365234375,-174.627685546875
1760968077.6296663,-0.8251953125,-0.0068359375,0.56005859375,-3.0517578125,0.244140625,-1.220703125,-2.0159912109375,54.3548583984375,-174.649658203125
1760968077.6371524,-0.8251953125,-0.0068359375,0.56005859375,-3.0517578125,0.244140625,-1.220703125,-2.0654296875,54.3603515625,-174.6661376953125
1760968077.6452749,-0.82177734375,0.00341796875,0.568359375,-3.60107421875,0.30517578125,-1.52587890625,-2.120361328125,54.3658447265625,-174.6881103515625
1760968077.653571,-0.82177734375,0.00341796875,0.568359375,-3.60107421875,0.30517578125,-1.52587890625,-2.1697998046875,54.371337890625,-174.7100830078125
1760968077.6609876,-0.82666015625,-0.0107421875,0.58935546875,-4.0283203125,0.9765625,-1.77001953125,-2.230224609375,54.38232421875,-174.737548828125
1760968077.6698112,-0.82666015625,-0.0107421875,0.58935546875,-4.0283203125,0.9765625,-1.77001953125,-2.2906494140625,54.393310546875,-174.759521484375
1760968077.6952333,-0.83837890625,-0.03515625,0.544921875,-7.8125,1.15966796875,-1.64794921875,-2.3895263671875,54.4097900390625,-174.781494140625
1760968077.7017272,-0.83837890625,-0.03515625,0.544921875,-7.8125,1.15966796875,-1.64794921875,-2.48291015625,54.4207763671875,-174.7979736328125
1760968077.709562,-0.84765625,-0.0244140625,0.53955078125,-9.033203125,1.28173828125,-1.953125,-2.5982666015625,54.4427490234375,-174.825439453125
1760968077.7165318,-0.84765625,-0.0244140625,0.53955078125,-9.033203125,1.28173828125,-1.953125,-2.713623046875,54.459228515625,-174.847412109375
1760968077.7245536,-0.8515625,-0.05322265625,0.5390625,-1.15966796875,1.3427734375,-2.38037109375,-2.757568359375,54.481201171875,-174.88037109375
1760968077.7332957,-0.8515625,-0.05322265625,0.5390625,-1.15966796875,1.3427734375,-2.38037109375,-2.801513671875,54.503173828125,-174.9078369140625
1760968077.740723,-0.82958984375,-0.0517578125,0.51513671875,1.89208984375,1.0986328125,-2.62451171875,-2.8179931640625,54.5196533203125,-174.9462890625
1760968077.7479496,-0.82958984375,-0.0517578125,0.51513671875,1.89208984375,1.0986328125,-2.62451171875,-2.8399658203125,54.5416259765625,-174.979248046875
1760968077.7559547,-0.83447265625,-0.0146484375,0.5986328125,0.91552734375,0.48828125,-2.86865234375,-2.8729248046875,54.5526123046875,-175.0177001953125
1760968077.7650745,-0.83447265625,-0.0146484375,0.5986328125,0.91552734375,0.48828125,-2.86865234375,-2.900390625,54.569091796875,-175.0506591796875
1760968077.7734754,-0.82666015625,-0.0126953125,0.58056640625,-3.72314453125,0.48828125,-3.0517578125,-2.9827880859375,54.580078125,-175.0946044921875
1760968077.7811134,-0.82666015625,-0.0126953125,0.58056640625,-3.72314453125,0.48828125,-3.0517578125,-3.0596923828125,54.591064453125,-175.133056640625
1760968077.7883961,-0.841796875,-0.03564453125,0.53076171875,-1.40380859375,0.244140625,-3.11279296875,-3.1146240234375,54.5965576171875,-175.1715087890625
1760968077.7973306,-0.841796875,-0.03564453125,0.53076171875,-1.40380859375,0.244140625,-3.11279296875,-3.1695556640625,54.6075439453125,-175.2099609375
1760968077.805189,-0.83447265625,-0.05419921875,0.55126953125,3.84521484375,0.18310546875,-3.173828125,-3.175048828125,54.6185302734375,-175.2484130859375
1760968077.8143196,-0.83447265625,-0.05419921875,0.55126953125,3.84521484375,0.18310546875,-3.173828125,-3.1805419921875,54.6240234375,-175.2923583984375
1760968077.821713,-0.8447265625,-0.04541015625,0.578125,5.859375,0.30517578125,-2.99072265625,-3.1695556640625,54.635009765625,-175.330810546875
1760968077.8304062,-0.8447265625,-0.04541015625,0.578125,5.859375,0.30517578125,-2.99072265625,-3.153076171875,54.64599609375,-175.374755859375
1760968077.8379364,-0.82763671875,-0.01025390625,0.568359375,4.69970703125,-0.30517578125,-2.8076171875,-3.1475830078125,54.6514892578125,-175.4132080078125
1760968077.845901,-0.82763671875,-0.01025390625,0.568359375,4.69970703125,-0.30517578125,-2.8076171875,-3.1365966796875,54.6514892578125,-175.4461669921875
1760968077.8532557,-0.82373046875,-0.0283203125,0.5634765625,-1.77001953125,-0.91552734375,-2.86865234375,-3.197021484375,54.6514892578125,-175.484619140625
1760968077.8610127,-0.82373046875,-0.0283203125,0.5634765625,-1.77001953125,-0.91552734375,-2.86865234375,-3.251953125,54.64599609375,-175.5230712890625
1760968077.8685312,-0.8369140625,-0.03955078125,0.5576171875,-0.67138671875,-0.48828125,-3.11279296875,-3.3013916015625,54.6514892578125,-175.5670166015625
1760968077.8760154,-0.8408203125,-0.05224609375,0.53955078125,2.38037109375,0.0,-3.11279296875,-3.3343505859375,54.6514892578125,-175.6109619140625
1760968077.88276,-0.8408203125,-0.05224609375,0.53955078125,2.38037109375,0.0,-3.11279296875,-3.3563232421875,54.656982421875,-175.6549072265625
1760968077.89091,-0.83935546875,-0.05029296875,0.55517578125,2.99072265625,0.0,-2.8076171875,-3.372802734375,54.66796875,-175.693359375
1760968077.8985279,-0.83935546875,-0.05029296875,0.55517578125,2.99072265625,0.0,-2.8076171875,-3.3837890625,54.6734619140625,-175.7373046875
1760968077.906884,-0.82373046875,-0.04052734375,0.572265625,5.615234375,-0.18310546875,-2.5634765625,-3.3837890625,54.678955078125,-175.7757568359375
1760968077.9136343,-0.82373046875,-0.04052734375,0.572265625,5.615234375,-0.18310546875,-2.5634765625,-3.3673095703125,54.6844482421875,-175.8087158203125
1760968077.921189,-0.81591796875,-0.03515625,0.58349609375,6.77490234375,-0.42724609375,-2.62451171875,-3.3453369140625,54.68994140625,-175.84716796875
1760968077.9288425,-0.81591796875,-0.03515625,0.58349609375,6.77490234375,-0.42724609375,-2.62451171875,-3.3123779296875,54.68994140625,-175.89111328125
1760968077.93798,-0.8154296875,-0.017578125,0.576171875,4.150390625,-0.18310546875,-2.197265625,-3.2958984375,54.68994140625,-175.924072265625
1760968077.9453113,-0.8154296875,-0.017578125,0.576171875,4.150390625,-0.18310546875,-2.197265625,-3.2904052734375,54.6954345703125,-175.95703125
1760968077.9537642,-0.8154296875,-0.017578125,0.576171875,-0.3662109375,-0.244140625,-1.64794921875,-3.2958984375,54.6954345703125,-175.9844970703125
1760968077.9606235,-0.8115234375,-0.04443359375,0.59326171875,-0.3662109375,-0.244140625,-1.64794921875,-3.3233642578125,54.6954345703125,-176.011962890625
1760968077.9684608,-0.806640625,-0.06103515625,0.587890625,-2.0751953125,-0.30517578125,-0.9765625,-3.3563232421875,54.6954345703125,-176.033935546875
1760968077.9757864,-0.806640625,-0.06103515625,0.587890625,-2.0751953125,-0.30517578125,-0.9765625,-3.394775390625,54.6954345703125,-176.0504150390625
1760968077.983331,-0.80712890625,-0.04248046875,0.58203125,0.48828125,-0.91552734375,-0.54931640625,-3.416748046875,54.68994140625,-176.0614013671875
1760968077.9914942,-0.80712890625,-0.04248046875,0.58203125,0.48828125,-0.91552734375,-0.54931640625,-3.4222412109375,54.678955078125,-176.0723876953125
1760968077.998825,-0.8134765625,-0.03271484375,0.58203125,2.0751953125,-1.15966796875,-0.30517578125,-3.416748046875,54.6734619140625,-176.0833740234375
1760968078.0058806,-0.8134765625,-0.03271484375,0.58203125,2.0751953125,-1.15966796875,-0.30517578125,-3.40576171875,54.656982421875,-176.0888671875
1760968078.0132937,-0.82666015625,-0.03759765625,0.58154296875,1.0986328125,-1.03759765625,0.0,-3.394775390625,54.6514892578125,-176.0943603515625
1760968078.0213184,-0.82666015625,-0.03759765625,0.58154296875,1.0986328125,-1.03759765625,0.0,-3.3837890625,54.6405029296875,-176.0943603515625
1760968078.0281637,-0.8349609375,-0.0341796875,0.56298828125,-1.708984375,-0.732421875,0.3662109375,-3.3837890625,54.6295166015625,-176.0888671875
1760968078.0350718,-0.8349609375,-0.0341796875,0.56298828125,-1.708984375,-0.732421875,0.3662109375,-3.4002685546875,54.6240234375,-176.0833740234375
1760968078.0438862,-0.833984375,-0.0390625,0.54052734375,-2.44140625,-0.54931640625,0.67138671875,-3.416748046875,54.6240234375,-176.0723876953125
1760968078.0534763,-0.833984375,-0.0390625,0.54052734375,-2.44140625,-0.54931640625,0.67138671875,-3.4332275390625,54.6185302734375,-176.0614013671875
1760968078.0635757,-0.82958984375,-0.0634765625,0.56689453125,-1.52587890625,-0.8544921875,0.9765625,-3.4442138671875,54.6185302734375,-176.0394287109375
1760968078.0733669,-0.82958984375,-0.0634765625,0.56689453125,-1.52587890625,-0.8544921875,0.9765625,-3.44970703125,54.613037109375,-176.02294921875
1760968078.0865643,-0.8310546875,-0.0390625,0.5703125,-0.3662109375,-1.3427734375,1.0986328125,-3.4442138671875,54.6075439453125,-176.0009765625
1760968078.109063,-0.8310546875,-0.0390625,0.5703125,-0.3662109375,-1.3427734375,1.0986328125,-3.438720703125,54.60205078125,-175.9844970703125
1760968078.1272228,-0.8310546875,-0.02001953125,0.54736328125,2.01416015625,-1.708984375,0.8544921875,-3.4222412109375,54.591064453125,-175.9625244140625
1760968078.139958,-0.8310546875,-0.02001953125,0.54736328125,2.01416015625,-1.708984375,0.8544921875,-3.3892822265625,54.580078125,-175.946044921875
1760968078.1628683,-0.8369140625,-0.02783203125,0.57861328125,0.48828125,-1.46484375,0.67138671875,-3.3673095703125,54.569091796875,-175.924072265625
1760968078.170601,-0.8369140625,-0.02783203125,0.57861328125,0.48828125,-1.46484375,0.67138671875,-3.3563232421875,54.5635986328125,-175.9075927734375
1760968078.1930993,-0.82958984375,-0.05322265625,0.568359375,0.0,-0.9765625,0.732421875,-3.3453369140625,54.55810546875,-175.89111328125
1760968078.2007027,-0.82958984375,-0.05322265625,0.568359375,0.0,-0.9765625,0.732421875,-3.3343505859375,54.5526123046875,-175.8746337890625
1760968078.207959,-0.82373046875,-0.05712890625,0.56396484375,1.708984375,-0.42724609375,0.79345703125,-3.31787109375,54.5526123046875,-175.858154296875
1760968078.2172081,-0.82373046875,-0.05712890625,0.56396484375,1.708984375,-0.42724609375,0.79345703125,-3.2958984375,54.55810546875,-175.8416748046875
1760968078.2321913,-0.81005859375,-0.01953125,0.5791015625,5.126953125,-0.732421875,0.3662109375,-3.262939453125,54.55810546875,-175.8251953125
1760968078.2670248,-0.81005859375,-0.01953125,0.5791015625,5.126953125,-0.732421875,0.3662109375,-3.2080078125,54.5526123046875,-175.8197021484375
1760968078.2741973,-0.8154296875,-0.01513671875,0.587890625,2.5634765625,-1.03759765625,0.3662109375,-3.1695556640625,54.547119140625,-175.8087158203125
1760968078.281297,-0.8154296875,-0.01513671875,0.587890625,2.5634765625,-1.03759765625,0.3662109375,-3.1365966796875,54.5416259765625,-175.7977294921875
1760968078.2886043,-0.80029296875,-0.0302734375,0.5859375,0.3662109375,-1.953125,0.30517578125,-3.1201171875,54.5306396484375,-175.792236328125
1760968078.2951996,-0.80029296875,-0.0302734375,0.5859375,0.3662109375,-1.953125,0.30517578125,-3.109130859375,54.51416015625,-175.78125
1760968078.3016016,-0.80908203125,-0.0537109375,0.60107421875,0.0,-2.13623046875,0.6103515625,-3.1036376953125,54.4976806640625,-175.770263671875
1760968078.307966,-0.80908203125,-0.0537109375,0.60107421875,0.0,-2.13623046875,0.6103515625,-3.09814453125,54.4757080078125,-175.75927734375
1760968078.3142881,-0.8134765625,-0.037109375,0.56298828125,2.44140625,-2.38037109375,0.54931640625,-3.076171875,54.4537353515625,-175.748291015625
1760968078.321242,-0.8134765625,-0.037109375,0.56298828125,2.44140625,-2.38037109375,0.54931640625,-3.0487060546875,54.4317626953125,-175.7373046875
1760968078.3299575,-0.82861328125,-0.02880859375,0.578125,2.25830078125,-2.197265625,0.67138671875,-3.0157470703125,54.415283203125,-175.7208251953125
1760968078.3375516,-0.82861328125,-0.02880859375,0.578125,2.25830078125,-2.197265625,0.67138671875,-2.98828125,54.393310546875,-175.7098388671875
1760968078.3442233,-0.8232421875,-0.03125,0.58154296875,1.52587890625,-2.0751953125,0.6103515625,-2.9608154296875,54.3768310546875,-175.693359375
1760968078.3517785,-0.8232421875,-0.03125,0.58154296875,1.52587890625,-2.0751953125,0.6103515625,-2.9388427734375,54.3548583984375,-175.6768798828125
1760968078.3585424,-0.8232421875,-0.0224609375,0.57373046875,0.30517578125,-2.13623046875,0.67138671875,-2.92236328125,54.33837890625,-175.6658935546875
1760968078.365251,-0.8232421875,-0.0224609375,0.57373046875,0.30517578125,-2.13623046875,0.67138671875,-2.911376953125,54.3218994140625,-175.6494140625
1760968078.3734581,-0.82373046875,-0.0146484375,0.56982421875,0.54931640625,-2.25830078125,0.244140625,-2.900390625,54.2999267578125,-175.638427734375
1760968078.3817077,-0.82373046875,-0.0146484375,0.56982421875,0.54931640625,-2.25830078125,0.244140625,-2.889404296875,54.283447265625,-175.62744140625
1760968078.3891845,-0.826171875,-0.03173828125,0.578125,1.03759765625,-2.3193359375,0.0,-2.87841796875,54.261474609375,-175.616455078125
1760968078.3961017,-0.826171875,-0.03173828125,0.578125,1.03759765625,-2.3193359375,0.0,-2.867431640625,54.2449951171875,-175.6109619140625
1760968078.4032018,-0.81591796875,-0.05419921875,0.59130859375,1.64794921875,-2.197265625,0.0,-2.8564453125,54.228515625,-175.5999755859375
1760968078.4116085,-0.81591796875,-0.05419921875,0.59130859375,1.64794921875,-2.197265625,0.0,-2.8399658203125,54.20654296875,-175.594482421875
1760968078.4189596,-0.81298828125,-0.0322265625,0.57421875,3.173828125,-1.89208984375,0.06103515625,-2.8179931640625,54.1900634765625,-175.5889892578125
1760968078.4253047,-0.81298828125,-0.0322265625,0.57421875,3.173828125,-1.89208984375,0.06103515625,-2.7850341796875,54.173583984375,-175.58349609375
1760968078.4321818,-0.81103515625,-0.01806640625,0.587890625,3.84521484375,-2.01416015625,0.0,-2.7520751953125,54.1571044921875,-175.5780029296875
1760968078.438429,-0.81103515625,-0.01806640625,0.587890625,3.84521484375,-2.01416015625,0.0,-2.713623046875,54.140625,-175.572509765625
1760968078.4452443,-0.806640625,-0.0146484375,0.60205078125,1.52587890625,-2.38037109375,0.1220703125,-2.6861572265625,54.1241455078125,-175.5670166015625
1760968078.4538267,-0.806640625,-0.0146484375,0.60205078125,1.52587890625,-2.38037109375,0.1220703125,-2.669677734375,54.1021728515625,-175.5615234375
1760968078.4650576,-0.80322265625,-0.03857421875,0.60205078125,-0.30517578125,-2.74658203125,0.48828125,-2.65869140625,54.0802001953125,-175.550537109375
1760968078.4738138,-0.80322265625,-0.03857421875,0.60205078125,-0.30517578125,-2.74658203125,0.48828125,-2.6531982421875,54.052734375,-175.5340576171875
1760968078.485636,-0.82421875,-0.04736328125,0.58740234375,0.0,-2.5634765625,1.15966796875,-2.6422119140625,54.0252685546875,-175.517578125
1760968078.493576,-0.82421875,-0.04736328125,0.58740234375,0.0,-2.5634765625,1.15966796875,-2.6312255859375,54.0032958984375,-175.5010986328125
1760968078.5035846,-0.76904296875,-0.05078125,0.53857421875,0.9765625,-2.3193359375,1.5869140625,-2.6092529296875,53.9813232421875,-175.4736328125
1760968078.513658,-0.76904296875,-0.05078125,0.53857421875,0.9765625,-2.3193359375,1.5869140625,-2.581787109375,53.9593505859375,-175.4461669921875
1760968078.5237086,-0.81494140625,-0.0302734375,0.7119140625,2.197265625,-2.5634765625,2.62451171875,-2.537841796875,53.9373779296875,-175.4132080078125
1760968078.5339313,-0.81494140625,-0.0302734375,0.7119140625,2.197265625,-2.5634765625,2.62451171875,-2.4884033203125,53.909912109375,-175.374755859375
1760968078.5437994,-0.75634765625,-0.02294921875,0.56396484375,-3.5400390625,-3.84521484375,3.662109375,-2.4554443359375,53.876953125,-175.3253173828125
1760968078.5544362,-0.75634765625,-0.02294921875,0.56396484375,-3.5400390625,-3.84521484375,3.662109375,-2.43896484375,53.8330078125,-175.2703857421875
1760968078.564402,-0.79833984375,-0.025390625,0.625,-0.79345703125,-5.37109375,4.0283203125,-2.4114990234375,53.7890625,-175.2044677734375
1760968078.5740933,-0.79833984375,-0.025390625,0.625,-0.79345703125,-5.37109375,4.0283203125,-2.3675537109375,53.7286376953125,-175.1385498046875
1760968078.5852478,-0.77783203125,-0.0458984375,0.58984375,-0.244140625,-6.34765625,4.39453125,-2.318115234375,53.668212890625,-175.0726318359375
1760968078.5937786,-0.77783203125,-0.0458984375,0.58984375,-0.244140625,-6.34765625,4.39453125,-2.26318359375,53.602294921875,-175.0067138671875
1760968078.6054416,-0.80859375,-0.025390625,0.61474609375,3.60107421875,-6.65283203125,4.150390625,-2.186279296875,53.536376953125,-174.935302734375
1760968078.6144187,-0.80859375,-0.025390625,0.61474609375,3.60107421875,-6.65283203125,4.150390625,-2.098388671875,53.470458984375,-174.869384765625
1760968078.6236892,-0.7998046875,-0.03076171875,0.580078125,5.06591796875,-6.28662109375,4.08935546875,-2.0050048828125,53.404541015625,-174.803466796875
1760968078.6338196,-0.7998046875,-0.03076171875,0.580078125,5.06591796875,-6.28662109375,4.08935546875,-1.900634765625,53.338623046875,-174.737548828125
1760968078.6436203,-0.80712890625,-0.0009765625,0.595703125,3.7841796875,-6.16455078125,3.662109375,-1.812744140625,53.2781982421875,-174.671630859375
1760968078.654605,-0.80712890625,-0.0009765625,0.595703125,3.7841796875,-6.16455078125,3.662109375,-1.724853515625,53.2177734375,-174.6112060546875
1760968078.6638956,-0.78466796875,0.0029296875,0.6044921875,2.86865234375,-6.28662109375,2.8076171875,-1.6534423828125,53.1573486328125,-174.55078125
1760968078.6741223,-0.78466796875,0.0029296875,0.6044921875,2.86865234375,-6.28662109375,2.8076171875,-1.5875244140625,53.0914306640625,-174.5013427734375
1760968078.6886692,-0.78076171875,-0.001953125,0.63525390625,1.40380859375,-6.34765625,2.01416015625,-1.5325927734375,53.031005859375,-174.4573974609375
1760968078.6948338,-0.78076171875,-0.001953125,0.63525390625,1.40380859375,-6.34765625,2.01416015625,-1.494140625,52.965087890625,-174.4244384765625
1760968078.7037473,-0.77734375,-0.01025390625,0.6396484375,0.6103515625,-6.4697265625,1.28173828125,-1.461181640625,52.899169921875,-174.3914794921875
1760968078.7152827,-0.77734375,-0.01025390625,0.6396484375,0.6103515625,-6.4697265625,1.28173828125,-1.4337158203125,52.833251953125,-174.3695068359375
1760968078.7239451,-0.79150390625,-0.0068359375,0.60302734375,0.67138671875,-6.04248046875,1.03759765625,-1.4117431640625,52.767333984375,-174.3475341796875
1760968078.7352116,-0.79150390625,-0.0068359375,0.60302734375,0.67138671875,-6.04248046875,1.03759765625,-1.3897705078125,52.7069091796875,-174.3255615234375
1760968078.7478642,-0.7919921875,0.0009765625,0.61376953125,1.0986328125,-6.2255859375,0.48828125,-1.3677978515625,52.6409912109375,-174.30908203125
1760968078.7546265,-0.7919921875,0.0009765625,0.61376953125,1.0986328125,-6.2255859375,0.48828125,-1.351318359375,52.58056640625,-174.298095703125
1760968078.7653148,-0.7841796875,0.0087890625,0.63037109375,-1.28173828125,-6.34765625,0.0,-1.34033203125,52.5146484375,-174.287109375
1760968078.7737854,-0.7841796875,0.0087890625,0.63037109375,-1.28173828125,-6.34765625,0.0,-1.351318359375,52.44873046875,-174.2816162109375
1760968078.7837875,-0.787109375,-0.005859375,0.62060546875,-2.25830078125,-6.103515625,-0.1220703125,-1.3677978515625,52.3883056640625,-174.276123046875
1760968078.7995994,-0.787109375,-0.005859375,0.62060546875,-2.25830078125,-6.103515625,-0.1220703125,-1.3897705078125,52.3223876953125,-174.2706298828125
1760968078.8100698,-0.79931640625,-0.02490234375,0.60400390625,-0.8544921875,-6.16455078125,-0.18310546875,-1.395263671875,52.261962890625,-174.26513671875
1760968078.8178833,-0.79931640625,-0.02490234375,0.60400390625,-0.8544921875,-6.16455078125,-0.18310546875,-1.4007568359375,52.2015380859375,-174.2596435546875
1760968078.8249655,-0.8017578125,-0.0361328125,0.59912109375,0.3662109375,-6.103515625,0.06103515625,-1.395263671875,52.14111328125,-174.2486572265625
1760968078.834737,-0.8017578125,-0.0361328125,0.59912109375,0.3662109375,-6.103515625,0.06103515625,-1.38427734375,52.0806884765625,-174.2376708984375
1760968078.8440037,-0.7861328125,-0.0341796875,0.6142578125,2.25830078125,-5.79833984375,0.732421875,-1.3568115234375,52.0257568359375,-174.22119140625
1760968078.8538358,-0.7861328125,-0.0341796875,0.6142578125,2.25830078125,-5.79833984375,0.732421875,-1.3238525390625,51.9708251953125,-174.19921875
1760968078.8655517,-0.78125,-0.02490234375,0.6435546875,2.9296875,-5.67626953125,1.3427734375,-1.2799072265625,51.9158935546875,-174.1717529296875
1760968078.8738332,-0.78125,-0.02490234375,0.6435546875,2.9296875,-5.67626953125,1.3427734375,-1.2359619140625,51.8609619140625,-174.144287109375
1760968078.884532,-0.79931640625,-0.001953125,0.59814453125,1.953125,-5.43212890625,1.52587890625,-1.197509765625,51.8060302734375,-174.111328125
1760968078.8942947,-0.79931640625,-0.001953125,0.59814453125,1.953125,-5.43212890625,1.52587890625,-1.1590576171875,51.756591796875,-174.0728759765625
1760968078.9059935,-0.83154296875,-0.00341796875,0.583984375,1.89208984375,-5.37109375,1.64794921875,-1.12060546875,51.7071533203125,-174.034423828125
1760968078.9144719,-0.83154296875,-0.00341796875,0.583984375,1.89208984375,-5.37109375,1.64794921875,-1.0821533203125,51.65771484375,-173.9959716796875
1760968078.925479,-0.822265625,-0.0322265625,0.57470703125,2.50244140625,-5.126953125,1.953125,-1.03271484375,51.61376953125,-173.9520263671875
1760968078.938167,-0.822265625,-0.0322265625,0.57470703125,2.50244140625,-5.126953125,1.953125,-0.98876953125,51.5753173828125,-173.902587890625
1760968078.9461603,-0.7919921875,-0.02783203125,0.58935546875,1.8310546875,-4.94384765625,2.38037109375,-0.94482421875,51.5313720703125,-173.8531494140625
1760968078.963109,-0.7919921875,-0.02783203125,0.58935546875,1.8310546875,-4.94384765625,2.38037109375,-0.90087890625,51.492919921875,-173.7982177734375
1760968078.9703596,-0.7939453125,0.009765625,0.6484375,0.8544921875,-4.94384765625,2.74658203125,-0.8624267578125,51.4544677734375,-173.73779296875
1760968078.9765978,-0.7939453125,0.009765625,0.6484375,0.8544921875,-4.94384765625,2.74658203125,-0.8184814453125,51.416015625,-173.6773681640625
1760968078.986108,-0.79931640625,0.0078125,0.61572265625,-3.35693359375,-4.8828125,2.685546875,-0.823974609375,51.3720703125,-173.6224365234375
1760968078.9957771,-0.79931640625,0.0078125,0.61572265625,-3.35693359375,-4.8828125,2.685546875,-0.823974609375,51.3336181640625,-173.5565185546875
1760968079.0095222,-0.81494140625,0.001953125,0.5888671875,-3.84521484375,-4.69970703125,2.3193359375,-0.8294677734375,51.295166015625,-173.5015869140625
1760968079.0171556,-0.81494140625,0.001953125,0.5888671875,-3.84521484375,-4.69970703125,2.3193359375,-0.8404541015625,51.2567138671875,-173.441162109375
1760968079.0265691,-0.80908203125,-0.0322265625,0.587890625,-1.3427734375,-4.57763671875,2.197265625,-0.823974609375,51.2237548828125,-173.38623046875
1760968079.0349355,-0.80908203125,-0.0322265625,0.587890625,-1.3427734375,-4.57763671875,2.197265625,-0.81298828125,51.1907958984375,-173.331298828125
1760968079.0455086,-0.7939453125,-0.03125,0.6005859375,-1.8310546875,-4.8828125,2.74658203125,-0.802001953125,51.15234375,-173.265380859375
1760968079.055738,-0.7939453125,-0.03125,0.6005859375,-1.8310546875,-4.8828125,2.74658203125,-0.7855224609375,51.1138916015625,-173.2049560546875
1760968079.0652006,-0.775390625,-0.01220703125,0.6201171875,-2.25830078125,-5.92041015625,3.0517578125,-0.7745361328125,51.0699462890625,-173.1390380859375
1760968079.07414,-0.775390625,-0.01220703125,0.6201171875,-2.25830078125,-5.92041015625,3.0517578125,-0.7635498046875,51.0205078125,-173.0731201171875
1760968079.086816,-0.77880859375,-0.0009765625,0.6572265625,-2.99072265625,-6.34765625,2.99072265625,-0.758056640625,50.965576171875,-173.0072021484375
1760968079.094395,-0.77880859375,-0.0009765625,0.6572265625,-2.99072265625,-6.34765625,2.99072265625,-0.758056640625,50.91064453125,-172.94677734375
1760968079.104398,-0.779296875,0.00830078125,0.640625,-0.9765625,-6.40869140625,2.86865234375,-0.7305908203125,50.855712890625,-172.880859375
1760968079.1150646,-0.779296875,0.00830078125,0.640625,-0.9765625,-6.40869140625,2.86865234375,-0.703125,50.80078125,-172.8204345703125
1760968079.1293826,-0.79150390625,-0.00048828125,0.6259765625,0.79345703125,-5.9814453125,2.50244140625,-0.6646728515625,50.745849609375,-172.7655029296875
1760968079.137163,-0.79150390625,-0.00048828125,0.6259765625,0.79345703125,-5.9814453125,2.50244140625,-0.626220703125,50.69091796875,-172.7105712890625
1760968079.1445565,-0.79638671875,-0.0126953125,0.615234375,-1.46484375,-4.94384765625,2.50244140625,-0.6097412109375,50.6524658203125,-172.650146484375
1760968079.1542814,-0.79638671875,-0.0126953125,0.615234375,-1.46484375,-4.94384765625,2.50244140625,-0.5987548828125,50.6085205078125,-172.59521484375
1760968079.170052,-0.7939453125,-0.0048828125,0.63623046875,-2.8076171875,-3.60107421875,2.38037109375,-0.5987548828125,50.5810546875,-172.540283203125
1760968079.1763225,-0.7939453125,-0.0048828125,0.63623046875,-2.8076171875,-3.60107421875,2.38037109375,-0.59326171875,50.5535888671875,-172.4853515625
1760968079.184468,-0.77392578125,-0.00244140625,0.65625,-3.5400390625,-2.44140625,2.44140625,-0.604248046875,50.537109375,-172.430419921875
1760968079.1946876,-0.77392578125,-0.00244140625,0.65625,-3.5400390625,-2.44140625,2.44140625,-0.6097412109375,50.5206298828125,-172.37548828125
1760968079.2123055,-0.77099609375,0.0009765625,0.6416015625,0.18310546875,-1.953125,2.0751953125,-0.582275390625,50.504150390625,-172.3260498046875
1760968079.2198303,-0.77099609375,0.0009765625,0.6416015625,0.18310546875,-1.953125,2.0751953125,-0.5548095703125,50.4876708984375,-172.276611328125
1760968079.2272072,-0.77880859375,-0.01806640625,0.64306640625,-1.220703125,-1.89208984375,2.197265625,-0.538330078125,50.4766845703125,-172.232666015625
1760968079.2362895,-0.77880859375,-0.01806640625,0.64306640625,-1.220703125,-1.89208984375,2.197265625,-0.5218505859375,50.460205078125,-172.1832275390625
1760968079.249561,-0.7900390625,-0.00830078125,0.603515625,-5.31005859375,-1.77001953125,2.62451171875,-0.54931640625,50.4437255859375,-172.1282958984375
1760968079.260658,-0.7900390625,-0.00830078125,0.603515625,-5.31005859375,-1.77001953125,2.62451171875,-0.5712890625,50.4327392578125,-172.0733642578125
1760968079.2668543,-0.7998046875,0.0,0.62060546875,-6.591796875,-1.8310546875,2.74658203125,-0.604248046875,50.4217529296875,-172.012939453125
1760968079.2753978,-0.7998046875,0.0,0.62060546875,-6.591796875,-1.8310546875,2.74658203125,-0.6317138671875,50.4107666015625,-171.9525146484375
1760968079.2919137,-0.78662109375,-0.00537109375,0.61328125,-5.2490234375,-1.953125,2.62451171875,-0.6536865234375,50.3997802734375,-171.89208984375
1760968079.298969,-0.78662109375,-0.00537109375,0.61328125,-5.2490234375,-1.953125,2.62451171875,-0.6756591796875,50.3887939453125,-171.8316650390625
1760968079.3054864,-0.79443359375,-0.02783203125,0.634765625,-1.46484375,-2.25830078125,2.44140625,-0.6591796875,50.372314453125,-171.771240234375
1760968079.314986,-0.79443359375,-0.02783203125,0.634765625,-1.46484375,-2.25830078125,2.44140625,-0.648193359375,50.3558349609375,-171.71630859375
1760968079.3360589,-0.78955078125,-0.01708984375,0.6015625,0.06103515625,-2.197265625,2.3193359375,-0.6207275390625,50.3448486328125,-171.661376953125
1760968079.3620183,-0.78955078125,-0.01708984375,0.6015625,0.06103515625,-2.197265625,2.3193359375,-0.59326171875,50.328369140625,-171.6064453125
1760968079.3683116,-0.7919921875,0.01806640625,0.63623046875,-0.79345703125,-1.64794921875,2.13623046875,-0.5767822265625,50.3228759765625,-171.5570068359375
1760968079.375718,-0.7919921875,0.01806640625,0.63623046875,-0.79345703125,-1.64794921875,2.13623046875,-0.560302734375,50.3118896484375,-171.5020751953125
1760968079.3842397,-0.77490234375,-0.00048828125,0.64453125,-0.732421875,-1.03759765625,1.953125,-0.5438232421875,50.3118896484375,-171.45263671875
1760968079.3907347,-0.77490234375,-0.00048828125,0.64453125,-0.732421875,-1.03759765625,1.953125,-0.52734375,50.306396484375,-171.4031982421875
1760968079.3983524,-0.76416015625,-0.00439453125,0.64599609375,0.3662109375,-0.79345703125,1.52587890625,-0.50537109375,50.306396484375,-171.36474609375
1760968079.4049218,-0.76416015625,-0.00439453125,0.64599609375,0.3662109375,-0.79345703125,1.52587890625,-0.4833984375,50.3009033203125,-171.32080078125
1760968079.4123902,-0.75146484375,-0.00341796875,0.6689453125,1.5869140625,-0.6103515625,1.0986328125,-0.4559326171875,50.3009033203125,-171.287841796875
1760968079.4193861,-0.75146484375,-0.00341796875,0.6689453125,1.5869140625,-0.6103515625,1.0986328125,-0.4229736328125,50.29541015625,-171.2548828125
1760968079.4265542,-0.736328125,-0.01513671875,0.68359375,0.54931640625,-0.48828125,1.220703125,-0.406494140625,50.2899169921875,-171.2274169921875
1760968079.4354224,-0.736328125,-0.01513671875,0.68359375,0.54931640625,-0.48828125,1.220703125,-0.384521484375,50.284423828125,-171.199951171875
1760968079.4445915,-0.7421875,-0.00732421875,0.66357421875,0.30517578125,-0.6103515625,1.40380859375,-0.3680419921875,50.2789306640625,-171.1669921875
1760968079.454601,-0.7421875,-0.00732421875,0.66357421875,0.30517578125,-0.6103515625,1.40380859375,-0.3460693359375,50.2679443359375,-171.1395263671875
1760968079.4655778,-0.75537109375,-0.0009765625,0.6552734375,-0.67138671875,-0.79345703125,1.52587890625,-0.340576171875,50.2569580078125,-171.112060546875
1760968079.4746268,-0.75537109375,-0.0009765625,0.6552734375,-0.67138671875,-0.79345703125,1.52587890625,-0.32958984375,50.240478515625,-171.0791015625
1760968079.4860232,-0.76025390625,0.00048828125,0.6591796875,-2.44140625,-0.91552734375,1.64794921875,-0.3350830078125,50.2294921875,-171.046142578125
1760968079.4946177,-0.76025390625,0.00048828125,0.6591796875,-2.44140625,-0.91552734375,1.64794921875,-0.3350830078125,50.2130126953125,-171.0186767578125
1760968079.505317,-0.76171875,0.00048828125,0.64599609375,-2.25830078125,-1.0986328125,1.64794921875,-0.340576171875,50.2020263671875,-170.9857177734375
1760968079.5145726,-0.76171875,0.00048828125,0.64599609375,-2.25830078125,-1.0986328125,1.64794921875,-0.340576171875,50.185546875,-170.9527587890625
1760968079.525553,-0.7724609375,0.0009765625,0.63232421875,-2.99072265625,-1.64794921875,1.77001953125,-0.3515625,50.16357421875,-170.9197998046875
1760968079.5374987,-0.7724609375,0.0009765625,0.63232421875,-2.99072265625,-1.64794921875,1.77001953125,-0.3570556640625,50.1470947265625,-170.88134765625
1760968079.5454762,-0.78515625,-0.02587890625,0.62353515625,-2.86865234375,-2.13623046875,2.197265625,-0.362548828125,50.1251220703125,-170.83740234375
1760968079.5559576,-0.78515625,-0.02587890625,0.62353515625,-2.86865234375,-2.13623046875,2.197265625,-0.362548828125,50.1031494140625,-170.79345703125
1760968079.5647035,-0.77392578125,-0.025390625,0.63134765625,-2.13623046875,-2.38037109375,2.62451171875,-0.3570556640625,50.07568359375,-170.7440185546875
1760968079.5756423,-0.77392578125,-0.025390625,0.63134765625,-2.13623046875,-2.38037109375,2.62451171875,-0.3515625,50.0537109375,-170.694580078125
1760968079.585622,-0.75732421875,0.00048828125,0.6513671875,-0.732421875,-2.685546875,2.25830078125,-0.3350830078125,50.0262451171875,-170.6451416015625
1760968079.594719,-0.75732421875,0.00048828125,0.6513671875,-0.732421875,-2.685546875,2.25830078125,-0.318603515625,49.998779296875,-170.6011962890625
1760968079.6047258,-0.75244140625,0.02783203125,0.6640625,-0.244140625,-2.9296875,1.0986328125,-0.3076171875,49.9713134765625,-170.57373046875
1760968079.6149952,-0.75244140625,0.02783203125,0.6640625,-0.244140625,-2.9296875,1.0986328125,-0.296630859375,49.94384765625,-170.5462646484375
1760968079.631275,-0.76904296875,0.0185546875,0.67236328125,-2.62451171875,-2.5634765625,0.30517578125,-0.3131103515625,49.9163818359375,-170.52978515625
1760968079.638144,-0.76904296875,0.0185546875,0.67236328125,-2.62451171875,-2.5634765625,0.30517578125,-0.3350830078125,49.888916015625,-170.5133056640625
1760968079.6459436,-0.7861328125,-0.009765625,0.6455078125,-2.197265625,-2.01416015625,-0.1220703125,-0.3570556640625,49.866943359375,-170.5023193359375
1760968079.6550512,-0.7861328125,-0.009765625,0.6455078125,-2.197265625,-2.01416015625,-0.1220703125,-0.3790283203125,49.844970703125,-170.4913330078125
1760968079.6659546,-0.759765625,-0.00390625,0.6162109375,-1.89208984375,-1.52587890625,-0.9765625,-0.406494140625,49.8284912109375,-170.4913330078125
1760968079.6753917,-0.759765625,-0.00390625,0.6162109375,-1.89208984375,-1.52587890625,-0.9765625,-0.4339599609375,49.8175048828125,-170.4913330078125
1760968079.6968622,-0.74658203125,0.00732421875,0.701171875,-1.0986328125,-1.28173828125,-1.953125,-0.4669189453125,49.801025390625,-170.5078125
1760968079.705531,-0.74658203125,0.00732421875,0.701171875,-1.0986328125,-1.28173828125,-1.953125,-0.494384765625,49.7845458984375,-170.5242919921875
1760968079.7121336,-0.7275390625,0.02587890625,0.68994140625,-0.54931640625,-0.9765625,-3.0517578125,-0.5328369140625,49.7735595703125,-170.5572509765625
1760968079.7183087,-0.7275390625,0.02587890625,0.68994140625,-0.54931640625,-0.9765625,-3.0517578125,-0.5657958984375,49.757080078125,-170.595703125
1760968079.726004,-0.73828125,0.01953125,0.69091796875,-1.64794921875,-0.54931640625,-3.60107421875,-0.6207275390625,49.74609375,-170.6396484375
1760968079.7349741,-0.74658203125,-0.01953125,0.65869140625,-3.11279296875,-0.244140625,-3.41796875,-0.6756591796875,49.735107421875,-170.68359375
1760968079.7535367,-0.74658203125,-0.01953125,0.65869140625,-3.11279296875,-0.244140625,-3.41796875,-0.7415771484375,49.72412109375,-170.7275390625
1760968079.7604902,-0.7431640625,-0.05322265625,0.67236328125,-1.708984375,-0.244140625,-2.99072265625,-0.7965087890625,49.713134765625,-170.771484375
1760968079.7678258,-0.7431640625,-0.05322265625,0.67236328125,-1.708984375,-0.244140625,-2.99072265625,-0.845947265625,49.7076416015625,-170.8099365234375
1760968079.7752163,-0.73095703125,-0.0390625,0.68359375,2.25830078125,0.1220703125,-2.62451171875,-0.87890625,49.6966552734375,-170.848388671875
1760968079.794762,-0.73095703125,-0.0390625,0.68359375,2.25830078125,0.1220703125,-2.62451171875,-0.8843994140625,49.691162109375,-170.892333984375
1760968079.8013046,-0.71533203125,0.0029296875,0.708984375,4.45556640625,0.3662109375,-2.8076171875,-0.8843994140625,49.68017578125,-170.9307861328125
1760968079.8094914,-0.71533203125,0.0029296875,0.708984375,4.45556640625,0.3662109375,-2.8076171875,-0.8734130859375,49.6746826171875,-170.9747314453125
1760968079.8160284,-0.728515625,0.02734375,0.6806640625,3.0517578125,0.18310546875,-2.99072265625,-0.8734130859375,49.6636962890625,-171.024169921875
1760968079.8317518,-0.728515625,0.02734375,0.6806640625,3.0517578125,0.18310546875,-2.99072265625,-0.8734130859375,49.6527099609375,-171.0736083984375
1760968079.839719,-0.74169921875,-0.0224609375,0.6416015625,1.03759765625,-0.244140625,-2.8076171875,-0.8843994140625,49.63623046875,-171.1175537109375
1760968079.8461266,-0.74169921875,-0.0224609375,0.6416015625,1.03759765625,-0.244140625,-2.8076171875,-0.9063720703125,49.625244140625,-171.1614990234375
1760968079.8555336,-0.7392578125,-0.0595703125,0.67529296875,4.57763671875,-0.3662109375,-2.74658203125,-0.9063720703125,49.6087646484375,-171.199951171875
1760968079.8730006,-0.7392578125,-0.0595703125,0.67529296875,4.57763671875,-0.3662109375,-2.74658203125,-0.8953857421875,49.59228515625,-171.243896484375
1760968079.8808951,-0.7236328125,-0.02490234375,0.6826171875,10.25390625,-0.18310546875,-2.9296875,-0.85693359375,49.581298828125,-171.2933349609375
1760968079.8877575,-0.7236328125,-0.02490234375,0.6826171875,10.25390625,-0.18310546875,-2.9296875,-0.7965087890625,49.5648193359375,-171.3427734375
1760968079.894996,-0.7216796875,0.01416015625,0.6904296875,10.92529296875,-0.30517578125,-3.47900390625,-0.7305908203125,49.54833984375,-171.397705078125
1760968079.9117656,-0.7216796875,0.01416015625,0.6904296875,10.92529296875,-0.30517578125,-3.47900390625,-0.6646728515625,49.5318603515625,-171.4581298828125
1760968079.919452,-0.7470703125,0.0166015625,0.671875,9.3994140625,-0.48828125,-4.150390625,-0.6097412109375,49.515380859375,-171.5185546875
1760968079.9262981,-0.7470703125,0.0166015625,0.671875,9.3994140625,-0.48828125,-4.150390625,-0.5657958984375,49.4989013671875,-171.58447265625
1760968079.9354162,-0.7431640625,-0.00732421875,0.66455078125,9.09423828125,-0.6103515625,-4.638671875,-0.52734375,49.482421875,-171.6558837890625
1760968079.9521127,-0.7431640625,-0.00732421875,0.66455078125,9.09423828125,-0.6103515625,-4.638671875,-0.4888916015625,49.46044921875,-171.727294921875
1760968079.9585266,-0.74609375,0.0,0.6591796875,7.38525390625,-0.30517578125,-4.638671875,-0.46142578125,49.4439697265625,-171.7987060546875
1760968079.9651775,-0.74609375,0.0,0.6591796875,7.38525390625,-0.30517578125,-4.638671875,-0.4449462890625,49.4329833984375,-171.8701171875
1760968079.984133,-0.75244140625,-0.00146484375,0.6796875,4.57763671875,0.1220703125,-4.08935546875,-0.4339599609375,49.4219970703125,-171.93603515625
1760968079.9910443,-0.75244140625,-0.00146484375,0.6796875,4.57763671875,0.1220703125,-4.08935546875,-0.4339599609375,49.4110107421875,-171.9964599609375
1760968079.9984133,-0.76904296875,-0.0185546875,0.7021484375,1.52587890625,0.3662109375,-3.60107421875,-0.450439453125,49.405517578125,-172.0513916015625
1760968080.005073,-0.76904296875,-0.0185546875,0.7021484375,1.52587890625,0.3662109375,-3.60107421875,-0.4779052734375,49.4000244140625,-172.1063232421875
1760968080.0230467,-0.8154296875,0.0,0.60888671875,5.37109375,1.220703125,-3.662109375,-0.4888916015625,49.39453125,-172.1612548828125
1760968080.031205,-0.8154296875,0.0,0.60888671875,5.37109375,1.220703125,-3.662109375,-0.4779052734375,49.4000244140625,-172.210693359375
1760968080.0384636,-0.8076171875,0.00390625,0.5751953125,6.4697265625,1.77001953125,-3.96728515625,-0.46142578125,49.41650390625,-172.265625
1760968080.0454576,-0.8076171875,0.00390625,0.5751953125,6.4697265625,1.77001953125,-3.96728515625,-0.4449462890625,49.4329833984375,-172.3150634765625
1760968080.0563936,-0.822265625,-0.00927734375,0.62939453125,3.90625,2.50244140625,-4.0283203125,-0.439453125,49.4549560546875,-172.3590087890625
1760968080.0719373,-0.822265625,-0.00927734375,0.62939453125,3.90625,2.50244140625,-4.0283203125,-0.4449462890625,49.482421875,-172.408447265625
1760968080.0812159,-0.8125,-0.01708984375,0.59814453125,1.5869140625,3.11279296875,-3.47900390625,-0.46142578125,49.515380859375,-172.4468994140625
1760968080.0874913,-0.8125,-0.01708984375,0.59814453125,1.5869140625,3.11279296875,-3.47900390625,-0.4888916015625,49.5538330078125,-172.4853515625
1760968080.0967412,-0.7958984375,-0.0126953125,0.62060546875,3.2958984375,3.23486328125,-3.0517578125,-0.50537109375,49.5977783203125,-172.518310546875
1760968080.1053898,-0.7958984375,-0.0126953125,0.62060546875,3.2958984375,3.23486328125,-3.0517578125,-0.5108642578125,49.63623046875,-172.55126953125
1760968080.115851,-0.79345703125,-0.009765625,0.64111328125,2.9296875,3.47900390625,-2.38037109375,-0.5108642578125,49.68017578125,-172.5732421875
1760968080.1264627,-0.79345703125,-0.009765625,0.64111328125,2.9296875,3.47900390625,-2.38037109375,-0.516357421875,49.72412109375,-172.59521484375
1760968080.1365128,-0.79345703125,-0.009765625,0.64111328125,1.708984375,3.60107421875,-1.3427734375,-0.516357421875,49.76806640625,-172.606201171875
1760968080.1455097,-0.794921875,-0.017578125,0.6201171875,1.708984375,3.60107421875,-1.3427734375,-0.516357421875,49.81201171875,-172.6116943359375
1760968080.1553445,-0.7939453125,-0.025390625,0.5888671875,-1.89208984375,3.60107421875,-0.42724609375,-0.5328369140625,49.85595703125,-172.6116943359375
1760968080.171251,-0.7939453125,-0.025390625,0.5888671875,-1.89208984375,3.60107421875,-0.42724609375,-0.560302734375,49.89990234375,-172.6007080078125
1760968080.17975,-0.79443359375,-0.00732421875,0.6318359375,-1.953125,3.90625,-0.06103515625,-0.5877685546875,49.9493408203125,-172.5897216796875
1760968080.186169,-0.79443359375,-0.00732421875,0.6318359375,-1.953125,3.90625,-0.06103515625,-0.6097412109375,49.998779296875,-172.5732421875
1760968080.195418,-0.78125,0.00146484375,0.62744140625,0.0,3.662109375,0.1220703125,-0.626220703125,50.0482177734375,-172.5567626953125
1760968080.2130065,-0.78125,0.00146484375,0.62744140625,0.0,3.662109375,0.1220703125,-0.626220703125,50.0921630859375,-172.540283203125
1760968080.2199929,-0.767578125,-0.00341796875,0.63525390625,-0.30517578125,3.173828125,0.1220703125,-0.626220703125,50.1361083984375,-172.5238037109375
1760968080.2268467,-0.767578125,-0.00341796875,0.63525390625,-0.30517578125,3.173828125,0.1220703125,-0.6317138671875,50.174560546875,-172.50732421875
1760968080.2355692,-0.7509765625,-0.01416015625,0.64697265625,0.0,2.86865234375,-0.30517578125,-0.6317138671875,50.2130126953125,-172.496337890625
1760968080.2460408,-0.7509765625,-0.01416015625,0.64697265625,0.0,2.86865234375,-0.30517578125,-0.63720703125,50.2459716796875,-172.4908447265625
1760968080.2554827,-0.74365234375,0.0,0.68798828125,1.46484375,3.0517578125,-1.03759765625,-0.6427001953125,50.2789306640625,-172.4908447265625
1760968080.2674053,-0.74365234375,0.0,0.68798828125,1.46484375,3.0517578125,-1.03759765625,-0.6427001953125,50.3118896484375,-172.5018310546875
1760968080.2754173,-0.74365234375,0.01220703125,0.6826171875,0.06103515625,3.60107421875,-1.220703125,-0.648193359375,50.33935546875,-172.518310546875
1760968080.291837,-0.74365234375,0.01220703125,0.6826171875,0.06103515625,3.60107421875,-1.220703125,-0.6591796875,50.372314453125,-172.529296875
1760968080.2985783,-0.7451171875,0.00634765625,0.65576171875,-0.48828125,3.60107421875,-1.46484375,-0.6756591796875,50.4052734375,-172.55126953125
1760968080.3147001,-0.7451171875,0.00634765625,0.65576171875,-0.48828125,3.60107421875,-1.46484375,-0.6976318359375,50.438232421875,-172.5732421875
1760968080.3232477,-0.74755859375,-0.0205078125,0.6689453125,1.3427734375,3.35693359375,-1.77001953125,-0.7086181640625,50.4656982421875,-172.59521484375
1760968080.3422005,-0.74755859375,-0.0205078125,0.6689453125,1.3427734375,3.35693359375,-1.77001953125,-0.7196044921875,50.4931640625,-172.6226806640625
1760968080.354416,-0.73583984375,-0.02685546875,0.65966796875,4.08935546875,2.99072265625,-1.953125,-0.714111328125,50.51513671875,-172.6556396484375
1760968080.3610299,-0.73583984375,-0.02685546875,0.65966796875,4.08935546875,2.99072265625,-1.953125,-0.6976318359375,50.537109375,-172.694091796875
1760968080.3755476,-0.74853515625,0.001953125,0.66650390625,2.74658203125,2.38037109375,-2.0751953125,-0.6866455078125,50.5535888671875,-172.72705078125
1760968080.38725,-0.74853515625,0.001953125,0.66650390625,2.74658203125,2.38037109375,-2.0751953125,-0.6866455078125,50.570068359375,-172.7655029296875
1760968080.3934777,-0.75830078125,0.005859375,0.669921875,-0.54931640625,2.44140625,-1.64794921875,-0.6976318359375,50.5865478515625,-172.803955078125
1760968080.401688,-0.75830078125,0.005859375,0.669921875,-0.54931640625,2.44140625,-1.64794921875,-0.7196044921875,50.5975341796875,-172.8369140625
1760968080.4080873,-0.759765625,-0.0166015625,0.630859375,-1.8310546875,2.13623046875,-1.0986328125,-0.7470703125,50.6085205078125,-172.8643798828125
1760968080.414305,-0.759765625,-0.0166015625,0.630859375,-1.8310546875,2.13623046875,-1.0986328125,-0.780029296875,50.6195068359375,-172.8863525390625
1760968080.4228396,-0.771484375,-0.0263671875,0.65673828125,0.06103515625,1.64794921875,-0.79345703125,-0.802001953125,50.6304931640625,-172.9083251953125
1760968080.4356747,-0.771484375,-0.0263671875,0.65673828125,0.06103515625,1.64794921875,-0.79345703125,-0.8074951171875,50.6414794921875,-172.9302978515625
1760968080.4427247,-0.787109375,-0.01513671875,0.62548828125,0.54931640625,1.708984375,-0.48828125,-0.81298828125,50.64697265625,-172.94677734375
1760968080.4550996,-0.787109375,-0.01513671875,0.62548828125,0.54931640625,1.708984375,-0.48828125,-0.8184814453125,50.657958984375,-172.957763671875
1760968080.4700148,-0.8017578125,-0.00732421875,0.6044921875,-0.54931640625,2.13623046875,-0.06103515625,-0.823974609375,50.6689453125,-172.96875
1760968080.4772296,-0.8017578125,-0.00732421875,0.6044921875,-0.54931640625,2.13623046875,-0.06103515625,-0.8294677734375,50.69091796875,-172.9742431640625
1760968080.4988723,-0.81201171875,-0.0126953125,0.6171875,-3.7841796875,2.99072265625,0.8544921875,-0.845947265625,50.712890625,-172.96875
1760968080.509955,-0.81201171875,-0.0126953125,0.6171875,-3.7841796875,2.99072265625,0.8544921875,-0.8734130859375,50.7403564453125,-172.957763671875
1760968080.516733,-0.8193359375,-0.0400390625,0.61767578125,-3.2958984375,4.2724609375,1.89208984375,-0.8953857421875,50.77880859375,-172.935791015625
1760968080.5271478,-0.8193359375,-0.0400390625,0.61767578125,-3.2958984375,4.2724609375,1.89208984375,-0.911865234375,50.82275390625,-172.9083251953125
1760968080.5385103,-0.81591796875,-0.03515625,0.5927734375,3.5400390625,5.2490234375,1.8310546875,-0.889892578125,50.8721923828125,-172.880859375
1760968080.5455494,-0.81591796875,-0.03515625,0.5927734375,3.5400390625,5.2490234375,1.8310546875,-0.8404541015625,50.9271240234375,-172.847900390625
1760968080.5524309,-0.818359375,0.017578125,0.5478515625,6.7138671875,5.31005859375,0.732421875,-0.780029296875,50.987548828125,-172.8314208984375
1760968080.560016,-0.818359375,0.017578125,0.5478515625,6.7138671875,5.31005859375,0.732421875,-0.7086181640625,51.0479736328125,-172.8094482421875
1760968080.5760446,-0.80810546875,0.03857421875,0.60693359375,2.86865234375,4.8828125,-0.30517578125,-0.6591796875,51.1029052734375,-172.7984619140625
1760968080.5866323,-0.80810546875,0.03857421875,0.60693359375,2.86865234375,4.8828125,-0.30517578125,-0.63720703125,51.163330078125,-172.79296875
1760968080.5929127,-0.77587890625,-0.00146484375,0.6337890625,-0.79345703125,4.08935546875,-0.9765625,-0.6317138671875,51.21826171875,-172.7874755859375
1760968080.6078644,-0.77587890625,-0.00146484375,0.6337890625,-0.79345703125,4.08935546875,-0.9765625,-0.648193359375,51.26220703125,-172.79296875
1760968080.6174362,-0.755859375,-0.017578125,0.63720703125,-0.1220703125,3.173828125,-1.40380859375,-0.670166015625,51.30615234375,-172.803955078125
1760968080.624094,-0.755859375,-0.017578125,0.63720703125,-0.1220703125,3.173828125,-1.40380859375,-0.6866455078125,51.339111328125,-172.8204345703125
1760968080.63396,-0.7509765625,-0.0078125,0.66455078125,1.220703125,2.74658203125,-1.64794921875,-0.6976318359375,51.3720703125,-172.8369140625
1760968080.641079,-0.7509765625,-0.0078125,0.66455078125,1.220703125,2.74658203125,-1.64794921875,-0.7086181640625,51.3995361328125,-172.85888671875
1760968080.649061,-0.7509765625,-0.00244140625,0.67724609375,-0.6103515625,2.8076171875,-1.220703125,-0.7196044921875,51.427001953125,-172.880859375
1760968080.6573968,-0.7509765625,-0.00244140625,0.67724609375,-0.6103515625,2.8076171875,-1.220703125,-0.7415771484375,51.448974609375,-172.90283203125
1760968080.6645272,-0.74853515625,-0.0078125,0.65673828125,-2.685546875,2.62451171875,-0.79345703125,-0.76904296875,51.470947265625,-172.9193115234375
1760968080.6722596,-0.74853515625,-0.0078125,0.65673828125,-2.685546875,2.62451171875,-0.79345703125,-0.8074951171875,51.492919921875,-172.9412841796875
1760968080.680071,-0.74462890625,-0.029296875,0.658203125,-1.77001953125,2.13623046875,-0.6103515625,-0.8349609375,51.5093994140625,-172.957763671875
1760968080.6891923,-0.74462890625,-0.029296875,0.658203125,-1.77001953125,2.13623046875,-0.6103515625,-0.8624267578125,51.5203857421875,-172.9742431640625
1760968080.6972551,-0.73486328125,-0.0234375,0.68017578125,0.30517578125,1.40380859375,-0.79345703125,-0.87890625,51.52587890625,-172.9962158203125
1760968080.7058806,-0.73486328125,-0.0234375,0.68017578125,0.30517578125,1.40380859375,-0.79345703125,-0.889892578125,51.5313720703125,-173.023681640625
1760968080.7166853,-0.7392578125,-0.01318359375,0.67578125,3.72314453125,0.79345703125,-1.0986328125,-0.867919921875,51.52587890625,-173.056640625
1760968080.7259054,-0.7392578125,-0.01318359375,0.67578125,3.72314453125,0.79345703125,-1.0986328125,-0.845947265625,51.5203857421875,-173.0950927734375
1760968080.7367563,-0.74169921875,0.00146484375,0.6630859375,3.0517578125,0.244140625,-1.3427734375,-0.8349609375,51.50390625,-173.133544921875
1760968080.7458892,-0.74169921875,0.00146484375,0.6630859375,3.0517578125,0.244140625,-1.3427734375,-0.8184814453125,51.492919921875,-173.1719970703125
1760968080.7570927,-0.76171875,0.0087890625,0.63916015625,0.6103515625,0.0,-1.708984375,-0.8349609375,51.4764404296875,-173.2159423828125
1760968080.76767,-0.76171875,0.0087890625,0.63916015625,0.6103515625,0.0,-1.708984375,-0.8514404296875,51.4654541015625,-173.25439453125
1760968080.7768216,-0.76611328125,0.001953125,0.63525390625,-0.1220703125,-0.3662109375,-2.3193359375,-0.87890625,51.448974609375,-173.309326171875
1760968080.787099,-0.76611328125,0.001953125,0.63525390625,-0.1220703125,-0.3662109375,-2.3193359375,-0.9063720703125,51.4324951171875,-173.353271484375
1760968080.7968268,-0.783203125,-0.0126953125,0.63037109375,2.38037109375,-0.8544921875,-2.99072265625,-0.9173583984375,51.4105224609375,-173.4136962890625
1760968080.8071353,-0.783203125,-0.0126953125,0.63037109375,2.38037109375,-0.8544921875,-2.99072265625,-0.9283447265625,51.3885498046875,-173.4686279296875
1760968080.8170567,-0.8125,0.00537109375,0.587890625,-0.48828125,-1.03759765625,-3.35693359375,-0.9722900390625,51.3720703125,-173.529052734375
1760968080.8270867,-0.8125,0.00537109375,0.587890625,-0.48828125,-1.03759765625,-3.35693359375,-1.0162353515625,51.3555908203125,-173.583984375
1760968080.8369606,-0.82666015625,0.00732421875,0.587890625,-3.35693359375,-0.48828125,-3.41796875,-1.087646484375,51.3446044921875,-173.6334228515625
1760968080.847327,-0.82666015625,0.00732421875,0.587890625,-3.35693359375,-0.48828125,-3.41796875,-1.1590576171875,51.339111328125,-173.682861328125
1760968080.8561046,-0.83349609375,-0.01513671875,0.5927734375,-4.57763671875,0.0,-3.0517578125,-1.2359619140625,51.339111328125,-173.7213134765625
1760968080.8661456,-0.83349609375,-0.01513671875,0.5927734375,-4.57763671875,0.0,-3.0517578125,-1.3128662109375,51.3446044921875,-173.759765625
1760968080.8760414,-0.77880859375,-0.01318359375,0.57470703125,-5.43212890625,-0.06103515625,-3.0517578125,-1.4007568359375,51.3446044921875,-173.7982177734375
1760968080.886808,-0.77880859375,-0.01318359375,0.57470703125,-5.43212890625,-0.06103515625,-3.0517578125,-1.4886474609375,51.35009765625,-173.836669921875
1760968080.8991659,-0.826171875,-0.0234375,0.623046875,-4.5166015625,0.30517578125,-2.62451171875,-1.56005859375,51.3555908203125,-173.86962890625
1760968080.9087024,-0.826171875,-0.0234375,0.623046875,-4.5166015625,0.30517578125,-2.62451171875,-1.6314697265625,51.3665771484375,-173.8970947265625
1760968080.916626,-0.81103515625,-0.04638671875,0.57568359375,-4.7607421875,0.42724609375,-2.13623046875,-1.702880859375,51.3775634765625,-173.9190673828125
1760968080.9265935,-0.81103515625,-0.04638671875,0.57568359375,-4.7607421875,0.42724609375,-2.13623046875,-1.77978515625,51.3885498046875,-173.946533203125
1760968080.9496012,-0.8154296875,-0.04931640625,0.59130859375,-1.15966796875,0.54931640625,-1.708984375,-1.812744140625,51.405029296875,-173.9630126953125
1760968080.9581814,-0.8154296875,-0.04931640625,0.59130859375,-1.15966796875,0.54931640625,-1.708984375,-1.845703125,51.416015625,-173.9794921875
1760968080.9658072,-0.791015625,-0.02392578125,0.60595703125,1.40380859375,0.67138671875,-1.708984375,-1.856689453125,51.4324951171875,-174.00146484375
1760968080.9737074,-0.791015625,-0.02392578125,0.60595703125,1.40380859375,0.67138671875,-1.708984375,-1.86767578125,51.448974609375,-174.0179443359375
1760968080.9892638,-0.7861328125,-0.02294921875,0.634765625,1.46484375,0.79345703125,-1.40380859375,-1.86767578125,51.4599609375,-174.0289306640625
1760968080.997904,-0.7861328125,-0.02294921875,0.634765625,1.46484375,0.79345703125,-1.40380859375,-1.8731689453125,51.4764404296875,-174.04541015625
1760968081.0133839,-0.7880859375,-0.015625,0.62548828125,0.18310546875,0.79345703125,-1.220703125,-1.8896484375,51.492919921875,-174.056396484375
1760968081.02015,-0.7880859375,-0.015625,0.62548828125,0.18310546875,0.79345703125,-1.220703125,-1.9061279296875,51.50390625,-174.0728759765625
1760968081.036085,-0.7998046875,-0.00732421875,0.58984375,-0.42724609375,0.6103515625,-1.46484375,-1.9281005859375,51.514892578125,-174.08935546875
1760968081.0424328,-0.7998046875,-0.00732421875,0.58984375,-0.42724609375,0.6103515625,-1.46484375,-1.9500732421875,51.52587890625,-174.100341796875
1760968081.0489597,-0.79541015625,-0.02001953125,0.615234375,-1.3427734375,0.54931640625,-1.708984375,-1.9830322265625,51.536865234375,-174.1168212890625
1760968081.0552123,-0.79541015625,-0.02001953125,0.615234375,-1.3427734375,0.54931640625,-1.708984375,-2.0159912109375,51.5478515625,-174.13330078125
1760968081.0621934,-0.78564453125,-0.03857421875,0.6416015625,0.0,0.8544921875,-1.77001953125,-2.0379638671875,51.5643310546875,-174.1552734375
1760968081.0770767,-0.78564453125,-0.03857421875,0.6416015625,0.0,0.8544921875,-1.77001953125,-2.0654296875,51.5753173828125,-174.17724609375
1760968081.0834851,-0.78076171875,-0.02001953125,0.62890625,0.30517578125,1.15966796875,-1.77001953125,-2.0819091796875,51.5863037109375,-174.19921875
1760968081.0905175,-0.78076171875,-0.02001953125,0.62890625,0.30517578125,1.15966796875,-1.77001953125,-2.1038818359375,51.602783203125,-174.2266845703125
1760968081.0972457,-0.7822265625,-0.01171875,0.6240234375,-1.40380859375,1.3427734375,-1.8310546875,-2.1368408203125,51.61376953125,-174.2486572265625
1760968081.1062634,-0.7822265625,-0.01171875,0.6240234375,-1.40380859375,1.3427734375,-1.8310546875,-2.17529296875,51.6302490234375,-174.2706298828125
1760968081.1163268,-0.78173828125,-0.01513671875,0.61669921875,-2.62451171875,1.0986328125,-1.953125,-2.2247314453125,51.6412353515625,-174.298095703125
1760968081.1297996,-0.78173828125,-0.01513671875,0.61669921875,-2.62451171875,1.0986328125,-1.953125,-2.274169921875,51.6522216796875,-174.3255615234375
1760968081.1367013,-0.78173828125,-0.01513671875,0.61669921875,-2.01416015625,0.67138671875,-2.0751953125,-2.318115234375,51.65771484375,-174.35302734375
1760968081.1472394,-0.7822265625,-0.02880859375,0.63037109375,-2.01416015625,0.67138671875,-2.0751953125,-2.362060546875,51.668701171875,-174.3804931640625
1760968081.158677,-0.771484375,-0.046875,0.6396484375,-1.03759765625,0.67138671875,-1.953125,-2.39501953125,51.6741943359375,-174.4134521484375
1760968081.1741643,-0.771484375,-0.046875,0.6396484375,-1.03759765625,0.67138671875,-1.953125,-2.427978515625,51.6796875,-174.44091796875
1760968081.1816115,-0.771484375,-0.046875,0.6396484375,-0.3662109375,0.67138671875,-1.40380859375,-2.449951171875,51.6796875,-174.4683837890625
1760968081.1902936,-0.7685546875,-0.0576171875,0.64501953125,-0.3662109375,0.67138671875,-1.40380859375,-2.4774169921875,51.6851806640625,-174.495849609375
1760968081.1969483,-0.7763671875,-0.0068359375,0.6240234375,0.67138671875,0.6103515625,-1.52587890625,-2.4884033203125,51.6851806640625,-174.5233154296875
1760968081.2074807,-0.7763671875,-0.0068359375,0.6240234375,0.67138671875,0.6103515625,-1.52587890625,-2.5048828125,51.690673828125,-174.55078125
1760968081.2220323,-0.77783203125,-0.02490234375,0.64990234375,0.06103515625,0.6103515625,-1.52587890625,-2.5213623046875,51.690673828125,-174.57275390625
1760968081.229173,-0.77783203125,-0.02490234375,0.64990234375,0.06103515625,0.6103515625,-1.52587890625,-2.537841796875,51.690673828125,-174.6002197265625
1760968081.236683,-0.7783203125,-0.0361328125,0.62890625,-1.15966796875,0.67138671875,-1.3427734375,-2.57080078125,51.6961669921875,-174.627685546875
1760968081.2471948,-0.7783203125,-0.0361328125,0.62890625,-1.15966796875,0.67138671875,-1.3427734375,-2.5982666015625,51.6961669921875,-174.6551513671875
1760968081.2692025,-0.78759765625,-0.03125,0.609375,-0.8544921875,0.6103515625,-1.40380859375,-2.625732421875,51.6961669921875,-174.6771240234375
1760968081.2782688,-0.78759765625,-0.03125,0.609375,-0.8544921875,0.6103515625,-1.40380859375,-2.6531982421875,51.70166015625,-174.70458984375
1760968081.2861178,-0.79150390625,-0.02197265625,0.61669921875,-0.67138671875,0.42724609375,-1.64794921875,-2.6806640625,51.70166015625,-174.7320556640625
1760968081.293158,-0.79150390625,-0.02197265625,0.61669921875,-0.67138671875,0.42724609375,-1.64794921875,-2.70263671875,51.70166015625,-174.759521484375
1760968081.2993758,-0.787109375,-0.01708984375,0.63427734375,-1.52587890625,0.1220703125,-1.953125,-2.7410888671875,51.70166015625,-174.79248046875
1760968081.3132296,-0.787109375,-0.01708984375,0.63427734375,-1.52587890625,0.1220703125,-1.953125,-2.779541015625,51.6961669921875,-174.8199462890625
1760968081.3224208,-0.78466796875,-0.03125,0.6240234375,-3.84521484375,0.18310546875,-1.8310546875,-2.8399658203125,51.6961669921875,-174.8529052734375
1760968081.3294353,-0.78466796875,-0.03125,0.6240234375,-3.84521484375,0.18310546875,-1.8310546875,-2.900390625,51.6961669921875,-174.88037109375
1760968081.3365345,-0.7890625,-0.03564453125,0.60888671875,-3.662109375,0.30517578125,-1.64794921875,-2.955322265625,51.6961669921875,-174.9078369140625
1760968081.3465023,-0.7890625,-0.03564453125,0.60888671875,-3.662109375,0.30517578125,-1.64794921875,-3.01025390625,51.6961669921875,-174.935302734375
1760968081.371546,-0.798828125,-0.02783203125,0.59765625,-3.2958984375,0.48828125,-1.708984375,-3.0596923828125,51.70166015625,-174.957275390625
1760968081.3779504,-0.798828125,-0.02783203125,0.59765625,-3.2958984375,0.48828125,-1.708984375,-3.1146240234375,51.7071533203125,-174.9847412109375
1760968081.3923073,-0.77099609375,-0.0341796875,0.63330078125,-1.46484375,0.3662109375,-1.64794921875,-3.1475830078125,51.7071533203125,-175.0067138671875
1760968081.399818,-0.77099609375,-0.0341796875,0.63330078125,-1.46484375,0.3662109375,-1.64794921875,-3.1805419921875,51.712646484375,-175.0341796875
1760968081.4064808,-0.77001953125,-0.06298828125,0.6572265625,-1.40380859375,0.3662109375,-1.52587890625,-3.2135009765625,51.712646484375,-175.05615234375
1760968081.4129822,-0.77001953125,-0.06298828125,0.6572265625,-1.40380859375,0.3662109375,-1.52587890625,-3.2464599609375,51.712646484375,-175.0836181640625
1760968081.4194646,-0.77099609375,-0.03125,0.62255859375,-1.03759765625,0.18310546875,-1.40380859375,-3.27392578125,51.7071533203125,-175.111083984375
1760968081.4437401,-0.77099609375,-0.03125,0.62255859375,-1.03759765625,0.18310546875,-1.40380859375,-3.3013916015625,51.7071533203125,-175.133056640625
1760968081.4505222,-0.78759765625,-0.03662109375,0.6240234375,0.9765625,0.244140625,-1.64794921875,-3.3123779296875,51.7071533203125,-175.1605224609375
1760968081.4574165,-0.78759765625,-0.03662109375,0.6240234375,0.9765625,0.244140625,-1.64794921875,-3.3233642578125,51.70166015625,-175.1934814453125
1760968081.4639716,-0.78369140625,-0.0380859375,0.6171875,-2.5634765625,0.18310546875,-1.64794921875,-3.3673095703125,51.70166015625,-175.220947265625
1760968081.4728935,-0.78369140625,-0.0380859375,0.6171875,-2.5634765625,0.18310546875,-1.64794921875,-3.4112548828125,51.70166015625,-175.2484130859375
1760968081.5010266,-0.79296875,-0.0302734375,0.615234375,-1.89208984375,0.0,-1.708984375,-3.44970703125,51.6961669921875,-175.27587890625
1760968081.5074408,-0.79296875,-0.0302734375,0.615234375,-1.89208984375,0.0,-1.708984375,-3.49365234375,51.6961669921875,-175.3033447265625
1760968081.5164027,-0.796875,-0.0439453125,0.60302734375,-2.44140625,-0.1220703125,-1.708984375,-3.53759765625,51.690673828125,-175.330810546875
1760968081.53208,-0.796875,-0.0439453125,0.60302734375,-2.44140625,-0.1220703125,-1.708984375,-3.58154296875,51.690673828125,-175.3582763671875
1760968081.5399091,-0.8037109375,-0.06103515625,0.60400390625,-1.15966796875,0.0,-1.52587890625,-3.6090087890625,51.690673828125,-175.3802490234375
1760968081.5528135,-0.8037109375,-0.06103515625,0.60400390625,-1.15966796875,0.0,-1.52587890625,-3.6419677734375,51.690673828125,-175.4022216796875
1760968081.567214,-0.798828125,-0.04345703125,0.59521484375,-0.3662109375,0.18310546875,-1.46484375,-3.6639404296875,51.6961669921875,-175.4241943359375
1760968081.574286,-0.798828125,-0.04345703125,0.59521484375,-0.3662109375,0.18310546875,-1.46484375,-3.69140625,51.6961669921875,-175.440673828125
1760968081.597831,-0.822265625,-0.0439453125,0.6181640625,-0.42724609375,0.8544921875,-1.28173828125,-3.71337890625,51.7071533203125,-175.4571533203125
1760968081.6077015,-0.822265625,-0.0439453125,0.6181640625,-0.42724609375,0.8544921875,-1.28173828125,-3.7353515625,51.7181396484375,-175.4736328125
1760968081.6169293,-0.8193359375,-0.04736328125,0.58349609375,-1.3427734375,1.28173828125,-0.91552734375,-3.7628173828125,51.734619140625,-175.484619140625
1760968081.63166,-0.8193359375,-0.04736328125,0.58349609375,-1.3427734375,1.28173828125,-0.91552734375,-3.790283203125,51.756591796875,-175.49560546875
1760968081.6488082,-0.806640625,-0.05029296875,0.57958984375,0.0,1.3427734375,-1.0986328125,-3.8067626953125,51.7730712890625,-175.5120849609375
1760968081.6550786,-0.806640625,-0.05029296875,0.57958984375,0.0,1.3427734375,-1.0986328125,-3.8232421875,51.7950439453125,-175.5230712890625
1760968081.6693337,-0.7939453125,-0.04150390625,0.6015625,0.732421875,1.52587890625,-1.03759765625,-3.834228515625,51.8170166015625,-175.5340576171875
1760968081.6767683,-0.7939453125,-0.04150390625,0.6015625,0.732421875,1.52587890625,-1.03759765625,-3.8397216796875,51.83349609375,-175.5450439453125
1760968081.683507,-0.79052734375,-0.04736328125,0.642578125,0.91552734375,1.3427734375,-1.15966796875,-3.8507080078125,51.85546875,-175.5615234375
1760968081.689988,-0.79052734375,-0.04736328125,0.642578125,0.91552734375,1.3427734375,-1.15966796875,-3.856201171875,51.8719482421875,-175.5780029296875
1760968081.706508,-0.78515625,-0.03173828125,0.61767578125,-0.48828125,1.64794921875,-1.28173828125,-3.8836669921875,51.888427734375,-175.594482421875
1760968081.71462,-0.78515625,-0.03173828125,0.61767578125,-0.48828125,1.64794921875,-1.28173828125,-3.9056396484375,51.910400390625,-175.6109619140625
1760968081.7224107,-0.79736328125,-0.03125,0.615234375,-1.64794921875,1.89208984375,-1.0986328125,-3.9385986328125,51.932373046875,-175.62744140625
1760968081.729168,-0.79736328125,-0.03125,0.615234375,-1.64794921875,1.89208984375,-1.0986328125,-3.966064453125,51.9488525390625,-175.6439208984375
1760968081.7372851,-0.7822265625,-0.06005859375,0.6171875,-2.01416015625,1.953125,-1.03759765625,-4.0045166015625,51.9708251953125,-175.660400390625
1760968081.753319,-0.78515625,-0.0537109375,0.6328125,-0.6103515625,2.01416015625,-0.91552734375,-4.031982421875,51.9927978515625,-175.67138671875
1760968081.7612975,-0.78515625,-0.0537109375,0.6328125,-0.6103515625,2.01416015625,-0.91552734375,-4.0484619140625,52.0147705078125,-175.6878662109375
1760968081.768444,-0.7861328125,-0.0419921875,0.62939453125,0.0,2.13623046875,-0.9765625,-4.06494140625,52.03125,-175.704345703125
1760968081.784782,-0.7861328125,-0.0419921875,0.62939453125,0.0,2.13623046875,-0.9765625,-4.0814208984375,52.05322265625,-175.726318359375
1760968081.7937028,-0.802734375,-0.03759765625,0.6025390625,-1.28173828125,2.62451171875,-0.9765625,-4.1033935546875,52.0751953125,-175.7427978515625
1760968081.8013322,-0.802734375,-0.03759765625,0.6025390625,-1.28173828125,2.62451171875,-0.9765625,-4.130859375,52.1026611328125,-175.7647705078125
1760968081.8091185,-0.81298828125,-0.04638671875,0.599609375,-1.5869140625,2.99072265625,-0.8544921875,-4.1583251953125,52.130126953125,-175.78125
1760968081.8495686,-0.81298828125,-0.04638671875,0.599609375,-1.5869140625,2.99072265625,-0.8544921875,-4.185791015625,52.1575927734375,-175.7977294921875
1760968081.877628,-0.80419921875,-0.06787109375,0.5947265625,-0.1220703125,3.35693359375,-0.67138671875,-4.207763671875,52.1905517578125,-175.814208984375
1760968081.8852303,-0.80419921875,-0.06787109375,0.5947265625,-0.1220703125,3.35693359375,-0.67138671875,-4.2242431640625,52.2235107421875,-175.8251953125
1760968081.9017258,-0.8056640625,-0.0654296875,0.59375,1.953125,3.84521484375,-0.1220703125,-4.2242431640625,52.261962890625,-175.8416748046875
1760968081.9118721,-0.8056640625,-0.0654296875,0.59375,1.953125,3.84521484375,-0.1220703125,-4.2132568359375,52.305908203125,-175.84716796875
1760968081.922091,-0.81298828125,-0.0390625,0.58642578125,2.0751953125,4.0283203125,0.0,-4.2022705078125,52.3443603515625,-175.858154296875
1760968081.934036,-0.81298828125,-0.0390625,0.58642578125,2.0751953125,4.0283203125,0.0,-4.185791015625,52.3883056640625,-175.8636474609375
1760968081.9421847,-0.8037109375,-0.06298828125,0.6240234375,2.0751953125,4.2724609375,0.48828125,-4.1693115234375,52.4322509765625,-175.8636474609375
1760968081.949295,-0.8037109375,-0.06298828125,0.6240234375,2.0751953125,4.2724609375,0.48828125,-4.1473388671875,52.4761962890625,-175.8636474609375
1760968081.966705,-0.77978515625,-0.06591796875,0.61474609375,3.41796875,4.150390625,1.0986328125,-4.119873046875,52.5201416015625,-175.858154296875
1760968081.9741561,-0.77978515625,-0.06591796875,0.61474609375,3.41796875,4.150390625,1.0986328125,-4.0814208984375,52.5640869140625,-175.8526611328125
1760968081.981596,-0.77099609375,-0.03515625,0.60302734375,5.0048828125,3.5400390625,0.9765625,-4.0374755859375,52.6025390625,-175.84716796875
1760968081.9917097,-0.77099609375,-0.03515625,0.60302734375,5.0048828125,3.5400390625,0.9765625,-3.9825439453125,52.6409912109375,-175.8416748046875
1760968082.0005302,-0.76904296875,-0.021484375,0.65478515625,2.50244140625,2.50244140625,0.42724609375,-3.944091796875,52.66845703125,-175.836181640625
1760968082.008237,-0.76904296875,-0.021484375,0.65478515625,2.50244140625,2.50244140625,0.42724609375,-3.9166259765625,52.6904296875,-175.8416748046875
1760968082.0183878,-0.7734375,-0.03466796875,0.63134765625,-1.708984375,2.25830078125,0.30517578125,-3.9111328125,52.71240234375,-175.8416748046875
1760968082.042019,-0.7734375,-0.03466796875,0.63134765625,-1.708984375,2.25830078125,0.30517578125,-3.9276123046875,52.7288818359375,-175.84716796875
1760968082.0644414,-0.79150390625,-0.046875,0.59375,-2.8076171875,2.01416015625,0.244140625,-3.9495849609375,52.7398681640625,-175.8526611328125
1760968082.0764673,-0.79150390625,-0.046875,0.59375,-2.8076171875,2.01416015625,0.244140625,-3.97705078125,52.75634765625,-175.858154296875
1760968082.0830755,-0.794921875,-0.04296875,0.60595703125,-2.74658203125,2.01416015625,0.06103515625,-4.0045166015625,52.7728271484375,-175.8636474609375
1760968082.1057844,-0.794921875,-0.04296875,0.60595703125,-2.74658203125,2.01416015625,0.06103515625,-4.031982421875,52.789306640625,-175.8746337890625
1760968082.113394,-0.78564453125,-0.046875,0.63720703125,0.1220703125,2.0751953125,-0.18310546875,-4.0484619140625,52.8057861328125,-175.880126953125
1760968082.1221368,-0.78564453125,-0.046875,0.63720703125,0.1220703125,2.0751953125,-0.18310546875,-4.053955078125,52.822265625,-175.8966064453125
1760968082.1284528,-0.783203125,-0.0341796875,0.61376953125,-0.54931640625,2.01416015625,-0.3662109375,-4.0594482421875,52.833251953125,-175.9130859375
1760968082.1445584,-0.783203125,-0.0341796875,0.61376953125,-0.54931640625,2.01416015625,-0.3662109375,-4.075927734375,52.8497314453125,-175.9295654296875
1760968082.1507244,-0.7705078125,-0.0390625,0.6298828125,-1.0986328125,1.8310546875,-0.8544921875,-4.0924072265625,52.8607177734375,-175.946044921875
1760968082.156789,-0.7705078125,-0.0390625,0.6298828125,-1.0986328125,1.8310546875,-0.8544921875,-4.1143798828125,52.8717041015625,-175.9735107421875
1760968082.162939,-0.77392578125,-0.04052734375,0.64306640625,-2.50244140625,1.8310546875,-0.8544921875,-4.141845703125,52.8826904296875,-176.0009765625
1760968082.169414,-0.77392578125,-0.04052734375,0.64306640625,-2.50244140625,1.8310546875,-0.8544921875,-4.1802978515625,52.88818359375,-176.0284423828125
1760968082.1824386,-0.76171875,-0.05615234375,0.6328125,-2.8076171875,1.220703125,-0.8544921875,-4.21875,52.8936767578125,-176.055908203125
1760968082.1888118,-0.76171875,-0.05615234375,0.6328125,-2.8076171875,1.220703125,-0.8544921875,-4.2572021484375,52.899169921875,-176.0833740234375
1760968082.194938,-0.77197265625,-0.05419921875,0.62548828125,-1.40380859375,0.79345703125,-0.732421875,-4.2901611328125,52.8936767578125,-176.1163330078125
1760968082.2083113,-0.77197265625,-0.05419921875,0.62548828125,-1.40380859375,0.79345703125,-0.732421875,-4.3121337890625,52.8936767578125,-176.143798828125
1760968082.225701,-0.775390625,-0.05078125,0.638671875,0.732421875,0.6103515625,-0.8544921875,-4.3231201171875,52.88818359375,-176.1712646484375
1760968082.2322443,-0.775390625,-0.05078125,0.638671875,0.732421875,0.6103515625,-0.8544921875,-4.32861328125,52.8826904296875,-176.2042236328125
1760968082.2383983,-0.7724609375,-0.048828125,0.63037109375,0.42724609375,0.8544921875,-0.91552734375,-4.339599609375,52.877197265625,-176.2371826171875
1760968082.244517,-0.7724609375,-0.048828125,0.63037109375,0.42724609375,0.8544921875,-0.91552734375,-4.3450927734375,52.8717041015625,-176.2701416015625
1760968082.2509801,-0.7685546875,-0.0419921875,0.6259765625,0.0,0.67138671875,-0.9765625,-4.3560791015625,52.8662109375,-176.3031005859375
1760968082.264111,-0.7685546875,-0.0419921875,0.6259765625,0.0,0.67138671875,-0.9765625,-4.37255859375,52.8607177734375,-176.3360595703125
1760968082.270313,-0.771484375,-0.02490234375,0.6279296875,-0.8544921875,0.18310546875,-1.0986328125,-4.3890380859375,52.855224609375,-176.3690185546875
1760968082.2765057,-0.771484375,-0.02490234375,0.6279296875,-0.8544921875,0.18310546875,-1.0986328125,-4.4110107421875,52.84423828125,-176.407470703125
1760968082.2832456,-0.78369140625,-0.0361328125,0.6474609375,-1.220703125,-0.3662109375,-1.28173828125,-4.4329833984375,52.8277587890625,-176.4404296875
1760968082.303771,-0.78369140625,-0.0361328125,0.6474609375,-1.220703125,-0.3662109375,-1.28173828125,-4.4549560546875,52.811279296875,-176.473388671875
1760968082.3108623,-0.80126953125,-0.060546875,0.6015625,-3.11279296875,-0.54931640625,-1.46484375,-4.493408203125,52.7947998046875,-176.5118408203125
1760968082.326318,-0.80126953125,-0.060546875,0.6015625,-3.11279296875,-0.54931640625,-1.46484375,-4.537353515625,52.7783203125,-176.5447998046875
1760968082.3331625,-0.8154296875,-0.052734375,0.56005859375,0.244140625,-0.42724609375,-1.8310546875,-4.5703125,52.7618408203125,-176.583251953125
1760968082.3399084,-0.8154296875,-0.052734375,0.56005859375,0.244140625,-0.42724609375,-1.8310546875,-4.59228515625,52.7508544921875,-176.6217041015625
1760968082.3621306,-0.830078125,-0.04736328125,0.5712890625,2.50244140625,-0.42724609375,-2.44140625,-4.603271484375,52.7398681640625,-176.66015625
1760968082.3750207,-0.830078125,-0.04736328125,0.5712890625,2.50244140625,-0.42724609375,-2.44140625,-4.6087646484375,52.734375,-176.7041015625
1760968082.39284,-0.8330078125,-0.0380859375,0.580078125,-0.06103515625,-0.30517578125,-2.38037109375,-4.625244140625,52.7288818359375,-176.748046875
1760968082.4124117,-0.8330078125,-0.0380859375,0.580078125,-0.06103515625,-0.30517578125,-2.38037109375,-4.6527099609375,52.723388671875,-176.7864990234375
1760968082.418832,-0.8271484375,-0.07373046875,0.5693359375,1.15966796875,-0.3662109375,-2.01416015625,-4.6746826171875,52.723388671875,-176.8194580078125
1760968082.4449732,-0.8271484375,-0.07373046875,0.5693359375,1.15966796875,-0.3662109375,-2.01416015625,-4.691162109375,52.7178955078125,-176.846923828125
1760968082.4526596,-0.82568359375,-0.06884765625,0.560546875,-0.18310546875,-0.48828125,-1.3427734375,-4.7076416015625,52.7178955078125,-176.8743896484375
1760968082.4591167,-0.82568359375,-0.06884765625,0.560546875,-0.18310546875,-0.48828125,-1.3427734375,-4.7296142578125,52.7178955078125,-176.890869140625
1760968082.473876,-0.822265625,-0.05859375,0.572265625,1.8310546875,-0.67138671875,-0.42724609375,-4.735107421875,52.7178955078125,-176.90185546875
1760968082.4800293,-0.822265625,-0.05859375,0.572265625,1.8310546875,-0.67138671875,-0.42724609375,-4.72412109375,52.7178955078125,-176.9073486328125
1760968082.4861236,-0.82177734375,-0.07275390625,0.59033203125,1.0986328125,-0.42724609375,0.42724609375,-4.713134765625,52.723388671875,-176.90185546875
1760968082.4922466,-0.82177734375,-0.07275390625,0.59033203125,1.0986328125,-0.42724609375,0.42724609375,-4.7021484375,52.7288818359375,-176.890869140625
1760968082.4992476,-0.818359375,-0.05810546875,0.5693359375,1.15966796875,-0.3662109375,0.9765625,-4.6856689453125,52.734375,-176.8743896484375
1760968082.505894,-0.818359375,-0.05810546875,0.5693359375,1.15966796875,-0.3662109375,0.9765625,-4.669189453125,52.7398681640625,-176.85791015625
1760968082.5181625,-0.826171875,-0.052734375,0.5791015625,1.03759765625,-0.3662109375,1.40380859375,-4.647216796875,52.745361328125,-176.8359375
1760968082.5249124,-0.826171875,-0.052734375,0.5791015625,1.03759765625,-0.3662109375,1.40380859375,-4.6197509765625,52.7508544921875,-176.8084716796875
1760968082.542839,-0.79833984375,-0.0478515625,0.5703125,-0.732421875,-0.42724609375,1.89208984375,-4.603271484375,52.75634765625,-176.7755126953125
1760968082.5492172,-0.79833984375,-0.0478515625,0.5703125,-0.732421875,-0.42724609375,1.89208984375,-4.59228515625,52.767333984375,-176.7425537109375
1760968082.5561223,-0.80615234375,-0.05322265625,0.62939453125,-1.28173828125,-0.732421875,2.0751953125,-4.581298828125,52.7728271484375,-176.7041015625
1760968082.5624304,-0.80615234375,-0.05322265625,0.62939453125,-1.28173828125,-0.732421875,2.0751953125,-4.5703125,52.7728271484375,-176.6656494140625
1760968082.5786943,-0.80029296875,-0.0380859375,0.57861328125,-1.708984375,-1.220703125,1.64794921875,-4.5648193359375,52.7728271484375,-176.6326904296875
1760968082.5853486,-0.80029296875,-0.0380859375,0.57861328125,-1.708984375,-1.220703125,1.64794921875,-4.559326171875,52.767333984375,-176.5997314453125
1760968082.5914252,-0.8193359375,-0.04248046875,0.59375,1.03759765625,-1.40380859375,0.8544921875,-4.54833984375,52.7618408203125,-176.572265625
1760968082.6062942,-0.8193359375,-0.04248046875,0.59375,1.03759765625,-1.40380859375,0.8544921875,-4.5318603515625,52.75634765625,-176.55029296875
1760968082.6133823,-0.82080078125,-0.04833984375,0.57666015625,2.685546875,-1.03759765625,0.244140625,-4.50439453125,52.7508544921875,-176.5338134765625
1760968082.6284616,-0.82080078125,-0.04833984375,0.57666015625,2.685546875,-1.03759765625,0.244140625,-4.4769287109375,52.7508544921875,-176.517333984375
1760968082.6350849,-0.814453125,-0.0556640625,0.5927734375,2.9296875,-0.67138671875,0.06103515625,-4.449462890625,52.7508544921875,-176.50634765625
1760968082.6422462,-0.814453125,-0.0556640625,0.5927734375,2.9296875,-0.67138671875,0.06103515625,-4.4219970703125,52.7508544921875,-176.5008544921875
1760968082.657779,-0.79736328125,-0.0458984375,0.6142578125,1.15966796875,-0.48828125,0.0,-4.4000244140625,52.7508544921875,-176.4898681640625
1760968082.6645026,-0.79736328125,-0.0458984375,0.6142578125,1.15966796875,-0.48828125,0.0,-4.39453125,52.75634765625,-176.484375
1760968082.6732895,-0.798828125,-0.02001953125,0.61962890625,0.0,-0.67138671875,-0.42724609375,-4.3890380859375,52.75634765625,-176.484375
1760968082.679643,-0.798828125,-0.02001953125,0.61962890625,0.0,-0.67138671875,-0.42724609375,-4.39453125,52.7508544921875,-176.484375
1760968082.7035449,-0.802734375,-0.0390625,0.60400390625,-1.46484375,-0.48828125,-0.67138671875,-4.4110107421875,52.7508544921875,-176.4898681640625
1760968082.7096963,-0.802734375,-0.0390625,0.60400390625,-1.46484375,-0.48828125,-0.67138671875,-4.4329833984375,52.7508544921875,-176.495361328125
1760968082.7159524,-0.81689453125,-0.060546875,0.58056640625,-2.44140625,-0.1220703125,-0.18310546875,-4.4549560546875,52.7508544921875,-176.495361328125
1760968082.724388,-0.81689453125,-0.060546875,0.58056640625,-2.44140625,-0.1220703125,-0.18310546875,-4.482421875,52.7508544921875,-176.495361328125
1760968082.7365694,-0.81103515625,-0.0703125,0.591796875,-2.62451171875,0.3662109375,0.6103515625,-4.50439453125,52.75634765625,-176.484375
1760968082.743482,-0.81103515625,-0.0703125,0.591796875,-2.62451171875,0.3662109375,0.6103515625,-4.5208740234375,52.767333984375,-176.473388671875
1760968082.7538054,-0.80712890625,-0.06396484375,0.61669921875,-1.52587890625,0.42724609375,1.5869140625,-4.5318603515625,52.7783203125,-176.451416015625
1760968082.7599266,-0.80712890625,-0.06396484375,0.61669921875,-1.52587890625,0.42724609375,1.5869140625,-4.5318603515625,52.7838134765625,-176.429443359375
1760968082.767774,-0.80029296875,-0.06396484375,0.5849609375,0.244140625,0.244140625,2.0751953125,-4.515380859375,52.7947998046875,-176.396484375
1760968082.783239,-0.80029296875,-0.06396484375,0.5849609375,0.244140625,0.244140625,2.0751953125,-4.493408203125,52.80029296875,-176.363525390625
1760968082.7893345,-0.80029296875,-0.06396484375,0.5849609375,2.74658203125,-0.06103515625,1.953125,-4.4549560546875,52.811279296875,-176.3360595703125
1760968082.7980595,-0.80615234375,-0.04833984375,0.58203125,2.74658203125,-0.06103515625,1.953125,-4.405517578125,52.8167724609375,-176.3031005859375
1760968082.8051953,-0.81201171875,-0.0419921875,0.60595703125,1.89208984375,-0.244140625,2.01416015625,-4.3670654296875,52.8167724609375,-176.2701416015625
1760968082.8135417,-0.81201171875,-0.0419921875,0.60595703125,1.89208984375,-0.244140625,2.01416015625,-4.3231201171875,52.822265625,-176.2371826171875
1760968082.819819,-0.7998046875,-0.04638671875,0.595703125,0.42724609375,-0.244140625,2.25830078125,-4.295654296875,52.822265625,-176.19873046875
1760968082.8323567,-0.7998046875,-0.04638671875,0.595703125,0.42724609375,-0.244140625,2.25830078125,-4.2626953125,52.8277587890625,-176.165771484375
1760968082.8429382,-0.8017578125,-0.048828125,0.6015625,-0.244140625,-0.18310546875,2.685546875,-4.2352294921875,52.8277587890625,-176.121826171875
1760968082.8493295,-0.8017578125,-0.048828125,0.6015625,-0.244140625,-0.18310546875,2.685546875,-4.2022705078125,52.833251953125,-176.077880859375
1760968082.863511,-0.78076171875,-0.05810546875,0.6181640625,-0.79345703125,-0.48828125,3.35693359375,-4.1693115234375,52.833251953125,-176.02294921875
1760968082.8696396,-0.78076171875,-0.05810546875,0.6181640625,-0.79345703125,-0.48828125,3.35693359375,-4.141845703125,52.833251953125,-175.9735107421875
1760968082.8794081,-0.77734375,-0.04833984375,0.63720703125,-0.42724609375,-1.15966796875,3.60107421875,-4.097900390625,52.822265625,-175.9185791015625
1760968082.8864594,-0.77734375,-0.04833984375,0.63720703125,-0.42724609375,-1.15966796875,3.60107421875,-4.0594482421875,52.811279296875,-175.8636474609375
1760968082.8931942,-0.7900390625,-0.03466796875,0.62646484375,0.06103515625,-2.01416015625,3.23486328125,-4.02099609375,52.7947998046875,-175.814208984375
1760968082.9008114,-0.7900390625,-0.03466796875,0.62646484375,0.06103515625,-2.01416015625,3.23486328125,-3.97705078125,52.7728271484375,-175.7647705078125
1760968082.9146235,-0.8203125,-0.025390625,0.56787109375,-0.42724609375,-2.0751953125,2.9296875,-3.944091796875,52.7508544921875,-175.7208251953125
1760968082.9209173,-0.8203125,-0.025390625,0.56787109375,-0.42724609375,-2.0751953125,2.9296875,-3.9111328125,52.734375,-175.67138671875
1760968082.9439006,-0.748046875,-0.05224609375,0.58642578125,2.0751953125,-2.8076171875,2.13623046875,-3.8616943359375,52.7069091796875,-175.6329345703125
1760968082.950953,-0.748046875,-0.05224609375,0.58642578125,2.0751953125,-2.8076171875,2.13623046875,-3.812255859375,52.6849365234375,-175.5999755859375
1760968082.957194,-0.8076171875,-0.03369140625,0.6865234375,-0.8544921875,-2.62451171875,2.25830078125,-3.790283203125,52.657470703125,-175.5670166015625
1760968082.9637384,-0.8076171875,-0.03369140625,0.6865234375,-0.8544921875,-2.62451171875,2.25830078125,-3.768310546875,52.6300048828125,-175.5340576171875
1760968082.9703686,-0.76806640625,-0.03369140625,0.583984375,-1.953125,-3.0517578125,2.13623046875,-3.7628173828125,52.5970458984375,-175.5010986328125
1760968082.9782655,-0.76806640625,-0.03369140625,0.583984375,-1.953125,-3.0517578125,2.13623046875,-3.7518310546875,52.5640869140625,-175.4681396484375
1760968082.9847007,-0.7822265625,-0.03759765625,0.64111328125,-0.1220703125,-3.35693359375,1.5869140625,-3.7298583984375,52.5311279296875,-175.440673828125
1760968082.9908626,-0.7822265625,-0.03759765625,0.64111328125,-0.1220703125,-3.35693359375,1.5869140625,-3.7078857421875,52.4981689453125,-175.418701171875
1760968082.9975414,-0.77587890625,-0.0224609375,0.630859375,-1.15966796875,-3.47900390625,1.40380859375,-3.6968994140625,52.459716796875,-175.4022216796875
1760968083.0041912,-0.77587890625,-0.0224609375,0.630859375,-1.15966796875,-3.47900390625,1.40380859375,-3.6859130859375,52.4212646484375,-175.3802490234375
1760968083.0110285,-0.7822265625,-0.04931640625,0.62646484375,0.30517578125,-3.5400390625,1.15966796875,-3.6639404296875,52.3828125,-175.36376953125
1760968083.0172482,-0.7822265625,-0.04931640625,0.62646484375,0.30517578125,-3.5400390625,1.15966796875,-3.6419677734375,52.3443603515625,-175.3472900390625
1760968083.024075,-0.77734375,-0.06640625,0.63427734375,1.40380859375,-3.41796875,1.46484375,-3.6090087890625,52.305908203125,-175.3253173828125
1760968083.030478,-0.77734375,-0.06640625,0.63427734375,1.40380859375,-3.41796875,1.46484375,-3.5760498046875,52.2674560546875,-175.3033447265625
1760968083.0371275,-0.7685546875,-0.0341796875,0.6240234375,1.52587890625,-3.23486328125,1.8310546875,-3.53759765625,52.22900390625,-175.2813720703125
1760968083.0534003,-0.7685546875,-0.0341796875,0.6240234375,1.52587890625,-3.23486328125,1.8310546875,-3.4991455078125,52.196044921875,-175.25390625
1760968083.0715585,-0.76513671875,-0.02392578125,0.650390625,0.54931640625,-3.23486328125,2.0751953125,-3.4661865234375,52.1575927734375,-175.2264404296875
1760968083.0793633,-0.76513671875,-0.02392578125,0.650390625,0.54931640625,-3.23486328125,2.0751953125,-3.4332275390625,52.119140625,-175.1934814453125
1760968083.0902145,-0.7666015625,-0.04150390625,0.65283203125,-1.220703125,-3.11279296875,2.50244140625,-3.4112548828125,52.086181640625,-175.1605224609375
1760968083.1100338,-0.7666015625,-0.04150390625,0.65283203125,-1.220703125,-3.11279296875,2.50244140625,-3.3892822265625,52.0477294921875,-175.1275634765625
1760968083.116222,-0.7666015625,-0.03515625,0.619140625,-0.42724609375,-3.35693359375,2.5634765625,-3.36181640625,52.00927734375,-175.089111328125
1760968083.1238241,-0.7666015625,-0.03515625,0.619140625,-0.42724609375,-3.35693359375,2.5634765625,-3.3343505859375,51.96533203125,-175.05615234375
1760968083.1303356,-0.76318359375,-0.04736328125,0.62841796875,-0.30517578125,-3.5400390625,2.25830078125,-3.306884765625,51.9268798828125,-175.0286865234375
1760968083.1370397,-0.76318359375,-0.04736328125,0.62841796875,-0.30517578125,-3.5400390625,2.25830078125,-3.2794189453125,51.8829345703125,-174.9957275390625
1760968083.1439888,-0.76318359375,-0.04150390625,0.66796875,-0.1220703125,-3.662109375,2.197265625,-3.251953125,51.844482421875,-174.96826171875
1760968083.1504025,-0.76318359375,-0.04150390625,0.66796875,-0.1220703125,-3.662109375,2.197265625,-3.2244873046875,51.800537109375,-174.9407958984375
1760968083.157845,-0.78369140625,-0.0166015625,0.62451171875,-0.9765625,-3.5400390625,2.25830078125,-3.2080078125,51.756591796875,-174.913330078125
1760968083.164208,-0.78369140625,-0.0166015625,0.62451171875,-0.9765625,-3.5400390625,2.25830078125,-3.18603515625,51.7181396484375,-174.88037109375
1760968083.1702404,-0.79052734375,-0.013671875,0.5849609375,1.28173828125,-3.96728515625,1.46484375,-3.153076171875,51.668701171875,-174.8583984375
1760968083.1766164,-0.79052734375,-0.013671875,0.5849609375,1.28173828125,-3.96728515625,1.46484375,-3.1146240234375,51.6302490234375,-174.8309326171875
1760968083.1838431,-0.775390625,-0.04541015625,0.6416015625,1.40380859375,-4.57763671875,1.3427734375,-3.0816650390625,51.580810546875,-174.8089599609375
1760968083.1909428,-0.775390625,-0.04541015625,0.6416015625,1.40380859375,-4.57763671875,1.3427734375,-3.0487060546875,51.5313720703125,-174.7869873046875
1760968083.1978767,-0.75390625,-0.025390625,0.6455078125,-0.8544921875,-5.31005859375,1.40380859375,-3.0377197265625,51.4764404296875,-174.7650146484375
1760968083.2042751,-0.75390625,-0.025390625,0.6455078125,-0.8544921875,-5.31005859375,1.40380859375,-3.021240234375,51.4215087890625,-174.7430419921875
