timestamp,acc_x,acc_y,acc_z,gyro_x,gyro_y,gyro_z,angle_x,angle_y,angle_z
1758179629.9451377,-0.35888671875,0.0,0.931640625,0.0,-0.18310546875,-0.3662109375,-0.1483154296875,20.85205078125,-166.53076171875
1758179629.9538307,-0.35791015625,-0.00048828125,0.935546875,-0.18310546875,-0.06103515625,-0.42724609375,-0.15380859375,20.85205078125,-166.5362548828125
1758179629.9643679,-0.35791015625,-0.00048828125,0.935546875,-0.18310546875,-0.06103515625,-0.42724609375,-0.15380859375,20.85205078125,-166.541748046875
1758179629.9749606,-0.35009765625,0.0,0.9384765625,0.0,0.0,-0.42724609375,-0.15380859375,20.85205078125,-166.5472412109375
1758179629.9866774,-0.35009765625,0.0,0.9384765625,0.0,0.0,-0.42724609375,-0.15380859375,20.85205078125,-166.552734375
1758179629.996348,-0.34765625,-0.00244140625,0.93701171875,0.244140625,-0.06103515625,-0.3662109375,-0.15380859375,20.85205078125,-166.563720703125
1758179630.006383,-0.34765625,-0.00244140625,0.93701171875,0.244140625,-0.06103515625,-0.3662109375,-0.15380859375,20.85205078125,-166.5692138671875
1758179630.0180209,-0.35302734375,-0.0029296875,0.93408203125,0.06103515625,-0.1220703125,-0.18310546875,-0.15380859375,20.8465576171875,-166.5692138671875
1758179630.0282712,-0.35302734375,-0.0029296875,0.93408203125,0.06103515625,-0.1220703125,-0.18310546875,-0.15380859375,20.8465576171875,-166.57470703125
1758179630.0417187,-0.35595703125,-0.00439453125,0.9326171875,-0.244140625,-0.1220703125,-0.06103515625,-0.15380859375,20.8465576171875,-166.57470703125
1758179630.0510826,-0.35595703125,-0.00439453125,0.9326171875,-0.244140625,-0.1220703125,-0.06103515625,-0.15380859375,20.8465576171875,-166.5802001953125
1758179630.0583975,-0.359375,-0.00244140625,0.93798828125,-0.42724609375,0.0,0.1220703125,-0.1593017578125,20.8465576171875,-166.5802001953125
1758179630.0665007,-0.359375,-0.00244140625,0.93798828125,-0.42724609375,0.0,0.1220703125,-0.164794921875,20.8465576171875,-166.5802001953125
1758179630.0741673,-0.3603515625,-0.00390625,0.93359375,0.0,0.244140625,0.244140625,-0.1593017578125,20.8465576171875,-166.5802001953125
1758179630.0899677,-0.3603515625,-0.00390625,0.93359375,0.0,0.244140625,0.244140625,-0.1593017578125,20.8465576171875,-166.57470703125
1758179630.096489,-0.361328125,-0.00048828125,0.93115234375,0.1220703125,0.30517578125,0.18310546875,-0.1593017578125,20.85205078125,-166.57470703125
1758179630.102747,-0.361328125,-0.00048828125,0.93115234375,0.1220703125,0.30517578125,0.18310546875,-0.15380859375,20.8575439453125,-166.57470703125
1758179630.1120622,-0.359375,0.00244140625,0.931640625,0.1220703125,0.30517578125,0.1220703125,-0.15380859375,20.8575439453125,-166.57470703125
1758179630.1211996,-0.359375,0.00244140625,0.931640625,0.1220703125,0.30517578125,0.1220703125,-0.15380859375,20.863037109375,-166.57470703125
1758179630.1311471,-0.35595703125,0.00146484375,0.9345703125,-0.18310546875,0.244140625,0.18310546875,-0.15380859375,20.8685302734375,-166.57470703125
1758179630.1411512,-0.35595703125,0.00146484375,0.9345703125,-0.18310546875,0.244140625,0.18310546875,-0.15380859375,20.8685302734375,-166.57470703125
1758179630.1511798,-0.35546875,-0.0029296875,0.93408203125,-0.6103515625,0.1220703125,0.3662109375,-0.1593017578125,20.8685302734375,-166.57470703125
1758179630.1611872,-0.35546875,-0.0029296875,0.93408203125,-0.6103515625,0.1220703125,0.3662109375,-0.1593017578125,20.8740234375,-166.5692138671875
1758179630.1711848,-0.357421875,-0.005859375,0.9326171875,-0.48828125,0.06103515625,0.42724609375,-0.164794921875,20.8740234375,-166.5692138671875
1758179630.1836796,-0.357421875,-0.005859375,0.9326171875,-0.48828125,0.06103515625,0.42724609375,-0.164794921875,20.8740234375,-166.563720703125
1758179630.1913915,-0.35693359375,-0.00390625,0.93310546875,0.0,0.0,0.42724609375,-0.164794921875,20.8740234375,-166.563720703125
1758179630.2012455,-0.35693359375,-0.00390625,0.93310546875,0.0,0.0,0.42724609375,-0.164794921875,20.8740234375,-166.5582275390625
1758179630.211994,-0.35693359375,-0.00048828125,0.93115234375,0.0,-0.1220703125,0.54931640625,-0.1593017578125,20.8740234375,-166.5582275390625
1758179630.2213564,-0.35693359375,-0.00048828125,0.93115234375,0.0,-0.1220703125,0.54931640625,-0.1593017578125,20.8740234375,-166.552734375
1758179630.231297,-0.35693359375,0.0,0.93310546875,-0.48828125,-0.244140625,0.732421875,-0.1593017578125,20.8685302734375,-166.5472412109375
1758179630.2433681,-0.35693359375,0.0,0.93310546875,-0.48828125,-0.244140625,0.732421875,-0.164794921875,20.8685302734375,-166.5362548828125
1758179630.251312,-0.35302734375,-0.001953125,0.9375,-0.79345703125,-0.244140625,0.91552734375,-0.164794921875,20.8685302734375,-166.53076171875
1758179630.261341,-0.35302734375,-0.001953125,0.9375,-0.79345703125,-0.244140625,0.91552734375,-0.1702880859375,20.863037109375,-166.519775390625
1758179630.2713351,-0.353515625,-0.00390625,0.93505859375,-0.54931640625,-0.18310546875,1.03759765625,-0.1702880859375,20.863037109375,-166.5142822265625
1758179630.2813516,-0.353515625,-0.00390625,0.93505859375,-0.54931640625,-0.18310546875,1.03759765625,-0.1702880859375,20.863037109375,-166.5032958984375
1758179630.2913573,-0.361328125,-0.0029296875,0.93310546875,-0.244140625,-0.244140625,1.03759765625,-0.1702880859375,20.8575439453125,-166.4923095703125
1758179630.3013778,-0.361328125,-0.0029296875,0.93310546875,-0.244140625,-0.244140625,1.03759765625,-0.1702880859375,20.8575439453125,-166.48681640625
1758179630.311396,-0.36181640625,-0.0009765625,0.93115234375,-0.244140625,-0.18310546875,1.0986328125,-0.164794921875,20.8575439453125,-166.475830078125
1758179630.3214002,-0.36181640625,-0.0009765625,0.93115234375,-0.244140625,-0.18310546875,1.0986328125,-0.164794921875,20.85205078125,-166.46484375
1758179630.3319213,-0.357421875,0.0,0.93505859375,-0.48828125,-0.1220703125,1.15966796875,-0.164794921875,20.85205078125,-166.453857421875
1758179630.3414283,-0.357421875,0.0,0.93505859375,-0.48828125,-0.1220703125,1.15966796875,-0.164794921875,20.85205078125,-166.44287109375
1758179630.3514369,-0.35546875,-0.0009765625,0.93701171875,-0.732421875,0.0,1.15966796875,-0.1702880859375,20.85205078125,-166.431884765625
1758179630.3614323,-0.35546875,-0.0009765625,0.93701171875,-0.732421875,0.0,1.15966796875,-0.1702880859375,20.85205078125,-166.4208984375
1758179630.3714576,-0.3525390625,-0.00146484375,0.935546875,-0.48828125,0.0,1.15966796875,-0.1702880859375,20.85205078125,-166.409912109375
1758179630.3814943,-0.357421875,-0.00146484375,0.93408203125,-0.30517578125,0.06103515625,1.15966796875,-0.1702880859375,20.8575439453125,-166.39892578125
1758179630.3914912,-0.357421875,-0.00146484375,0.93408203125,-0.30517578125,0.06103515625,1.15966796875,-0.164794921875,20.8575439453125,-166.387939453125
1758179630.4015155,-0.357421875,-0.00048828125,0.93359375,-0.3662109375,0.06103515625,1.0986328125,-0.164794921875,20.8575439453125,-166.376953125
1758179630.4115312,-0.357421875,-0.00048828125,0.93359375,-0.3662109375,0.06103515625,1.0986328125,-0.164794921875,20.8575439453125,-166.365966796875
1758179630.4215527,-0.35498046875,-0.0009765625,0.93310546875,-0.6103515625,0.0,1.0986328125,-0.164794921875,20.8575439453125,-166.35498046875
1758179630.4342694,-0.35498046875,-0.0009765625,0.93310546875,-0.6103515625,0.0,1.0986328125,-0.164794921875,20.8575439453125,-166.3494873046875
1758179630.4416163,-0.3564453125,-0.0009765625,0.93505859375,-0.48828125,0.0,0.9765625,-0.164794921875,20.8575439453125,-166.3385009765625
1758179630.4515631,-0.3564453125,-0.0009765625,0.93505859375,-0.48828125,0.0,0.9765625,-0.1702880859375,20.8575439453125,-166.3275146484375
1758179630.461641,-0.35791015625,-0.0009765625,0.93359375,-0.1220703125,0.0,0.732421875,-0.164794921875,20.8575439453125,-166.322021484375
1758179630.4716568,-0.35791015625,-0.0009765625,0.93359375,-0.1220703125,0.0,0.732421875,-0.164794921875,20.8575439453125,-166.3165283203125
1758179630.4816756,-0.3564453125,0.00146484375,0.9345703125,0.06103515625,0.0,0.48828125,-0.164794921875,20.8575439453125,-166.31103515625
1758179630.4916565,-0.3564453125,0.00146484375,0.9345703125,0.06103515625,0.0,0.48828125,-0.1593017578125,20.8575439453125,-166.3055419921875
1758179630.5017292,-0.3544921875,0.00390625,0.9365234375,0.0,0.06103515625,0.244140625,-0.1593017578125,20.8575439453125,-166.3055419921875
1758179630.5116575,-0.3544921875,0.00390625,0.9365234375,0.0,0.06103515625,0.244140625,-0.15380859375,20.863037109375,-166.3055419921875
1758179630.5216994,-0.353515625,0.001953125,0.93603515625,-0.1220703125,0.1220703125,0.1220703125,-0.15380859375,20.863037109375,-166.3055419921875
1758179630.5318096,-0.353515625,0.001953125,0.93603515625,-0.1220703125,0.1220703125,0.1220703125,-0.15380859375,20.863037109375,-166.3055419921875
1758179630.541836,-0.35791015625,-0.001953125,0.93359375,-0.18310546875,0.18310546875,0.1220703125,-0.15380859375,20.863037109375,-166.300048828125
1758179630.5517683,-0.35791015625,-0.001953125,0.93359375,-0.18310546875,0.18310546875,0.1220703125,-0.15380859375,20.8685302734375,-166.300048828125
1758179630.561993,-0.359375,-0.00439453125,0.93310546875,-0.06103515625,0.244140625,0.06103515625,-0.15380859375,20.8685302734375,-166.3055419921875
1758179630.5718946,-0.359375,-0.00439453125,0.93310546875,-0.06103515625,0.244140625,0.06103515625,-0.15380859375,20.8685302734375,-166.3055419921875
1758179630.5819747,-0.35791015625,-0.00244140625,0.93310546875,0.3662109375,0.30517578125,0.0,-0.15380859375,20.8740234375,-166.3055419921875
1758179630.5918932,-0.35791015625,-0.00244140625,0.93310546875,0.3662109375,0.30517578125,0.0,-0.1483154296875,20.8795166015625,-166.3055419921875
1758179630.6018105,-0.35595703125,0.00146484375,0.935546875,0.3662109375,0.3662109375,-0.06103515625,-0.142822265625,20.8795166015625,-166.3055419921875
1758179630.6118526,-0.35595703125,0.00146484375,0.935546875,0.3662109375,0.3662109375,-0.06103515625,-0.1373291015625,20.885009765625,-166.31103515625
1758179630.6222882,-0.35400390625,0.00341796875,0.93798828125,0.06103515625,0.48828125,-0.18310546875,-0.1373291015625,20.8905029296875,-166.31103515625
1758179630.6328533,-0.35400390625,0.00341796875,0.93798828125,0.06103515625,0.48828125,-0.18310546875,-0.1373291015625,20.8905029296875,-166.3165283203125
1758179630.6423297,-0.357421875,0.0,0.9345703125,0.0,0.54931640625,-0.30517578125,-0.1373291015625,20.89599609375,-166.322021484375
1758179630.6519332,-0.357421875,0.0,0.9345703125,0.0,0.54931640625,-0.30517578125,-0.1373291015625,20.9014892578125,-166.3275146484375
1758179630.662223,-0.35986328125,-0.001953125,0.931640625,0.06103515625,0.6103515625,-0.42724609375,-0.1373291015625,20.906982421875,-166.3330078125
1758179630.6719317,-0.35986328125,-0.001953125,0.931640625,0.06103515625,0.6103515625,-0.42724609375,-0.1373291015625,20.9124755859375,-166.3385009765625
1758179630.6819239,-0.35986328125,0.0,0.9326171875,0.42724609375,0.6103515625,-0.67138671875,-0.1373291015625,20.9234619140625,-166.343994140625
1758179630.692015,-0.35986328125,0.0,0.9326171875,0.42724609375,0.6103515625,-0.67138671875,-0.1318359375,20.928955078125,-166.35498046875
1758179630.7021194,-0.3583984375,0.00244140625,0.93359375,0.42724609375,0.67138671875,-0.8544921875,-0.1318359375,20.9344482421875,-166.3604736328125
1758179630.7119594,-0.3583984375,0.00244140625,0.93359375,0.42724609375,0.67138671875,-0.8544921875,-0.1263427734375,20.93994140625,-166.3714599609375
1758179630.7220163,-0.35888671875,0.0029296875,0.93603515625,0.3662109375,0.732421875,-1.03759765625,-0.1263427734375,20.9454345703125,-166.3824462890625
1758179630.7326381,-0.35888671875,0.0029296875,0.93603515625,0.3662109375,0.732421875,-1.03759765625,-0.1263427734375,20.9564208984375,-166.3934326171875
1758179630.741989,-0.35693359375,0.00146484375,0.93408203125,0.6103515625,0.79345703125,-1.220703125,-0.1263427734375,20.9619140625,-166.409912109375
1758179630.7520542,-0.35693359375,0.00146484375,0.93408203125,0.6103515625,0.79345703125,-1.220703125,-0.120849609375,20.972900390625,-166.4208984375
1758179630.7624772,-0.35546875,-0.00048828125,0.93115234375,0.48828125,0.54931640625,-1.220703125,-0.120849609375,20.9783935546875,-166.4373779296875
1758179630.7720573,-0.35546875,-0.00048828125,0.93115234375,0.48828125,0.54931640625,-1.220703125,-0.120849609375,20.98388671875,-166.453857421875
1758179630.7821343,-0.361328125,-0.001953125,0.931640625,0.1220703125,0.3662109375,-1.03759765625,-0.120849609375,20.98388671875,-166.46484375
1758179630.7925136,-0.361328125,-0.001953125,0.931640625,0.1220703125,0.3662109375,-1.03759765625,-0.120849609375,20.9893798828125,-166.475830078125
1758179630.8021064,-0.36328125,-0.00341796875,0.931640625,0.1220703125,0.3662109375,-0.8544921875,-0.1263427734375,20.994873046875,-166.48681640625
1758179630.8120892,-0.36328125,-0.00341796875,0.931640625,0.1220703125,0.3662109375,-0.8544921875,-0.1263427734375,20.994873046875,-166.497802734375
1758179630.8222294,-0.359375,-0.0048828125,0.93310546875,0.30517578125,0.30517578125,-0.67138671875,-0.1263427734375,21.0003662109375,-166.5032958984375
1758179630.8320856,-0.359375,-0.0048828125,0.93310546875,0.30517578125,0.30517578125,-0.67138671875,-0.1263427734375,21.005859375,-166.5142822265625
1758179630.84215,-0.357421875,-0.00341796875,0.93408203125,0.3662109375,0.18310546875,-0.42724609375,-0.120849609375,21.005859375,-166.519775390625
1758179630.8523257,-0.357421875,-0.00341796875,0.93408203125,0.3662109375,0.18310546875,-0.42724609375,-0.120849609375,21.0113525390625,-166.5252685546875
1758179630.8622124,-0.35888671875,-0.00048828125,0.931640625,0.18310546875,0.06103515625,-0.244140625,-0.120849609375,21.0113525390625,-166.53076171875
1758179630.8727846,-0.35888671875,-0.00048828125,0.931640625,0.18310546875,0.06103515625,-0.244140625,-0.120849609375,21.0113525390625,-166.5362548828125
1758179630.8823152,-0.35693359375,-0.00048828125,0.9296875,-0.1220703125,-0.18310546875,-0.06103515625,-0.120849609375,21.0113525390625,-166.5362548828125
1758179630.8923006,-0.35693359375,-0.00048828125,0.9296875,-0.1220703125,-0.18310546875,-0.06103515625,-0.120849609375,21.0113525390625,-166.5362548828125
1758179630.9022362,-0.3583984375,0.0,0.93505859375,-0.42724609375,-0.244140625,0.0,-0.120849609375,21.005859375,-166.541748046875
1758179630.9122064,-0.3583984375,0.0,0.93505859375,-0.42724609375,-0.244140625,0.0,-0.1263427734375,21.005859375,-166.541748046875
1758179630.922282,-0.3583984375,0.0,0.93505859375,-0.30517578125,-0.30517578125,0.1220703125,-0.1318359375,21.0003662109375,-166.541748046875
1758179630.9326246,-0.357421875,-0.00244140625,0.93310546875,-0.30517578125,-0.30517578125,0.1220703125,-0.1318359375,21.0003662109375,-166.541748046875
1758179630.942309,-0.35791015625,-0.00341796875,0.93310546875,0.0,-0.30517578125,0.1220703125,-0.1318359375,20.994873046875,-166.541748046875
1758179630.9522529,-0.35791015625,-0.00341796875,0.93310546875,0.0,-0.30517578125,0.1220703125,-0.1318359375,20.994873046875,-166.541748046875
1758179630.9622886,-0.359375,-0.0009765625,0.931640625,0.06103515625,-0.48828125,0.1220703125,-0.1318359375,20.9893798828125,-166.541748046875
1758179630.9723477,-0.359375,-0.0009765625,0.931640625,0.06103515625,-0.48828125,0.1220703125,-0.1318359375,20.98388671875,-166.541748046875
1758179630.982324,-0.36328125,0.0009765625,0.93115234375,0.0,-0.54931640625,0.1220703125,-0.1263427734375,20.9783935546875,-166.541748046875
1758179630.9923723,-0.36328125,0.0009765625,0.93115234375,0.0,-0.54931640625,0.1220703125,-0.1263427734375,20.972900390625,-166.541748046875
1758179631.0023713,-0.36376953125,0.0009765625,0.93017578125,-0.3662109375,-0.54931640625,0.1220703125,-0.1263427734375,20.9674072265625,-166.541748046875
1758179631.0125809,-0.36376953125,0.0009765625,0.93017578125,-0.3662109375,-0.54931640625,0.1220703125,-0.1318359375,20.9674072265625,-166.541748046875
1758179631.0223875,-0.3583984375,-0.00048828125,0.93505859375,-0.42724609375,-0.48828125,0.1220703125,-0.1318359375,20.9619140625,-166.541748046875
1758179631.0327399,-0.3583984375,-0.00048828125,0.93505859375,-0.42724609375,-0.48828125,0.1220703125,-0.1373291015625,20.9564208984375,-166.541748046875
1758179631.042453,-0.35205078125,-0.0009765625,0.93603515625,-0.18310546875,-0.42724609375,0.1220703125,-0.1373291015625,20.950927734375,-166.5362548828125
1758179631.0524857,-0.35205078125,-0.0009765625,0.93603515625,-0.18310546875,-0.42724609375,0.1220703125,-0.1373291015625,20.950927734375,-166.5362548828125
1758179631.0624332,-0.35302734375,-0.00146484375,0.93603515625,-0.1220703125,-0.42724609375,0.06103515625,-0.142822265625,20.9454345703125,-166.5362548828125
1758179631.072469,-0.35302734375,-0.00146484375,0.93603515625,-0.1220703125,-0.42724609375,0.06103515625,-0.142822265625,20.93994140625,-166.5362548828125
1758179631.0824525,-0.35791015625,-0.00146484375,0.935546875,-0.1220703125,-0.244140625,0.06103515625,-0.142822265625,20.93994140625,-166.5362548828125
1758179631.0927086,-0.35791015625,-0.00146484375,0.935546875,-0.1220703125,-0.244140625,0.06103515625,-0.142822265625,20.9344482421875,-166.541748046875
1758179631.1026013,-0.3583984375,-0.00048828125,0.9345703125,-0.06103515625,-0.06103515625,0.1220703125,-0.142822265625,20.9344482421875,-166.541748046875
1758179631.1125133,-0.3583984375,-0.00048828125,0.9345703125,-0.06103515625,-0.06103515625,0.1220703125,-0.142822265625,20.9344482421875,-166.5362548828125
1758179631.1225202,-0.35595703125,-0.0009765625,0.93603515625,0.0,0.06103515625,0.06103515625,-0.142822265625,20.9344482421875,-166.5362548828125
1758179631.1328835,-0.35595703125,-0.0009765625,0.93603515625,0.0,0.06103515625,0.06103515625,-0.142822265625,20.9344482421875,-166.541748046875
1758179631.143194,-0.35986328125,0.0,0.93408203125,0.1220703125,0.18310546875,0.0,-0.1373291015625,20.9344482421875,-166.541748046875
1758179631.1525054,-0.35986328125,0.0,0.93408203125,0.1220703125,0.18310546875,0.0,-0.1373291015625,20.9344482421875,-166.541748046875
1758179631.1625214,-0.36474609375,0.0009765625,0.93017578125,0.0,0.244140625,-0.06103515625,-0.1373291015625,20.93994140625,-166.541748046875
1758179631.1726341,-0.36474609375,0.0009765625,0.93017578125,0.0,0.244140625,-0.06103515625,-0.1373291015625,20.93994140625,-166.5472412109375
1758179631.1825848,-0.3642578125,0.00244140625,0.92919921875,-0.244140625,0.244140625,-0.1220703125,-0.1373291015625,20.9454345703125,-166.5472412109375
1758179631.1926098,-0.3642578125,0.00244140625,0.92919921875,-0.244140625,0.244140625,-0.1220703125,-0.1373291015625,20.950927734375,-166.552734375
1758179631.2026424,-0.35205078125,0.001953125,0.93798828125,-1.3427734375,0.30517578125,0.0,-0.1483154296875,20.950927734375,-166.552734375
1758179631.2126057,-0.35205078125,0.001953125,0.93798828125,-1.3427734375,0.30517578125,0.0,-0.1593017578125,20.9564208984375,-166.552734375
1758179631.222664,-0.34619140625,-0.0029296875,0.943359375,-1.46484375,0.42724609375,0.0,-0.1702880859375,20.9619140625,-166.552734375
1758179631.2333727,-0.34619140625,-0.0029296875,0.943359375,-1.46484375,0.42724609375,0.0,-0.186767578125,20.9619140625,-166.552734375
1758179631.2433853,-0.3564453125,-0.0078125,0.93115234375,0.0,0.42724609375,0.0,-0.1922607421875,20.9674072265625,-166.552734375
1758179631.252664,-0.3564453125,-0.0078125,0.93115234375,0.0,0.42724609375,0.0,-0.1922607421875,20.972900390625,-166.5582275390625
1758179631.2626638,-0.3681640625,-0.00390625,0.92724609375,0.79345703125,0.244140625,-0.18310546875,-0.186767578125,20.972900390625,-166.5582275390625
1758179631.2753477,-0.3681640625,-0.00390625,0.92724609375,0.79345703125,0.244140625,-0.18310546875,-0.17578125,20.9783935546875,-166.5582275390625
1758179631.283381,-0.36669921875,0.00048828125,0.92724609375,0.732421875,0.1220703125,-0.1220703125,-0.1702880859375,20.9783935546875,-166.563720703125
1758179631.2932093,-0.36669921875,0.00048828125,0.92724609375,0.732421875,0.1220703125,-0.1220703125,-0.164794921875,20.9783935546875,-166.563720703125
1758179631.3047996,-0.35888671875,0.00146484375,0.92919921875,0.06103515625,-0.06103515625,0.0,-0.1593017578125,20.9783935546875,-166.563720703125
1758179631.3131669,-0.35888671875,0.00146484375,0.92919921875,0.06103515625,-0.06103515625,0.0,-0.1593017578125,20.9783935546875,-166.563720703125
1758179631.3232796,-0.3544921875,-0.0009765625,0.939453125,-0.54931640625,-0.06103515625,0.18310546875,-0.1593017578125,20.9783935546875,-166.563720703125
1758179631.333395,-0.3544921875,-0.0009765625,0.939453125,-0.54931640625,-0.06103515625,0.18310546875,-0.164794921875,20.9783935546875,-166.563720703125
1758179631.3433425,-0.349609375,-0.0048828125,0.93701171875,-0.48828125,0.0,0.48828125,-0.164794921875,20.9783935546875,-166.5582275390625
1758179631.352882,-0.349609375,-0.0048828125,0.93701171875,-0.48828125,0.0,0.48828125,-0.1702880859375,20.9783935546875,-166.5582275390625
1758179631.363209,-0.35400390625,-0.00732421875,0.935546875,-0.244140625,0.0,0.6103515625,-0.1702880859375,20.9783935546875,-166.552734375
1758179631.3733916,-0.35400390625,-0.00732421875,0.935546875,-0.244140625,0.0,0.6103515625,-0.1702880859375,20.9783935546875,-166.5472412109375
1758179631.3829129,-0.359375,-0.00341796875,0.93359375,0.244140625,0.0,0.67138671875,-0.164794921875,20.9783935546875,-166.541748046875
1758179631.392924,-0.359375,-0.00341796875,0.93359375,0.244140625,0.0,0.67138671875,-0.1593017578125,20.9783935546875,-166.5362548828125
1758179631.4033043,-0.35986328125,0.0,0.93212890625,0.244140625,0.0,0.67138671875,-0.15380859375,20.9783935546875,-166.53076171875
1758179631.41288,-0.35986328125,0.0,0.93212890625,0.244140625,0.0,0.67138671875,-0.1483154296875,20.9783935546875,-166.519775390625
1758179631.4232075,-0.357421875,0.00244140625,0.93310546875,-0.3662109375,0.06103515625,0.79345703125,-0.15380859375,20.9783935546875,-166.5142822265625
1758179631.4331825,-0.357421875,0.00244140625,0.93310546875,-0.3662109375,0.06103515625,0.79345703125,-0.15380859375,20.9783935546875,-166.5087890625
1758179631.443017,-0.34912109375,0.0009765625,0.93798828125,-1.220703125,0.1220703125,0.8544921875,-0.1593017578125,20.9783935546875,-166.497802734375
1758179631.4530258,-0.34912109375,0.0009765625,0.93798828125,-1.220703125,0.1220703125,0.8544921875,-0.1702880859375,20.98388671875,-166.48681640625
1758179631.4630654,-0.3525390625,-0.00244140625,0.9404296875,-1.15966796875,0.3662109375,0.9765625,-0.17578125,20.98388671875,-166.4813232421875
1758179631.4734554,-0.3525390625,-0.00244140625,0.9404296875,-1.15966796875,0.3662109375,0.9765625,-0.1812744140625,20.9893798828125,-166.4703369140625
1758179631.4831848,-0.35400390625,-0.00537109375,0.93505859375,-0.79345703125,0.6103515625,0.9765625,-0.186767578125,20.9893798828125,-166.4593505859375
1758179631.4931896,-0.35400390625,-0.00537109375,0.93505859375,-0.79345703125,0.6103515625,0.9765625,-0.1922607421875,20.994873046875,-166.453857421875
1758179631.5034235,-0.35107421875,-0.00341796875,0.93505859375,-0.30517578125,0.79345703125,0.9765625,-0.186767578125,21.005859375,-166.44287109375
1758179631.513011,-0.35107421875,-0.00341796875,0.93505859375,-0.30517578125,0.79345703125,0.9765625,-0.186767578125,21.0113525390625,-166.431884765625
1758179631.5232615,-0.345703125,-0.0009765625,0.93896484375,-0.6103515625,0.91552734375,1.0986328125,-0.186767578125,21.016845703125,-166.4263916015625
1758179631.5357432,-0.345703125,-0.0009765625,0.93896484375,-0.6103515625,0.91552734375,1.0986328125,-0.1922607421875,21.0223388671875,-166.4154052734375
1758179631.544013,-0.33251953125,0.00390625,0.943359375,-1.64794921875,0.9765625,1.220703125,-0.2032470703125,21.0333251953125,-166.4044189453125
1758179631.553695,-0.33251953125,0.00390625,0.943359375,-1.64794921875,0.9765625,1.220703125,-0.2142333984375,21.038818359375,-166.3934326171875
1758179631.5635898,-0.3271484375,0.0,0.94873046875,-1.3427734375,1.03759765625,1.15966796875,-0.2197265625,21.0443115234375,-166.3824462890625
1758179631.5737488,-0.3271484375,0.0,0.94873046875,-1.3427734375,1.03759765625,1.15966796875,-0.230712890625,21.0498046875,-166.376953125
1758179631.583471,-0.3251953125,-0.00341796875,0.9404296875,-0.79345703125,0.8544921875,0.8544921875,-0.230712890625,21.0498046875,-166.3714599609375
1758179631.593288,-0.3251953125,-0.00341796875,0.9404296875,-0.79345703125,0.8544921875,0.8544921875,-0.2362060546875,21.0552978515625,-166.365966796875
1758179631.6036913,-0.33642578125,-0.00146484375,0.9453125,-0.3662109375,0.67138671875,0.67138671875,-0.2362060546875,21.0552978515625,-166.365966796875
1758179631.6131873,-0.33642578125,-0.00146484375,0.9453125,-0.3662109375,0.67138671875,0.67138671875,-0.2362060546875,21.0552978515625,-166.3604736328125
1758179631.623533,-0.3447265625,0.0,0.9345703125,-0.18310546875,0.54931640625,0.48828125,-0.2362060546875,21.0498046875,-166.3604736328125
1758179631.6335504,-0.3447265625,0.0,0.9345703125,-0.18310546875,0.54931640625,0.48828125,-0.2362060546875,21.0498046875,-166.3604736328125
1758179631.643545,-0.34423828125,0.00244140625,0.939453125,-0.6103515625,0.42724609375,0.48828125,-0.2362060546875,21.0498046875,-166.3604736328125
1758179631.6532001,-0.34423828125,0.00244140625,0.939453125,-0.6103515625,0.42724609375,0.48828125,-0.24169921875,21.0443115234375,-166.35498046875
1758179631.6634948,-0.33984375,0.0,0.9404296875,-1.0986328125,0.30517578125,0.54931640625,-0.2471923828125,21.0443115234375,-166.35498046875
1758179631.6737952,-0.33984375,0.0,0.9404296875,-1.0986328125,0.30517578125,0.54931640625,-0.252685546875,21.038818359375,-166.35498046875
1758179631.6835158,-0.33203125,-0.005859375,0.93798828125,-1.03759765625,0.06103515625,0.67138671875,-0.263671875,21.0333251953125,-166.3494873046875
1758179631.6932707,-0.33203125,-0.005859375,0.93798828125,-1.03759765625,0.06103515625,0.67138671875,-0.2691650390625,21.02783203125,-166.343994140625
1758179631.7037973,-0.3359375,-0.00927734375,0.94140625,-1.3427734375,0.0,0.91552734375,-0.2801513671875,21.0223388671875,-166.3385009765625
1758179631.7133493,-0.3359375,-0.00927734375,0.94140625,-1.3427734375,0.0,0.91552734375,-0.28564453125,21.0113525390625,-166.3385009765625
1758179631.7236104,-0.34375,-0.01025390625,0.9423828125,-1.28173828125,0.0,0.9765625,-0.296630859375,21.005859375,-166.3330078125
1758179631.7339325,-0.34375,-0.01025390625,0.9423828125,-1.28173828125,0.0,0.9765625,-0.3021240234375,21.0003662109375,-166.3275146484375
1758179631.7436063,-0.34228515625,-0.0068359375,0.93701171875,-0.79345703125,0.0,0.9765625,-0.3076171875,20.994873046875,-166.322021484375
1758179631.7533836,-0.34228515625,-0.0068359375,0.93701171875,-0.79345703125,0.0,0.9765625,-0.3131103515625,20.9893798828125,-166.3165283203125
1758179631.7635672,-0.337890625,0.01123046875,0.9296875,0.3662109375,0.0,1.15966796875,-0.3021240234375,20.9783935546875,-166.3055419921875
1758179631.7739773,-0.337890625,0.01123046875,0.9296875,0.3662109375,0.0,1.15966796875,-0.296630859375,20.972900390625,-166.300048828125
1758179631.7835212,-0.34326171875,-0.0009765625,0.953125,0.8544921875,-0.1220703125,0.8544921875,-0.2801513671875,20.9674072265625,-166.2945556640625
1758179631.7934985,-0.34326171875,-0.0009765625,0.953125,0.8544921875,-0.1220703125,0.8544921875,-0.2691650390625,20.9564208984375,-166.2890625
1758179631.8038533,-0.33642578125,0.0,0.9404296875,-1.46484375,0.0,0.8544921875,-0.2801513671875,20.950927734375,-166.2835693359375
1758179631.8134441,-0.33642578125,0.0,0.9404296875,-1.46484375,0.0,0.8544921875,-0.2911376953125,20.9454345703125,-166.278076171875
1758179631.8235784,-0.337890625,-0.0029296875,0.9345703125,-0.67138671875,0.0,0.732421875,-0.2911376953125,20.93994140625,-166.2725830078125
1758179631.8340473,-0.337890625,-0.0029296875,0.9345703125,-0.67138671875,0.0,0.732421875,-0.296630859375,20.9344482421875,-166.26708984375
1758179631.8436058,-0.34521484375,-0.0068359375,0.943359375,-0.30517578125,0.06103515625,0.6103515625,-0.296630859375,20.928955078125,-166.26708984375
1758179631.853536,-0.34521484375,-0.0068359375,0.943359375,-0.30517578125,0.06103515625,0.6103515625,-0.296630859375,20.9234619140625,-166.2615966796875
1758179631.8635225,-0.3466796875,-0.0107421875,0.92822265625,-0.48828125,0.0,0.54931640625,-0.296630859375,20.91796875,-166.2615966796875
1758179631.8741903,-0.3466796875,-0.0107421875,0.92822265625,-0.48828125,0.0,0.54931640625,-0.296630859375,20.9124755859375,-166.2615966796875
1758179631.883523,-0.35205078125,-0.00048828125,0.9384765625,-0.732421875,0.0,0.48828125,-0.3021240234375,20.906982421875,-166.256103515625
1758179631.8936067,-0.35205078125,-0.00048828125,0.9384765625,-0.732421875,0.0,0.48828125,-0.3076171875,20.9014892578125,-166.256103515625
1758179631.903951,-0.35302734375,0.00048828125,0.9345703125,-1.64794921875,0.0,0.48828125,-0.3240966796875,20.89599609375,-166.2506103515625
1758179631.9136224,-0.35302734375,0.00048828125,0.9345703125,-1.64794921875,0.0,0.48828125,-0.3350830078125,20.8905029296875,-166.2506103515625
1758179631.9236424,-0.35400390625,0.0009765625,0.93017578125,-1.89208984375,-0.1220703125,0.3662109375,-0.3515625,20.885009765625,-166.2451171875
1758179631.9339871,-0.35400390625,0.0009765625,0.93017578125,-1.89208984375,-0.1220703125,0.3662109375,-0.3680419921875,20.885009765625,-166.2451171875
1758179631.9436872,-0.35888671875,-0.00146484375,0.939453125,-1.52587890625,0.0,0.30517578125,-0.3790283203125,20.8795166015625,-166.2396240234375
1758179631.9536982,-0.35888671875,-0.00146484375,0.939453125,-1.52587890625,0.0,0.30517578125,-0.3955078125,20.8795166015625,-166.2396240234375
1758179631.963616,-0.36279296875,-0.00341796875,0.92822265625,-2.5634765625,-0.06103515625,0.48828125,-0.41748046875,20.8740234375,-166.234130859375
1758179631.9748957,-0.36279296875,-0.00341796875,0.92822265625,-2.5634765625,-0.06103515625,0.48828125,-0.439453125,20.8740234375,-166.2286376953125
1758179631.9836776,-0.36474609375,-0.00390625,0.92822265625,-3.41796875,-0.18310546875,0.732421875,-0.4669189453125,20.8685302734375,-166.22314453125
1758179631.9939969,-0.36474609375,-0.00390625,0.92822265625,-3.41796875,-0.18310546875,0.732421875,-0.494384765625,20.8685302734375,-166.212158203125
1758179632.003954,-0.3701171875,-0.01171875,0.9345703125,-3.60107421875,-0.1220703125,0.6103515625,-0.52734375,20.863037109375,-166.2066650390625
1758179632.0137253,-0.3701171875,-0.01171875,0.9345703125,-3.60107421875,-0.1220703125,0.6103515625,-0.560302734375,20.863037109375,-166.201171875
1758179632.0237417,-0.3671875,-0.0009765625,0.92578125,-3.173828125,-0.06103515625,0.67138671875,-0.5877685546875,20.863037109375,-166.1956787109375
1758179632.0339353,-0.3671875,-0.0009765625,0.92578125,-3.173828125,-0.06103515625,0.67138671875,-0.615234375,20.863037109375,-166.1846923828125
1758179632.0443032,-0.37353515625,-0.01171875,0.92822265625,-2.13623046875,-0.18310546875,0.67138671875,-0.6317138671875,20.863037109375,-166.17919921875
1758179632.0537455,-0.37353515625,-0.01171875,0.92822265625,-2.13623046875,-0.18310546875,0.67138671875,-0.648193359375,20.863037109375,-166.168212890625
1758179632.0641487,-0.375,-0.01025390625,0.93115234375,-4.150390625,0.0,0.732421875,-0.68115234375,20.8685302734375,-166.1572265625
1758179632.0749185,-0.375,-0.01025390625,0.93115234375,-4.150390625,0.0,0.732421875,-0.7196044921875,20.8685302734375,-166.1517333984375
1758179632.083731,-0.373046875,0.001953125,0.9140625,-3.41796875,0.1220703125,1.03759765625,-0.7470703125,20.8740234375,-166.13525390625
1758179632.0941956,-0.373046875,0.001953125,0.9140625,-3.41796875,0.1220703125,1.03759765625,-0.7745361328125,20.8795166015625,-166.124267578125
1758179632.1041718,-0.3759765625,-0.0126953125,0.93603515625,-2.9296875,0.0,0.91552734375,-0.7965087890625,20.885009765625,-166.11328125
1758179632.1139507,-0.3759765625,-0.0126953125,0.93603515625,-2.9296875,0.0,0.91552734375,-0.823974609375,20.8905029296875,-166.0968017578125
1758179632.1239836,-0.37841796875,-0.01123046875,0.92529296875,-5.31005859375,0.1220703125,0.9765625,-0.867919921875,20.89599609375,-166.0858154296875
1758179632.1369038,-0.37841796875,-0.01123046875,0.92529296875,-5.31005859375,0.1220703125,0.9765625,-0.9173583984375,20.9014892578125,-166.0693359375
1758179632.1456542,-0.3798828125,-0.01611328125,0.92138671875,-4.2724609375,0.06103515625,1.03759765625,-0.9503173828125,20.906982421875,-166.058349609375
1758179632.1539402,-0.3798828125,-0.01611328125,0.92138671875,-4.2724609375,0.06103515625,1.03759765625,-0.98876953125,20.9124755859375,-166.0418701171875
1758179632.1641896,-0.38623046875,-0.015625,0.92919921875,-3.35693359375,0.244140625,0.9765625,-1.0162353515625,20.91796875,-166.025390625
1758179632.1753721,-0.38623046875,-0.015625,0.92919921875,-3.35693359375,0.244140625,0.9765625,-1.043701171875,20.928955078125,-166.014404296875
1758179632.1839557,-0.37548828125,-0.0166015625,0.92431640625,-3.7841796875,0.244140625,1.03759765625,-1.0711669921875,20.93994140625,-165.9979248046875
1758179632.1942306,-0.37548828125,-0.0166015625,0.92431640625,-3.7841796875,0.244140625,1.03759765625,-1.1041259765625,20.9454345703125,-165.9869384765625
1758179632.2042336,-0.37646484375,-0.015625,0.9228515625,-3.72314453125,0.244140625,1.03759765625,-1.1370849609375,20.9564208984375,-165.970458984375
1758179632.2146363,-0.37646484375,-0.015625,0.9228515625,-3.72314453125,0.244140625,1.03759765625,-1.16455078125,20.9674072265625,-165.9539794921875
1758179632.2242272,-0.36767578125,-0.01806640625,0.93212890625,-3.23486328125,0.30517578125,0.91552734375,-1.1920166015625,20.972900390625,-165.9429931640625
1758179632.2342398,-0.36767578125,-0.01806640625,0.93212890625,-3.23486328125,0.30517578125,0.91552734375,-1.219482421875,20.98388671875,-165.9320068359375
1758179632.244839,-0.3681640625,-0.01904296875,0.93408203125,-3.0517578125,0.54931640625,0.79345703125,-1.241455078125,20.994873046875,-165.9210205078125
1758179632.2540333,-0.3681640625,-0.01904296875,0.93408203125,-3.0517578125,0.54931640625,0.79345703125,-1.2689208984375,21.005859375,-165.9100341796875
1758179632.2641563,-0.36474609375,-0.0224609375,0.92919921875,-2.5634765625,0.6103515625,0.67138671875,-1.2908935546875,21.016845703125,-165.8990478515625
1758179632.275356,-0.36474609375,-0.0224609375,0.92919921875,-2.5634765625,0.6103515625,0.67138671875,-1.3128662109375,21.02783203125,-165.8880615234375
1758179632.2841675,-0.3642578125,-0.0205078125,0.93408203125,-2.5634765625,0.732421875,0.6103515625,-1.3348388671875,21.038818359375,-165.882568359375
1758179632.2946262,-0.3642578125,-0.0205078125,0.93408203125,-2.5634765625,0.732421875,0.6103515625,-1.351318359375,21.0498046875,-165.87158203125
1758179632.3045516,-0.35888671875,-0.02294921875,0.9326171875,-2.44140625,0.9765625,0.732421875,-1.373291015625,21.0662841796875,-165.860595703125
1758179632.31416,-0.35888671875,-0.02294921875,0.9326171875,-2.44140625,0.9765625,0.732421875,-1.395263671875,21.0772705078125,-165.8551025390625
1758179632.3246725,-0.35400390625,-0.02001953125,0.93017578125,-1.64794921875,0.91552734375,0.79345703125,-1.40625,21.0882568359375,-165.8441162109375
1758179632.3342373,-0.35400390625,-0.02001953125,0.93017578125,-1.64794921875,0.91552734375,0.79345703125,-1.417236328125,21.0992431640625,-165.8331298828125
1758179632.3451,-0.3603515625,-0.02880859375,0.93994140625,-2.38037109375,0.91552734375,0.79345703125,-1.4337158203125,21.1102294921875,-165.82763671875
1758179632.3541384,-0.3603515625,-0.02880859375,0.93994140625,-2.38037109375,0.91552734375,0.79345703125,-1.4556884765625,21.1212158203125,-165.816650390625
1758179632.3646562,-0.359375,-0.029296875,0.93017578125,-2.25830078125,0.91552734375,0.67138671875,-1.47216796875,21.1322021484375,-165.8111572265625
1758179632.375374,-0.359375,-0.029296875,0.93017578125,-2.25830078125,0.91552734375,0.67138671875,-1.494140625,21.1431884765625,-165.8056640625
1758179632.3846717,-0.359375,-0.03076171875,0.9267578125,-0.48828125,0.732421875,0.54931640625,-1.494140625,21.148681640625,-165.8001708984375
1758179632.3945496,-0.3564453125,-0.02294921875,0.9296875,0.244140625,0.732421875,0.54931640625,-1.494140625,21.15966796875,-165.794677734375
1758179632.405312,-0.3564453125,-0.02294921875,0.9296875,0.244140625,0.732421875,0.54931640625,-1.4886474609375,21.1651611328125,-165.7891845703125
1758179632.414275,-0.36328125,-0.0234375,0.9326171875,0.91552734375,0.6103515625,0.3662109375,-1.483154296875,21.1761474609375,-165.78369140625
1758179632.424238,-0.36328125,-0.0234375,0.9326171875,0.91552734375,0.6103515625,0.3662109375,-1.47216796875,21.181640625,-165.78369140625
1758179632.4346159,-0.35693359375,-0.01953125,0.9345703125,0.0,0.6103515625,0.30517578125,-1.4666748046875,21.1871337890625,-165.7781982421875
1758179632.4447346,-0.35693359375,-0.01953125,0.9345703125,0.0,0.6103515625,0.30517578125,-1.461181640625,21.192626953125,-165.7781982421875
1758179632.4543693,-0.35791015625,-0.0224609375,0.9306640625,0.54931640625,0.54931640625,0.30517578125,-1.461181640625,21.1981201171875,-165.772705078125
1758179632.4645054,-0.35791015625,-0.0224609375,0.9306640625,0.54931640625,0.54931640625,0.30517578125,-1.4501953125,21.20361328125,-165.772705078125
1758179632.4748402,-0.35791015625,-0.02880859375,0.9326171875,1.220703125,0.42724609375,0.1220703125,-1.439208984375,21.2091064453125,-165.7672119140625
1758179632.4842653,-0.35791015625,-0.02880859375,0.9326171875,1.220703125,0.42724609375,0.1220703125,-1.42822265625,21.214599609375,-165.7672119140625
1758179632.494479,-0.359375,-0.0302734375,0.92919921875,2.3193359375,0.244140625,0.0,-1.4117431640625,21.214599609375,-165.7672119140625
1758179632.5044472,-0.359375,-0.0302734375,0.92919921875,2.3193359375,0.244140625,0.0,-1.3897705078125,21.2200927734375,-165.772705078125
1758179632.5144165,-0.35791015625,-0.0263671875,0.931640625,3.35693359375,0.1220703125,-0.1220703125,-1.3623046875,21.2200927734375,-165.772705078125
1758179632.5245662,-0.35791015625,-0.0263671875,0.931640625,3.35693359375,0.1220703125,-0.1220703125,-1.329345703125,21.2200927734375,-165.772705078125
1758179632.534418,-0.35693359375,-0.0205078125,0.9326171875,3.60107421875,0.06103515625,-0.18310546875,-1.29638671875,21.2200927734375,-165.7781982421875
1758179632.5448012,-0.35693359375,-0.0205078125,0.9326171875,3.60107421875,0.06103515625,-0.18310546875,-1.263427734375,21.2200927734375,-165.78369140625
1758179632.5544293,-0.35205078125,-0.01708984375,0.93212890625,3.84521484375,0.0,-0.244140625,-1.23046875,21.2200927734375,-165.78369140625
1758179632.5643523,-0.35205078125,-0.01708984375,0.93212890625,3.84521484375,0.0,-0.244140625,-1.1920166015625,21.214599609375,-165.7891845703125
1758179632.575014,-0.357421875,-0.015625,0.9345703125,4.2724609375,-0.06103515625,-0.30517578125,-1.153564453125,21.214599609375,-165.794677734375
1758179632.5844157,-0.357421875,-0.015625,0.9345703125,4.2724609375,-0.06103515625,-0.30517578125,-1.1151123046875,21.214599609375,-165.8001708984375
1758179632.5947137,-0.353515625,-0.0185546875,0.93701171875,4.0283203125,0.0,-0.42724609375,-1.07666015625,21.2091064453125,-165.8056640625
1758179632.6049232,-0.353515625,-0.0185546875,0.93701171875,4.0283203125,0.0,-0.42724609375,-1.0382080078125,21.2091064453125,-165.8111572265625
1758179632.61452,-0.35595703125,-0.01318359375,0.93017578125,4.45556640625,-0.1220703125,-0.6103515625,-0.999755859375,21.2091064453125,-165.8221435546875
1758179632.624621,-0.35595703125,-0.01318359375,0.93017578125,4.45556640625,-0.1220703125,-0.6103515625,-0.9613037109375,21.20361328125,-165.82763671875
1758179632.6364777,-0.35986328125,-0.013671875,0.93701171875,4.8828125,-0.18310546875,-0.6103515625,-0.9173583984375,21.20361328125,-165.838623046875
1758179632.6460767,-0.35986328125,-0.013671875,0.93701171875,4.8828125,-0.18310546875,-0.6103515625,-0.8734130859375,21.1981201171875,-165.849609375
1758179632.6545572,-0.36083984375,-0.01904296875,0.92919921875,3.72314453125,-0.06103515625,-0.79345703125,-0.8349609375,21.192626953125,-165.8551025390625
1758179632.6646802,-0.36083984375,-0.01904296875,0.92919921875,3.72314453125,-0.06103515625,-0.79345703125,-0.802001953125,21.192626953125,-165.8660888671875
1758179632.675358,-0.3603515625,-0.00390625,0.93603515625,4.69970703125,-0.30517578125,-0.79345703125,-0.7635498046875,21.1871337890625,-165.8770751953125
1758179632.6844966,-0.3603515625,-0.00390625,0.93603515625,4.69970703125,-0.30517578125,-0.79345703125,-0.7196044921875,21.1871337890625,-165.8880615234375
1758179632.69538,-0.3603515625,-0.00439453125,0.9365234375,4.94384765625,-0.30517578125,-0.67138671875,-0.6756591796875,21.181640625,-165.8990478515625
1758179632.705132,-0.3603515625,-0.00439453125,0.9365234375,4.94384765625,-0.30517578125,-0.67138671875,-0.6317138671875,21.1761474609375,-165.9100341796875
1758179632.7150793,-0.36083984375,0.00439453125,0.9267578125,3.23486328125,-0.48828125,-0.79345703125,-0.59326171875,21.170654296875,-165.91552734375
1758179632.7245877,-0.36083984375,0.00439453125,0.9267578125,3.23486328125,-0.48828125,-0.79345703125,-0.5657958984375,21.1651611328125,-165.926513671875
1758179632.7349102,-0.36669921875,0.00146484375,0.93505859375,1.89208984375,-0.54931640625,-0.732421875,-0.5438232421875,21.15966796875,-165.9375
1758179632.745087,-0.36669921875,0.00146484375,0.93505859375,1.89208984375,-0.54931640625,-0.732421875,-0.52734375,21.1541748046875,-165.9429931640625
1758179632.755001,-0.369140625,-0.00732421875,0.9287109375,1.220703125,-0.6103515625,-0.79345703125,-0.516357421875,21.148681640625,-165.9539794921875
1758179632.764569,-0.369140625,-0.00732421875,0.9287109375,1.220703125,-0.6103515625,-0.79345703125,-0.50537109375,21.1431884765625,-165.9649658203125
1758179632.7758489,-0.369140625,-0.01025390625,0.92724609375,1.0986328125,-0.67138671875,-0.8544921875,-0.4998779296875,21.1376953125,-165.970458984375
1758179632.784664,-0.369140625,-0.01025390625,0.92724609375,1.0986328125,-0.67138671875,-0.8544921875,-0.4888916015625,21.1322021484375,-165.9814453125
1758179632.7954905,-0.36962890625,-0.00927734375,0.93408203125,1.220703125,-0.54931640625,-0.9765625,-0.4833984375,21.126708984375,-165.992431640625
1758179632.8052354,-0.36962890625,-0.00927734375,0.93408203125,1.220703125,-0.54931640625,-0.9765625,-0.472412109375,21.1212158203125,-166.00341796875
1758179632.8154268,-0.3681640625,-0.00634765625,0.92724609375,1.708984375,-0.48828125,-1.15966796875,-0.4669189453125,21.11572265625,-166.014404296875
1758179632.824989,-0.3681640625,-0.00634765625,0.92724609375,1.708984375,-0.48828125,-1.15966796875,-0.450439453125,21.11572265625,-166.0308837890625
1758179632.8358715,-0.3720703125,-0.01611328125,0.92431640625,1.15966796875,-0.30517578125,-1.5869140625,-0.4449462890625,21.1102294921875,-166.0418701171875
1758179632.8452263,-0.3720703125,-0.01611328125,0.92431640625,1.15966796875,-0.30517578125,-1.5869140625,-0.439453125,21.1102294921875,-166.0638427734375
1758179632.854816,-0.375,0.0048828125,0.93603515625,1.15966796875,-0.3662109375,-1.5869140625,-0.4339599609375,21.1102294921875,-166.080322265625
1758179632.8646984,-0.375,0.0048828125,0.93603515625,1.15966796875,-0.3662109375,-1.5869140625,-0.428466796875,21.1102294921875,-166.0968017578125
1758179632.8752396,-0.375,0.0048828125,0.93603515625,1.5869140625,-0.1220703125,-1.40380859375,-0.4229736328125,21.1102294921875,-166.1077880859375
1758179632.8847756,-0.3701171875,0.001953125,0.93115234375,1.5869140625,-0.1220703125,-1.40380859375,-0.4119873046875,21.1102294921875,-166.124267578125
1758179632.894903,-0.36962890625,0.0,0.9248046875,-0.1220703125,-0.06103515625,-1.28173828125,-0.406494140625,21.11572265625,-166.13525390625
1758179632.905472,-0.36962890625,0.0,0.9248046875,-0.1220703125,-0.06103515625,-1.28173828125,-0.4119873046875,21.11572265625,-166.1517333984375
1758179632.9149425,-0.36865234375,-0.00732421875,0.93701171875,-0.79345703125,0.1220703125,-1.0986328125,-0.4229736328125,21.1212158203125,-166.1627197265625
1758179632.9248617,-0.36865234375,-0.00732421875,0.93701171875,-0.79345703125,0.1220703125,-1.0986328125,-0.4339599609375,21.1212158203125,-166.1737060546875
1758179632.9349823,-0.36669921875,-0.01416015625,0.9248046875,0.30517578125,0.18310546875,-1.0986328125,-0.439453125,21.126708984375,-166.1846923828125
1758179632.9453304,-0.36669921875,-0.01416015625,0.9248046875,0.30517578125,0.18310546875,-1.0986328125,-0.439453125,21.1322021484375,-166.1956787109375
1758179632.9549322,-0.3671875,-0.009765625,0.92578125,0.67138671875,0.1220703125,-1.15966796875,-0.439453125,21.1376953125,-166.2066650390625
1758179632.9648414,-0.3671875,-0.009765625,0.92578125,0.67138671875,0.1220703125,-1.15966796875,-0.4339599609375,21.1376953125,-166.2176513671875
1758179632.975569,-0.3662109375,-0.00390625,0.93212890625,0.244140625,0.1220703125,-0.9765625,-0.4339599609375,21.1431884765625,-166.2286376953125
1758179632.9849157,-0.3662109375,-0.00390625,0.93212890625,0.244140625,0.1220703125,-0.9765625,-0.439453125,21.148681640625,-166.2396240234375
1758179632.9952853,-0.3623046875,-0.00439453125,0.9287109375,0.0,0.18310546875,-0.79345703125,-0.439453125,21.1541748046875,-166.2451171875
1758179633.0055625,-0.3623046875,-0.00439453125,0.9287109375,0.0,0.18310546875,-0.79345703125,-0.439453125,21.1541748046875,-166.256103515625
1758179633.0150754,-0.361328125,-0.00732421875,0.93408203125,-0.30517578125,0.06103515625,-0.67138671875,-0.4449462890625,21.15966796875,-166.2615966796875
1758179633.0252407,-0.361328125,-0.00732421875,0.93408203125,-0.30517578125,0.06103515625,-0.67138671875,-0.450439453125,21.15966796875,-166.26708984375
1758179633.0350857,-0.36181640625,-0.00830078125,0.93212890625,-0.18310546875,0.1220703125,-0.6103515625,-0.4559326171875,21.1651611328125,-166.278076171875
1758179633.046217,-0.36181640625,-0.00830078125,0.93212890625,-0.18310546875,0.1220703125,-0.6103515625,-0.46142578125,21.1651611328125,-166.2835693359375
1758179633.0550802,-0.36279296875,-0.0087890625,0.9306640625,0.18310546875,0.06103515625,-0.6103515625,-0.46142578125,21.170654296875,-166.2890625
1758179633.0656261,-0.36279296875,-0.0087890625,0.9306640625,0.18310546875,0.06103515625,-0.6103515625,-0.46142578125,21.170654296875,-166.300048828125
1758179633.0756001,-0.35986328125,-0.0146484375,0.92724609375,0.0,-0.06103515625,-0.3662109375,-0.46142578125,21.170654296875,-166.3055419921875
1758179633.085411,-0.35986328125,-0.0146484375,0.92724609375,0.0,-0.06103515625,-0.3662109375,-0.4669189453125,21.170654296875,-166.31103515625
1758179633.0952177,-0.36279296875,-0.005859375,0.9326171875,-0.244140625,-0.244140625,0.0,-0.4669189453125,21.170654296875,-166.31103515625
1758179633.1063933,-0.36279296875,-0.005859375,0.9326171875,-0.244140625,-0.244140625,0.0,-0.4669189453125,21.170654296875,-166.3165283203125
1758179633.115181,-0.36279296875,-0.00634765625,0.9365234375,-0.42724609375,0.0,0.244140625,-0.472412109375,21.170654296875,-166.3165283203125
1758179633.125861,-0.36279296875,-0.00634765625,0.9365234375,-0.42724609375,0.0,0.244140625,-0.4779052734375,21.170654296875,-166.31103515625
1758179633.1352727,-0.35546875,-0.01123046875,0.93408203125,0.06103515625,0.06103515625,0.18310546875,-0.4779052734375,21.170654296875,-166.31103515625
1758179633.1460311,-0.35546875,-0.01123046875,0.93408203125,0.06103515625,0.06103515625,0.18310546875,-0.4779052734375,21.1761474609375,-166.31103515625
1758179633.1553376,-0.35546875,-0.01123046875,0.93408203125,-0.18310546875,0.0,0.48828125,-0.472412109375,21.1761474609375,-166.3055419921875
1758179633.1655707,-0.35888671875,-0.0078125,0.931640625,-0.18310546875,0.0,0.48828125,-0.472412109375,21.1761474609375,-166.3055419921875
1758179633.1756742,-0.3642578125,-0.01123046875,0.93017578125,0.3662109375,0.0,0.3662109375,-0.472412109375,21.1761474609375,-166.300048828125
1758179633.1856608,-0.3642578125,-0.01123046875,0.93017578125,0.3662109375,0.0,0.3662109375,-0.4669189453125,21.1761474609375,-166.2945556640625
1758179633.195293,-0.37548828125,-0.00048828125,0.927734375,-0.6103515625,-0.06103515625,0.30517578125,-0.4669189453125,21.1761474609375,-166.2945556640625
1758179633.2066002,-0.37548828125,-0.00048828125,0.927734375,-0.6103515625,-0.06103515625,0.30517578125,-0.472412109375,21.1761474609375,-166.2945556640625
1758179633.2152948,-0.37158203125,-0.00732421875,0.93310546875,-0.18310546875,0.0,0.30517578125,-0.4779052734375,21.1761474609375,-166.2890625
1758179633.2259417,-0.37158203125,-0.00732421875,0.93310546875,-0.18310546875,0.0,0.30517578125,-0.4779052734375,21.1761474609375,-166.2890625
1758179633.2354167,-0.36962890625,-0.00732421875,0.92919921875,-0.6103515625,0.1220703125,0.30517578125,-0.4779052734375,21.181640625,-166.2835693359375
1758179633.2454205,-0.36962890625,-0.00732421875,0.92919921875,-0.6103515625,0.1220703125,0.30517578125,-0.4833984375,21.181640625,-166.2835693359375
1758179633.2553327,-0.3662109375,-0.00537109375,0.9287109375,-0.1220703125,0.1220703125,0.42724609375,-0.4833984375,21.1871337890625,-166.2835693359375
1758179633.2651944,-0.3662109375,-0.00537109375,0.9287109375,-0.1220703125,0.1220703125,0.42724609375,-0.4833984375,21.1871337890625,-166.278076171875
1758179633.2757907,-0.37109375,-0.0048828125,0.92724609375,0.1220703125,0.06103515625,0.18310546875,-0.4833984375,21.192626953125,-166.278076171875
1758179633.285247,-0.37109375,-0.0048828125,0.92724609375,0.1220703125,0.06103515625,0.18310546875,-0.4833984375,21.192626953125,-166.278076171875
1758179633.295403,-0.3759765625,-0.001953125,0.92578125,-0.48828125,0.0,0.30517578125,-0.4833984375,21.1981201171875,-166.2725830078125
1758179633.305819,-0.3759765625,-0.001953125,0.92578125,-0.48828125,0.0,0.30517578125,-0.4833984375,21.1981201171875,-166.2725830078125
1758179633.3153481,-0.376953125,-0.00537109375,0.92724609375,-0.79345703125,0.0,0.3662109375,-0.4888916015625,21.20361328125,-166.26708984375
1758179633.3255463,-0.376953125,-0.00537109375,0.92724609375,-0.79345703125,0.0,0.3662109375,-0.494384765625,21.20361328125,-166.26708984375
1758179633.3359058,-0.36962890625,-0.00830078125,0.9228515625,-0.79345703125,-0.18310546875,0.42724609375,-0.4998779296875,21.2091064453125,-166.2615966796875
1758179633.3458233,-0.36962890625,-0.00830078125,0.9228515625,-0.79345703125,-0.18310546875,0.42724609375,-0.50537109375,21.2091064453125,-166.256103515625
1758179633.3553946,-0.36865234375,-0.0078125,0.93115234375,-1.28173828125,-0.30517578125,0.48828125,-0.5108642578125,21.2091064453125,-166.2506103515625
1758179633.365492,-0.36865234375,-0.0078125,0.93115234375,-1.28173828125,-0.30517578125,0.48828125,-0.5218505859375,21.2091064453125,-166.2451171875
1758179633.3757806,-0.37060546875,-0.00927734375,0.9296875,-0.9765625,-0.18310546875,0.54931640625,-0.5328369140625,21.2091064453125,-166.2396240234375
1758179633.3858085,-0.37060546875,-0.00927734375,0.9296875,-0.9765625,-0.18310546875,0.54931640625,-0.538330078125,21.214599609375,-166.234130859375
1758179633.395509,-0.37353515625,-0.0087890625,0.92919921875,-0.91552734375,0.0,0.6103515625,-0.5438232421875,21.214599609375,-166.2286376953125
1758179633.4059563,-0.37353515625,-0.0087890625,0.92919921875,-0.91552734375,0.0,0.6103515625,-0.54931640625,21.2200927734375,-166.2176513671875
1758179633.4154227,-0.373046875,-0.0107421875,0.93017578125,-0.67138671875,0.06103515625,0.54931640625,-0.5548095703125,21.2200927734375,-166.212158203125
1758179633.4255383,-0.373046875,-0.0107421875,0.93017578125,-0.67138671875,0.06103515625,0.54931640625,-0.560302734375,21.2255859375,-166.2066650390625
1758179633.4358075,-0.3671875,-0.0078125,0.93017578125,-0.30517578125,0.06103515625,0.3662109375,-0.560302734375,21.2310791015625,-166.2066650390625
1758179633.4458086,-0.3671875,-0.0078125,0.93017578125,-0.30517578125,0.06103515625,0.3662109375,-0.560302734375,21.2310791015625,-166.201171875
1758179633.4554539,-0.36328125,-0.00048828125,0.9267578125,-0.18310546875,0.0,0.18310546875,-0.560302734375,21.236572265625,-166.201171875
1758179633.4654906,-0.36328125,-0.00048828125,0.9267578125,-0.18310546875,0.0,0.18310546875,-0.560302734375,21.236572265625,-166.1956787109375
1758179633.4758666,-0.365234375,-0.00146484375,0.9365234375,-0.8544921875,0.1220703125,0.0,-0.5712890625,21.2420654296875,-166.1956787109375
1758179633.4858122,-0.365234375,-0.00146484375,0.9365234375,-0.8544921875,0.1220703125,0.0,-0.5767822265625,21.24755859375,-166.1956787109375
1758179633.4960032,-0.36572265625,-0.005859375,0.93505859375,-0.54931640625,0.48828125,-0.18310546875,-0.582275390625,21.2530517578125,-166.1956787109375
1758179633.5060868,-0.36572265625,-0.005859375,0.93505859375,-0.54931640625,0.48828125,-0.18310546875,-0.5877685546875,21.258544921875,-166.201171875
1758179633.515953,-0.3662109375,-0.01025390625,0.9267578125,-0.42724609375,0.54931640625,-0.244140625,-0.5877685546875,21.2640380859375,-166.201171875
1758179633.5257685,-0.3662109375,-0.01025390625,0.9267578125,-0.42724609375,0.54931640625,-0.244140625,-0.59326171875,21.2750244140625,-166.2066650390625
1758179633.536549,-0.369140625,-0.01416015625,0.9326171875,-0.18310546875,0.54931640625,-0.30517578125,-0.5987548828125,21.280517578125,-166.2066650390625
1758179633.545701,-0.369140625,-0.01416015625,0.9326171875,-0.18310546875,0.54931640625,-0.30517578125,-0.5987548828125,21.2860107421875,-166.212158203125
1758179633.5559933,-0.3662109375,-0.0107421875,0.92529296875,-0.42724609375,0.48828125,-0.18310546875,-0.604248046875,21.2969970703125,-166.212158203125
1758179633.5656033,-0.3662109375,-0.0107421875,0.92529296875,-0.42724609375,0.48828125,-0.18310546875,-0.6097412109375,21.302490234375,-166.2176513671875
1758179633.5766675,-0.36328125,-0.0078125,0.93115234375,-0.48828125,0.30517578125,-0.1220703125,-0.6097412109375,21.3079833984375,-166.2176513671875
1758179633.5859618,-0.36328125,-0.0078125,0.93115234375,-0.48828125,0.30517578125,-0.1220703125,-0.615234375,21.3079833984375,-166.2176513671875
1758179633.596267,-0.36669921875,-0.00830078125,0.93212890625,-0.48828125,0.42724609375,0.0,-0.6207275390625,21.3134765625,-166.2176513671875
1758179633.605804,-0.36669921875,-0.00830078125,0.93212890625,-0.48828125,0.42724609375,0.0,-0.626220703125,21.3189697265625,-166.22314453125
1758179633.6163764,-0.369140625,-0.009765625,0.92919921875,-0.79345703125,0.54931640625,0.18310546875,-0.6317138671875,21.3299560546875,-166.2176513671875
1758179633.6256943,-0.369140625,-0.009765625,0.92919921875,-0.79345703125,0.54931640625,0.18310546875,-0.63720703125,21.33544921875,-166.2176513671875
1758179633.6373188,-0.365234375,-0.01123046875,0.9287109375,-0.67138671875,0.48828125,0.3662109375,-0.6427001953125,21.3409423828125,-166.212158203125
1758179633.6458569,-0.365234375,-0.01123046875,0.9287109375,-0.67138671875,0.48828125,0.3662109375,-0.648193359375,21.346435546875,-166.212158203125
1758179633.656279,-0.36328125,-0.01123046875,0.9287109375,-0.6103515625,0.244140625,0.42724609375,-0.6536865234375,21.3519287109375,-166.2066650390625
1758179633.665747,-0.36328125,-0.01123046875,0.9287109375,-0.6103515625,0.244140625,0.42724609375,-0.6536865234375,21.3519287109375,-166.201171875
1758179633.6769364,-0.36669921875,-0.00927734375,0.9306640625,-0.67138671875,0.0,0.54931640625,-0.6591796875,21.3519287109375,-166.1956787109375
1758179633.6860163,-0.36669921875,-0.00927734375,0.9306640625,-0.67138671875,0.0,0.54931640625,-0.6646728515625,21.357421875,-166.190185546875
1758179633.6960182,-0.359375,-0.00927734375,0.93310546875,-0.6103515625,0.0,0.54931640625,-0.6646728515625,21.357421875,-166.190185546875
1758179633.7060053,-0.359375,-0.00927734375,0.93310546875,-0.6103515625,0.0,0.54931640625,-0.670166015625,21.357421875,-166.1846923828125
1758179633.7158802,-0.35595703125,-0.00927734375,0.93408203125,-0.48828125,0.0,0.54931640625,-0.670166015625,21.357421875,-166.17919921875
1758179633.7258246,-0.35595703125,-0.00927734375,0.93408203125,-0.48828125,0.0,0.54931640625,-0.6756591796875,21.357421875,-166.1737060546875
1758179633.7366972,-0.35400390625,-0.01123046875,0.93505859375,-0.6103515625,-0.1220703125,0.6103515625,-0.6756591796875,21.3519287109375,-166.168212890625
1758179633.746009,-0.35400390625,-0.01123046875,0.93505859375,-0.6103515625,-0.1220703125,0.6103515625,-0.68115234375,21.3519287109375,-166.1627197265625
1758179633.7557735,-0.35791015625,-0.01025390625,0.9345703125,-0.30517578125,0.0,0.67138671875,-0.68115234375,21.3519287109375,-166.1572265625
1758179633.76581,-0.35791015625,-0.01025390625,0.9345703125,-0.30517578125,0.0,0.67138671875,-0.68115234375,21.3519287109375,-166.1517333984375
1758179633.776342,-0.35595703125,-0.01025390625,0.93701171875,-0.1220703125,0.0,0.79345703125,-0.68115234375,21.3519287109375,-166.146240234375
1758179633.7862897,-0.35595703125,-0.01025390625,0.93701171875,-0.1220703125,0.0,0.79345703125,-0.6756591796875,21.346435546875,-166.1407470703125
1758179633.7958288,-0.35791015625,-0.00927734375,0.93505859375,0.1220703125,0.244140625,0.79345703125,-0.670166015625,21.346435546875,-166.13525390625
1758179633.806154,-0.35791015625,-0.00927734375,0.93505859375,0.1220703125,0.244140625,0.79345703125,-0.6646728515625,21.3519287109375,-166.1297607421875
1758179633.816074,-0.35693359375,-0.01025390625,0.931640625,-0.244140625,0.244140625,0.79345703125,-0.6646728515625,21.3519287109375,-166.124267578125
1758179633.8259563,-0.35693359375,-0.01025390625,0.931640625,-0.244140625,0.244140625,0.79345703125,-0.6646728515625,21.3519287109375,-166.1187744140625
1758179633.8371115,-0.36083984375,-0.0087890625,0.93310546875,0.1220703125,0.244140625,0.67138671875,-0.6591796875,21.3519287109375,-166.11328125
1758179633.8461163,-0.36083984375,-0.0087890625,0.93310546875,0.1220703125,0.244140625,0.67138671875,-0.6591796875,21.3519287109375,-166.1077880859375
1758179633.8559215,-0.36376953125,-0.00830078125,0.931640625,0.42724609375,0.244140625,0.54931640625,-0.648193359375,21.3519287109375,-166.1077880859375
1758179633.8659437,-0.36376953125,-0.00830078125,0.931640625,0.42724609375,0.244140625,0.54931640625,-0.6427001953125,21.3519287109375,-166.102294921875
1758179633.8764803,-0.36376953125,-0.00830078125,0.931640625,0.30517578125,0.30517578125,0.48828125,-0.63720703125,21.357421875,-166.102294921875
1758179633.8864443,-0.3701171875,-0.0068359375,0.9296875,0.30517578125,0.30517578125,0.48828125,-0.6317138671875,21.357421875,-166.0968017578125
1758179633.896144,-0.36767578125,-0.009765625,0.93408203125,0.54931640625,0.3662109375,0.48828125,-0.626220703125,21.3629150390625,-166.09130859375
1758179633.9065018,-0.36767578125,-0.009765625,0.93408203125,0.54931640625,0.3662109375,0.48828125,-0.615234375,21.3629150390625,-166.09130859375
1758179633.91613,-0.36962890625,-0.00390625,0.921875,0.8544921875,0.30517578125,0.54931640625,-0.604248046875,21.368408203125,-166.0858154296875
1758179633.9261363,-0.36962890625,-0.00390625,0.921875,0.8544921875,0.30517578125,0.54931640625,-0.59326171875,21.368408203125,-166.080322265625
1758179633.938945,-0.3671875,-0.0126953125,0.9296875,-0.3662109375,0.0,0.67138671875,-0.59326171875,21.368408203125,-166.0748291015625
1758179633.9471107,-0.3671875,-0.0126953125,0.9296875,-0.3662109375,0.0,0.67138671875,-0.59326171875,21.368408203125,-166.0693359375
1758179633.9559774,-0.36767578125,-0.0126953125,0.931640625,0.0,0.0,0.6103515625,-0.59326171875,21.3739013671875,-166.0638427734375
1758179633.9670796,-0.36767578125,-0.0126953125,0.931640625,0.0,0.0,0.6103515625,-0.5877685546875,21.3739013671875,-166.058349609375
1758179633.9765747,-0.36962890625,-0.01318359375,0.923828125,1.77001953125,-0.06103515625,0.48828125,-0.5712890625,21.3739013671875,-166.0528564453125
1758179633.9866235,-0.36962890625,-0.01318359375,0.923828125,1.77001953125,-0.06103515625,0.48828125,-0.54931640625,21.3739013671875,-166.0528564453125
1758179633.9961638,-0.3720703125,-0.00927734375,0.93359375,1.64794921875,0.0,0.42724609375,-0.5328369140625,21.3739013671875,-166.04736328125
1758179634.0070808,-0.3720703125,-0.00927734375,0.93359375,1.64794921875,0.0,0.42724609375,-0.516357421875,21.3739013671875,-166.04736328125
1758179634.016211,-0.36962890625,-0.00732421875,0.92626953125,1.3427734375,-0.06103515625,0.3662109375,-0.4998779296875,21.3739013671875,-166.0418701171875
1758179634.026742,-0.36962890625,-0.00732421875,0.92626953125,1.3427734375,-0.06103515625,0.3662109375,-0.4888916015625,21.3739013671875,-166.0418701171875
1758179634.0366,-0.36474609375,-0.00537109375,0.92578125,1.15966796875,-0.244140625,0.18310546875,-0.4779052734375,21.3739013671875,-166.036376953125
1758179634.0472295,-0.36474609375,-0.00537109375,0.92578125,1.15966796875,-0.244140625,0.18310546875,-0.4669189453125,21.3739013671875,-166.036376953125
1758179634.0564597,-0.3701171875,0.00146484375,0.931640625,1.5869140625,-0.18310546875,0.18310546875,-0.450439453125,21.3739013671875,-166.036376953125
1758179634.0669982,-0.3701171875,0.00146484375,0.931640625,1.5869140625,-0.18310546875,0.18310546875,-0.4339599609375,21.3739013671875,-166.036376953125
1758179634.0766804,-0.36767578125,-0.005859375,0.9326171875,1.40380859375,-0.06103515625,0.0,-0.41748046875,21.3739013671875,-166.036376953125
1758179634.0868764,-0.36767578125,-0.005859375,0.9326171875,1.40380859375,-0.06103515625,0.0,-0.4010009765625,21.3739013671875,-166.036376953125
1758179634.0963538,-0.36474609375,-0.00732421875,0.93115234375,1.64794921875,0.0,-0.18310546875,-0.3900146484375,21.3739013671875,-166.0418701171875
1758179634.1071744,-0.36474609375,-0.00732421875,0.93115234375,1.64794921875,0.0,-0.18310546875,-0.37353515625,21.3739013671875,-166.0418701171875
1758179634.1162755,-0.36669921875,-0.00439453125,0.9287109375,2.3193359375,0.18310546875,0.0,-0.3515625,21.37939453125,-166.0418701171875
1758179634.1263442,-0.36669921875,-0.00439453125,0.9287109375,2.3193359375,0.18310546875,0.0,-0.3240966796875,21.37939453125,-166.04736328125
1758179634.137109,-0.37890625,-0.00634765625,0.93359375,2.25830078125,0.3662109375,-0.06103515625,-0.3076171875,21.3848876953125,-166.04736328125
1758179634.147115,-0.37890625,-0.00634765625,0.93359375,2.25830078125,0.3662109375,-0.06103515625,-0.28564453125,21.390380859375,-166.04736328125
1758179634.1563013,-0.37890625,-0.00634765625,0.93359375,2.38037109375,0.42724609375,-0.30517578125,-0.263671875,21.3958740234375,-166.0528564453125
1758179634.1663017,-0.3759765625,-0.00048828125,0.921875,2.38037109375,0.42724609375,-0.30517578125,-0.24169921875,21.4013671875,-166.0528564453125
1758179634.1767964,-0.373046875,-0.00048828125,0.9248046875,2.44140625,0.30517578125,-0.244140625,-0.2142333984375,21.4068603515625,-166.058349609375
1758179634.1863256,-0.373046875,-0.00048828125,0.9248046875,2.44140625,0.30517578125,-0.244140625,-0.1922607421875,21.412353515625,-166.058349609375
1758179634.1965575,-0.376953125,0.0,0.9296875,2.0751953125,0.30517578125,-0.1220703125,-0.17578125,21.4178466796875,-166.0638427734375
1758179634.206542,-0.376953125,0.0,0.9296875,2.0751953125,0.30517578125,-0.1220703125,-0.15380859375,21.42333984375,-166.0638427734375
1758179634.216389,-0.3818359375,-0.00146484375,0.9208984375,2.01416015625,0.3662109375,0.0,-0.1318359375,21.4288330078125,-166.0638427734375
1758179634.226329,-0.3818359375,-0.00146484375,0.9208984375,2.01416015625,0.3662109375,0.0,-0.1153564453125,21.434326171875,-166.0638427734375
1758179634.2379913,-0.37841796875,-0.0009765625,0.9267578125,0.6103515625,0.30517578125,0.244140625,-0.10986328125,21.4453125,-166.058349609375
1758179634.2468557,-0.37841796875,-0.0009765625,0.9267578125,0.6103515625,0.30517578125,0.244140625,-0.098876953125,21.4508056640625,-166.058349609375
1758179634.2563517,-0.37548828125,-0.0009765625,0.92431640625,0.54931640625,0.1220703125,0.42724609375,-0.0933837890625,21.456298828125,-166.0528564453125
1758179634.2666495,-0.37548828125,-0.0009765625,0.92431640625,0.54931640625,0.1220703125,0.42724609375,-0.087890625,21.456298828125,-166.04736328125
1758179634.2770174,-0.37548828125,-0.00537109375,0.92333984375,0.732421875,-0.06103515625,0.54931640625,-0.076904296875,21.4617919921875,-166.0418701171875
1758179634.2865252,-0.37548828125,-0.00537109375,0.92333984375,0.732421875,-0.06103515625,0.54931640625,-0.0714111328125,21.46728515625,-166.036376953125
1758179634.296414,-0.37451171875,0.0,0.9267578125,0.48828125,-0.244140625,0.732421875,-0.0604248046875,21.46728515625,-166.0308837890625
1758179634.306803,-0.37451171875,0.0,0.9267578125,0.48828125,-0.244140625,0.732421875,-0.054931640625,21.46728515625,-166.0198974609375
1758179634.3165314,-0.37255859375,0.00439453125,0.92431640625,0.48828125,-0.42724609375,0.79345703125,-0.0494384765625,21.46728515625,-166.014404296875
1758179634.3266578,-0.37255859375,0.00439453125,0.92431640625,0.48828125,-0.42724609375,0.79345703125,-0.0384521484375,21.46728515625,-166.00341796875
1758179634.337166,-0.37158203125,0.00537109375,0.92822265625,0.244140625,-0.54931640625,0.732421875,-0.032958984375,21.4617919921875,-165.9979248046875
1758179634.3469098,-0.37158203125,0.00537109375,0.92822265625,0.244140625,-0.54931640625,0.732421875,-0.0274658203125,21.4617919921875,-165.992431640625
1758179634.3566036,-0.36083984375,0.02197265625,0.92822265625,0.0,-0.6103515625,1.03759765625,-0.02197265625,21.456298828125,-165.9814453125
1758179634.366504,-0.36083984375,0.02197265625,0.92822265625,0.0,-0.6103515625,1.03759765625,-0.0164794921875,21.4508056640625,-165.970458984375
1758179634.37771,-0.37109375,0.00146484375,0.93359375,0.0,-0.48828125,0.79345703125,-0.010986328125,21.4508056640625,-165.95947265625
1758179634.386729,-0.37109375,0.00146484375,0.93359375,0.0,-0.48828125,0.79345703125,-0.010986328125,21.4508056640625,-165.948486328125
1758179634.3969438,-0.357421875,-0.005859375,0.931640625,-1.220703125,-0.42724609375,0.732421875,-0.0164794921875,21.4453125,-165.9429931640625
1758179634.4068658,-0.357421875,-0.005859375,0.931640625,-1.220703125,-0.42724609375,0.732421875,-0.0274658203125,21.4453125,-165.9375
1758179634.4172192,-0.35546875,-0.00634765625,0.93505859375,0.244140625,-0.42724609375,0.79345703125,-0.02197265625,21.4398193359375,-165.926513671875
1758179634.4268007,-0.35546875,-0.00634765625,0.93505859375,0.244140625,-0.42724609375,0.79345703125,-0.010986328125,21.434326171875,-165.9210205078125
1758179634.437893,-0.35546875,0.00048828125,0.93798828125,1.3427734375,-0.30517578125,0.48828125,0.0,21.434326171875,-165.91552734375
1758179634.4468014,-0.3642578125,0.00927734375,0.93408203125,1.220703125,0.06103515625,0.3662109375,0.010986328125,21.4288330078125,-165.91552734375
1758179634.457084,-0.3642578125,0.00927734375,0.93408203125,1.220703125,0.06103515625,0.3662109375,0.0274658203125,21.434326171875,-165.9100341796875
1758179634.4667358,-0.3642578125,0.0068359375,0.93896484375,0.30517578125,0.54931640625,0.3662109375,0.032958984375,21.434326171875,-165.9100341796875
1758179634.4777496,-0.3642578125,0.0068359375,0.93896484375,0.30517578125,0.54931640625,0.3662109375,0.0384521484375,21.4398193359375,-165.904541015625
1758179634.4867847,-0.3623046875,0.00634765625,0.931640625,0.6103515625,0.732421875,0.18310546875,0.0439453125,21.4453125,-165.904541015625
1758179634.4970877,-0.3623046875,0.00634765625,0.931640625,0.6103515625,0.732421875,0.18310546875,0.054931640625,21.4508056640625,-165.904541015625
1758179634.5070617,-0.36083984375,0.00537109375,0.92724609375,0.79345703125,0.67138671875,0.06103515625,0.0604248046875,21.456298828125,-165.904541015625
1758179634.5172858,-0.36083984375,0.00537109375,0.92724609375,0.79345703125,0.67138671875,0.06103515625,0.0714111328125,21.4617919921875,-165.904541015625
1758179634.5269215,-0.359375,0.00341796875,0.9345703125,0.06103515625,0.54931640625,0.0,0.076904296875,21.46728515625,-165.904541015625
1758179634.5379539,-0.359375,0.00341796875,0.9345703125,0.06103515625,0.54931640625,0.0,0.076904296875,21.4727783203125,-165.904541015625
1758179634.5472336,-0.35791015625,0.0048828125,0.93310546875,0.3662109375,0.48828125,-0.06103515625,0.0823974609375,21.478271484375,-165.904541015625
1758179634.5567548,-0.35791015625,0.0048828125,0.93310546875,0.3662109375,0.48828125,-0.06103515625,0.087890625,21.478271484375,-165.9100341796875
1758179634.5668688,-0.3642578125,0.0029296875,0.93017578125,0.91552734375,0.48828125,-0.244140625,0.0933837890625,21.4837646484375,-165.91552734375
1758179634.5772326,-0.3642578125,0.0029296875,0.93017578125,0.91552734375,0.48828125,-0.244140625,0.098876953125,21.4892578125,-165.91552734375
1758179634.5869415,-0.361328125,0.001953125,0.935546875,0.06103515625,0.48828125,-0.18310546875,0.1043701171875,21.4892578125,-165.9210205078125
1758179634.5974586,-0.361328125,0.001953125,0.935546875,0.06103515625,0.48828125,-0.18310546875,0.1043701171875,21.4947509765625,-165.926513671875
1758179634.6072526,-0.365234375,0.00390625,0.92919921875,0.42724609375,0.54931640625,-0.18310546875,0.10986328125,21.500244140625,-165.9320068359375
1758179634.6168592,-0.365234375,0.00390625,0.92919921875,0.42724609375,0.54931640625,-0.18310546875,0.1153564453125,21.500244140625,-165.9320068359375
1758179634.627256,-0.3603515625,0.0029296875,0.93212890625,0.244140625,0.42724609375,-0.18310546875,0.1153564453125,21.5057373046875,-165.9375
1758179634.638679,-0.3603515625,0.0029296875,0.93212890625,0.244140625,0.42724609375,-0.18310546875,0.120849609375,21.5057373046875,-165.9429931640625
1758179634.6474516,-0.3564453125,0.0068359375,0.93017578125,0.30517578125,0.30517578125,-0.244140625,0.120849609375,21.51123046875,-165.948486328125
1758179634.6569004,-0.3564453125,0.0068359375,0.93017578125,0.30517578125,0.30517578125,-0.244140625,0.1263427734375,21.51123046875,-165.948486328125
1758179634.6670053,-0.3564453125,0.0068359375,0.93017578125,0.30517578125,0.06103515625,-0.30517578125,0.1263427734375,21.51123046875,-165.9539794921875
1758179634.6772509,-0.35595703125,0.0068359375,0.93505859375,0.30517578125,0.06103515625,-0.30517578125,0.1318359375,21.51123046875,-165.95947265625
1758179634.6870208,-0.35595703125,0.00439453125,0.93505859375,-0.79345703125,-0.06103515625,-0.18310546875,0.1263427734375,21.5057373046875,-165.9649658203125
1758179634.697323,-0.35595703125,0.00439453125,0.93505859375,-0.79345703125,-0.06103515625,-0.18310546875,0.120849609375,21.5057373046875,-165.970458984375
1758179634.707966,-0.359375,0.00341796875,0.93310546875,-0.3662109375,0.0,-0.18310546875,0.1153564453125,21.500244140625,-165.9759521484375
1758179634.7169704,-0.359375,0.00341796875,0.93310546875,-0.3662109375,0.0,-0.18310546875,0.10986328125,21.500244140625,-165.9814453125
1758179634.7271369,-0.35791015625,0.0,0.93408203125,-0.18310546875,0.06103515625,-0.18310546875,0.10986328125,21.4947509765625,-165.9869384765625
1758179634.7374244,-0.35791015625,0.0,0.93408203125,-0.18310546875,0.06103515625,-0.18310546875,0.1043701171875,21.4947509765625,-165.992431640625
1758179634.7478175,-0.3515625,0.00537109375,0.9296875,-0.30517578125,0.0,-0.06103515625,0.1043701171875,21.4892578125,-165.992431640625
1758179634.7570405,-0.3515625,0.00537109375,0.9296875,-0.30517578125,0.0,-0.06103515625,0.098876953125,21.4892578125,-165.9979248046875
1758179634.7671528,-0.35986328125,0.0029296875,0.9404296875,-0.9765625,0.0,0.0,0.0933837890625,21.4837646484375,-166.00341796875
1758179634.7773705,-0.35986328125,0.0029296875,0.9404296875,-0.9765625,0.0,0.0,0.087890625,21.4837646484375,-166.0089111328125
1758179634.7871947,-0.3564453125,0.00634765625,0.9326171875,-1.46484375,0.1220703125,0.1220703125,0.076904296875,21.478271484375,-166.0089111328125
1758179634.7975357,-0.3564453125,0.00634765625,0.9326171875,-1.46484375,0.1220703125,0.1220703125,0.0604248046875,21.478271484375,-166.0089111328125
1758179634.8080595,-0.36376953125,0.001953125,0.927734375,-0.42724609375,0.0,0.1220703125,0.054931640625,21.478271484375,-166.0089111328125
1758179634.8171363,-0.36376953125,0.001953125,0.927734375,-0.42724609375,0.0,0.1220703125,0.0494384765625,21.4727783203125,-166.014404296875
1758179634.8276541,-0.36083984375,0.00439453125,0.93408203125,-1.46484375,0.0,0.30517578125,0.0439453125,21.4727783203125,-166.014404296875
1758179634.8396473,-0.36083984375,0.00439453125,0.93408203125,-1.46484375,0.0,0.30517578125,0.032958984375,21.46728515625,-166.0089111328125
1758179634.8486183,-0.3603515625,0.00146484375,0.927734375,-1.52587890625,-0.06103515625,0.42724609375,0.02197265625,21.46728515625,-166.0089111328125
1758179634.8571641,-0.3603515625,0.00146484375,0.927734375,-1.52587890625,-0.06103515625,0.42724609375,0.0054931640625,21.4617919921875,-166.0089111328125
1758179634.8679557,-0.36083984375,-0.00146484375,0.93359375,-1.77001953125,-0.1220703125,0.42724609375,0.0,21.4617919921875,-166.00341796875
1758179634.877464,-0.36083984375,-0.00146484375,0.93359375,-1.77001953125,-0.1220703125,0.42724609375,-0.0164794921875,21.456298828125,-166.00341796875
1758179634.8875692,-0.3623046875,0.00048828125,0.92626953125,-1.0986328125,-0.30517578125,0.42724609375,-0.0274658203125,21.4508056640625,-165.9979248046875
1758179634.8975828,-0.3623046875,0.00048828125,0.92626953125,-1.0986328125,-0.30517578125,0.42724609375,-0.032958984375,21.4453125,-165.9979248046875
1758179634.9083645,-0.35791015625,-0.00048828125,0.93505859375,-1.5869140625,-0.54931640625,0.48828125,-0.0439453125,21.4398193359375,-165.992431640625
1758179634.917264,-0.35791015625,-0.00048828125,0.93505859375,-1.5869140625,-0.54931640625,0.48828125,-0.0604248046875,21.434326171875,-165.992431640625
1758179634.927995,-0.36083984375,0.00390625,0.9306640625,-1.3427734375,-0.54931640625,0.42724609375,-0.0714111328125,21.42333984375,-165.9869384765625
1758179634.9390883,-0.36083984375,0.00390625,0.9306640625,-1.3427734375,-0.54931640625,0.42724609375,-0.0823974609375,21.4178466796875,-165.9869384765625
1758179634.9483712,-0.357421875,-0.00244140625,0.9375,-1.220703125,-0.48828125,0.48828125,-0.0933837890625,21.412353515625,-165.9814453125
1758179634.9572856,-0.357421875,-0.00244140625,0.9375,-1.220703125,-0.48828125,0.48828125,-0.098876953125,21.4068603515625,-165.9814453125
1758179634.9688113,-0.359375,-0.00048828125,0.93212890625,-0.8544921875,-0.3662109375,0.42724609375,-0.10986328125,21.4013671875,-165.9759521484375
1758179634.9786518,-0.359375,-0.00048828125,0.93212890625,-0.8544921875,-0.3662109375,0.42724609375,-0.1153564453125,21.390380859375,-165.9759521484375
1758179634.9874792,-0.3515625,0.00244140625,0.93212890625,-0.8544921875,-0.3662109375,0.48828125,-0.120849609375,21.3848876953125,-165.9759521484375
1758179634.998014,-0.3515625,0.00244140625,0.93212890625,-0.8544921875,-0.3662109375,0.48828125,-0.1263427734375,21.37939453125,-165.970458984375
1758179635.007715,-0.3583984375,-0.00244140625,0.935546875,-0.79345703125,-0.3662109375,0.48828125,-0.1318359375,21.3739013671875,-165.9649658203125
1758179635.0174124,-0.3583984375,-0.00244140625,0.935546875,-0.79345703125,-0.3662109375,0.48828125,-0.1373291015625,21.368408203125,-165.9649658203125
1758179635.027543,-0.35693359375,-0.0068359375,0.9345703125,-0.48828125,-0.18310546875,0.42724609375,-0.1373291015625,21.3629150390625,-165.95947265625
1758179635.0378165,-0.35693359375,-0.0068359375,0.9345703125,-0.48828125,-0.18310546875,0.42724609375,-0.142822265625,21.3629150390625,-165.95947265625
1758179635.0479844,-0.35888671875,-0.00341796875,0.93115234375,0.54931640625,-0.1220703125,0.3662109375,-0.1373291015625,21.357421875,-165.95947265625
1758179635.0574646,-0.35888671875,-0.00341796875,0.93115234375,0.54931640625,-0.1220703125,0.3662109375,-0.1318359375,21.3519287109375,-165.95947265625
1758179635.067692,-0.35791015625,0.00048828125,0.9375,0.42724609375,0.06103515625,0.42724609375,-0.1263427734375,21.3519287109375,-165.95947265625
1758179635.077491,-0.35791015625,0.00048828125,0.9375,0.42724609375,0.06103515625,0.42724609375,-0.120849609375,21.3519287109375,-165.9539794921875
1758179635.087445,-0.3623046875,-0.00146484375,0.93017578125,1.220703125,0.1220703125,0.42724609375,-0.10986328125,21.346435546875,-165.9539794921875
1758179635.0974815,-0.3623046875,-0.00146484375,0.93017578125,1.220703125,0.1220703125,0.42724609375,-0.0933837890625,21.346435546875,-165.9539794921875
1758179635.1075983,-0.3642578125,-0.00048828125,0.93115234375,0.732421875,0.1220703125,0.30517578125,-0.0823974609375,21.346435546875,-165.948486328125
1758179635.1174517,-0.3642578125,-0.00048828125,0.93115234375,0.732421875,0.1220703125,0.30517578125,-0.0714111328125,21.346435546875,-165.948486328125
1758179635.1276157,-0.3662109375,0.0029296875,0.9296875,0.91552734375,0.30517578125,0.30517578125,-0.06591796875,21.346435546875,-165.948486328125
1758179635.1388578,-0.3662109375,0.0029296875,0.9296875,0.91552734375,0.30517578125,0.30517578125,-0.054931640625,21.346435546875,-165.948486328125
1758179635.149131,-0.36962890625,0.00146484375,0.92724609375,1.28173828125,0.42724609375,0.30517578125,-0.0439453125,21.3519287109375,-165.9429931640625
1758179635.1575406,-0.36962890625,0.00146484375,0.92724609375,1.28173828125,0.42724609375,0.30517578125,-0.0274658203125,21.357421875,-165.9429931640625
1758179635.1675577,-0.3662109375,0.0,0.93603515625,0.54931640625,0.48828125,0.244140625,-0.0164794921875,21.357421875,-165.9429931640625
1758179635.1778233,-0.3662109375,0.0,0.93603515625,0.54931640625,0.48828125,0.244140625,-0.010986328125,21.3629150390625,-165.9429931640625
1758179635.1875973,-0.365234375,0.00244140625,0.92578125,1.03759765625,0.42724609375,0.0,0.0,21.368408203125,-165.9429931640625
1758179635.1975343,-0.365234375,0.00244140625,0.92578125,1.03759765625,0.42724609375,0.0,0.0054931640625,21.3739013671875,-165.9429931640625
1758179635.2077293,-0.369140625,0.00244140625,0.92822265625,2.01416015625,0.244140625,-0.30517578125,0.0164794921875,21.3739013671875,-165.948486328125
1758179635.2175677,-0.369140625,0.00244140625,0.92822265625,2.01416015625,0.244140625,-0.30517578125,0.0384521484375,21.37939453125,-165.948486328125
1758179635.227691,-0.37939453125,0.009765625,0.92626953125,2.74658203125,0.42724609375,-0.48828125,0.0604248046875,21.37939453125,-165.9539794921875
1758179635.2376528,-0.37939453125,0.009765625,0.92626953125,2.74658203125,0.42724609375,-0.48828125,0.0823974609375,21.3848876953125,-165.95947265625
1758179635.2477386,-0.373046875,0.0068359375,0.9345703125,1.0986328125,0.54931640625,-0.48828125,0.1043701171875,21.390380859375,-165.9649658203125
1758179635.2577202,-0.373046875,0.0068359375,0.9345703125,1.0986328125,0.54931640625,-0.48828125,0.10986328125,21.3958740234375,-165.9759521484375
1758179635.2676191,-0.36328125,0.0068359375,0.92333984375,0.06103515625,0.3662109375,-0.3662109375,0.1153564453125,21.4068603515625,-165.9759521484375
1758179635.2808385,-0.36328125,0.0068359375,0.92333984375,0.06103515625,0.3662109375,-0.3662109375,0.1153564453125,21.4068603515625,-165.9814453125
1758179635.2876801,-0.36279296875,0.0048828125,0.93017578125,0.67138671875,0.3662109375,-0.18310546875,0.120849609375,21.412353515625,-165.9869384765625
1758179635.2977366,-0.36279296875,0.0048828125,0.93017578125,0.67138671875,0.3662109375,-0.18310546875,0.1263427734375,21.4178466796875,-165.9869384765625
1758179635.3127074,-0.36474609375,0.0,0.939453125,0.48828125,0.244140625,-0.244140625,0.1318359375,21.42333984375,-165.992431640625
1758179635.3188992,-0.36474609375,0.0,0.939453125,0.48828125,0.244140625,-0.244140625,0.1373291015625,21.42333984375,-165.9979248046875
1758179635.3277223,-0.36669921875,0.005859375,0.9228515625,0.1220703125,0.1220703125,-0.244140625,0.1373291015625,21.4288330078125,-165.9979248046875
1758179635.343745,-0.36669921875,0.005859375,0.9228515625,0.1220703125,0.1220703125,-0.244140625,0.142822265625,21.4288330078125,-166.00341796875
1758179635.350658,-0.37060546875,0.0078125,0.9306640625,-0.6103515625,0.1220703125,-0.1220703125,0.1373291015625,21.4288330078125,-166.00341796875
1758179635.3578122,-0.37060546875,0.0078125,0.9306640625,-0.6103515625,0.1220703125,-0.1220703125,0.1318359375,21.434326171875,-166.0089111328125
1758179635.367753,-0.3671875,0.00830078125,0.93310546875,0.0,0.3662109375,-0.06103515625,0.1318359375,21.434326171875,-166.0089111328125
1758179635.3796196,-0.3671875,0.00830078125,0.93310546875,0.0,0.3662109375,-0.06103515625,0.1318359375,21.4398193359375,-166.014404296875
1758179635.3878787,-0.36669921875,0.0029296875,0.92626953125,0.91552734375,0.3662109375,-0.06103515625,0.1373291015625,21.4453125,-166.014404296875
1758179635.3989222,-0.36669921875,0.0029296875,0.92626953125,0.91552734375,0.3662109375,-0.06103515625,0.142822265625,21.4453125,-166.0198974609375
1758179635.4081056,-0.36669921875,0.00244140625,0.93603515625,-1.03759765625,0.3662109375,0.1220703125,0.1483154296875,21.4508056640625,-166.0198974609375
1758179635.4179716,-0.36669921875,0.00244140625,0.93603515625,-1.03759765625,0.3662109375,0.1220703125,0.1373291015625,21.456298828125,-166.0198974609375
1758179635.4278631,-0.36767578125,0.0068359375,0.9267578125,-1.708984375,0.3662109375,0.30517578125,0.1263427734375,21.4617919921875,-166.0198974609375
1758179635.4380274,-0.36767578125,0.0068359375,0.9267578125,-1.708984375,0.3662109375,0.30517578125,0.10986328125,21.4617919921875,-166.0198974609375
1758179635.4481072,-0.37353515625,0.00439453125,0.9248046875,-1.8310546875,0.30517578125,0.30517578125,0.0933837890625,21.46728515625,-166.014404296875
1758179635.4578478,-0.37353515625,0.00439453125,0.9248046875,-1.8310546875,0.30517578125,0.30517578125,0.076904296875,21.4727783203125,-166.014404296875
1758179635.4678695,-0.37109375,0.00390625,0.93017578125,-1.28173828125,0.3662109375,0.18310546875,0.06591796875,21.478271484375,-166.0089111328125
1758179635.4784052,-0.37109375,0.00390625,0.93017578125,-1.28173828125,0.3662109375,0.18310546875,0.054931640625,21.478271484375,-166.0089111328125
1758179635.4879265,-0.3662109375,0.0,0.93359375,-0.1220703125,0.6103515625,0.18310546875,0.0604248046875,21.4892578125,-166.0089111328125
1758179635.4981492,-0.3662109375,0.0,0.93359375,-0.1220703125,0.6103515625,0.18310546875,0.0604248046875,21.4947509765625,-166.0089111328125
1758179635.5082507,-0.36474609375,0.0009765625,0.9296875,0.91552734375,0.79345703125,0.18310546875,0.0714111328125,21.500244140625,-166.0089111328125
1758179635.5179808,-0.36474609375,0.0009765625,0.9296875,0.91552734375,0.79345703125,0.18310546875,0.0823974609375,21.51123046875,-166.00341796875
1758179635.5280788,-0.37255859375,0.0009765625,0.943359375,-1.0986328125,1.03759765625,0.30517578125,0.0714111328125,21.522216796875,-166.00341796875
1758179635.538201,-0.37255859375,0.0009765625,0.943359375,-1.0986328125,1.03759765625,0.30517578125,0.0604248046875,21.533203125,-166.00341796875
1758179635.548143,-0.3662109375,0.00830078125,0.9111328125,-1.0986328125,1.03759765625,0.42724609375,0.054931640625,21.544189453125,-165.9979248046875
1758179635.558027,-0.3662109375,0.00830078125,0.9111328125,-1.0986328125,1.03759765625,0.42724609375,0.0439453125,21.55517578125,-165.992431640625
1758179635.5679939,-0.37158203125,0.0048828125,0.9375,0.06103515625,0.79345703125,0.18310546875,0.0494384765625,21.5606689453125,-165.992431640625
1758179635.578594,-0.37158203125,0.0048828125,0.9375,0.06103515625,0.79345703125,0.18310546875,0.0494384765625,21.5716552734375,-165.992431640625
1758179635.5879521,-0.3642578125,-0.0009765625,0.9345703125,-2.01416015625,0.9765625,0.42724609375,0.032958984375,21.5771484375,-165.992431640625
1758179635.5982268,-0.3642578125,-0.0009765625,0.9345703125,-2.01416015625,0.9765625,0.42724609375,0.0164794921875,21.588134765625,-165.9869384765625
1758179635.608577,-0.3701171875,-0.0029296875,0.92529296875,-0.9765625,0.9765625,0.3662109375,0.0054931640625,21.59912109375,-165.9869384765625
1758179635.618093,-0.3701171875,-0.0029296875,0.92529296875,-0.9765625,0.9765625,0.3662109375,0.0,21.610107421875,-165.9814453125
1758179635.6280742,-0.37109375,-0.00390625,0.9345703125,1.28173828125,1.220703125,0.0,0.010986328125,21.62109375,-165.9814453125
1758179635.6382155,-0.37109375,-0.00390625,0.9345703125,1.28173828125,1.220703125,0.0,0.0274658203125,21.632080078125,-165.9869384765625
1758179635.6481483,-0.36865234375,0.00390625,0.92578125,1.953125,1.220703125,-0.1220703125,0.0439453125,21.64306640625,-165.9869384765625
1758179635.6581702,-0.36865234375,0.00390625,0.92578125,1.953125,1.220703125,-0.1220703125,0.06591796875,21.6595458984375,-165.992431640625
1758179635.6680956,-0.36865234375,0.00390625,0.92578125,0.244140625,0.9765625,0.0,0.06591796875,21.6650390625,-165.992431640625
1758179635.6791372,-0.3720703125,0.0087890625,0.92724609375,0.244140625,0.9765625,0.0,0.0714111328125,21.676025390625,-165.992431640625
1758179635.6881762,-0.37451171875,0.009765625,0.92236328125,-1.40380859375,0.732421875,0.1220703125,0.0604248046875,21.6815185546875,-165.992431640625
1758179635.6985211,-0.37451171875,0.009765625,0.92236328125,-1.40380859375,0.732421875,0.1220703125,0.0439453125,21.6925048828125,-165.992431640625
1758179635.7084439,-0.37939453125,0.0029296875,0.9248046875,-1.46484375,0.6103515625,0.18310546875,0.032958984375,21.697998046875,-165.992431640625
1758179635.7181528,-0.37939453125,0.0029296875,0.9248046875,-1.46484375,0.6103515625,0.18310546875,0.02197265625,21.7034912109375,-165.9869384765625
1758179635.728485,-0.3720703125,0.02490234375,0.91650390625,0.1220703125,0.6103515625,0.48828125,0.0274658203125,21.7144775390625,-165.9814453125
1758179635.743696,-0.3720703125,0.02490234375,0.91650390625,0.1220703125,0.6103515625,0.48828125,0.032958984375,21.719970703125,-165.9759521484375
1758179635.7507956,-0.3798828125,-0.00244140625,0.93359375,0.06103515625,0.30517578125,0.1220703125,0.032958984375,21.7254638671875,-165.9759521484375
1758179635.7582219,-0.3798828125,-0.00244140625,0.93359375,0.06103515625,0.30517578125,0.1220703125,0.0384521484375,21.7254638671875,-165.9759521484375
1758179635.7681782,-0.376953125,-0.0009765625,0.921875,-1.28173828125,0.18310546875,0.0,0.0274658203125,21.73095703125,-165.9759521484375
1758179635.778665,-0.376953125,-0.0009765625,0.921875,-1.28173828125,0.18310546875,0.0,0.0164794921875,21.7364501953125,-165.9759521484375
1758179635.788244,-0.38232421875,-0.0029296875,0.9208984375,-0.6103515625,0.0,0.3662109375,0.010986328125,21.7364501953125,-165.970458984375
1758179635.798769,-0.38232421875,-0.0029296875,0.9208984375,-0.6103515625,0.0,0.3662109375,0.010986328125,21.7364501953125,-165.970458984375
1758179635.8084245,-0.380859375,-0.00048828125,0.9306640625,-1.03759765625,0.0,0.3662109375,0.0,21.741943359375,-165.9649658203125
1758179635.8182983,-0.380859375,-0.00048828125,0.9306640625,-1.03759765625,0.0,0.3662109375,0.0,21.741943359375,-165.95947265625
1758179635.828281,-0.37841796875,0.00390625,0.9169921875,-0.42724609375,-0.06103515625,0.1220703125,-0.0054931640625,21.741943359375,-165.95947265625
1758179635.8384185,-0.37841796875,0.00390625,0.9169921875,-0.42724609375,-0.06103515625,0.1220703125,-0.0054931640625,21.7474365234375,-165.95947265625
1758179635.848275,-0.38232421875,0.00439453125,0.92822265625,-0.30517578125,-0.1220703125,0.0,-0.010986328125,21.7474365234375,-165.95947265625
1758179635.8583088,-0.38232421875,0.00439453125,0.92822265625,-0.30517578125,-0.1220703125,0.0,-0.010986328125,21.7474365234375,-165.95947265625
1758179635.8683295,-0.38427734375,0.00390625,0.9189453125,-0.1220703125,-0.06103515625,-0.1220703125,-0.010986328125,21.7529296875,-165.95947265625
1758179635.8787572,-0.38427734375,0.00390625,0.9189453125,-0.1220703125,-0.06103515625,-0.1220703125,-0.010986328125,21.7529296875,-165.9649658203125
1758179635.8884482,-0.38525390625,0.001953125,0.92333984375,-0.1220703125,-0.18310546875,-0.244140625,-0.010986328125,21.7584228515625,-165.9649658203125
1758179635.8984182,-0.38525390625,0.001953125,0.92333984375,-0.1220703125,-0.18310546875,-0.244140625,-0.010986328125,21.7584228515625,-165.970458984375
1758179635.908406,-0.3818359375,0.0,0.92333984375,-0.42724609375,-0.18310546875,-0.244140625,-0.0164794921875,21.7584228515625,-165.970458984375
1758179635.9190385,-0.3818359375,0.0,0.92333984375,-0.42724609375,-0.18310546875,-0.244140625,-0.02197265625,21.763916015625,-165.9759521484375
1758179635.9284883,-0.380859375,0.00146484375,0.9208984375,-0.54931640625,-0.244140625,-0.244140625,-0.0274658203125,21.763916015625,-165.9759521484375
1758179635.944869,-0.380859375,0.00146484375,0.9208984375,-0.54931640625,-0.244140625,-0.244140625,-0.032958984375,21.763916015625,-165.9759521484375
1758179635.9522567,-0.38037109375,-0.001953125,0.927734375,-0.42724609375,-0.244140625,-0.18310546875,-0.0384521484375,21.763916015625,-165.9814453125
1758179635.9585917,-0.38037109375,-0.001953125,0.927734375,-0.42724609375,-0.244140625,-0.18310546875,-0.0384521484375,21.7694091796875,-165.9814453125
1758179635.9688118,-0.373046875,-0.0009765625,0.9248046875,-0.3662109375,-0.244140625,-0.244140625,-0.0439453125,21.7694091796875,-165.9814453125
1758179635.9789054,-0.373046875,-0.0009765625,0.9248046875,-0.3662109375,-0.244140625,-0.244140625,-0.0494384765625,21.7694091796875,-165.9869384765625
1758179635.9884791,-0.36865234375,0.0,0.9326171875,0.3662109375,-0.06103515625,-0.244140625,-0.0439453125,21.7694091796875,-165.9869384765625
1758179635.9984722,-0.36865234375,0.0,0.9326171875,0.3662109375,-0.06103515625,-0.244140625,-0.0439453125,21.77490234375,-165.992431640625
1758179636.0085063,-0.36962890625,0.00048828125,0.9287109375,0.18310546875,0.0,-0.1220703125,-0.0384521484375,21.77490234375,-165.992431640625
1758179636.0184996,-0.36962890625,0.00048828125,0.9287109375,0.18310546875,0.0,-0.1220703125,-0.0384521484375,21.77490234375,-165.992431640625
1758179636.0284941,-0.3681640625,0.00048828125,0.92724609375,-0.48828125,0.0,-0.06103515625,-0.0439453125,21.7803955078125,-165.992431640625
1758179636.041556,-0.3681640625,0.00048828125,0.92724609375,-0.48828125,0.0,-0.06103515625,-0.0494384765625,21.7803955078125,-165.9979248046875
1758179636.0488756,-0.3642578125,0.00732421875,0.93505859375,-0.8544921875,0.06103515625,0.0,-0.054931640625,21.7803955078125,-165.9979248046875
1758179636.0585444,-0.3642578125,0.00732421875,0.93505859375,-0.8544921875,0.06103515625,0.0,-0.0604248046875,21.785888671875,-165.9979248046875
1758179636.0685244,-0.36376953125,-0.00048828125,0.92529296875,1.0986328125,0.244140625,0.0,-0.0494384765625,21.785888671875,-165.9979248046875
1758179636.0790422,-0.36376953125,-0.00048828125,0.92529296875,1.0986328125,0.244140625,0.0,-0.0384521484375,21.785888671875,-165.9979248046875
1758179636.088541,-0.3662109375,-0.01123046875,0.9501953125,-2.5634765625,0.42724609375,0.3662109375,-0.0604248046875,21.7913818359375,-165.9979248046875
1758179636.099036,-0.3662109375,-0.01123046875,0.9501953125,-2.5634765625,0.42724609375,0.3662109375,-0.087890625,21.796875,-165.992431640625
1758179636.1086662,-0.36376953125,-0.0068359375,0.9208984375,-0.9765625,0.54931640625,0.18310546875,-0.0933837890625,21.8023681640625,-165.992431640625
1758179636.1187377,-0.36376953125,-0.0068359375,0.9208984375,-0.9765625,0.54931640625,0.18310546875,-0.1043701171875,21.8023681640625,-165.992431640625
1758179636.1286554,-0.3662109375,-0.005859375,0.931640625,1.3427734375,0.48828125,0.0,-0.0933837890625,21.807861328125,-165.9979248046875
1758179636.1388278,-0.3662109375,-0.005859375,0.931640625,1.3427734375,0.48828125,0.0,-0.076904296875,21.8133544921875,-165.9979248046875
1758179636.148742,-0.3671875,0.00244140625,0.931640625,0.0,0.48828125,0.1220703125,-0.076904296875,21.81884765625,-165.9979248046875
1758179636.158795,-0.3671875,0.00244140625,0.931640625,0.0,0.48828125,0.1220703125,-0.076904296875,21.81884765625,-165.9979248046875
1758179636.1686418,-0.36767578125,0.0068359375,0.923828125,-0.06103515625,0.3662109375,0.244140625,-0.076904296875,21.8243408203125,-165.9979248046875
1758179636.1792214,-0.36767578125,0.0068359375,0.923828125,-0.06103515625,0.3662109375,0.244140625,-0.076904296875,21.8243408203125,-165.9979248046875
1758179636.1886537,-0.37158203125,0.0009765625,0.93310546875,-0.18310546875,0.30517578125,0.3662109375,-0.076904296875,21.8243408203125,-165.992431640625
1758179636.1988714,-0.37158203125,0.0009765625,0.93310546875,-0.18310546875,0.30517578125,0.3662109375,-0.076904296875,21.829833984375,-165.992431640625
1758179636.2088206,-0.36962890625,-0.001953125,0.92236328125,-0.42724609375,0.244140625,0.54931640625,-0.076904296875,21.829833984375,-165.9869384765625
1758179636.21888,-0.36962890625,-0.001953125,0.92236328125,-0.42724609375,0.244140625,0.54931640625,-0.0823974609375,21.829833984375,-165.9814453125
1758179636.228796,-0.36865234375,-0.0048828125,0.92578125,-0.54931640625,0.06103515625,0.6103515625,-0.0823974609375,21.829833984375,-165.9759521484375
1758179636.2389588,-0.36865234375,-0.0048828125,0.92578125,-0.54931640625,0.06103515625,0.6103515625,-0.087890625,21.829833984375,-165.970458984375
1758179636.2487948,-0.3701171875,-0.00146484375,0.93115234375,-0.42724609375,0.06103515625,0.732421875,-0.087890625,21.829833984375,-165.9649658203125
1758179636.259001,-0.3701171875,-0.00146484375,0.93115234375,-0.42724609375,0.06103515625,0.732421875,-0.087890625,21.829833984375,-165.95947265625
1758179636.2687867,-0.36865234375,0.0009765625,0.92529296875,-0.1220703125,0.06103515625,0.79345703125,-0.087890625,21.829833984375,-165.9539794921875
1758179636.2794971,-0.36865234375,0.0009765625,0.92529296875,-0.1220703125,0.06103515625,0.79345703125,-0.0823974609375,21.829833984375,-165.9429931640625
1758179636.288803,-0.36962890625,0.00146484375,0.9306640625,-1.03759765625,0.06103515625,0.79345703125,-0.087890625,21.829833984375,-165.9375
1758179636.299145,-0.36962890625,0.00146484375,0.9306640625,-1.03759765625,0.06103515625,0.79345703125,-0.098876953125,21.829833984375,-165.926513671875
1758179636.308944,-0.36572265625,0.00244140625,0.93017578125,-1.0986328125,0.1220703125,0.8544921875,-0.1043701171875,21.829833984375,-165.9210205078125
1758179636.3189719,-0.36572265625,0.00244140625,0.93017578125,-1.0986328125,0.1220703125,0.8544921875,-0.10986328125,21.829833984375,-165.91552734375
1758179636.328922,-0.36328125,0.00927734375,0.92236328125,-0.244140625,0.18310546875,0.9765625,-0.10986328125,21.829833984375,-165.904541015625
1758179636.3390505,-0.36328125,0.00927734375,0.92236328125,-0.244140625,0.18310546875,0.9765625,-0.1043701171875,21.829833984375,-165.8935546875
1758179636.3489852,-0.36767578125,-0.0029296875,0.939453125,-0.732421875,0.06103515625,0.732421875,-0.10986328125,21.829833984375,-165.8880615234375
1758179636.3590496,-0.36767578125,-0.0029296875,0.939453125,-0.732421875,0.06103515625,0.732421875,-0.10986328125,21.829833984375,-165.882568359375
1758179636.3689198,-0.365234375,0.00244140625,0.92724609375,-1.77001953125,0.1220703125,0.54931640625,-0.1263427734375,21.829833984375,-165.8770751953125
1758179636.3793962,-0.365234375,0.00244140625,0.92724609375,-1.77001953125,0.1220703125,0.54931640625,-0.142822265625,21.829833984375,-165.8770751953125
1758179636.3889203,-0.3642578125,0.001953125,0.9287109375,-0.30517578125,0.18310546875,0.48828125,-0.142822265625,21.829833984375,-165.87158203125
1758179636.399123,-0.3642578125,0.001953125,0.9287109375,-0.30517578125,0.18310546875,0.48828125,-0.142822265625,21.829833984375,-165.8660888671875
1758179636.4091954,-0.35986328125,0.00732421875,0.9306640625,-0.244140625,0.3662109375,0.48828125,-0.1373291015625,21.829833984375,-165.8660888671875
1758179636.4190536,-0.35986328125,0.00732421875,0.9306640625,-0.244140625,0.3662109375,0.48828125,-0.1373291015625,21.829833984375,-165.860595703125
1758179636.4289882,-0.359375,0.0087890625,0.9296875,0.48828125,0.42724609375,0.3662109375,-0.1318359375,21.829833984375,-165.8551025390625
1758179636.4392693,-0.359375,0.0087890625,0.9296875,0.48828125,0.42724609375,0.3662109375,-0.120849609375,21.8353271484375,-165.8551025390625
1758179636.4490418,-0.36572265625,-0.001953125,0.93896484375,-0.67138671875,0.48828125,0.1220703125,-0.1263427734375,21.8353271484375,-165.8551025390625
1758179636.4592714,-0.36572265625,-0.001953125,0.93896484375,-0.67138671875,0.48828125,0.1220703125,-0.1318359375,21.8408203125,-165.8551025390625
1758179636.4690568,-0.36328125,0.0,0.92626953125,-1.15966796875,0.6103515625,0.18310546875,-0.1373291015625,21.8408203125,-165.8551025390625
1758179636.4795287,-0.36328125,0.0,0.92626953125,-1.15966796875,0.6103515625,0.18310546875,-0.1483154296875,21.8463134765625,-165.8551025390625
1758179636.4891043,-0.36572265625,-0.00634765625,0.93017578125,-0.48828125,0.48828125,0.1220703125,-0.15380859375,21.8463134765625,-165.8551025390625
1758179636.4991865,-0.3671875,-0.001953125,0.9326171875,-0.1220703125,0.48828125,0.0,-0.15380859375,21.851806640625,-165.8551025390625
1758179636.509283,-0.3671875,-0.001953125,0.9326171875,-0.1220703125,0.48828125,0.0,-0.15380859375,21.851806640625,-165.8551025390625
1758179636.5191875,-0.37158203125,0.00244140625,0.9248046875,0.30517578125,0.54931640625,0.0,-0.15380859375,21.851806640625,-165.8551025390625
1758179636.5291414,-0.37158203125,0.00244140625,0.9248046875,0.30517578125,0.54931640625,0.0,-0.1483154296875,21.8572998046875,-165.860595703125
1758179636.539199,-0.3720703125,0.00439453125,0.92919921875,-0.54931640625,0.48828125,0.0,-0.1483154296875,21.86279296875,-165.860595703125
1758179636.5496106,-0.3720703125,0.00439453125,0.92919921875,-0.54931640625,0.48828125,0.0,-0.15380859375,21.86279296875,-165.860595703125
1758179636.5594244,-0.37109375,0.005859375,0.9267578125,-0.6103515625,0.42724609375,-0.06103515625,-0.15380859375,21.8682861328125,-165.8660888671875
1758179636.5691314,-0.37109375,0.005859375,0.9267578125,-0.6103515625,0.42724609375,-0.06103515625,-0.1593017578125,21.8682861328125,-165.8660888671875
1758179636.5795288,-0.37109375,0.00146484375,0.927734375,-1.28173828125,0.244140625,0.0,-0.1702880859375,21.8682861328125,-165.8660888671875
1758179636.5891662,-0.37109375,0.00146484375,0.927734375,-1.28173828125,0.244140625,0.0,-0.1812744140625,21.873779296875,-165.8660888671875
1758179636.5993717,-0.37890625,-0.001953125,0.92578125,-1.46484375,0.244140625,0.06103515625,-0.1922607421875,21.873779296875,-165.87158203125
1758179636.6102407,-0.37890625,-0.001953125,0.92578125,-1.46484375,0.244140625,0.06103515625,-0.2032470703125,21.873779296875,-165.87158203125
1758179636.6193204,-0.376953125,-0.00390625,0.921875,-1.40380859375,0.1220703125,0.1220703125,-0.2142333984375,21.873779296875,-165.87158203125
1758179636.6295528,-0.376953125,-0.00390625,0.921875,-1.40380859375,0.1220703125,0.1220703125,-0.2252197265625,21.873779296875,-165.87158203125
1758179636.6394844,-0.3779296875,-0.00390625,0.92529296875,-1.3427734375,-0.06103515625,0.1220703125,-0.24169921875,21.873779296875,-165.87158203125
1758179636.6498404,-0.3779296875,-0.00390625,0.92529296875,-1.3427734375,-0.06103515625,0.1220703125,-0.252685546875,21.873779296875,-165.87158203125
1758179636.6593604,-0.3759765625,0.0,0.921875,-2.197265625,-0.3662109375,0.244140625,-0.263671875,21.873779296875,-165.8660888671875
1758179636.6694574,-0.3759765625,0.0,0.921875,-2.197265625,-0.3662109375,0.244140625,-0.28564453125,21.8682861328125,-165.8660888671875
1758179636.6797822,-0.38037109375,0.0,0.9296875,-2.13623046875,-0.42724609375,0.3662109375,-0.3021240234375,21.8682861328125,-165.8660888671875
1758179636.6893582,-0.38037109375,0.0,0.9296875,-2.13623046875,-0.42724609375,0.3662109375,-0.3240966796875,21.86279296875,-165.860595703125
1758179636.699605,-0.37646484375,-0.0068359375,0.92578125,-2.50244140625,-0.48828125,0.42724609375,-0.340576171875,21.86279296875,-165.8551025390625
1758179636.7100189,-0.37646484375,-0.0068359375,0.92578125,-2.50244140625,-0.48828125,0.42724609375,-0.362548828125,21.8572998046875,-165.8551025390625
1758179636.7194731,-0.3740234375,-0.00830078125,0.9208984375,-2.5634765625,-0.67138671875,0.42724609375,-0.384521484375,21.851806640625,-165.849609375
1758179636.7299745,-0.3740234375,-0.00830078125,0.9208984375,-2.5634765625,-0.67138671875,0.42724609375,-0.406494140625,21.8463134765625,-165.8441162109375
1758179636.7395072,-0.37890625,-0.0078125,0.92919921875,-2.0751953125,-0.67138671875,0.42724609375,-0.428466796875,21.8408203125,-165.838623046875
1758179636.7496965,-0.37890625,-0.0078125,0.92919921875,-2.0751953125,-0.67138671875,0.42724609375,-0.4449462890625,21.8353271484375,-165.838623046875
1758179636.7595558,-0.37451171875,-0.00537109375,0.9287109375,-2.62451171875,-0.732421875,0.48828125,-0.4669189453125,21.829833984375,-165.8331298828125
1758179636.7695656,-0.37451171875,-0.00537109375,0.9287109375,-2.62451171875,-0.732421875,0.48828125,-0.4888916015625,21.8243408203125,-165.82763671875
1758179636.7799442,-0.373046875,0.001953125,0.91064453125,-2.3193359375,-0.54931640625,0.48828125,-0.5108642578125,21.81884765625,-165.8221435546875
1758179636.7895617,-0.373046875,0.001953125,0.91064453125,-2.3193359375,-0.54931640625,0.48828125,-0.52734375,21.8133544921875,-165.816650390625
1758179636.7995744,-0.37744140625,-0.0068359375,0.943359375,-1.3427734375,-0.48828125,0.244140625,-0.5438232421875,21.8133544921875,-165.816650390625
1758179636.8100975,-0.37744140625,-0.0068359375,0.943359375,-1.3427734375,-0.48828125,0.244140625,-0.5548095703125,21.807861328125,-165.8111572265625
1758179636.8196673,-0.3779296875,-0.00927734375,0.9287109375,-3.84521484375,-0.1220703125,0.18310546875,-0.5767822265625,21.807861328125,-165.8111572265625
1758179636.829618,-0.3779296875,-0.00927734375,0.9287109375,-3.84521484375,-0.1220703125,0.18310546875,-0.615234375,21.807861328125,-165.8111572265625
1758179636.839742,-0.3740234375,-0.0078125,0.9189453125,-2.8076171875,-0.18310546875,0.1220703125,-0.6427001953125,21.807861328125,-165.8056640625
1758179636.8496783,-0.3740234375,-0.0078125,0.9189453125,-2.8076171875,-0.18310546875,0.1220703125,-0.670166015625,21.807861328125,-165.8056640625
1758179636.8595846,-0.3818359375,-0.01220703125,0.931640625,-2.685546875,-0.1220703125,0.0,-0.692138671875,21.807861328125,-165.8056640625
1758179636.8696299,-0.3818359375,-0.01220703125,0.931640625,-2.685546875,-0.1220703125,0.0,-0.7196044921875,21.807861328125,-165.8056640625
1758179636.8800006,-0.38037109375,-0.00927734375,0.91552734375,-2.99072265625,0.0,0.1220703125,-0.7470703125,21.807861328125,-165.8001708984375
1758179636.8895705,-0.38037109375,-0.00927734375,0.91552734375,-2.99072265625,0.0,0.1220703125,-0.7745361328125,21.8133544921875,-165.8001708984375
1758179636.8996782,-0.38671875,-0.01513671875,0.92822265625,-2.13623046875,0.0,0.30517578125,-0.7965087890625,21.8133544921875,-165.8001708984375
1758179636.9101155,-0.38671875,-0.01513671875,0.92822265625,-2.13623046875,0.0,0.30517578125,-0.81298828125,21.81884765625,-165.794677734375
1758179636.9197206,-0.3798828125,-0.0166015625,0.92724609375,-3.35693359375,0.06103515625,0.48828125,-0.8349609375,21.81884765625,-165.7891845703125
1758179636.9299057,-0.3798828125,-0.0166015625,0.92724609375,-3.35693359375,0.06103515625,0.48828125,-0.867919921875,21.8243408203125,-165.78369140625
1758179636.9399397,-0.37890625,-0.01708984375,0.91845703125,-3.23486328125,0.0,0.732421875,-0.8953857421875,21.8243408203125,-165.7781982421875
1758179636.9509134,-0.37890625,-0.01708984375,0.91845703125,-3.23486328125,0.0,0.732421875,-0.9228515625,21.829833984375,-165.7672119140625
1758179636.9597578,-0.38232421875,-0.02294921875,0.9287109375,-3.0517578125,0.0,0.67138671875,-0.9503173828125,21.829833984375,-165.76171875
1758179636.9696717,-0.38232421875,-0.02294921875,0.9287109375,-3.0517578125,0.0,0.67138671875,-0.977783203125,21.8353271484375,-165.750732421875
1758179636.9801164,-0.3837890625,-0.0166015625,0.92236328125,-2.38037109375,0.1220703125,0.6103515625,-0.999755859375,21.8408203125,-165.7452392578125
1758179636.9896963,-0.3837890625,-0.0166015625,0.92236328125,-2.38037109375,0.1220703125,0.6103515625,-1.021728515625,21.8408203125,-165.73974609375
1758179637.0000043,-0.38671875,-0.013671875,0.921875,-1.5869140625,0.18310546875,0.48828125,-1.0382080078125,21.8463134765625,-165.7342529296875
1758179637.010209,-0.38671875,-0.013671875,0.921875,-1.5869140625,0.18310546875,0.48828125,-1.0491943359375,21.851806640625,-165.7232666015625
1758179637.0198088,-0.38427734375,-0.01171875,0.9228515625,-2.197265625,0.244140625,0.42724609375,-1.065673828125,21.8572998046875,-165.7177734375
1758179637.0297935,-0.38427734375,-0.01171875,0.9228515625,-2.197265625,0.244140625,0.42724609375,-1.087646484375,21.86279296875,-165.7122802734375
1758179637.0398984,-0.38134765625,-0.01318359375,0.921875,-2.13623046875,0.18310546875,0.42724609375,-1.1041259765625,21.8682861328125,-165.706787109375
1758179637.0498855,-0.38134765625,-0.01318359375,0.921875,-2.13623046875,0.18310546875,0.42724609375,-1.12060546875,21.873779296875,-165.7012939453125
1758179637.059804,-0.3779296875,-0.00927734375,0.919921875,-1.953125,0.244140625,0.6103515625,-1.1370849609375,21.8792724609375,-165.69580078125
1758179637.0698104,-0.3779296875,-0.00927734375,0.919921875,-1.953125,0.244140625,0.6103515625,-1.153564453125,21.884765625,-165.6903076171875
1758179637.080214,-0.3828125,-0.025390625,0.9306640625,-1.953125,0.18310546875,0.54931640625,-1.1700439453125,21.895751953125,-165.684814453125
1758179637.089852,-0.3828125,-0.025390625,0.9306640625,-1.953125,0.18310546875,0.54931640625,-1.1865234375,21.895751953125,-165.673828125
1758179637.0999825,-0.3798828125,-0.02294921875,0.9248046875,-1.89208984375,0.30517578125,0.42724609375,-1.2030029296875,21.9012451171875,-165.6683349609375
1758179637.1102998,-0.3798828125,-0.02294921875,0.9248046875,-1.89208984375,0.30517578125,0.42724609375,-1.2139892578125,21.9122314453125,-165.6683349609375
1758179637.1199155,-0.37548828125,-0.02197265625,0.9248046875,-0.244140625,0.3662109375,0.3662109375,-1.2249755859375,21.917724609375,-165.662841796875
1758179637.130013,-0.37548828125,-0.02197265625,0.9248046875,-0.244140625,0.3662109375,0.3662109375,-1.2249755859375,21.9232177734375,-165.6573486328125
1758179637.1399915,-0.37109375,-0.0166015625,0.92724609375,-0.79345703125,0.244140625,0.42724609375,-1.2249755859375,21.9287109375,-165.65185546875
1758179637.149972,-0.37109375,-0.0166015625,0.92724609375,-0.79345703125,0.244140625,0.42724609375,-1.23046875,21.9342041015625,-165.6463623046875
1758179637.1598654,-0.36572265625,-0.013671875,0.92724609375,-1.8310546875,0.18310546875,0.6103515625,-1.241455078125,21.939697265625,-165.640869140625
1758179637.1699092,-0.36572265625,-0.013671875,0.92724609375,-1.8310546875,0.18310546875,0.6103515625,-1.2579345703125,21.939697265625,-165.6353759765625
1758179637.1804671,-0.37353515625,-0.01904296875,0.92822265625,-1.5869140625,0.244140625,0.732421875,-1.2689208984375,21.9451904296875,-165.6298828125
1758179637.1899161,-0.37353515625,-0.01904296875,0.92822265625,-1.5869140625,0.244140625,0.732421875,-1.2799072265625,21.9451904296875,-165.618896484375
1758179637.1999393,-0.3759765625,-0.025390625,0.93359375,-1.64794921875,0.42724609375,0.54931640625,-1.29638671875,21.95068359375,-165.6134033203125
1758179637.2104354,-0.3759765625,-0.025390625,0.93359375,-1.64794921875,0.42724609375,0.54931640625,-1.307373046875,21.9561767578125,-165.60791015625
1758179637.2200613,-0.369140625,-0.02392578125,0.92431640625,-1.0986328125,0.42724609375,0.18310546875,-1.318359375,21.961669921875,-165.60791015625
1758179637.2301812,-0.369140625,-0.02392578125,0.92431640625,-1.0986328125,0.42724609375,0.18310546875,-1.329345703125,21.9671630859375,-165.6024169921875
1758179637.240331,-0.3662109375,-0.02392578125,0.9296875,-0.244140625,0.3662109375,0.06103515625,-1.3348388671875,21.9671630859375,-165.6024169921875
1758179637.2500796,-0.3662109375,-0.02392578125,0.9296875,-0.244140625,0.3662109375,0.06103515625,-1.3348388671875,21.97265625,-165.6024169921875
1758179637.2601776,-0.3671875,-0.02392578125,0.931640625,-0.18310546875,0.3662109375,0.06103515625,-1.3348388671875,21.9781494140625,-165.60791015625
1758179637.2700279,-0.3671875,-0.02392578125,0.931640625,-0.18310546875,0.3662109375,0.06103515625,-1.34033203125,21.9781494140625,-165.60791015625
1758179637.2806337,-0.36279296875,-0.01708984375,0.92236328125,0.48828125,0.30517578125,0.1220703125,-1.3348388671875,21.983642578125,-165.60791015625
1758179637.290052,-0.36279296875,-0.01708984375,0.92236328125,0.48828125,0.30517578125,0.1220703125,-1.329345703125,21.983642578125,-165.60791015625
1758179637.3002381,-0.365234375,-0.02587890625,0.93896484375,-0.18310546875,0.06103515625,0.18310546875,-1.329345703125,21.983642578125,-165.60791015625
1758179637.3105607,-0.365234375,-0.02587890625,0.93896484375,-0.18310546875,0.06103515625,0.18310546875,-1.329345703125,21.983642578125,-165.60791015625
1758179637.320047,-0.359375,-0.0205078125,0.92822265625,-0.67138671875,0.0,0.06103515625,-1.3348388671875,21.983642578125,-165.60791015625
1758179637.3302035,-0.359375,-0.0205078125,0.92822265625,-0.67138671875,0.0,0.06103515625,-1.34033203125,21.9781494140625,-165.60791015625
1758179637.3402288,-0.36181640625,-0.02587890625,0.93115234375,1.03759765625,0.0,0.0,-1.3348388671875,21.9781494140625,-165.60791015625
1758179637.3502917,-0.36181640625,-0.02587890625,0.93115234375,1.03759765625,0.0,0.0,-1.3238525390625,21.97265625,-165.6134033203125
1758179637.3601048,-0.36572265625,-0.02587890625,0.93798828125,1.40380859375,0.18310546875,0.0,-1.3128662109375,21.97265625,-165.6134033203125
1758179637.370089,-0.36572265625,-0.02587890625,0.93798828125,1.40380859375,0.18310546875,0.0,-1.3018798828125,21.97265625,-165.618896484375
1758179637.3806276,-0.36328125,-0.02294921875,0.92529296875,1.953125,0.18310546875,0.06103515625,-1.285400390625,21.9671630859375,-165.618896484375
1758179637.3901708,-0.36328125,-0.02294921875,0.92529296875,1.953125,0.18310546875,0.06103515625,-1.263427734375,21.9671630859375,-165.618896484375
1758179637.4004338,-0.361328125,-0.025390625,0.93115234375,1.46484375,0.18310546875,0.30517578125,-1.2469482421875,21.9671630859375,-165.6243896484375
1758179637.410965,-0.361328125,-0.025390625,0.93115234375,1.46484375,0.18310546875,0.30517578125,-1.2359619140625,21.9671630859375,-165.618896484375
1758179637.420174,-0.35986328125,-0.02294921875,0.93212890625,2.01416015625,0.0,0.30517578125,-1.2139892578125,21.961669921875,-165.618896484375
1758179637.4303873,-0.35986328125,-0.02294921875,0.93212890625,2.01416015625,0.0,0.30517578125,-1.197509765625,21.961669921875,-165.618896484375
1758179637.4403431,-0.35986328125,-0.02294921875,0.9287109375,3.2958984375,-0.1220703125,0.244140625,-1.1700439453125,21.9561767578125,-165.618896484375
1758179637.4502673,-0.35986328125,-0.02294921875,0.9287109375,3.2958984375,-0.1220703125,0.244140625,-1.1370849609375,21.95068359375,-165.618896484375
1758179637.4602077,-0.3662109375,-0.01513671875,0.92626953125,3.60107421875,-0.30517578125,0.30517578125,-1.1041259765625,21.9451904296875,-165.618896484375
1758179637.4702444,-0.3662109375,-0.01513671875,0.92626953125,3.60107421875,-0.30517578125,0.30517578125,-1.0711669921875,21.939697265625,-165.618896484375
1758179637.4806309,-0.3662109375,-0.01611328125,0.9326171875,3.2958984375,-0.3662109375,0.244140625,-1.03271484375,21.9342041015625,-165.618896484375
1758179637.490304,-0.3662109375,-0.01611328125,0.9326171875,3.2958984375,-0.3662109375,0.244140625,-1.0052490234375,21.9232177734375,-165.618896484375
1758179637.5002608,-0.3671875,-0.013671875,0.9267578125,3.662109375,-0.3662109375,0.06103515625,-0.966796875,21.917724609375,-165.6243896484375
1758179637.5109735,-0.3671875,-0.013671875,0.9267578125,3.662109375,-0.3662109375,0.06103515625,-0.933837890625,21.9122314453125,-165.6243896484375
1758179637.5202866,-0.36767578125,-0.01220703125,0.93017578125,4.57763671875,-0.3662109375,-0.06103515625,-0.8953857421875,21.90673828125,-165.6298828125
1758179637.530515,-0.36767578125,-0.01220703125,0.93017578125,4.57763671875,-0.3662109375,-0.06103515625,-0.8514404296875,21.9012451171875,-165.6298828125
1758179637.5407672,-0.37158203125,-0.0146484375,0.92724609375,4.33349609375,-0.3662109375,-0.1220703125,-0.8074951171875,21.8902587890625,-165.6353759765625
1758179637.550511,-0.37158203125,-0.0146484375,0.92724609375,4.33349609375,-0.3662109375,-0.1220703125,-0.76904296875,21.884765625,-165.640869140625
1758179637.560301,-0.3779296875,-0.01025390625,0.92431640625,4.08935546875,-0.3662109375,-0.18310546875,-0.7305908203125,21.8792724609375,-165.640869140625
1758179637.5705242,-0.3779296875,-0.01025390625,0.92431640625,4.08935546875,-0.3662109375,-0.18310546875,-0.692138671875,21.873779296875,-165.6463623046875
1758179637.5806913,-0.3779296875,-0.0283203125,0.923828125,3.7841796875,-0.18310546875,-0.54931640625,-0.6591796875,21.873779296875,-165.6573486328125
1758179637.5904408,-0.3779296875,-0.0283203125,0.923828125,3.7841796875,-0.18310546875,-0.54931640625,-0.626220703125,21.8682861328125,-165.662841796875
1758179637.6005154,-0.3798828125,-0.005859375,0.92919921875,3.662109375,-0.244140625,-0.30517578125,-0.59326171875,21.8682861328125,-165.6683349609375
1758179637.611168,-0.3798828125,-0.005859375,0.92919921875,3.662109375,-0.244140625,-0.30517578125,-0.560302734375,21.86279296875,-165.673828125
1758179637.6204336,-0.38037109375,-0.00244140625,0.93115234375,4.21142578125,-0.1220703125,-0.06103515625,-0.5218505859375,21.86279296875,-165.6793212890625
1758179637.6305249,-0.38037109375,-0.00244140625,0.93115234375,4.21142578125,-0.1220703125,-0.06103515625,-0.4833984375,21.86279296875,-165.684814453125
1758179637.6418335,-0.380859375,0.00244140625,0.92236328125,2.99072265625,-0.1220703125,-0.18310546875,-0.4559326171875,21.86279296875,-165.684814453125
1758179637.651168,-0.380859375,0.00244140625,0.92236328125,2.99072265625,-0.1220703125,-0.18310546875,-0.428466796875,21.86279296875,-165.6903076171875
1758179637.660467,-0.384765625,0.00439453125,0.92529296875,2.13623046875,-0.06103515625,-0.244140625,-0.406494140625,21.86279296875,-165.69580078125
1758179637.6705353,-0.384765625,0.00439453125,0.92529296875,2.13623046875,-0.06103515625,-0.244140625,-0.3900146484375,21.86279296875,-165.69580078125
1758179637.6809251,-0.39013671875,-0.00244140625,0.9248046875,1.03759765625,0.0,-0.18310546875,-0.3790283203125,21.86279296875,-165.7012939453125
1758179637.690549,-0.39013671875,-0.00244140625,0.9248046875,1.03759765625,0.0,-0.18310546875,-0.3680419921875,21.8682861328125,-165.7012939453125
1758179637.7005622,-0.39404296875,-0.0078125,0.91845703125,1.03759765625,0.1220703125,-0.30517578125,-0.362548828125,21.8682861328125,-165.706787109375
1758179637.7113013,-0.39404296875,-0.0078125,0.91845703125,1.03759765625,0.1220703125,-0.30517578125,-0.3515625,21.873779296875,-165.7122802734375
1758179637.7206717,-0.3896484375,-0.00439453125,0.921875,2.01416015625,0.1220703125,-0.42724609375,-0.3350830078125,21.8792724609375,-165.7122802734375
1758179637.730997,-0.3896484375,-0.00439453125,0.921875,2.01416015625,0.1220703125,-0.42724609375,-0.3131103515625,21.884765625,-165.7177734375
1758179637.741426,-0.38232421875,0.0,0.92041015625,1.8310546875,-0.06103515625,-0.42724609375,-0.296630859375,21.8902587890625,-165.7232666015625
1758179637.7510288,-0.38232421875,0.0,0.92041015625,1.8310546875,-0.06103515625,-0.42724609375,-0.28564453125,21.8902587890625,-165.728759765625
1758179637.7606537,-0.384765625,0.0029296875,0.92431640625,0.8544921875,-0.30517578125,-0.3662109375,-0.274658203125,21.8902587890625,-165.7342529296875
1758179637.7705667,-0.384765625,0.0029296875,0.92431640625,0.8544921875,-0.30517578125,-0.3662109375,-0.2691650390625,21.895751953125,-165.7342529296875
1758179637.781072,-0.38818359375,0.0009765625,0.9228515625,0.244140625,-0.30517578125,-0.244140625,-0.2691650390625,21.895751953125,-165.73974609375
1758179637.7907095,-0.38818359375,0.0009765625,0.9228515625,0.244140625,-0.30517578125,-0.244140625,-0.263671875,21.895751953125,-165.73974609375
1758179637.800696,-0.3837890625,-0.001953125,0.92138671875,0.30517578125,-0.244140625,-0.30517578125,-0.263671875,21.895751953125,-165.7452392578125
1758179637.8112452,-0.3837890625,-0.001953125,0.92138671875,0.30517578125,-0.244140625,-0.30517578125,-0.2581787109375,21.9012451171875,-165.7452392578125
1758179637.8206637,-0.37841796875,0.0,0.92626953125,0.54931640625,-0.30517578125,-0.42724609375,-0.2581787109375,21.9012451171875,-165.750732421875
1758179637.8309076,-0.37841796875,0.0,0.92626953125,0.54931640625,-0.30517578125,-0.42724609375,-0.252685546875,21.9012451171875,-165.7562255859375
1758179637.8408577,-0.37548828125,-0.00341796875,0.9267578125,0.244140625,-0.244140625,-0.42724609375,-0.252685546875,21.9012451171875,-165.76171875
1758179637.850963,-0.37548828125,-0.00341796875,0.9267578125,0.244140625,-0.244140625,-0.42724609375,-0.2471923828125,21.9012451171875,-165.7672119140625
1758179637.8607235,-0.3759765625,-0.00244140625,0.927734375,-0.18310546875,-0.1220703125,-0.30517578125,-0.252685546875,21.90673828125,-165.7672119140625
1758179637.8706825,-0.3759765625,-0.00244140625,0.927734375,-0.18310546875,-0.1220703125,-0.30517578125,-0.252685546875,21.90673828125,-165.772705078125
1758179637.881169,-0.3759765625,-0.00244140625,0.927734375,-0.1220703125,0.06103515625,-0.30517578125,-0.252685546875,21.90673828125,-165.7781982421875
1758179637.8907418,-0.3740234375,-0.00244140625,0.931640625,-0.1220703125,0.06103515625,-0.30517578125,-0.2581787109375,21.9122314453125,-165.7781982421875
1758179637.9008288,-0.37158203125,-0.00048828125,0.92919921875,0.18310546875,0.30517578125,-0.30517578125,-0.2581787109375,21.917724609375,-165.78369140625
1758179637.9113183,-0.37158203125,-0.00048828125,0.92919921875,0.18310546875,0.30517578125,-0.30517578125,-0.252685546875,21.9232177734375,-165.7891845703125
1758179637.9207377,-0.36767578125,-0.00390625,0.9287109375,-0.18310546875,0.48828125,-0.244140625,-0.2581787109375,21.9287109375,-165.7891845703125
1758179637.9309614,-0.36767578125,-0.00390625,0.9287109375,-0.18310546875,0.48828125,-0.244140625,-0.2581787109375,21.9342041015625,-165.794677734375
1758179637.9414563,-0.36083984375,-0.0048828125,0.9345703125,-0.6103515625,0.6103515625,-0.1220703125,-0.263671875,21.939697265625,-165.8001708984375
1758179637.950902,-0.36083984375,-0.0048828125,0.9345703125,-0.6103515625,0.6103515625,-0.1220703125,-0.2691650390625,21.9451904296875,-165.8001708984375
1758179637.960797,-0.35302734375,-0.00341796875,0.93115234375,-0.48828125,0.42724609375,-0.1220703125,-0.274658203125,21.95068359375,-165.8056640625
1758179637.970798,-0.35302734375,-0.00341796875,0.93115234375,-0.48828125,0.42724609375,-0.1220703125,-0.2801513671875,21.95068359375,-165.8056640625
1758179637.9837303,-0.34521484375,-0.00244140625,0.94140625,-0.8544921875,0.1220703125,-0.18310546875,-0.2911376953125,21.95068359375,-165.8111572265625
1758179637.990853,-0.34521484375,-0.00244140625,0.94140625,-0.8544921875,0.1220703125,-0.18310546875,-0.296630859375,21.95068359375,-165.816650390625
1758179638.0008867,-0.3310546875,0.0107421875,0.90966796875,-3.47900390625,-0.732421875,-0.67138671875,-0.3350830078125,21.939697265625,-165.82763671875
1758179638.0138586,-0.3310546875,0.0107421875,0.90966796875,-3.47900390625,-0.732421875,-0.67138671875,-0.3680419921875,21.9287109375,-165.8331298828125
1758179638.0208745,-0.3505859375,-0.0048828125,0.95947265625,-3.173828125,-0.54931640625,-0.3662109375,-0.4010009765625,21.917724609375,-165.8441162109375
1758179638.030905,-0.3505859375,-0.0048828125,0.95947265625,-3.173828125,-0.54931640625,-0.3662109375,-0.4339599609375,21.90673828125,-165.849609375
1758179638.0468926,-0.35205078125,-0.0166015625,0.9208984375,0.244140625,-0.30517578125,-0.54931640625,-0.428466796875,21.895751953125,-165.860595703125
