timestamp,acc_x,acc_y,acc_z,gyro_x,gyro_y,gyro_z,angle_x,angle_y,angle_z
1758878111.772263,-0.68798828125,0.0751953125,0.72998046875,5.06591796875,-5.06591796875,-3.2958984375,4.3505859375,39.5343017578125,-73.092041015625
1758878111.780807,-0.68798828125,0.0751953125,0.72998046875,5.06591796875,-5.06591796875,-3.2958984375,4.3670654296875,39.5013427734375,-73.1414794921875
1758878111.7908404,-0.67041015625,0.111328125,0.7392578125,3.7841796875,-5.0048828125,-4.69970703125,4.361572265625,39.4683837890625,-73.212890625
1758878111.8017771,-0.67041015625,0.111328125,0.7392578125,3.7841796875,-5.0048828125,-4.69970703125,4.3560791015625,39.4354248046875,-73.27880859375
1758878111.811014,-0.66064453125,0.09521484375,0.7373046875,-3.41796875,-5.9814453125,-4.7607421875,4.28466796875,39.3914794921875,-73.3447265625
1758878111.8210466,-0.66064453125,0.09521484375,0.7373046875,-3.41796875,-5.9814453125,-4.7607421875,4.2132568359375,39.35302734375,-73.4051513671875
1758878111.8310323,-0.6474609375,0.068359375,0.740234375,-9.82666015625,-7.32421875,-4.21142578125,4.0814208984375,39.2926025390625,-73.465576171875
1758878111.8417068,-0.6474609375,0.068359375,0.740234375,-9.82666015625,-7.32421875,-4.21142578125,3.9495849609375,39.2376708984375,-73.5205078125
1758878111.8509095,-0.646484375,0.03515625,0.76025390625,-12.26806640625,-7.75146484375,-2.8076171875,3.8067626953125,39.17724609375,-73.5589599609375
1758878111.860915,-0.646484375,0.03515625,0.76025390625,-12.26806640625,-7.75146484375,-2.8076171875,3.6639404296875,39.1168212890625,-73.597412109375
1758878111.8709052,-0.64306640625,0.0087890625,0.7802734375,-11.5966796875,-6.53076171875,-1.3427734375,3.53759765625,39.0618896484375,-73.619384765625
1758878111.8804626,-0.64306640625,0.0087890625,0.7802734375,-11.5966796875,-6.53076171875,-1.3427734375,3.4112548828125,39.012451171875,-73.6468505859375
1758878111.890035,-0.5859375,0.00537109375,0.81640625,-8.1787109375,-4.82177734375,0.1220703125,3.328857421875,38.9739990234375,-73.6468505859375
1758878111.9000528,-0.5859375,0.00537109375,0.81640625,-8.1787109375,-4.82177734375,0.1220703125,3.2464599609375,38.935546875,-73.65234375
1758878111.910326,-0.546875,-0.005859375,0.84326171875,-3.173828125,-4.638671875,1.77001953125,3.2244873046875,38.8916015625,-73.6358642578125
1758878111.920174,-0.546875,-0.005859375,0.84326171875,-3.173828125,-4.638671875,1.77001953125,3.2025146484375,38.8421630859375,-73.6248779296875
1758878111.930138,-0.5390625,0.01025390625,0.83154296875,-1.03759765625,-5.126953125,3.0517578125,3.2080078125,38.7872314453125,-73.597412109375
1758878111.9401286,-0.5390625,0.01025390625,0.83154296875,-1.03759765625,-5.126953125,3.0517578125,3.2135009765625,38.726806640625,-73.5699462890625
1758878111.9508069,-0.556640625,0.03369140625,0.83154296875,1.8310546875,-5.4931640625,3.72314453125,3.251953125,38.660888671875,-73.531494140625
1758878111.9601417,-0.556640625,0.03369140625,0.83154296875,1.8310546875,-5.4931640625,3.72314453125,3.2904052734375,38.594970703125,-73.4930419921875
1758878111.9701064,-0.6015625,0.05810546875,0.80712890625,1.77001953125,-5.2490234375,3.47900390625,3.328857421875,38.5345458984375,-73.4600830078125
1758878111.9801214,-0.6015625,0.05810546875,0.80712890625,1.77001953125,-5.2490234375,3.47900390625,3.3673095703125,38.4686279296875,-73.421630859375
1758878111.9901636,-0.61376953125,0.07177734375,0.77392578125,2.25830078125,-5.06591796875,2.50244140625,3.40576171875,38.408203125,-73.399658203125
1758878112.000156,-0.61376953125,0.07177734375,0.77392578125,2.25830078125,-5.06591796875,2.50244140625,3.438720703125,38.3477783203125,-73.3721923828125
1758878112.0101602,-0.61328125,0.0712890625,0.78369140625,0.9765625,-4.94384765625,1.40380859375,3.4552001953125,38.2928466796875,-73.3612060546875
1758878112.0201824,-0.61328125,0.0712890625,0.78369140625,0.9765625,-4.94384765625,1.40380859375,3.4771728515625,38.2379150390625,-73.3447265625
1758878112.0301907,-0.60888671875,0.06640625,0.798828125,-1.220703125,-4.39453125,0.91552734375,3.4661865234375,38.1884765625,-73.333740234375
1758878112.0401974,-0.60888671875,0.06640625,0.798828125,-1.220703125,-4.39453125,0.91552734375,3.460693359375,38.133544921875,-73.32275390625
1758878112.0503166,-0.60009765625,0.04052734375,0.8056640625,-3.11279296875,-3.41796875,1.3427734375,3.438720703125,38.0950927734375,-73.311767578125
1758878112.060292,-0.60009765625,0.04052734375,0.8056640625,-3.11279296875,-3.41796875,1.3427734375,3.4222412109375,38.056640625,-73.2952880859375
1758878112.070292,-0.58984375,0.01806640625,0.81689453125,-1.5869140625,-2.3193359375,2.01416015625,3.416748046875,38.023681640625,-73.2733154296875
1758878112.0802984,-0.58984375,0.01806640625,0.81689453125,-1.5869140625,-2.3193359375,2.01416015625,3.416748046875,37.9962158203125,-73.2513427734375
1758878112.0902905,-0.59130859375,0.0107421875,0.81005859375,2.62451171875,-1.8310546875,2.685546875,3.460693359375,37.96875,-73.2183837890625
1758878112.1003034,-0.59130859375,0.0107421875,0.81005859375,2.62451171875,-1.8310546875,2.685546875,3.4991455078125,37.9412841796875,-73.19091796875
1758878112.1103003,-0.60546875,0.0361328125,0.791015625,5.859375,-1.64794921875,2.99072265625,3.5760498046875,37.9193115234375,-73.1634521484375
1758878112.1203132,-0.60546875,0.0361328125,0.791015625,5.859375,-1.64794921875,2.99072265625,3.6529541015625,37.891845703125,-73.1304931640625
1758878112.13032,-0.6259765625,0.05859375,0.78369140625,5.4931640625,-1.52587890625,3.35693359375,3.724365234375,37.869873046875,-73.0975341796875
1758878112.140324,-0.6259765625,0.05859375,0.78369140625,5.4931640625,-1.52587890625,3.35693359375,3.80126953125,37.847900390625,-73.0645751953125
1758878112.1503441,-0.6259765625,0.06689453125,0.76513671875,1.89208984375,-1.5869140625,3.47900390625,3.8397216796875,37.825927734375,-73.026123046875
1758878112.1603677,-0.6259765625,0.06689453125,0.76513671875,1.89208984375,-1.5869140625,3.47900390625,3.8836669921875,37.8094482421875,-72.9876708984375
1758878112.1703694,-0.62353515625,0.072265625,0.77587890625,0.0,-1.220703125,2.86865234375,3.900146484375,37.79296875,-72.9547119140625
1758878112.1803987,-0.62353515625,0.072265625,0.77587890625,0.0,-1.220703125,2.86865234375,3.922119140625,37.7764892578125,-72.9217529296875
1758878112.1904013,-0.58447265625,0.07177734375,0.806640625,0.06103515625,-0.67138671875,1.89208984375,3.93310546875,37.77099609375,-72.8997802734375
1758878112.2007914,-0.58447265625,0.07177734375,0.806640625,0.06103515625,-0.67138671875,1.89208984375,3.9495849609375,37.760009765625,-72.8778076171875
1758878112.2104723,-0.5419921875,0.0625,0.8369140625,0.6103515625,-0.732421875,1.220703125,3.966064453125,37.7490234375,-72.861328125
1758878112.2204435,-0.5419921875,0.0625,0.8369140625,0.6103515625,-0.732421875,1.220703125,3.9825439453125,37.7325439453125,-72.850341796875
1758878112.2304492,-0.525390625,0.05126953125,0.8544921875,2.197265625,-0.9765625,1.03759765625,4.010009765625,37.7105712890625,-72.8338623046875
1758878112.240472,-0.525390625,0.05126953125,0.8544921875,2.197265625,-0.9765625,1.03759765625,4.0374755859375,37.6885986328125,-72.8228759765625
1758878112.25047,-0.51611328125,0.04052734375,0.85986328125,3.11279296875,-1.15966796875,1.64794921875,4.0814208984375,37.6611328125,-72.806396484375
1758878112.2605095,-0.51611328125,0.04052734375,0.85986328125,3.11279296875,-1.15966796875,1.64794921875,4.119873046875,37.6336669921875,-72.784423828125
1758878112.270564,-0.525390625,0.046875,0.8916015625,0.0,-0.79345703125,2.74658203125,4.1363525390625,37.606201171875,-72.75146484375
1758878112.280566,-0.525390625,0.046875,0.8916015625,0.0,-0.79345703125,2.74658203125,4.15283203125,37.5732421875,-72.718505859375
1758878112.2905486,-0.537109375,0.05908203125,0.884765625,-5.2490234375,-0.1220703125,3.662109375,4.1253662109375,37.5457763671875,-72.674560546875
1758878112.3005867,-0.537109375,0.05908203125,0.884765625,-5.2490234375,-0.1220703125,3.662109375,4.097900390625,37.518310546875,-72.630615234375
1758878112.3106394,-0.52734375,0.06640625,0.86962890625,-7.26318359375,0.6103515625,3.662109375,4.053955078125,37.496337890625,-72.5811767578125
1758878112.3206482,-0.52734375,0.06640625,0.86962890625,-7.26318359375,0.6103515625,3.662109375,4.0045166015625,37.474365234375,-72.53173828125
1758878112.3306456,-0.52001953125,0.07080078125,0.8779296875,-7.568359375,0.9765625,3.23486328125,3.955078125,37.452392578125,-72.48779296875
1758878112.3406746,-0.52001953125,0.07080078125,0.8779296875,-7.568359375,0.9765625,3.23486328125,3.9056396484375,37.430419921875,-72.44384765625
1758878112.3506384,-0.52001953125,0.07080078125,0.8779296875,-13.97705078125,0.8544921875,3.173828125,3.790283203125,37.408447265625,-72.39990234375
1758878112.360671,-0.52197265625,0.05908203125,0.876953125,-13.97705078125,0.8544921875,3.173828125,3.6749267578125,37.3809814453125,-72.35595703125
1758878112.3708053,-0.54833984375,0.0888671875,0.8447265625,-25.0244140625,0.91552734375,4.150390625,3.460693359375,37.3590087890625,-72.2955322265625
1758878112.380756,-0.54833984375,0.0888671875,0.8447265625,-25.0244140625,0.91552734375,4.150390625,3.251953125,37.3370361328125,-72.2296142578125
1758878112.3907878,-0.58642578125,0.0830078125,0.8642578125,-31.92138671875,1.03759765625,5.4931640625,2.9827880859375,37.3150634765625,-72.1527099609375
1758878112.4009457,-0.58642578125,0.0830078125,0.8642578125,-31.92138671875,1.03759765625,5.4931640625,2.713623046875,37.2930908203125,-72.0703125
1758878112.4107583,-0.56201171875,0.01904296875,0.83349609375,-30.45654296875,1.8310546875,6.65283203125,2.471923828125,37.2821044921875,-71.971435546875
1758878112.4213192,-0.56201171875,0.01904296875,0.83349609375,-30.45654296875,1.8310546875,6.65283203125,2.230224609375,37.2711181640625,-71.8780517578125
1758878112.4307806,-0.53955078125,-0.017578125,0.76611328125,-24.10888671875,2.5634765625,7.26318359375,2.054443359375,37.265625,-71.773681640625
1758878112.440836,-0.53955078125,-0.017578125,0.76611328125,-24.10888671875,2.5634765625,7.26318359375,1.878662109375,37.265625,-71.6748046875
1758878112.4508133,-0.54541015625,-0.02978515625,0.77587890625,-10.6201171875,2.8076171875,7.01904296875,1.8292236328125,37.2711181640625,-71.5814208984375
1758878112.4612846,-0.54638671875,-0.01220703125,0.8271484375,-1.64794921875,3.173828125,6.8359375,1.8292236328125,37.276611328125,-71.4935302734375
1758878112.4709122,-0.54638671875,-0.01220703125,0.8271484375,-1.64794921875,3.173828125,6.8359375,1.8621826171875,37.2821044921875,-71.4056396484375
1758878112.480938,-0.52978515625,0.01708984375,0.828125,2.01416015625,3.60107421875,6.8359375,1.9171142578125,37.2930908203125,-71.3232421875
1758878112.4908931,-0.52978515625,0.01708984375,0.828125,2.01416015625,3.60107421875,6.8359375,1.988525390625,37.3040771484375,-71.2353515625
1758878112.5013883,-0.51171875,0.0322265625,0.78759765625,3.35693359375,4.0283203125,6.591796875,2.0654296875,37.3150634765625,-71.1529541015625
1758878112.5109127,-0.51171875,0.0322265625,0.78759765625,3.35693359375,4.0283203125,6.591796875,2.1478271484375,37.3260498046875,-71.0650634765625
1758878112.520949,-0.5126953125,0.04541015625,0.83349609375,4.69970703125,3.7841796875,6.2255859375,2.2357177734375,37.3370361328125,-70.9881591796875
1758878112.5311253,-0.5126953125,0.04541015625,0.83349609375,4.69970703125,3.7841796875,6.2255859375,2.3291015625,37.3480224609375,-70.90576171875
1758878112.5412018,-0.50927734375,0.02587890625,0.8310546875,7.62939453125,3.41796875,5.55419921875,2.4334716796875,37.353515625,-70.828857421875
1758878112.552008,-0.50927734375,0.02587890625,0.8310546875,7.62939453125,3.41796875,5.55419921875,2.548828125,37.3590087890625,-70.7574462890625
1758878112.5612345,-0.4970703125,0.01416015625,0.78369140625,15.13671875,3.23486328125,4.5166015625,2.6971435546875,37.364501953125,-70.6915283203125
1758878112.5772889,-0.4970703125,0.01416015625,0.78369140625,15.13671875,3.23486328125,4.5166015625,2.87841796875,37.364501953125,-70.6365966796875
1758878112.5843012,-0.4921875,-0.00244140625,0.74951171875,26.91650390625,3.47900390625,2.86865234375,3.109130859375,37.3699951171875,-70.5926513671875
1758878112.5913312,-0.4921875,-0.00244140625,0.74951171875,26.91650390625,3.47900390625,2.86865234375,3.394775390625,37.37548828125,-70.565185546875
1758878112.6032166,-0.51953125,-0.00732421875,0.77392578125,41.748046875,3.72314453125,0.6103515625,3.7353515625,37.3809814453125,-70.55419921875
1758878112.6120286,-0.51953125,-0.00732421875,0.77392578125,41.748046875,3.72314453125,0.6103515625,4.141845703125,37.3919677734375,-70.5596923828125
1758878112.621266,-0.64111328125,0.00732421875,0.99169921875,57.7392578125,1.03759765625,-1.5869140625,4.6142578125,37.386474609375,-70.5816650390625
1758878112.631066,-0.64111328125,0.00732421875,0.99169921875,57.7392578125,1.03759765625,-1.5869140625,5.1580810546875,37.37548828125,-70.6201171875
1758878112.6410987,-0.603515625,0.07177734375,0.8994140625,57.92236328125,0.244140625,-2.86865234375,5.69091796875,37.3590087890625,-70.675048828125
1758878112.651135,-0.603515625,0.07177734375,0.8994140625,57.92236328125,0.244140625,-2.86865234375,6.21826171875,37.3370361328125,-70.7354736328125
1758878112.6610968,-0.494140625,0.138671875,0.6015625,42.6025390625,0.18310546875,-4.150390625,6.6632080078125,37.320556640625,-70.8013916015625
1758878112.6710818,-0.494140625,0.138671875,0.6015625,42.6025390625,0.18310546875,-4.150390625,7.03125,37.3040771484375,-70.8782958984375
1758878112.681191,-0.5791015625,0.1796875,0.787109375,26.91650390625,-0.54931640625,-4.8828125,7.3223876953125,37.2930908203125,-70.9552001953125
1758878112.691699,-0.5791015625,0.1796875,0.787109375,26.91650390625,-0.54931640625,-4.8828125,7.5311279296875,37.276611328125,-71.0321044921875
1758878112.7011766,-0.5791015625,0.22265625,0.904296875,3.35693359375,-1.5869140625,-4.39453125,7.635498046875,37.254638671875,-71.0980224609375
1758878112.711205,-0.5791015625,0.22265625,0.904296875,3.35693359375,-1.5869140625,-4.39453125,7.62451171875,37.2216796875,-71.1639404296875
1758878112.7215676,-0.6767578125,0.11181640625,0.8701171875,6.40869140625,-5.37109375,-3.60107421875,7.635498046875,37.177734375,-71.2188720703125
1758878112.7312193,-0.6767578125,0.11181640625,0.8701171875,6.40869140625,-5.37109375,-3.60107421875,7.6629638671875,37.11181640625,-71.2738037109375
1758878112.741213,-0.7080078125,-0.09033203125,0.9140625,48.583984375,-6.591796875,-4.94384765625,7.8936767578125,37.0458984375,-71.34521484375
1758878112.7512107,-0.7080078125,-0.09033203125,0.9140625,48.583984375,-6.591796875,-4.94384765625,8.316650390625,36.9744873046875,-71.43310546875
1758878112.7612836,-0.61083984375,-0.05712890625,0.66650390625,61.5234375,-6.16455078125,-5.31005859375,8.7945556640625,36.9140625,-71.5374755859375
1758878112.7712388,-0.61083984375,-0.05712890625,0.66650390625,61.5234375,-6.16455078125,-5.31005859375,9.327392578125,36.859130859375,-71.65283203125
1758878112.7813356,-0.6279296875,0.06689453125,0.6962890625,71.1669921875,-5.67626953125,-6.4697265625,9.898681640625,36.8096923828125,-71.78466796875
1758878112.7913337,-0.6279296875,0.06689453125,0.6962890625,71.1669921875,-5.67626953125,-6.4697265625,10.513916015625,36.771240234375,-71.9219970703125
1758878112.8022952,-0.7568359375,0.23095703125,0.9345703125,61.95068359375,-6.7138671875,-6.04248046875,11.085205078125,36.727294921875,-72.059326171875
1758878112.8114028,-0.7568359375,0.23095703125,0.9345703125,61.95068359375,-6.7138671875,-6.04248046875,11.612548828125,36.683349609375,-72.191162109375
1758878112.8214335,-0.6806640625,0.39599609375,0.7900390625,11.16943359375,-7.4462890625,-2.8076171875,11.898193359375,36.62841796875,-72.301025390625
1758878112.8313322,-0.6806640625,0.39599609375,0.7900390625,11.16943359375,-7.4462890625,-2.8076171875,11.9586181640625,36.573486328125,-72.3724365234375
1758878112.8417044,-0.59326171875,0.4130859375,0.60107421875,-45.59326171875,-7.50732421875,0.1220703125,11.75537109375,36.5130615234375,-72.421875
1758878112.8514397,-0.59326171875,0.4130859375,0.60107421875,-45.59326171875,-7.50732421875,0.1220703125,11.2939453125,36.4471435546875,-72.4383544921875
1758878112.861803,-0.58056640625,0.26171875,0.61669921875,-61.46240234375,-6.04248046875,1.46484375,10.7720947265625,36.3922119140625,-72.432861328125
1758878112.8714542,-0.58056640625,0.26171875,0.61669921875,-61.46240234375,-6.04248046875,1.46484375,10.1898193359375,36.3482666015625,-72.410888671875
1758878112.8814566,-0.5927734375,0.0380859375,0.7216796875,-43.15185546875,-4.8828125,1.3427734375,9.700927734375,36.309814453125,-72.3834228515625
1758878112.8914402,-0.5927734375,0.0380859375,0.7216796875,-43.15185546875,-4.8828125,1.3427734375,9.29443359375,36.27685546875,-72.3614501953125
1758878112.9022186,-0.62158203125,0.0078125,0.7919921875,-35.09521484375,-4.69970703125,1.708984375,8.931884765625,36.243896484375,-72.344970703125
1758878112.9115133,-0.62158203125,0.0078125,0.7919921875,-35.09521484375,-4.69970703125,1.708984375,8.6077880859375,36.2109375,-72.3284912109375
1758878112.9215086,-0.6796875,0.0703125,0.89453125,-21.66748046875,-5.55419921875,1.28173828125,8.338623046875,36.177978515625,-72.322998046875
1758878112.9314716,-0.6796875,0.0703125,0.89453125,-21.66748046875,-5.55419921875,1.28173828125,8.1353759765625,36.134033203125,-72.322998046875
1758878112.9423544,-0.64990234375,0.10400390625,0.8203125,-13.73291015625,-5.7373046875,1.0986328125,7.9705810546875,36.0955810546875,-72.322998046875
1758878112.951502,-0.64990234375,0.10400390625,0.8203125,-13.73291015625,-5.7373046875,1.0986328125,7.84423828125,36.0516357421875,-72.3284912109375
1758878112.961625,-0.56884765625,0.09521484375,0.7099609375,-3.96728515625,-4.94384765625,1.64794921875,7.767333984375,36.01318359375,-72.3284912109375
1758878112.971973,-0.56884765625,0.09521484375,0.7099609375,-3.96728515625,-4.94384765625,1.64794921875,7.7398681640625,35.9747314453125,-72.322998046875
1758878112.9817836,-0.5595703125,0.09033203125,0.712890625,12.87841796875,-3.35693359375,0.30517578125,7.7947998046875,35.947265625,-72.322998046875
1758878112.991672,-0.5595703125,0.09033203125,0.712890625,12.87841796875,-3.35693359375,0.30517578125,7.9266357421875,35.9307861328125,-72.333984375
1758878113.0016935,-0.5869140625,0.05224609375,0.8056640625,27.2216796875,-1.89208984375,-1.40380859375,8.1243896484375,35.9197998046875,-72.35595703125
1758878113.0121925,-0.5869140625,0.05224609375,0.8056640625,27.2216796875,-1.89208984375,-1.40380859375,8.382568359375,35.914306640625,-72.388916015625
1758878113.021736,-0.59228515625,0.1435546875,0.84375,9.09423828125,-1.5869140625,-2.0751953125,8.5418701171875,35.914306640625,-72.4273681640625
1758878113.031651,-0.59228515625,0.1435546875,0.84375,9.09423828125,-1.5869140625,-2.0751953125,8.61328125,35.914306640625,-72.4658203125
1758878113.041807,-0.548828125,0.2392578125,0.7666015625,-4.82177734375,-0.79345703125,-1.708984375,8.6187744140625,35.9088134765625,-72.5042724609375
1758878113.0518343,-0.548828125,0.2392578125,0.7666015625,-4.82177734375,-0.79345703125,-1.708984375,8.558349609375,35.914306640625,-72.5262451171875
1758878113.0617905,-0.5234375,0.2333984375,0.77001953125,-23.86474609375,-0.1220703125,-0.6103515625,8.41552734375,35.914306640625,-72.542724609375
1758878113.0718017,-0.5234375,0.2333984375,0.77001953125,-23.86474609375,-0.1220703125,-0.6103515625,8.1903076171875,35.9197998046875,-72.5372314453125
1758878113.0826378,-0.5107421875,0.1435546875,0.7890625,-27.4658203125,1.03759765625,-0.244140625,7.9486083984375,35.92529296875,-72.53173828125
1758878113.091854,-0.5107421875,0.1435546875,0.7890625,-27.4658203125,1.03759765625,-0.244140625,7.6904296875,35.936279296875,-72.520751953125
1758878113.1018834,-0.5869140625,0.0087890625,0.82958984375,-5.92041015625,1.52587890625,-1.15966796875,7.53662109375,35.947265625,-72.509765625
1758878113.112155,-0.5869140625,0.0087890625,0.82958984375,-5.92041015625,1.52587890625,-1.15966796875,7.4871826171875,35.958251953125,-72.5152587890625
1758878113.1226144,-0.66845703125,-0.00634765625,0.93896484375,9.6435546875,0.732421875,-2.62451171875,7.4981689453125,35.96923828125,-72.5372314453125
1758878113.1319058,-0.66845703125,-0.00634765625,0.93896484375,9.6435546875,0.732421875,-2.62451171875,7.58056640625,35.980224609375,-72.57568359375
1758878113.1419756,-0.68212890625,0.10009765625,0.89501953125,15.0146484375,1.220703125,-2.685546875,7.679443359375,35.9912109375,-72.61962890625
1758878113.1522074,-0.68212890625,0.10009765625,0.89501953125,15.0146484375,1.220703125,-2.685546875,7.8057861328125,36.0076904296875,-72.66357421875
1758878113.1619062,-0.65966796875,0.212890625,0.75537109375,2.5634765625,1.77001953125,-2.25830078125,7.8717041015625,36.024169921875,-72.7020263671875
1758878113.171943,-0.65966796875,0.212890625,0.75537109375,2.5634765625,1.77001953125,-2.25830078125,7.8826904296875,36.046142578125,-72.7294921875
1758878113.1819952,-0.64794921875,0.189453125,0.67138671875,-7.2021484375,3.2958984375,-1.46484375,7.855224609375,36.0791015625,-72.75146484375
1758878113.1920152,-0.64794921875,0.189453125,0.67138671875,-7.2021484375,3.2958984375,-1.46484375,7.7838134765625,36.123046875,-72.762451171875
1758878113.201987,-0.6455078125,0.1005859375,0.6572265625,-4.39453125,5.18798828125,-1.03759765625,7.7288818359375,36.177978515625,-72.7679443359375
1758878113.2120228,-0.6455078125,0.1005859375,0.6572265625,-4.39453125,5.18798828125,-1.03759765625,7.6959228515625,36.243896484375,-72.7679443359375
1758878113.2221982,-0.64111328125,0.0546875,0.712890625,-3.41796875,7.75146484375,-1.708984375,7.6629638671875,36.3262939453125,-72.7734375
1758878113.2324183,-0.64111328125,0.0546875,0.712890625,-3.41796875,7.75146484375,-1.708984375,7.6300048828125,36.419677734375,-72.784423828125
1758878113.2420769,-0.63671875,0.103515625,0.72265625,1.708984375,10.25390625,-2.44140625,7.6190185546875,36.529541015625,-72.79541015625
1758878113.252057,-0.63671875,0.103515625,0.72265625,1.708984375,10.25390625,-2.44140625,7.635498046875,36.6558837890625,-72.8118896484375
1758878113.2622879,-0.65478515625,0.158203125,0.7958984375,-3.84521484375,11.65771484375,-3.173828125,7.6190185546875,36.7877197265625,-72.8338623046875
1758878113.272192,-0.65478515625,0.158203125,0.7958984375,-3.84521484375,11.65771484375,-3.173828125,7.58056640625,36.9195556640625,-72.8558349609375
1758878113.2820718,-0.64697265625,0.18994140625,0.81640625,-20.751953125,12.87841796875,-2.9296875,7.4542236328125,37.0623779296875,-72.872314453125
1758878113.292357,-0.64697265625,0.18994140625,0.81640625,-20.751953125,12.87841796875,-2.9296875,7.2509765625,37.2052001953125,-72.88330078125
1758878113.302088,-0.6435546875,0.158203125,0.72021484375,-33.5693359375,13.916015625,-2.01416015625,6.9873046875,37.353515625,-72.88330078125
1758878113.31209,-0.6435546875,0.158203125,0.72021484375,-33.5693359375,13.916015625,-2.01416015625,6.668701171875,37.50732421875,-72.872314453125
1758878113.3221886,-0.65576171875,0.13037109375,0.70263671875,-48.76708984375,14.22119140625,-1.03759765625,6.2841796875,37.6611328125,-72.8558349609375
1758878113.3327382,-0.65576171875,0.13037109375,0.70263671875,-48.76708984375,14.22119140625,-1.03759765625,5.82275390625,37.8204345703125,-72.8338623046875
1758878113.3422775,-0.7080078125,0.0400390625,0.76171875,-43.701171875,13.61083984375,-1.64794921875,5.3887939453125,37.9742431640625,-72.8173828125
1758878113.3521972,-0.7080078125,0.0400390625,0.76171875,-43.701171875,13.61083984375,-1.64794921875,4.976806640625,38.12255859375,-72.806396484375
1758878113.3623543,-0.7236328125,-0.09619140625,0.73095703125,-23.62060546875,12.75634765625,-2.01416015625,4.6527099609375,38.2708740234375,-72.806396484375
1758878113.3722124,-0.7236328125,-0.09619140625,0.73095703125,-23.62060546875,12.75634765625,-2.01416015625,4.427490234375,38.419189453125,-72.8118896484375
1758878113.3822258,-0.73876953125,-0.056640625,0.75146484375,-1.64794921875,11.474609375,-2.01416015625,4.3011474609375,38.56201171875,-72.8338623046875
1758878113.3925896,-0.73876953125,-0.056640625,0.75146484375,-1.64794921875,11.474609375,-2.01416015625,4.2791748046875,38.69384765625,-72.8558349609375
1758878113.4023297,-0.72265625,0.103515625,0.77392578125,12.6953125,10.31494140625,-2.01416015625,4.3231201171875,38.82568359375,-72.88330078125
1758878113.412242,-0.72265625,0.103515625,0.77392578125,12.6953125,10.31494140625,-2.01416015625,4.4384765625,38.9520263671875,-72.9052734375
1758878113.4222696,-0.6943359375,0.134765625,0.693359375,6.28662109375,9.70458984375,-1.46484375,4.5318603515625,39.0728759765625,-72.92724609375
1758878113.432773,-0.6943359375,0.134765625,0.693359375,6.28662109375,9.70458984375,-1.46484375,4.59228515625,39.188232421875,-72.938232421875
1758878113.4423978,-0.67578125,0.10302734375,0.68115234375,-4.45556640625,9.33837890625,-1.03759765625,4.5538330078125,39.3035888671875,-72.9437255859375
1758878113.4523642,-0.67578125,0.10302734375,0.68115234375,-4.45556640625,9.33837890625,-1.03759765625,4.515380859375,39.4189453125,-72.9437255859375
1758878113.462558,-0.66943359375,0.0751953125,0.73876953125,-8.7890625,9.33837890625,-0.9765625,4.4329833984375,39.5343017578125,-72.9437255859375
1758878113.472388,-0.66943359375,0.0751953125,0.73876953125,-8.7890625,9.33837890625,-0.9765625,4.3560791015625,39.649658203125,-72.9437255859375
1758878113.4823608,-0.6474609375,0.06103515625,0.77001953125,-7.75146484375,9.27734375,-0.91552734375,4.28466796875,39.759521484375,-72.9437255859375
1758878113.4924057,-0.6474609375,0.06103515625,0.77001953125,-7.75146484375,9.27734375,-0.91552734375,4.2132568359375,39.8638916015625,-72.9437255859375
1758878113.502694,-0.6298828125,0.05615234375,0.783203125,-8.4228515625,9.033203125,-0.3662109375,4.141845703125,39.96826171875,-72.938232421875
1758878113.5123856,-0.6298828125,0.05615234375,0.783203125,-8.4228515625,9.033203125,-0.3662109375,4.0704345703125,40.067138671875,-72.92724609375
1758878113.5224102,-0.62646484375,0.05859375,0.7685546875,-14.22119140625,8.72802734375,0.244140625,3.944091796875,40.166015625,-72.9107666015625
1758878113.5327094,-0.62646484375,0.05859375,0.7685546875,-14.22119140625,8.72802734375,0.244140625,3.8177490234375,40.2593994140625,-72.8997802734375
1758878113.5424573,-0.62939453125,0.064453125,0.7734375,-19.4091796875,8.36181640625,0.91552734375,3.6419677734375,40.341796875,-72.872314453125
1758878113.5524693,-0.62939453125,0.064453125,0.7734375,-19.4091796875,8.36181640625,0.91552734375,3.4716796875,40.4296875,-72.8448486328125
1758878113.562548,-0.63134765625,0.07080078125,0.78369140625,-22.76611328125,7.50732421875,1.3427734375,3.2684326171875,40.506591796875,-72.8173828125
1758878113.5727289,-0.63134765625,0.07080078125,0.78369140625,-22.76611328125,7.50732421875,1.3427734375,3.0706787109375,40.5780029296875,-72.784423828125
1758878113.5825229,-0.6416015625,0.06005859375,0.78955078125,-24.96337890625,6.4697265625,1.77001953125,2.8509521484375,40.638427734375,-72.7459716796875
1758878113.5925617,-0.6416015625,0.06005859375,0.78955078125,-24.96337890625,6.4697265625,1.77001953125,2.6312255859375,40.6988525390625,-72.70751953125
1758878113.6027768,-0.64990234375,0.0361328125,0.75927734375,-28.74755859375,5.31005859375,2.197265625,2.3785400390625,40.748291015625,-72.66357421875
1758878113.6125913,-0.64990234375,0.0361328125,0.75927734375,-28.74755859375,5.31005859375,2.197265625,2.13134765625,40.7977294921875,-72.61962890625
1758878113.6225142,-0.65478515625,0.0341796875,0.76513671875,-32.04345703125,4.2724609375,2.5634765625,1.845703125,40.836181640625,-72.57568359375
1758878113.632572,-0.65478515625,0.0341796875,0.76513671875,-32.04345703125,4.2724609375,2.5634765625,1.5655517578125,40.8746337890625,-72.5262451171875
1758878113.643023,-0.64697265625,0.04248046875,0.7421875,-38.4521484375,3.662109375,3.0517578125,1.2249755859375,40.9075927734375,-72.4713134765625
1758878113.6525676,-0.64697265625,0.04248046875,0.7421875,-38.4521484375,3.662109375,3.0517578125,0.8843994140625,40.9405517578125,-72.4163818359375
1758878113.6625292,-0.6669921875,0.037109375,0.7197265625,-41.50390625,2.9296875,3.11279296875,0.5218505859375,40.968017578125,-72.35595703125
1758878113.672752,-0.6669921875,0.037109375,0.7197265625,-41.50390625,2.9296875,3.11279296875,0.15380859375,40.9954833984375,-72.301025390625
1758878113.682735,-0.708984375,-0.013671875,0.736328125,-35.70556640625,2.62451171875,2.86865234375,-0.15380859375,41.02294921875,-72.24609375
1758878113.6925957,-0.708984375,-0.013671875,0.736328125,-35.70556640625,2.62451171875,2.86865234375,-0.46142578125,41.0504150390625,-72.191162109375
1758878113.7032492,-0.72607421875,-0.05029296875,0.7216796875,-24.169921875,2.5634765625,2.38037109375,-0.6646728515625,41.0833740234375,-72.147216796875
1758878113.7128632,-0.72607421875,-0.05029296875,0.7216796875,-24.169921875,2.5634765625,2.38037109375,-0.8734130859375,41.1163330078125,-72.1087646484375
1758878113.7225983,-0.72607421875,-0.0546875,0.70166015625,-12.451171875,2.62451171875,1.77001953125,-0.966796875,41.1492919921875,-72.081298828125
1758878113.7326903,-0.72607421875,-0.0546875,0.70166015625,-12.451171875,2.62451171875,1.77001953125,-1.065673828125,41.1822509765625,-72.0538330078125
1758878113.7429783,-0.71044921875,-0.02392578125,0.66796875,-4.82177734375,2.9296875,1.220703125,-1.0986328125,41.2261962890625,-72.037353515625
1758878113.7527168,-0.71044921875,-0.02392578125,0.66796875,-4.82177734375,2.9296875,1.220703125,-1.1260986328125,41.2701416015625,-72.0208740234375
1758878113.7627122,-0.68115234375,-0.0107421875,0.6923828125,-2.13623046875,2.9296875,0.67138671875,-1.1370849609375,41.3140869140625,-72.0098876953125
1758878113.7730684,-0.68115234375,-0.0107421875,0.6923828125,-2.13623046875,2.9296875,0.67138671875,-1.142578125,41.3580322265625,-71.9989013671875
1758878113.7827258,-0.6640625,-0.00537109375,0.74755859375,-5.37109375,2.5634765625,0.54931640625,-1.1865234375,41.396484375,-71.993408203125
1758878113.7927299,-0.6640625,-0.00537109375,0.74755859375,-5.37109375,2.5634765625,0.54931640625,-1.23046875,41.4349365234375,-71.982421875
1758878113.8027127,-0.6455078125,-0.01806640625,0.79248046875,-3.41796875,1.8310546875,0.54931640625,-1.25244140625,41.46240234375,-71.971435546875
1758878113.812854,-0.6455078125,-0.01806640625,0.79248046875,-3.41796875,1.8310546875,0.54931640625,-1.2744140625,41.484375,-71.96044921875
1758878113.8227355,-0.64404296875,-0.04833984375,0.77294921875,1.40380859375,1.15966796875,0.42724609375,-1.2579345703125,41.50634765625,-71.9549560546875
1758878113.832752,-0.64404296875,-0.04833984375,0.77294921875,1.40380859375,1.15966796875,0.42724609375,-1.2359619140625,41.517333984375,-71.949462890625
1758878113.8428254,-0.6396484375,-0.05810546875,0.77099609375,8.6669921875,0.67138671875,-0.3662109375,-1.153564453125,41.5283203125,-71.9549560546875
1758878113.8533583,-0.6396484375,-0.05810546875,0.77099609375,8.6669921875,0.67138671875,-0.3662109375,-1.0711669921875,41.5338134765625,-71.9659423828125
1758878113.8627987,-0.64111328125,-0.0380859375,0.78076171875,16.4794921875,1.0986328125,-1.77001953125,-0.9283447265625,41.5447998046875,-71.993408203125
1758878113.872881,-0.64111328125,-0.0380859375,0.78076171875,16.4794921875,1.0986328125,-1.77001953125,-0.7855224609375,41.5557861328125,-72.0208740234375
1758878113.8833127,-0.6708984375,-0.0107421875,0.75439453125,21.66748046875,2.197265625,-3.35693359375,-0.604248046875,41.572265625,-72.0703125
1758878113.892909,-0.6708984375,-0.0107421875,0.75439453125,21.66748046875,2.197265625,-3.35693359375,-0.4229736328125,41.59423828125,-72.1197509765625
1758878113.9028435,-0.68603515625,0.01708984375,0.71484375,23.193359375,4.39453125,-5.31005859375,-0.2471923828125,41.63818359375,-72.1966552734375
1758878113.9129026,-0.68603515625,0.01708984375,0.71484375,23.193359375,4.39453125,-5.31005859375,-0.0714111328125,41.68212890625,-72.2735595703125
1758878113.9233372,-0.6650390625,0.02685546875,0.7138671875,29.72412109375,6.16455078125,-7.38525390625,0.1483154296875,41.7425537109375,-72.3724365234375
1758878113.9329042,-0.6650390625,0.02685546875,0.7138671875,29.72412109375,6.16455078125,-7.38525390625,0.3790283203125,41.802978515625,-72.4713134765625
1758878113.9429913,-0.63525390625,0.01416015625,0.77197265625,31.8603515625,5.92041015625,-8.1787109375,0.615234375,41.8634033203125,-72.5811767578125
1758878113.9533587,-0.63525390625,0.01416015625,0.77197265625,31.8603515625,5.92041015625,-8.1787109375,0.85693359375,41.923828125,-72.6910400390625
1758878113.9630811,-0.61181640625,-0.0078125,0.77490234375,22.52197265625,4.33349609375,-7.2021484375,1.0107421875,41.9622802734375,-72.7899169921875
1758878113.9730358,-0.61181640625,-0.0078125,0.77490234375,22.52197265625,4.33349609375,-7.2021484375,1.16455078125,42.000732421875,-72.88330078125
1758878113.9830027,-0.6435546875,-0.0029296875,0.7763671875,13.48876953125,2.86865234375,-6.4697265625,1.23046875,42.022705078125,-72.97119140625
1758878113.9930947,-0.6435546875,-0.0029296875,0.7763671875,13.48876953125,2.86865234375,-6.4697265625,1.29638671875,42.044677734375,-73.0645751953125
1758878114.0031323,-0.69384765625,0.00390625,0.73193359375,16.845703125,2.197265625,-6.89697265625,1.395263671875,42.0611572265625,-73.157958984375
1758878114.0130067,-0.69384765625,0.00390625,0.73193359375,16.845703125,2.197265625,-6.89697265625,1.494140625,42.0831298828125,-73.2568359375
1758878114.023226,-0.7275390625,0.0205078125,0.68408203125,25.7568359375,2.0751953125,-7.87353515625,1.669921875,42.099609375,-73.36669921875
1758878114.03339,-0.7275390625,0.0205078125,0.68408203125,25.7568359375,2.0751953125,-7.87353515625,1.845703125,42.12158203125,-73.4765625
1758878114.0430343,-0.7236328125,0.025390625,0.650390625,28.076171875,1.953125,-8.4228515625,2.0379638671875,42.1490478515625,-73.5919189453125
1758878114.0531409,-0.7236328125,0.025390625,0.650390625,28.076171875,1.953125,-8.4228515625,2.2357177734375,42.176513671875,-73.7127685546875
1758878114.0633535,-0.71728515625,0.02978515625,0.64990234375,23.681640625,1.77001953125,-7.87353515625,2.3895263671875,42.20947265625,-73.8226318359375
1758878114.073242,-0.71728515625,0.02978515625,0.64990234375,23.681640625,1.77001953125,-7.87353515625,2.548828125,42.2369384765625,-73.9324951171875
1758878114.0831451,-0.71875,0.033203125,0.6884765625,15.5029296875,1.0986328125,-6.591796875,2.63671875,42.264404296875,-74.02587890625
1758878114.093167,-0.71875,0.033203125,0.6884765625,15.5029296875,1.0986328125,-6.591796875,2.7191162109375,42.2918701171875,-74.1192626953125
1758878114.1031883,-0.7119140625,0.03271484375,0.7021484375,12.02392578125,0.91552734375,-5.79833984375,2.779541015625,42.3193359375,-74.20166015625
1758878114.1132064,-0.7119140625,0.03271484375,0.7021484375,12.02392578125,0.91552734375,-5.79833984375,2.8399658203125,42.34130859375,-74.2840576171875
1758878114.1233711,-0.70849609375,0.03369140625,0.70458984375,11.8408203125,1.3427734375,-5.2490234375,2.9058837890625,42.374267578125,-74.3609619140625
1758878114.1333985,-0.70849609375,0.03369140625,0.70458984375,11.8408203125,1.3427734375,-5.2490234375,2.96630859375,42.4017333984375,-74.4378662109375
1758878114.1432211,-0.7001953125,0.03515625,0.70703125,11.04736328125,1.953125,-4.82177734375,3.0267333984375,42.440185546875,-74.5037841796875
1758878114.1532903,-0.7001953125,0.03515625,0.70703125,11.04736328125,1.953125,-4.82177734375,3.087158203125,42.4786376953125,-74.5751953125
1758878114.1637015,-0.6796875,0.04150390625,0.72802734375,9.58251953125,2.5634765625,-4.45556640625,3.1365966796875,42.51708984375,-74.64111328125
1758878114.1732762,-0.6796875,0.04150390625,0.72802734375,9.58251953125,2.5634765625,-4.45556640625,3.18603515625,42.5555419921875,-74.7015380859375
1758878114.1832573,-0.66015625,0.04052734375,0.75,7.4462890625,2.8076171875,-4.08935546875,3.218994140625,42.593994140625,-74.761962890625
1758878114.1937342,-0.66015625,0.04052734375,0.75,7.4462890625,2.8076171875,-4.08935546875,3.251953125,42.6324462890625,-74.81689453125
1758878114.2032797,-0.64111328125,0.041015625,0.7734375,7.32421875,2.8076171875,-3.7841796875,3.2904052734375,42.6708984375,-74.871826171875
1758878114.2132962,-0.64111328125,0.041015625,0.7734375,7.32421875,2.8076171875,-3.7841796875,3.3233642578125,42.703857421875,-74.9212646484375
1758878114.2235968,-0.63623046875,0.03125,0.78759765625,8.1787109375,2.99072265625,-3.662109375,3.3673095703125,42.73681640625,-74.9761962890625
1758878114.2334151,-0.63623046875,0.03125,0.78759765625,8.1787109375,2.99072265625,-3.662109375,3.4112548828125,42.7642822265625,-75.025634765625
1758878114.2433054,-0.63037109375,0.02734375,0.7900390625,11.65771484375,3.23486328125,-3.7841796875,3.4881591796875,42.791748046875,-75.0750732421875
1758878114.2536206,-0.63037109375,0.02734375,0.7900390625,11.65771484375,3.23486328125,-3.7841796875,3.5650634765625,42.8192138671875,-75.1300048828125
1758878114.263538,-0.61767578125,0.033203125,0.794921875,15.44189453125,3.41796875,-4.2724609375,3.6749267578125,42.8466796875,-75.1849365234375
1758878114.273386,-0.61767578125,0.033203125,0.794921875,15.44189453125,3.41796875,-4.2724609375,3.7847900390625,42.8741455078125,-75.245361328125
1758878114.283445,-0.615234375,0.04931640625,0.8134765625,16.6015625,3.5400390625,-4.82177734375,3.8946533203125,42.901611328125,-75.311279296875
1758878114.2939801,-0.615234375,0.04931640625,0.8134765625,16.6015625,3.5400390625,-4.82177734375,4.010009765625,42.923583984375,-75.377197265625
1758878114.3034017,-0.6103515625,0.0595703125,0.7841796875,15.56396484375,3.60107421875,-5.2490234375,4.1143798828125,42.945556640625,-75.443115234375
1758878114.3134627,-0.6103515625,0.0595703125,0.7841796875,15.56396484375,3.60107421875,-5.2490234375,4.2132568359375,42.9620361328125,-75.5145263671875
1758878114.3239057,-0.62841796875,0.0625,0.77978515625,14.95361328125,3.662109375,-5.79833984375,4.306640625,42.9840087890625,-75.5914306640625
1758878114.333468,-0.62841796875,0.0625,0.77978515625,14.95361328125,3.662109375,-5.79833984375,4.39453125,43.0059814453125,-75.662841796875
1758878114.3434634,-0.64404296875,0.0791015625,0.74560546875,9.765625,4.21142578125,-6.2255859375,4.4329833984375,43.033447265625,-75.73974609375
1758878114.3535938,-0.64404296875,0.0791015625,0.74560546875,9.765625,4.21142578125,-6.2255859375,4.471435546875,43.0609130859375,-75.816650390625
1758878114.3635304,-0.6484375,0.08837890625,0.7607421875,1.220703125,4.82177734375,-6.40869140625,4.4219970703125,43.0938720703125,-75.8935546875
1758878114.3736115,-0.6484375,0.08837890625,0.7607421875,1.220703125,4.82177734375,-6.40869140625,4.3780517578125,43.1268310546875,-75.970458984375
1758878114.3838327,-0.6455078125,0.08740234375,0.75048828125,-7.62939453125,5.31005859375,-6.40869140625,4.2462158203125,43.165283203125,-76.0418701171875
1758878114.3936105,-0.6455078125,0.08740234375,0.75048828125,-7.62939453125,5.31005859375,-6.40869140625,4.119873046875,43.2037353515625,-76.11328125
1758878114.4035459,-0.6455078125,0.08740234375,0.75048828125,-3.84521484375,5.7373046875,-6.7138671875,4.0264892578125,43.2476806640625,-76.1846923828125
1758878114.4138663,-0.6904296875,0.005859375,0.70166015625,4.5166015625,5.859375,-6.77490234375,3.9715576171875,43.2916259765625,-76.2615966796875
1758878114.4237442,-0.6904296875,0.005859375,0.70166015625,4.5166015625,5.859375,-6.77490234375,3.955078125,43.341064453125,-76.343994140625
1758878114.4337127,-0.6982421875,0.00439453125,0.70849609375,6.28662109375,5.67626953125,-6.28662109375,3.955078125,43.3905029296875,-76.4208984375
1758878114.4436588,-0.6982421875,0.00439453125,0.70849609375,6.28662109375,5.67626953125,-6.28662109375,3.955078125,43.43994140625,-76.5032958984375
1758878114.454113,-0.7041015625,0.03466796875,0.697265625,4.5166015625,5.43212890625,-5.06591796875,3.955078125,43.4893798828125,-76.57470703125
1758878114.4636545,-0.7041015625,0.03466796875,0.697265625,4.5166015625,5.43212890625,-5.06591796875,3.955078125,43.538818359375,-76.6351318359375
1758878114.4737055,-0.70947265625,0.0595703125,0.6962890625,1.5869140625,5.2490234375,-4.08935546875,3.9385986328125,43.5882568359375,-76.695556640625
1758878114.4839833,-0.70947265625,0.0595703125,0.6962890625,1.5869140625,5.2490234375,-4.08935546875,3.9166259765625,43.6376953125,-76.7449951171875
1758878114.4937236,-0.71826171875,0.06494140625,0.69482421875,-3.662109375,5.31005859375,-3.2958984375,3.8726806640625,43.6871337890625,-76.7889404296875
1758878114.503913,-0.71826171875,0.06494140625,0.69482421875,-3.662109375,5.31005859375,-3.2958984375,3.8067626953125,43.7420654296875,-76.8218994140625
1758878114.5138414,-0.703125,0.0517578125,0.69873046875,-3.173828125,5.126953125,-2.197265625,3.746337890625,43.79150390625,-76.8548583984375
1758878114.5237138,-0.703125,0.0517578125,0.69873046875,-3.173828125,5.126953125,-2.197265625,3.702392578125,43.846435546875,-76.871337890625
1758878114.5338526,-0.7001953125,0.0400390625,0.71728515625,-3.60107421875,5.06591796875,-1.64794921875,3.6529541015625,43.8958740234375,-76.8878173828125
1758878114.5440843,-0.7001953125,0.0400390625,0.71728515625,-3.60107421875,5.06591796875,-1.64794921875,3.603515625,43.9453125,-76.904296875
1758878114.5538251,-0.69970703125,0.04931640625,0.72119140625,-6.8359375,4.82177734375,-1.3427734375,3.5430908203125,44.000244140625,-76.915283203125
1758878114.5638633,-0.69970703125,0.04931640625,0.72119140625,-6.8359375,4.82177734375,-1.3427734375,3.4661865234375,44.044189453125,-76.9207763671875
1758878114.5740921,-0.69677734375,0.05908203125,0.7158203125,-8.85009765625,4.39453125,-1.0986328125,3.3782958984375,44.0936279296875,-76.92626953125
1758878114.5838141,-0.69677734375,0.05908203125,0.7158203125,-8.85009765625,4.39453125,-1.0986328125,3.284912109375,44.1375732421875,-76.9317626953125
1758878114.5939357,-0.705078125,0.03955078125,0.70703125,-10.92529296875,4.150390625,-1.220703125,3.18603515625,44.176025390625,-76.937255859375
1758878114.6046267,-0.705078125,0.03955078125,0.70703125,-10.92529296875,4.150390625,-1.220703125,3.0706787109375,44.219970703125,-76.9427490234375
1758878114.614841,-0.70556640625,0.04150390625,0.703125,-7.87353515625,3.35693359375,-1.40380859375,2.9718017578125,44.2584228515625,-76.9482421875
1758878114.6239488,-0.70556640625,0.04150390625,0.703125,-7.87353515625,3.35693359375,-1.40380859375,2.8839111328125,44.2913818359375,-76.959228515625
1758878114.6341715,-0.69580078125,0.04296875,0.705078125,-7.2021484375,3.0517578125,-1.28173828125,2.801513671875,44.3243408203125,-76.9647216796875
1758878114.6439736,-0.69580078125,0.04296875,0.705078125,-7.2021484375,3.0517578125,-1.28173828125,2.724609375,44.351806640625,-76.9757080078125
1758878114.654005,-0.671875,0.04833984375,0.70361328125,-8.544921875,2.3193359375,-1.220703125,2.6422119140625,44.3792724609375,-76.981201171875
1758878114.6641195,-0.671875,0.04833984375,0.70361328125,-8.544921875,2.3193359375,-1.220703125,2.5543212890625,44.40673828125,-76.9866943359375
1758878114.6743002,-0.67626953125,0.02978515625,0.73583984375,-6.103515625,1.708984375,-1.28173828125,2.4774169921875,44.4232177734375,-76.9866943359375
1758878114.683961,-0.67626953125,0.02978515625,0.73583984375,-6.103515625,1.708984375,-1.28173828125,2.406005859375,44.439697265625,-76.9921875
1758878114.694041,-0.6787109375,-0.00244140625,0.7177734375,-1.77001953125,1.0986328125,-1.52587890625,2.362060546875,44.45068359375,-77.003173828125
1758878114.704368,-0.6787109375,-0.00244140625,0.7177734375,-1.77001953125,1.0986328125,-1.52587890625,2.3345947265625,44.4561767578125,-77.01416015625
1758878114.7141266,-0.6875,0.0078125,0.71533203125,3.7841796875,0.8544921875,-1.953125,2.3291015625,44.4671630859375,-77.0306396484375
1758878114.7240996,-0.6875,0.0078125,0.71533203125,3.7841796875,0.8544921875,-1.953125,2.35107421875,44.47265625,-77.0526123046875
1758878114.734254,-0.681640625,0.021484375,0.7060546875,4.57763671875,1.28173828125,-2.685546875,2.3675537109375,44.4781494140625,-77.080078125
1758878114.744118,-0.681640625,0.021484375,0.7060546875,4.57763671875,1.28173828125,-2.685546875,2.3895263671875,44.4891357421875,-77.1075439453125
1758878114.754148,-0.68798828125,0.04833984375,0.71630859375,2.9296875,1.3427734375,-3.2958984375,2.39501953125,44.5001220703125,-77.14599609375
1758878114.7642965,-0.68798828125,0.04833984375,0.71630859375,2.9296875,1.3427734375,-3.2958984375,2.39501953125,44.5111083984375,-77.1844482421875
1758878114.7744792,-0.685546875,0.0556640625,0.70361328125,3.11279296875,1.52587890625,-4.0283203125,2.3895263671875,44.5220947265625,-77.2283935546875
1758878114.7841227,-0.685546875,0.0556640625,0.70361328125,3.11279296875,1.52587890625,-4.0283203125,2.384033203125,44.5330810546875,-77.2723388671875
1758878114.7941802,-0.677734375,0.0322265625,0.69970703125,1.77001953125,1.15966796875,-4.2724609375,2.373046875,44.5440673828125,-77.32177734375
1758878114.8041894,-0.677734375,0.0322265625,0.69970703125,1.77001953125,1.15966796875,-4.2724609375,2.35107421875,44.5550537109375,-77.3712158203125
1758878114.8142374,-0.6806640625,0.021484375,0.724609375,0.732421875,1.220703125,-4.45556640625,2.3291015625,44.5660400390625,-77.420654296875
1758878114.8242214,-0.6806640625,0.021484375,0.724609375,0.732421875,1.220703125,-4.45556640625,2.2906494140625,44.5770263671875,-77.4700927734375
1758878114.8344474,-0.68505859375,0.03076171875,0.73486328125,-0.54931640625,1.3427734375,-4.57763671875,2.252197265625,44.58251953125,-77.5250244140625
1758878114.844324,-0.68505859375,0.03076171875,0.73486328125,-0.54931640625,1.3427734375,-4.57763671875,2.2027587890625,44.593505859375,-77.5799560546875
1758878114.8542955,-0.6826171875,0.04736328125,0.72607421875,-0.67138671875,1.46484375,-4.638671875,2.1588134765625,44.6044921875,-77.62939453125
1758878114.8642907,-0.6826171875,0.04736328125,0.72607421875,-0.67138671875,1.46484375,-4.638671875,2.109375,44.615478515625,-77.684326171875
1758878114.8747647,-0.6787109375,0.048828125,0.7060546875,-3.11279296875,1.5869140625,-4.82177734375,2.0489501953125,44.62646484375,-77.7392578125
1758878114.8842695,-0.6787109375,0.048828125,0.7060546875,-3.11279296875,1.5869140625,-4.82177734375,1.9775390625,44.637451171875,-77.7886962890625
1758878114.8946612,-0.6787109375,0.048828125,0.7060546875,-10.009765625,0.48828125,-5.0048828125,1.86767578125,44.6429443359375,-77.8436279296875
1758878114.9045603,-0.724609375,0.0283203125,0.75439453125,-10.009765625,0.48828125,-5.0048828125,1.724853515625,44.6429443359375,-77.8985595703125
1758878114.9143577,-0.771484375,0.04931640625,0.79443359375,-18.06640625,-1.03759765625,-4.33349609375,1.549072265625,44.637451171875,-77.947998046875
1758878114.9246643,-0.771484375,0.04931640625,0.79443359375,-18.06640625,-1.03759765625,-4.33349609375,1.3348388671875,44.6209716796875,-77.991943359375
1758878114.9348829,-0.78271484375,0.013671875,0.69189453125,-22.216796875,-1.708984375,-3.60107421875,1.1041259765625,44.6044921875,-78.0303955078125
1758878114.9443755,-0.78271484375,0.013671875,0.69189453125,-22.216796875,-1.708984375,-3.60107421875,0.85693359375,44.5880126953125,-78.0633544921875
1758878114.954484,-0.7880859375,-0.0283203125,0.62744140625,-15.0146484375,-2.0751953125,-3.60107421875,0.648193359375,44.571533203125,-78.0963134765625
1758878114.9648888,-0.7880859375,-0.0283203125,0.62744140625,-15.0146484375,-2.0751953125,-3.60107421875,0.472412109375,44.5550537109375,-78.1292724609375
1758878114.9743996,-0.76123046875,-0.03466796875,0.62451171875,-0.30517578125,-1.52587890625,-4.08935546875,0.362548828125,44.5440673828125,-78.1732177734375
1758878114.984398,-0.76123046875,-0.03466796875,0.62451171875,-0.30517578125,-1.52587890625,-4.08935546875,0.3240966796875,44.5440673828125,-78.22265625
1758878114.9944806,-0.7373046875,-0.0322265625,0.6337890625,8.48388671875,-1.28173828125,-4.33349609375,0.32958984375,44.5440673828125,-78.277587890625
1758878115.0048573,-0.7373046875,-0.0322265625,0.6337890625,8.48388671875,-1.28173828125,-4.33349609375,0.37353515625,44.5440673828125,-78.33251953125
1758878115.0144947,-0.72900390625,0.00830078125,0.65966796875,3.47900390625,-1.28173828125,-3.84521484375,0.3900146484375,44.549560546875,-78.387451171875
1758878115.0245345,-0.72900390625,0.00830078125,0.65966796875,3.47900390625,-1.28173828125,-3.84521484375,0.384521484375,44.5550537109375,-78.4368896484375
1758878115.0350082,-0.72998046875,0.02880859375,0.68701171875,-2.01416015625,-1.40380859375,-3.23486328125,0.3570556640625,44.5550537109375,-78.4808349609375
1758878115.0445492,-0.72998046875,0.02880859375,0.68701171875,-2.01416015625,-1.40380859375,-3.23486328125,0.3076171875,44.560546875,-78.5247802734375
1758878115.0545933,-0.72509765625,-0.0107421875,0.67724609375,-3.35693359375,-1.40380859375,-2.86865234375,0.252685546875,44.560546875,-78.5577392578125
1758878115.0649195,-0.72509765625,-0.0107421875,0.67724609375,-3.35693359375,-1.40380859375,-2.86865234375,0.1922607421875,44.560546875,-78.5906982421875
1758878115.074848,-0.7197265625,-0.01611328125,0.6865234375,-2.0751953125,-1.3427734375,-2.86865234375,0.1373291015625,44.5660400390625,-78.629150390625
1758878115.0845244,-0.7197265625,-0.01611328125,0.6865234375,-2.0751953125,-1.3427734375,-2.86865234375,0.0933837890625,44.5660400390625,-78.662109375
1758878115.094618,-0.71533203125,-0.00390625,0.70166015625,-1.15966796875,-0.9765625,-2.8076171875,0.0494384765625,44.571533203125,-78.7005615234375
1758878115.1049972,-0.71533203125,-0.00390625,0.70166015625,-1.15966796875,-0.9765625,-2.8076171875,0.0054931640625,44.571533203125,-78.7335205078125
1758878115.1145687,-0.7080078125,0.0078125,0.71142578125,-5.43212890625,-0.91552734375,-2.13623046875,-0.0439453125,44.5770263671875,-78.760986328125
1758878115.1246579,-0.7080078125,0.0078125,0.71142578125,-5.43212890625,-0.91552734375,-2.13623046875,-0.1153564453125,44.5770263671875,-78.7884521484375
1758878115.1348398,-0.693359375,0.00048828125,0.7099609375,-7.14111328125,-0.91552734375,-1.708984375,-0.19775390625,44.58251953125,-78.804931640625
1758878115.14477,-0.693359375,0.00048828125,0.7099609375,-7.14111328125,-0.91552734375,-1.708984375,-0.28564453125,44.58251953125,-78.8214111328125
1758878115.154643,-0.6845703125,-0.02783203125,0.72216796875,-4.94384765625,-1.0986328125,-1.46484375,-0.3570556640625,44.5770263671875,-78.837890625
1758878115.1651585,-0.6845703125,-0.02783203125,0.72216796875,-4.94384765625,-1.0986328125,-1.46484375,-0.41748046875,44.571533203125,-78.8543701171875
1758878115.174754,-0.677734375,-0.03369140625,0.74658203125,-5.9814453125,-1.52587890625,-1.15966796875,-0.4888916015625,44.5660400390625,-78.8653564453125
1758878115.1847682,-0.677734375,-0.03369140625,0.74658203125,-5.9814453125,-1.52587890625,-1.15966796875,-0.560302734375,44.5550537109375,-78.8763427734375
1758878115.1947026,-0.66748046875,-0.0107421875,0.75439453125,-5.2490234375,-1.89208984375,-0.9765625,-0.626220703125,44.53857421875,-78.8873291015625
1758878115.2050939,-0.66748046875,-0.0107421875,0.75439453125,-5.2490234375,-1.89208984375,-0.9765625,-0.6866455078125,44.5220947265625,-78.892822265625
1758878115.2147467,-0.67333984375,-0.00439453125,0.765625,-6.9580078125,-2.197265625,-0.6103515625,-0.758056640625,44.5001220703125,-78.8983154296875
1758878115.2247899,-0.67333984375,-0.00439453125,0.765625,-6.9580078125,-2.197265625,-0.6103515625,-0.8294677734375,44.47265625,-78.8983154296875
1758878115.235211,-0.68017578125,0.00341796875,0.734375,-8.4228515625,-2.44140625,-0.1220703125,-0.911865234375,44.4451904296875,-78.892822265625
1758878115.2447681,-0.68017578125,0.00341796875,0.734375,-8.4228515625,-2.44140625,-0.1220703125,-0.9942626953125,44.417724609375,-78.8873291015625
1758878115.2547767,-0.67431640625,-0.0048828125,0.7265625,-6.8359375,-2.44140625,-0.244140625,-1.065673828125,44.384765625,-78.8763427734375
1758878115.2650223,-0.67431640625,-0.0048828125,0.7265625,-6.8359375,-2.44140625,-0.244140625,-1.131591796875,44.3572998046875,-78.870849609375
1758878115.2748125,-0.67138671875,-0.02099609375,0.736328125,-5.615234375,-2.25830078125,-0.6103515625,-1.197509765625,44.3243408203125,-78.85986328125
1758878115.2848465,-0.67138671875,-0.02099609375,0.736328125,-5.615234375,-2.25830078125,-0.6103515625,-1.25244140625,44.296875,-78.85986328125
1758878115.2952602,-0.6708984375,-0.02392578125,0.720703125,-5.0048828125,-1.77001953125,-1.03759765625,-1.307373046875,44.2694091796875,-78.85986328125
1758878115.3048468,-0.6708984375,-0.02392578125,0.720703125,-5.0048828125,-1.77001953125,-1.03759765625,-1.3677978515625,44.2474365234375,-78.85986328125
1758878115.31492,-0.66796875,-0.0341796875,0.7080078125,-1.64794921875,-1.15966796875,-1.8310546875,-1.4117431640625,44.2254638671875,-78.870849609375
1758878115.325329,-0.66796875,-0.0341796875,0.7080078125,-1.64794921875,-1.15966796875,-1.8310546875,-1.4447021484375,44.208984375,-78.8873291015625
1758878115.3349588,-0.66552734375,-0.03125,0.73779296875,2.50244140625,-0.6103515625,-2.38037109375,-1.4556884765625,44.1925048828125,-78.9093017578125
1758878115.3449724,-0.66552734375,-0.03125,0.73779296875,2.50244140625,-0.6103515625,-2.38037109375,-1.4556884765625,44.176025390625,-78.936767578125
1758878115.354996,-0.66552734375,-0.03125,0.73779296875,6.103515625,-0.1220703125,-2.8076171875,-1.439208984375,44.1650390625,-78.9642333984375
1758878115.3649652,-0.65869140625,-0.02880859375,0.71923828125,6.103515625,-0.1220703125,-2.8076171875,-1.40625,44.1595458984375,-78.9971923828125
1758878115.37497,-0.67041015625,-0.021484375,0.73388671875,7.9345703125,-0.18310546875,-3.173828125,-1.3623046875,44.1485595703125,-79.0301513671875
1758878115.3853505,-0.67041015625,-0.021484375,0.73388671875,7.9345703125,-0.18310546875,-3.173828125,-1.318359375,44.1375732421875,-79.068603515625
1758878115.395052,-0.69140625,-0.00732421875,0.7373046875,6.9580078125,-0.06103515625,-3.2958984375,-1.2799072265625,44.1265869140625,-79.1070556640625
1758878115.4050632,-0.69140625,-0.00732421875,0.7373046875,6.9580078125,-0.06103515625,-3.2958984375,-1.2469482421875,44.12109375,-79.1455078125
1758878115.4152274,-0.71435546875,0.0009765625,0.7333984375,6.65283203125,-0.3662109375,-3.41796875,-1.2139892578125,44.110107421875,-79.1839599609375
1758878115.4251394,-0.71435546875,0.0009765625,0.7333984375,6.65283203125,-0.3662109375,-3.41796875,-1.1810302734375,44.09912109375,-79.2169189453125
1758878115.435057,-0.72119140625,-0.00732421875,0.740234375,5.0048828125,-0.54931640625,-3.41796875,-1.1590576171875,44.088134765625,-79.25537109375
1758878115.445096,-0.72119140625,-0.00732421875,0.740234375,5.0048828125,-0.54931640625,-3.41796875,-1.142578125,44.0771484375,-79.2938232421875
1758878115.4554455,-0.71630859375,-0.02294921875,0.703125,1.64794921875,-0.79345703125,-3.23486328125,-1.1590576171875,44.066162109375,-79.3267822265625
1758878115.465098,-0.71630859375,-0.02294921875,0.703125,1.64794921875,-0.79345703125,-3.23486328125,-1.1700439453125,44.05517578125,-79.365234375
1758878115.4750936,-0.71826171875,-0.044921875,0.68017578125,2.9296875,-0.732421875,-3.0517578125,-1.175537109375,44.044189453125,-79.398193359375
1758878115.4856486,-0.71826171875,-0.044921875,0.68017578125,2.9296875,-0.732421875,-3.0517578125,-1.175537109375,44.0386962890625,-79.4366455078125
1758878115.4951952,-0.71484375,-0.0546875,0.6650390625,6.89697265625,-0.67138671875,-3.11279296875,-1.142578125,44.033203125,-79.47509765625
1758878115.5053346,-0.71484375,-0.0546875,0.6650390625,6.89697265625,-0.67138671875,-3.11279296875,-1.109619140625,44.0277099609375,-79.51904296875
1758878115.515393,-0.7236328125,-0.03857421875,0.66748046875,12.14599609375,-0.3662109375,-3.23486328125,-1.0272216796875,44.033203125,-79.56298828125
1758878115.5252473,-0.7236328125,-0.03857421875,0.66748046875,12.14599609375,-0.3662109375,-3.23486328125,-0.94482421875,44.033203125,-79.6124267578125
1758878115.535211,-0.72314453125,-0.02294921875,0.6806640625,16.2353515625,-0.1220703125,-3.2958984375,-0.823974609375,44.0386962890625,-79.661865234375
1758878115.5454984,-0.72314453125,-0.02294921875,0.6806640625,16.2353515625,-0.1220703125,-3.2958984375,-0.6976318359375,44.044189453125,-79.705810546875
1758878115.5554361,-0.7177734375,-0.01416015625,0.703125,16.2353515625,0.0,-3.11279296875,-0.5767822265625,44.05517578125,-79.7552490234375
1758878115.5652363,-0.7177734375,-0.01416015625,0.703125,16.2353515625,0.0,-3.11279296875,-0.4559326171875,44.0606689453125,-79.7991943359375
1758878115.5752423,-0.7177734375,0.0009765625,0.70849609375,13.61083984375,0.0,-2.74658203125,-0.3570556640625,44.0716552734375,-79.837646484375
1758878115.5858188,-0.7177734375,0.0009765625,0.70849609375,13.61083984375,0.0,-2.74658203125,-0.252685546875,44.0826416015625,-79.881591796875
1758878115.5953462,-0.71337890625,0.00927734375,0.7021484375,10.1318359375,-0.244140625,-2.13623046875,-0.1812744140625,44.088134765625,-79.9090576171875
1758878115.605368,-0.71337890625,0.00927734375,0.7021484375,10.1318359375,-0.244140625,-2.13623046875,-0.1043701171875,44.0936279296875,-79.9420166015625
1758878115.6158001,-0.7080078125,0.00244140625,0.69189453125,7.26318359375,-0.3662109375,-1.77001953125,-0.054931640625,44.09912109375,-79.9639892578125
1758878115.625406,-0.7080078125,0.00244140625,0.69189453125,7.26318359375,-0.3662109375,-1.77001953125,-0.0054931640625,44.09912109375,-79.9859619140625
1758878115.6353462,-0.69091796875,-0.0107421875,0.7060546875,8.72802734375,-0.42724609375,-1.708984375,0.0494384765625,44.1046142578125,-80.0079345703125
1758878115.645402,-0.69091796875,-0.0107421875,0.7060546875,8.72802734375,-0.42724609375,-1.708984375,0.1153564453125,44.110107421875,-80.035400390625
1758878115.6556633,-0.6806640625,-0.01513671875,0.71923828125,8.6669921875,-0.30517578125,-1.52587890625,0.1812744140625,44.110107421875,-80.057373046875
1758878115.6654687,-0.6806640625,-0.01513671875,0.71923828125,8.6669921875,-0.30517578125,-1.52587890625,0.2471923828125,44.1156005859375,-80.079345703125
1758878115.6755676,-0.6669921875,0.00634765625,0.73193359375,6.9580078125,-0.30517578125,-1.46484375,0.296630859375,44.1156005859375,-80.101318359375
1758878115.6854768,-0.6669921875,0.00634765625,0.73193359375,6.9580078125,-0.30517578125,-1.46484375,0.340576171875,44.1156005859375,-80.123291015625
1758878115.695475,-0.669921875,0.021484375,0.7451171875,3.96728515625,-0.244140625,-1.15966796875,0.3680419921875,44.1156005859375,-80.13427734375
1758878115.7060008,-0.669921875,0.021484375,0.7451171875,3.96728515625,-0.244140625,-1.15966796875,0.3900146484375,44.110107421875,-80.1507568359375
1758878115.7154944,-0.66455078125,0.02685546875,0.7529296875,-1.03759765625,-0.244140625,-1.03759765625,0.3680419921875,44.1046142578125,-80.1617431640625
1758878115.7254992,-0.66455078125,0.02685546875,0.7529296875,-1.03759765625,-0.244140625,-1.03759765625,0.3460693359375,44.09912109375,-80.167236328125
1758878115.7354894,-0.6572265625,0.0224609375,0.7333984375,-2.50244140625,-0.1220703125,-1.15966796875,0.3076171875,44.0936279296875,-80.17822265625
1758878115.7460585,-0.6572265625,0.0224609375,0.7333984375,-2.50244140625,-0.1220703125,-1.15966796875,0.274658203125,44.088134765625,-80.1837158203125
1758878115.755501,-0.65673828125,0.0078125,0.73681640625,-1.03759765625,0.0,-1.220703125,0.252685546875,44.0826416015625,-80.1947021484375
1758878115.7656155,-0.65673828125,0.0078125,0.73681640625,-1.03759765625,0.0,-1.220703125,0.230712890625,44.0771484375,-80.2001953125
1758878115.7757206,-0.6552734375,-0.0009765625,0.75439453125,-2.9296875,-0.244140625,-1.15966796875,0.1922607421875,44.066162109375,-80.211181640625
1758878115.785641,-0.6552734375,-0.0009765625,0.75439453125,-2.9296875,-0.244140625,-1.15966796875,0.15380859375,44.05517578125,-80.2166748046875
1758878115.795645,-0.65576171875,0.01171875,0.75537109375,-5.615234375,-0.1220703125,-0.67138671875,0.0933837890625,44.044189453125,-80.2166748046875
1758878115.806812,-0.65576171875,0.01171875,0.75537109375,-5.615234375,-0.1220703125,-0.67138671875,0.032958984375,44.033203125,-80.2166748046875
1758878115.816083,-0.6669921875,0.00341796875,0.73828125,-7.26318359375,-0.42724609375,-0.54931640625,-0.032958984375,44.0167236328125,-80.211181640625
1758878115.825632,-0.6669921875,0.00341796875,0.73828125,-7.26318359375,-0.42724609375,-0.54931640625,-0.10986328125,44.0057373046875,-80.211181640625
1758878115.83563,-0.67333984375,-0.00146484375,0.76220703125,-11.41357421875,-0.67138671875,-0.244140625,-0.2197265625,43.9837646484375,-80.2001953125
1758878115.845924,-0.67333984375,-0.00146484375,0.76220703125,-11.41357421875,-0.67138671875,-0.244140625,-0.3350830078125,43.96728515625,-80.1947021484375
1758878115.8556495,-0.69287109375,0.00927734375,0.7451171875,-17.88330078125,-0.91552734375,0.244140625,-0.50537109375,43.9508056640625,-80.17822265625
1758878115.8657687,-0.69287109375,0.00927734375,0.7451171875,-17.88330078125,-0.91552734375,0.244140625,-0.6756591796875,43.9288330078125,-80.1617431640625
1758878115.8759742,-0.7177734375,0.013671875,0.72607421875,-26.06201171875,-1.15966796875,0.48828125,-0.9228515625,43.9068603515625,-80.145263671875
1758878115.8857608,-0.7177734375,0.013671875,0.72607421875,-26.06201171875,-1.15966796875,0.48828125,-1.1700439453125,43.890380859375,-80.1177978515625
1758878115.8957686,-0.7177734375,0.013671875,0.72607421875,-32.5927734375,-1.40380859375,1.15966796875,-1.47216796875,43.868408203125,-80.0848388671875
1758878115.9058118,-0.71826171875,0.001953125,0.705078125,-32.5927734375,-1.40380859375,1.15966796875,-1.768798828125,43.8519287109375,-80.0518798828125
1758878115.9162276,-0.7158203125,-0.0205078125,0.6943359375,-34.0576171875,-1.40380859375,1.77001953125,-2.0819091796875,43.83544921875,-80.013427734375
1758878115.925913,-0.7158203125,-0.0205078125,0.6943359375,-34.0576171875,-1.40380859375,1.77001953125,-2.3895263671875,43.824462890625,-79.969482421875
1758878115.9358697,-0.724609375,-0.05322265625,0.70361328125,-29.60205078125,-1.5869140625,2.13623046875,-2.647705078125,43.8079833984375,-79.9200439453125
1758878115.9463744,-0.724609375,-0.05322265625,0.70361328125,-29.60205078125,-1.5869140625,2.13623046875,-2.911376953125,43.7969970703125,-79.8760986328125
1758878115.9558415,-0.73486328125,-0.0791015625,0.67724609375,-21.30126953125,-1.52587890625,2.25830078125,-3.0926513671875,43.7860107421875,-79.8321533203125
1758878115.9659102,-0.73486328125,-0.0791015625,0.67724609375,-21.30126953125,-1.52587890625,2.25830078125,-3.27392578125,43.7750244140625,-79.7882080078125
1758878115.9760985,-0.7353515625,-0.0830078125,0.671875,-8.6669921875,-1.52587890625,2.13623046875,-3.328857421875,43.76953125,-79.749755859375
1758878115.985899,-0.7353515625,-0.0830078125,0.671875,-8.6669921875,-1.52587890625,2.13623046875,-3.3892822265625,43.7640380859375,-79.716796875
1758878115.9958882,-0.73046875,-0.080078125,0.68603515625,0.67138671875,-1.40380859375,2.0751953125,-3.36181640625,43.758544921875,-79.683837890625
1758878116.0059032,-0.73046875,-0.080078125,0.68603515625,0.67138671875,-1.40380859375,2.0751953125,-3.3343505859375,43.758544921875,-79.65087890625
1758878116.0162463,-0.72216796875,-0.052734375,0.69775390625,2.25830078125,-1.708984375,2.50244140625,-3.284912109375,43.7530517578125,-79.6124267578125
1758878116.0259285,-0.72216796875,-0.052734375,0.69775390625,2.25830078125,-1.708984375,2.50244140625,-3.240966796875,43.74755859375,-79.5794677734375
1758878116.0359378,-0.7001953125,-0.0341796875,0.7216796875,0.244140625,-2.25830078125,2.9296875,-3.2135009765625,43.736572265625,-79.5355224609375
1758878116.04607,-0.7001953125,-0.0341796875,0.7216796875,0.244140625,-2.25830078125,2.9296875,-3.1805419921875,43.7255859375,-79.4915771484375
1758878116.056011,-0.6728515625,-0.0263671875,0.70703125,-1.708984375,-2.74658203125,3.23486328125,-3.1695556640625,43.7091064453125,-79.442138671875
1758878116.0662632,-0.6728515625,-0.0263671875,0.70703125,-1.708984375,-2.74658203125,3.23486328125,-3.153076171875,43.692626953125,-79.3927001953125
1758878116.0760672,-0.65576171875,-0.0322265625,0.71533203125,-5.9814453125,-2.9296875,3.60107421875,-3.175048828125,43.670654296875,-79.3377685546875
1758878116.086058,-0.65576171875,-0.0322265625,0.71533203125,-5.9814453125,-2.9296875,3.60107421875,-3.2025146484375,43.648681640625,-79.27734375
1758878116.0960608,-0.64111328125,-0.0283203125,0.73974609375,-9.70458984375,-3.23486328125,3.662109375,-3.2574462890625,43.6212158203125,-79.222412109375
1758878116.106442,-0.64111328125,-0.0283203125,0.73974609375,-9.70458984375,-3.23486328125,3.662109375,-3.31787109375,43.59375,-79.1619873046875
1758878116.116073,-0.63134765625,-0.0546875,0.77392578125,-8.9111328125,-3.11279296875,3.7841796875,-3.3673095703125,43.5662841796875,-79.1015625
1758878116.1261098,-0.63134765625,-0.0546875,0.77392578125,-8.9111328125,-3.11279296875,3.7841796875,-3.416748046875,43.5333251953125,-79.0411376953125
1758878116.1362467,-0.62353515625,-0.0634765625,0.76416015625,-6.4697265625,-2.62451171875,3.7841796875,-3.4442138671875,43.505859375,-78.980712890625
1758878116.1461678,-0.62353515625,-0.0634765625,0.76416015625,-6.4697265625,-2.62451171875,3.7841796875,-3.4716796875,43.472900390625,-78.9202880859375
1758878116.1562073,-0.61767578125,-0.06591796875,0.732421875,1.15966796875,-1.77001953125,3.173828125,-3.427734375,43.450927734375,-78.870849609375
1758878116.1664853,-0.61767578125,-0.06591796875,0.732421875,1.15966796875,-1.77001953125,3.173828125,-3.3892822265625,43.4234619140625,-78.8214111328125
1758878116.1762328,-0.62060546875,-0.0771484375,0.7392578125,12.5732421875,-0.732421875,2.0751953125,-3.2464599609375,43.406982421875,-78.7939453125
1758878116.1861901,-0.62060546875,-0.0771484375,0.7392578125,12.5732421875,-0.732421875,2.0751953125,-3.1036376953125,43.3905029296875,-78.7664794921875
1758878116.1964085,-0.62158203125,-0.06640625,0.75634765625,20.01953125,0.0,1.28173828125,-2.900390625,43.3795166015625,-78.75
1758878116.2062135,-0.62158203125,-0.06640625,0.75634765625,20.01953125,0.0,1.28173828125,-2.6971435546875,43.3685302734375,-78.7335205078125
1758878116.2161956,-0.63232421875,-0.03271484375,0.75732421875,21.05712890625,0.3662109375,0.6103515625,-2.493896484375,43.3575439453125,-78.7335205078125
1758878116.2265677,-0.63232421875,-0.03271484375,0.75732421875,21.05712890625,0.3662109375,0.6103515625,-2.28515625,43.3465576171875,-78.72802734375
1758878116.2363858,-0.64453125,-0.00390625,0.76220703125,17.4560546875,0.67138671875,0.3662109375,-2.120361328125,43.3355712890625,-78.7225341796875
1758878116.2462945,-0.64453125,-0.00390625,0.76220703125,17.4560546875,0.67138671875,0.3662109375,-1.9500732421875,43.330078125,-78.7225341796875
1758878116.256526,-0.69287109375,0.02978515625,0.77880859375,13.24462890625,0.79345703125,0.67138671875,-1.8182373046875,43.3245849609375,-78.7115478515625
1758878116.2666388,-0.69287109375,0.02978515625,0.77880859375,13.24462890625,0.79345703125,0.67138671875,-1.680908203125,43.3135986328125,-78.7005615234375
1758878116.2762845,-0.732421875,0.041015625,0.80859375,-0.91552734375,0.42724609375,0.79345703125,-1.6864013671875,43.30810546875,-78.6785888671875
1758878116.2863653,-0.732421875,0.041015625,0.80859375,-0.91552734375,0.42724609375,0.79345703125,-1.680908203125,43.297119140625,-78.662109375
1758878116.2966971,-0.7412109375,0.06201171875,0.76513671875,-19.8974609375,0.30517578125,1.40380859375,-1.8621826171875,43.2916259765625,-78.629150390625
1758878116.3063226,-0.7412109375,0.06201171875,0.76513671875,-19.8974609375,0.30517578125,1.40380859375,-2.0379638671875,43.2861328125,-78.5906982421875
1758878116.316381,-0.71630859375,0.02587890625,0.72900390625,-30.1513671875,0.1220703125,1.89208984375,-2.30712890625,43.2806396484375,-78.541259765625
1758878116.3269901,-0.71630859375,0.02587890625,0.72900390625,-30.1513671875,0.1220703125,1.89208984375,-2.5762939453125,43.275146484375,-78.4918212890625
1758878116.3364239,-0.6923828125,-0.0166015625,0.66748046875,-32.2265625,1.03759765625,2.0751953125,-2.8619384765625,43.2806396484375,-78.4423828125
1758878116.3464339,-0.6923828125,-0.0166015625,0.66748046875,-32.2265625,1.03759765625,2.0751953125,-3.14208984375,43.2916259765625,-78.3929443359375
1758878116.356559,-0.6923828125,-0.0166015625,0.66748046875,-28.01513671875,1.46484375,1.89208984375,-3.3892822265625,43.30810546875,-78.3489990234375
1758878116.366468,-0.7099609375,-0.10302734375,0.6748046875,-9.8876953125,1.708984375,1.708984375,-3.548583984375,43.3245849609375,-78.310546875
1758878116.376435,-0.7099609375,-0.10302734375,0.6748046875,-9.8876953125,1.708984375,1.708984375,-3.6199951171875,43.3465576171875,-78.277587890625
1758878116.386502,-0.69677734375,-0.1484375,0.6494140625,7.4462890625,2.13623046875,1.28173828125,-3.614501953125,43.3740234375,-78.2501220703125
1758878116.3968263,-0.69677734375,-0.1484375,0.6494140625,7.4462890625,2.13623046875,1.28173828125,-3.526611328125,43.4014892578125,-78.233642578125
1758878116.406552,-0.69677734375,-0.1484375,0.6494140625,17.822265625,2.0751953125,1.220703125,-3.394775390625,43.428955078125,-78.22265625
1758878116.4166062,-0.708984375,-0.1298828125,0.68115234375,17.822265625,2.0751953125,1.220703125,-3.2135009765625,43.4564208984375,-78.2171630859375
1758878116.4267125,-0.73046875,-0.07421875,0.7373046875,23.8037109375,1.953125,1.0986328125,-3.01025390625,43.48388671875,-78.2171630859375
1758878116.4365416,-0.73046875,-0.07421875,0.7373046875,23.8037109375,1.953125,1.0986328125,-2.779541015625,43.5113525390625,-78.2171630859375
1758878116.4468992,-0.7353515625,-0.0048828125,0.705078125,19.10400390625,1.708984375,1.46484375,-2.5653076171875,43.538818359375,-78.211669921875
1758878116.4567497,-0.7353515625,-0.0048828125,0.705078125,19.10400390625,1.708984375,1.46484375,-2.3785400390625,43.5662841796875,-78.2061767578125
1758878116.4666066,-0.73046875,0.0400390625,0.68212890625,3.662109375,1.708984375,1.953125,-2.2576904296875,43.59375,-78.1951904296875
1758878116.4765923,-0.73046875,0.0400390625,0.68212890625,3.662109375,1.708984375,1.953125,-2.2137451171875,43.6212158203125,-78.1732177734375
1758878116.486781,-0.7265625,0.044921875,0.70166015625,-15.07568359375,1.77001953125,2.38037109375,-2.252197265625,43.648681640625,-78.1402587890625
1758878116.4966283,-0.7265625,0.044921875,0.70166015625,-15.07568359375,1.77001953125,2.38037109375,-2.3785400390625,43.681640625,-78.1072998046875
1758878116.5067453,-0.7158203125,0.0234375,0.6953125,-26.9775390625,1.64794921875,2.62451171875,-2.5653076171875,43.7091064453125,-78.06884765625
1758878116.5169885,-0.7158203125,0.0234375,0.6953125,-26.9775390625,1.64794921875,2.62451171875,-2.801513671875,43.736572265625,-78.0194091796875
1758878116.5268774,-0.7099609375,-0.0126953125,0.7041015625,-30.82275390625,1.708984375,2.62451171875,-3.05419921875,43.76953125,-77.9754638671875
1758878116.5367458,-0.7099609375,-0.0126953125,0.7041015625,-30.82275390625,1.708984375,2.62451171875,-3.3233642578125,43.7969970703125,-77.926025390625
1758878116.5467727,-0.70947265625,-0.0537109375,0.703125,-31.31103515625,2.0751953125,2.3193359375,-3.5980224609375,43.824462890625,-77.882080078125
1758878116.5571003,-0.70947265625,-0.0537109375,0.703125,-31.31103515625,2.0751953125,2.3193359375,-3.878173828125,43.857421875,-77.838134765625
1758878116.566827,-0.69775390625,-0.0732421875,0.69384765625,-29.72412109375,2.74658203125,1.708984375,-4.15283203125,43.8958740234375,-77.7996826171875
1758878116.5767612,-0.69775390625,-0.0732421875,0.69384765625,-29.72412109375,2.74658203125,1.708984375,-4.4219970703125,43.934326171875,-77.772216796875
1758878116.586973,-0.7041015625,-0.0791015625,0.6943359375,-23.62060546875,3.35693359375,1.0986328125,-4.669189453125,43.9727783203125,-77.7447509765625
1758878116.5967727,-0.7041015625,-0.0791015625,0.6943359375,-23.62060546875,3.35693359375,1.0986328125,-4.8834228515625,44.0167236328125,-77.7227783203125
1758878116.606859,-0.703125,-0.08349609375,0.6943359375,-16.9677734375,3.90625,0.42724609375,-5.07568359375,44.0606689453125,-77.7117919921875
1758878116.6170583,-0.703125,-0.08349609375,0.6943359375,-16.9677734375,3.90625,0.42724609375,-5.2349853515625,44.1046142578125,-77.7008056640625
1758878116.6269891,-0.71435546875,-0.08544921875,0.689453125,-9.70458984375,4.33349609375,-0.30517578125,-5.361328125,44.154052734375,-77.7008056640625
1758878116.6368444,-0.71435546875,-0.08544921875,0.689453125,-9.70458984375,4.33349609375,-0.30517578125,-5.460205078125,44.2034912109375,-77.706298828125
1758878116.6469717,-0.72509765625,-0.095703125,0.6884765625,-3.0517578125,4.638671875,-1.28173828125,-5.5316162109375,44.2584228515625,-77.71728515625
1758878116.6572468,-0.72509765625,-0.095703125,0.6884765625,-3.0517578125,4.638671875,-1.28173828125,-5.5755615234375,44.307861328125,-77.7392578125
1758878116.6668515,-0.74609375,-0.09423828125,0.681640625,1.15966796875,5.55419921875,-2.50244140625,-5.60302734375,44.3682861328125,-77.772216796875
1758878116.676961,-0.74609375,-0.09423828125,0.681640625,1.15966796875,5.55419921875,-2.50244140625,-5.6195068359375,44.4287109375,-77.8106689453125
1758878116.687394,-0.759765625,-0.0712890625,0.65966796875,4.57763671875,6.591796875,-4.08935546875,-5.6304931640625,44.49462890625,-77.8656005859375
1758878116.6969633,-0.759765625,-0.0712890625,0.65966796875,4.57763671875,6.591796875,-4.08935546875,-5.6304931640625,44.5660400390625,-77.9315185546875
1758878116.707069,-0.7724609375,-0.05810546875,0.64501953125,7.62939453125,7.38525390625,-5.43212890625,-5.625,44.6429443359375,-78.0084228515625
1758878116.7173114,-0.7724609375,-0.05810546875,0.64501953125,7.62939453125,7.38525390625,-5.43212890625,-5.6085205078125,44.725341796875,-78.0908203125
1758878116.7269778,-0.7666015625,-0.05908203125,0.65673828125,9.033203125,7.8125,-6.4697265625,-5.592041015625,44.8077392578125,-78.1842041015625
1758878116.737015,-0.7666015625,-0.05908203125,0.65673828125,9.033203125,7.8125,-6.4697265625,-5.5755615234375,44.8956298828125,-78.2830810546875
1758878116.7472012,-0.76220703125,-0.07177734375,0.66162109375,8.30078125,7.6904296875,-6.89697265625,-5.55908203125,44.97802734375,-78.3819580078125
1758878116.7573109,-0.76220703125,-0.07177734375,0.66162109375,8.30078125,7.6904296875,-6.89697265625,-5.5535888671875,45.06591796875,-78.486328125
1758878116.767005,-0.77880859375,-0.06787109375,0.6552734375,6.28662109375,7.38525390625,-6.77490234375,-5.55908203125,45.1483154296875,-78.5906982421875
1758878116.9057825,-0.77880859375,-0.06787109375,0.6552734375,6.28662109375,7.38525390625,-6.77490234375,-5.570068359375,45.2362060546875,-78.695068359375
1758878116.91205,-0.77880859375,-0.07080078125,0.63818359375,3.90625,6.89697265625,-6.16455078125,-5.592041015625,45.318603515625,-78.7939453125
1758878116.9181347,-0.77880859375,-0.07080078125,0.63818359375,3.90625,6.89697265625,-6.16455078125,-5.625,45.3955078125,-78.8873291015625
1758878116.924234,-0.79150390625,-0.068359375,0.63623046875,-1.28173828125,6.4697265625,-5.06591796875,-5.6744384765625,45.4779052734375,-78.9752197265625
1758878116.9303262,-0.79150390625,-0.068359375,0.63623046875,-1.28173828125,6.4697265625,-5.06591796875,-5.745849609375,45.5548095703125,-79.0521240234375
1758878116.9367855,-0.7724609375,-0.07373046875,0.63818359375,-1.953125,6.34765625,-4.150390625,-5.8172607421875,45.63720703125,-79.1290283203125
1758878116.9438612,-0.7724609375,-0.07373046875,0.63818359375,-1.953125,6.34765625,-4.150390625,-5.8831787109375,45.7196044921875,-79.1949462890625
1758878116.9500022,-0.73095703125,-0.1044921875,0.66259765625,-0.6103515625,6.04248046875,-3.11279296875,-5.943603515625,45.7965087890625,-79.2498779296875
1758878116.9560847,-0.73095703125,-0.1044921875,0.66259765625,-0.6103515625,6.04248046875,-3.11279296875,-5.987548828125,45.8734130859375,-79.3048095703125
1758878116.962683,-0.7119140625,-0.11181640625,0.693359375,0.91552734375,5.67626953125,-2.01416015625,-6.0260009765625,45.94482421875,-79.3487548828125
1758878116.9700105,-0.7119140625,-0.11181640625,0.693359375,0.91552734375,5.67626953125,-2.01416015625,-6.0479736328125,46.0162353515625,-79.3927001953125
1758878116.976243,-0.68701171875,-0.1005859375,0.70166015625,3.35693359375,5.31005859375,-1.03759765625,-6.053466796875,46.0821533203125,-79.4256591796875
1758878116.9823408,-0.68701171875,-0.1005859375,0.70166015625,3.35693359375,5.31005859375,-1.03759765625,-6.04248046875,46.142578125,-79.4476318359375
1758878116.9884338,-0.67041015625,-0.08642578125,0.71826171875,3.60107421875,4.33349609375,-0.1220703125,-6.0260009765625,46.197509765625,-79.4696044921875
1758878116.994615,-0.67041015625,-0.08642578125,0.71826171875,3.60107421875,4.33349609375,-0.1220703125,-6.0040283203125,46.2469482421875,-79.4805908203125
1758878117.0007832,-0.66650390625,-0.07421875,0.73828125,1.3427734375,3.41796875,0.79345703125,-5.987548828125,46.285400390625,-79.486083984375
1758878117.0078535,-0.66650390625,-0.07421875,0.73828125,1.3427734375,3.41796875,0.79345703125,-5.9765625,46.318359375,-79.4805908203125
1758878117.0143774,-0.66796875,-0.0751953125,0.732421875,-1.40380859375,2.62451171875,1.708984375,-5.9710693359375,46.3458251953125,-79.4696044921875
1758878117.020486,-0.66796875,-0.0751953125,0.732421875,-1.40380859375,2.62451171875,1.708984375,-5.9765625,46.3677978515625,-79.4476318359375
1758878117.026608,-0.67822265625,-0.0791015625,0.7119140625,-2.62451171875,1.77001953125,2.197265625,-5.9820556640625,46.38427734375,-79.420166015625
1758878117.032797,-0.67822265625,-0.0791015625,0.7119140625,-2.62451171875,1.77001953125,2.197265625,-5.9930419921875,46.395263671875,-79.38720703125
1758878117.039505,-0.6796875,-0.08349609375,0.705078125,-0.6103515625,0.91552734375,2.44140625,-5.987548828125,46.4007568359375,-79.354248046875
1758878117.0463042,-0.6796875,-0.08349609375,0.705078125,-0.6103515625,0.91552734375,2.44140625,-5.9710693359375,46.4007568359375,-79.3212890625
1758878117.0523825,-0.68505859375,-0.08740234375,0.70703125,2.3193359375,0.1220703125,2.62451171875,-5.943603515625,46.4007568359375,-79.2828369140625
1758878117.058448,-0.68505859375,-0.08740234375,0.70703125,2.3193359375,0.1220703125,2.62451171875,-5.899658203125,46.3897705078125,-79.244384765625
1758878117.0645401,-0.68896484375,-0.08837890625,0.720703125,3.84521484375,-0.3662109375,3.0517578125,-5.8447265625,46.38427734375,-79.200439453125
1758878117.0709982,-0.68896484375,-0.08837890625,0.720703125,3.84521484375,-0.3662109375,3.0517578125,-5.77880859375,46.3677978515625,-79.156494140625
1758878117.078055,-0.68505859375,-0.07470703125,0.71484375,5.615234375,-0.79345703125,3.35693359375,-5.701904296875,46.3568115234375,-79.1070556640625
1758878117.0843065,-0.68505859375,-0.07470703125,0.71484375,5.615234375,-0.79345703125,3.35693359375,-5.6195068359375,46.3348388671875,-79.0576171875
1758878117.0903974,-0.6923828125,-0.07421875,0.7158203125,7.080078125,-0.9765625,3.41796875,-5.526123046875,46.318359375,-79.0081787109375
1758878117.096525,-0.6923828125,-0.07421875,0.7158203125,7.080078125,-0.9765625,3.41796875,-5.4217529296875,46.3018798828125,-78.958740234375
1758878117.1032834,-0.6796875,-0.0751953125,0.7314453125,7.87353515625,-1.46484375,3.173828125,-5.3173828125,46.2744140625,-78.9093017578125
1758878117.1101692,-0.6796875,-0.0751953125,0.7314453125,7.87353515625,-1.46484375,3.173828125,-5.2130126953125,46.25244140625,-78.8653564453125
1758878117.1162975,-0.6708984375,-0.06298828125,0.73388671875,8.4228515625,-2.25830078125,2.9296875,-5.108642578125,46.219482421875,-78.81591796875
1758878117.1224284,-0.6708984375,-0.06298828125,0.73388671875,8.4228515625,-2.25830078125,2.9296875,-4.998779296875,46.1865234375,-78.77197265625
1758878117.1285439,-0.6689453125,-0.0478515625,0.74560546875,6.65283203125,-3.23486328125,2.86865234375,-4.8944091796875,46.1480712890625,-78.72802734375
1758878117.138092,-0.6689453125,-0.0478515625,0.74560546875,6.65283203125,-3.23486328125,2.86865234375,-4.801025390625,46.0986328125,-78.68408203125
1758878117.1476488,-0.67333984375,-0.046875,0.7587890625,5.126953125,-3.662109375,3.0517578125,-4.713134765625,46.0491943359375,-78.6346435546875
1758878117.1576626,-0.67333984375,-0.046875,0.7587890625,5.126953125,-3.662109375,3.0517578125,-4.63623046875,45.999755859375,-78.585205078125
1758878117.168065,-0.66845703125,-0.06640625,0.75146484375,5.55419921875,-3.7841796875,3.11279296875,-4.54833984375,45.94482421875,-78.5357666015625
1758878117.1777344,-0.66845703125,-0.06640625,0.75146484375,5.55419921875,-3.7841796875,3.11279296875,-4.46044921875,45.889892578125,-78.4808349609375
1758878117.1876676,-0.67724609375,-0.0693359375,0.70458984375,7.50732421875,-3.72314453125,3.0517578125,-4.3670654296875,45.8349609375,-78.431396484375
1758878117.1977322,-0.67724609375,-0.0693359375,0.70458984375,7.50732421875,-3.72314453125,3.0517578125,-4.2626953125,45.7855224609375,-78.387451171875
1758878117.208151,-0.7021484375,-0.0654296875,0.68115234375,10.07080078125,-3.173828125,2.74658203125,-4.15283203125,45.736083984375,-78.343505859375
1758878117.2177546,-0.7021484375,-0.0654296875,0.68115234375,10.07080078125,-3.173828125,2.74658203125,-4.0264892578125,45.692138671875,-78.3050537109375
1758878117.2277215,-0.71484375,-0.05712890625,0.69482421875,13.61083984375,-2.5634765625,2.13623046875,-3.88916015625,45.648193359375,-78.2720947265625
1758878117.2382505,-0.71484375,-0.05712890625,0.69482421875,13.61083984375,-2.5634765625,2.13623046875,-3.7408447265625,45.615234375,-78.24462890625
1758878117.2477696,-0.72998046875,-0.05029296875,0.689453125,16.845703125,-1.64794921875,1.708984375,-3.5760498046875,45.582275390625,-78.2171630859375
1758878117.2577846,-0.72998046875,-0.05029296875,0.689453125,16.845703125,-1.64794921875,1.708984375,-3.4002685546875,45.560302734375,-78.20068359375
1758878117.2679477,-0.775390625,-0.04296875,0.671875,15.380859375,0.06103515625,1.52587890625,-3.22998046875,45.54931640625,-78.1842041015625
1758878117.2778091,-0.775390625,-0.04296875,0.671875,15.380859375,0.06103515625,1.52587890625,-3.076171875,45.5438232421875,-78.167724609375
1758878117.2878177,-0.806640625,-0.0185546875,0.66259765625,10.7421875,3.0517578125,1.03759765625,-2.9388427734375,45.560302734375,-78.1622314453125
1758878117.2982743,-0.806640625,-0.0185546875,0.66259765625,10.7421875,3.0517578125,1.03759765625,-2.83447265625,45.59326171875,-78.15673828125
1758878117.3081098,-0.76220703125,0.00244140625,0.6357421875,8.4228515625,5.67626953125,0.18310546875,-2.7410888671875,45.6427001953125,-78.15673828125
1758878117.3178468,-0.76220703125,0.00244140625,0.6357421875,8.4228515625,5.67626953125,0.18310546875,-2.6641845703125,45.703125,-78.15673828125
1758878117.3278584,-0.7080078125,0.0009765625,0.666015625,9.3994140625,6.89697265625,-0.48828125,-2.581787109375,45.780029296875,-78.1732177734375
1758878117.34131,-0.7080078125,0.0009765625,0.666015625,9.3994140625,6.89697265625,-0.48828125,-2.4993896484375,45.85693359375,-78.1842041015625
1758878117.347921,-0.71435546875,-0.02734375,0.72314453125,8.85009765625,6.65283203125,-0.30517578125,-2.4224853515625,45.9228515625,-78.189697265625
1758878117.3580732,-0.71435546875,-0.02734375,0.72314453125,8.85009765625,6.65283203125,-0.30517578125,-2.340087890625,45.9942626953125,-78.20068359375
1758878117.3710349,-0.68017578125,-0.048828125,0.77294921875,8.23974609375,5.31005859375,0.0,-2.26318359375,46.0491943359375,-78.20068359375
1758878117.3779714,-0.68017578125,-0.048828125,0.77294921875,8.23974609375,5.31005859375,0.0,-2.1917724609375,46.0986328125,-78.2061767578125
1758878117.3879898,-0.6865234375,-0.0556640625,0.69677734375,7.9345703125,3.72314453125,0.9765625,-2.109375,46.131591796875,-78.1951904296875
1758878117.3985803,-0.6865234375,-0.0556640625,0.69677734375,7.9345703125,3.72314453125,0.9765625,-2.0269775390625,46.16455078125,-78.189697265625
1758878117.4080358,-0.71142578125,-0.03466796875,0.6875,9.1552734375,2.8076171875,1.52587890625,-1.9281005859375,46.1865234375,-78.1732177734375
1758878117.4180834,-0.71142578125,-0.03466796875,0.6875,9.1552734375,2.8076171875,1.52587890625,-1.8292236328125,46.20849609375,-78.1622314453125
1758878117.428201,-0.744140625,-0.0234375,0.6875,8.30078125,1.89208984375,1.708984375,-1.73583984375,46.2249755859375,-78.1402587890625
1758878117.4380865,-0.744140625,-0.0234375,0.6875,8.30078125,1.89208984375,1.708984375,-1.6424560546875,46.241455078125,-78.123779296875
1758878117.4480715,-0.74072265625,-0.00927734375,0.68310546875,4.21142578125,0.79345703125,2.25830078125,-1.5875244140625,46.2469482421875,-78.0963134765625
1758878117.4582367,-0.74072265625,-0.00927734375,0.68310546875,4.21142578125,0.79345703125,2.25830078125,-1.527099609375,46.25244140625,-78.06884765625
1758878117.4681797,-0.73388671875,0.0078125,0.685546875,-2.3193359375,-0.06103515625,2.62451171875,-1.527099609375,46.25244140625,-78.035888671875
1758878117.478125,-0.73388671875,0.0078125,0.685546875,-2.3193359375,-0.06103515625,2.62451171875,-1.527099609375,46.25244140625,-78.0029296875
1758878117.4881349,-0.734375,0.00634765625,0.70556640625,-7.75146484375,-0.91552734375,3.11279296875,-1.571044921875,46.2469482421875,-77.958984375
1758878117.4984217,-0.734375,0.00634765625,0.70556640625,-7.75146484375,-0.91552734375,3.11279296875,-1.6204833984375,46.2359619140625,-77.9095458984375
1758878117.5081434,-0.71728515625,-0.01220703125,0.7080078125,-11.3525390625,-1.46484375,3.41796875,-1.69189453125,46.219482421875,-77.860107421875
1758878117.5182347,-0.71728515625,-0.01220703125,0.7080078125,-11.3525390625,-1.46484375,3.41796875,-1.768798828125,46.20849609375,-77.80517578125
1758878117.5283434,-0.7294921875,-0.02294921875,0.69189453125,-12.51220703125,-2.0751953125,3.662109375,-1.8511962890625,46.1865234375,-77.750244140625
1758878117.5381868,-0.7294921875,-0.02294921875,0.69189453125,-12.51220703125,-2.0751953125,3.662109375,-1.9390869140625,46.1700439453125,-77.6953125
1758878117.548284,-0.7451171875,-0.03271484375,0.681640625,-9.33837890625,-2.62451171875,4.150390625,-1.9830322265625,46.142578125,-77.6348876953125
1758878117.5584629,-0.7451171875,-0.03271484375,0.681640625,-9.33837890625,-2.62451171875,4.150390625,-2.032470703125,46.12060546875,-77.574462890625
1758878117.5683198,-0.759765625,-0.03857421875,0.65283203125,-7.50732421875,-2.44140625,4.57763671875,-2.054443359375,46.0986328125,-77.508544921875
1758878117.5782473,-0.759765625,-0.03857421875,0.65283203125,-7.50732421875,-2.44140625,4.57763671875,-2.0819091796875,46.0821533203125,-77.442626953125
1758878117.5882869,-0.77978515625,-0.03076171875,0.62939453125,-4.94384765625,-1.89208984375,4.5166015625,-2.08740234375,46.0711669921875,-77.3822021484375
1758878117.5985577,-0.77978515625,-0.03076171875,0.62939453125,-4.94384765625,-1.89208984375,4.5166015625,-2.08740234375,46.065673828125,-77.3162841796875
1758878117.608425,-0.7734375,-0.0224609375,0.609375,0.9765625,-1.3427734375,4.33349609375,-2.032470703125,46.065673828125,-77.2613525390625
1758878117.6183848,-0.7734375,-0.0224609375,0.609375,0.9765625,-1.3427734375,4.33349609375,-1.9775390625,46.065673828125,-77.200927734375
1758878117.628427,-0.77294921875,-0.02685546875,0.6025390625,3.47900390625,-1.03759765625,4.39453125,-1.900634765625,46.0711669921875,-77.1405029296875
1758878117.6384268,-0.77294921875,-0.02685546875,0.6025390625,3.47900390625,-1.03759765625,4.39453125,-1.8182373046875,46.0821533203125,-77.0855712890625
1758878117.648346,-0.771484375,-0.021484375,0.62646484375,-0.48828125,-0.9765625,4.5166015625,-1.77978515625,46.0931396484375,-77.025146484375
1758878117.6586301,-0.771484375,-0.021484375,0.62646484375,-0.48828125,-0.9765625,4.5166015625,-1.7413330078125,46.1041259765625,-76.97021484375
1758878117.6684635,-0.76220703125,-0.0068359375,0.63330078125,-4.5166015625,-1.0986328125,4.57763671875,-1.73583984375,46.1151123046875,-76.9097900390625
1758878117.678413,-0.76220703125,-0.0068359375,0.63330078125,-4.5166015625,-1.0986328125,4.57763671875,-1.73583984375,46.1260986328125,-76.849365234375
1758878117.6884155,-0.75244140625,-0.00537109375,0.64111328125,-5.67626953125,-1.28173828125,4.2724609375,-1.746826171875,46.131591796875,-76.79443359375
1758878117.6988666,-0.75244140625,-0.00537109375,0.64111328125,-5.67626953125,-1.28173828125,4.2724609375,-1.7578125,46.142578125,-76.7340087890625
1758878117.7084975,-0.7412109375,-0.009765625,0.6552734375,-4.8828125,-1.220703125,3.23486328125,-1.7742919921875,46.153564453125,-76.6900634765625
1758878117.718502,-0.7412109375,-0.009765625,0.6552734375,-4.8828125,-1.220703125,3.23486328125,-1.7852783203125,46.1590576171875,-76.6461181640625
1758878117.728782,-0.72314453125,-0.00830078125,0.689453125,-1.77001953125,-1.0986328125,1.953125,-1.77978515625,46.1700439453125,-76.6241455078125
1758878117.73856,-0.72314453125,-0.00830078125,0.689453125,-1.77001953125,-1.0986328125,1.953125,-1.7742919921875,46.175537109375,-76.5966796875
1758878117.7485094,-0.71435546875,-0.00732421875,0.7080078125,-0.06103515625,-1.40380859375,0.91552734375,-1.7633056640625,46.175537109375,-76.585693359375
1758878117.7588162,-0.71435546875,-0.00732421875,0.7080078125,-0.06103515625,-1.40380859375,0.91552734375,-1.746826171875,46.175537109375,-76.5692138671875
1758878117.7685316,-0.70458984375,-0.00927734375,0.7041015625,-2.62451171875,-2.0751953125,0.42724609375,-1.768798828125,46.16455078125,-76.563720703125
1758878117.7785833,-0.70458984375,-0.00927734375,0.7041015625,-2.62451171875,-2.0751953125,0.42724609375,-1.7852783203125,46.153564453125,-76.552734375
1758878117.788843,-0.70654296875,-0.01171875,0.7080078125,-4.7607421875,-2.685546875,0.1220703125,-1.82373046875,46.131591796875,-76.552734375
1758878117.798564,-0.70654296875,-0.01171875,0.7080078125,-4.7607421875,-2.685546875,0.1220703125,-1.86767578125,46.109619140625,-76.5472412109375
1758878117.8086247,-0.703125,-0.01904296875,0.71142578125,-4.21142578125,-3.0517578125,-0.244140625,-1.9061279296875,46.087646484375,-76.5472412109375
1758878117.8188217,-0.703125,-0.01904296875,0.71142578125,-4.21142578125,-3.0517578125,-0.244140625,-1.944580078125,46.0601806640625,-76.5472412109375
1758878117.828651,-0.7060546875,-0.0244140625,0.71484375,-3.60107421875,-3.23486328125,-0.6103515625,-1.9830322265625,46.0272216796875,-76.5472412109375
1758878117.838687,-0.7060546875,-0.0244140625,0.71484375,-3.60107421875,-3.23486328125,-0.6103515625,-2.0159912109375,45.999755859375,-76.552734375
1758878117.8489115,-0.70068359375,-0.0185546875,0.71728515625,-3.2958984375,-3.0517578125,-1.03759765625,-2.054443359375,45.966796875,-76.563720703125
1758878117.8589106,-0.70068359375,-0.0185546875,0.71728515625,-3.2958984375,-3.0517578125,-1.03759765625,-2.0928955078125,45.9393310546875,-76.57470703125
1758878117.8686473,-0.6787109375,-0.02685546875,0.72705078125,-2.25830078125,-2.62451171875,-1.3427734375,-2.1258544921875,45.9063720703125,-76.5911865234375
1758878117.8789432,-0.6787109375,-0.02685546875,0.72705078125,-2.25830078125,-2.62451171875,-1.3427734375,-2.1588134765625,45.87890625,-76.607666015625
1758878117.888779,-0.703125,-0.0341796875,0.73876953125,-2.13623046875,-2.44140625,-0.6103515625,-2.1807861328125,45.8514404296875,-76.607666015625
1758878117.898724,-0.703125,-0.0341796875,0.73876953125,-2.13623046875,-2.44140625,-0.6103515625,-2.2027587890625,45.823974609375,-76.6131591796875
1758878117.9087746,-0.681640625,-0.02978515625,0.74658203125,-0.79345703125,-2.0751953125,-0.48828125,-2.2137451171875,45.7965087890625,-76.61865234375
1758878117.9190598,-0.681640625,-0.02978515625,0.74658203125,-0.79345703125,-2.0751953125,-0.48828125,-2.21923828125,45.76904296875,-76.6241455078125
1758878117.9287777,-0.67919921875,-0.04052734375,0.74365234375,0.79345703125,-1.64794921875,0.0,-2.2137451171875,45.7415771484375,-76.61865234375
1758878117.938773,-0.67919921875,-0.04052734375,0.74365234375,0.79345703125,-1.64794921875,0.0,-2.2027587890625,45.714111328125,-76.61865234375
1758878117.9491649,-0.6767578125,-0.037109375,0.7607421875,0.244140625,-1.46484375,0.42724609375,-2.1917724609375,45.692138671875,-76.6131591796875
1758878117.9588554,-0.6767578125,-0.037109375,0.7607421875,0.244140625,-1.46484375,0.42724609375,-2.186279296875,45.6646728515625,-76.607666015625
1758878117.9687967,-0.67431640625,-0.02197265625,0.77001953125,-2.44140625,-1.5869140625,0.91552734375,-2.2027587890625,45.63720703125,-76.5911865234375
1758878117.9788713,-0.67431640625,-0.02197265625,0.77001953125,-2.44140625,-1.5869140625,0.91552734375,-2.2137451171875,45.604248046875,-76.57470703125
1758878117.9893808,-0.6689453125,-0.0126953125,0.765625,-7.14111328125,-1.77001953125,1.46484375,-2.2686767578125,45.5767822265625,-76.552734375
1758878117.9992566,-0.6689453125,-0.0126953125,0.765625,-7.14111328125,-1.77001953125,1.46484375,-2.3236083984375,45.538330078125,-76.5252685546875
1758878118.008905,-0.66259765625,-0.01708984375,0.75634765625,-11.3525390625,-1.5869140625,1.89208984375,-2.4114990234375,45.5108642578125,-76.4923095703125
1758878118.019408,-0.66259765625,-0.01708984375,0.75634765625,-11.3525390625,-1.5869140625,1.89208984375,-2.4993896484375,45.4779052734375,-76.46484375
1758878118.0289643,-0.66162109375,-0.02685546875,0.7568359375,-12.0849609375,-1.708984375,1.89208984375,-2.5982666015625,45.439453125,-76.4263916015625
1758878118.0392785,-0.66162109375,-0.02685546875,0.7568359375,-12.0849609375,-1.708984375,1.89208984375,-2.691650390625,45.406494140625,-76.3934326171875
1758878118.0493345,-0.6435546875,-0.0361328125,0.7666015625,-10.68115234375,-1.5869140625,1.64794921875,-2.7740478515625,45.37353515625,-76.365966796875
1758878118.059284,-0.6435546875,-0.0361328125,0.7666015625,-10.68115234375,-1.5869140625,1.64794921875,-2.8619384765625,45.3350830078125,-76.3330078125
1758878118.0689666,-0.6279296875,-0.03515625,0.7607421875,-9.1552734375,-1.3427734375,1.46484375,-2.9278564453125,45.3021240234375,-76.3055419921875
1758878118.0796337,-0.6279296875,-0.03515625,0.7607421875,-9.1552734375,-1.3427734375,1.46484375,-2.999267578125,45.263671875,-76.2725830078125
1758878118.0892653,-0.611328125,-0.0400390625,0.77685546875,-7.01904296875,-1.03759765625,1.03759765625,-3.05419921875,45.230712890625,-76.2506103515625
1758878118.0992224,-0.611328125,-0.0400390625,0.77685546875,-7.01904296875,-1.03759765625,1.03759765625,-3.109130859375,45.19775390625,-76.2286376953125
1758878118.109084,-0.59814453125,-0.03466796875,0.77490234375,-3.2958984375,-0.48828125,0.91552734375,-3.1256103515625,45.164794921875,-76.2066650390625
1758878118.1197472,-0.59814453125,-0.03466796875,0.77490234375,-3.2958984375,-0.48828125,0.91552734375,-3.14208984375,45.1318359375,-76.1846923828125
1758878118.1290839,-0.5732421875,-0.044921875,0.7265625,2.38037109375,0.18310546875,0.1220703125,-3.1146240234375,45.1043701171875,-76.1737060546875
1758878118.1394641,-0.5732421875,-0.044921875,0.7265625,2.38037109375,0.18310546875,0.1220703125,-3.0816650390625,45.0714111328125,-76.1627197265625
1758878118.1492324,-0.5732421875,-0.0654296875,0.7470703125,10.1318359375,0.8544921875,-0.48828125,-2.98828125,45.0494384765625,-76.1627197265625
1758878118.1592371,-0.5732421875,-0.0654296875,0.7470703125,10.1318359375,0.8544921875,-0.48828125,-2.889404296875,45.0274658203125,-76.168212890625
1758878118.169201,-0.60205078125,-0.0908203125,0.7568359375,22.76611328125,1.3427734375,-1.46484375,-2.6806640625,45.0054931640625,-76.1846923828125
1758878118.1796887,-0.60205078125,-0.0908203125,0.7568359375,22.76611328125,1.3427734375,-1.46484375,-2.4774169921875,44.9835205078125,-76.2066650390625
1758878118.1891687,-0.64111328125,-0.0908203125,0.76416015625,39.00146484375,1.3427734375,-2.5634765625,-2.120361328125,44.9615478515625,-76.2506103515625
1758878118.1993053,-0.64111328125,-0.0908203125,0.76416015625,39.00146484375,1.3427734375,-2.5634765625,-1.7742919921875,44.9395751953125,-76.300048828125
1758878118.210494,-0.6689453125,-0.060546875,0.787109375,47.9736328125,0.91552734375,-3.5400390625,-1.351318359375,44.912109375,-76.365966796875
1758878118.2193177,-0.6689453125,-0.060546875,0.787109375,47.9736328125,0.91552734375,-3.5400390625,-0.9283447265625,44.89013671875,-76.431884765625
1758878118.2292025,-0.6943359375,0.00634765625,0.76953125,38.9404296875,0.6103515625,-4.33349609375,-0.604248046875,44.8681640625,-76.5142822265625
1758878118.2392566,-0.6943359375,0.00634765625,0.76953125,38.9404296875,0.6103515625,-4.33349609375,-0.274658203125,44.8406982421875,-76.5911865234375
1758878118.2495482,-0.76171875,0.06884765625,0.79833984375,12.39013671875,-0.54931640625,-3.84521484375,-0.208740234375,44.8077392578125,-76.651611328125
1758878118.2592957,-0.76171875,0.06884765625,0.79833984375,12.39013671875,-0.54931640625,-3.84521484375,-0.1318359375,44.7802734375,-76.7120361328125
1758878118.2693346,-0.80615234375,0.0947265625,0.7666015625,-11.16943359375,-1.3427734375,-3.2958984375,-0.2801513671875,44.747314453125,-76.761474609375
1758878118.2794313,-0.80615234375,0.0947265625,0.7666015625,-11.16943359375,-1.3427734375,-3.2958984375,-0.428466796875,44.71435546875,-76.805419921875
1758878118.289389,-0.80615234375,0.04833984375,0.66845703125,-24.658203125,-2.44140625,-2.25830078125,-0.692138671875,44.6759033203125,-76.827392578125
1758878118.2993312,-0.77001953125,-0.00732421875,0.6328125,-21.05712890625,-1.64794921875,-1.15966796875,-0.9283447265625,44.6484375,-76.83837890625
1758878118.309523,-0.77001953125,-0.00732421875,0.6328125,-21.05712890625,-1.64794921875,-1.15966796875,-1.142578125,44.62646484375,-76.849365234375
1758878118.3195417,-0.75830078125,-0.06396484375,0.58984375,-4.39453125,-0.30517578125,-0.79345703125,-1.2689208984375,44.615478515625,-76.8548583984375
1758878118.3293767,-0.75830078125,-0.06396484375,0.58984375,-4.39453125,-0.30517578125,-0.79345703125,-1.318359375,44.6209716796875,-76.8603515625
1758878118.3394227,-0.74609375,-0.08740234375,0.6044921875,7.080078125,0.9765625,-1.40380859375,-1.3128662109375,44.6319580078125,-76.88232421875
1758878118.3499417,-0.74609375,-0.08740234375,0.6044921875,7.080078125,0.9765625,-1.40380859375,-1.2579345703125,44.6484375,-76.904296875
1758878118.3594193,-0.74609375,-0.08740234375,0.6044921875,16.66259765625,1.953125,-1.64794921875,-1.1590576171875,44.6759033203125,-76.937255859375
1758878118.369442,-0.75146484375,-0.056640625,0.6328125,16.66259765625,1.953125,-1.64794921875,-1.0162353515625,44.7088623046875,-76.97021484375
1758878118.3797545,-0.73681640625,-0.02685546875,0.64111328125,25.5126953125,2.62451171875,-1.708984375,-0.8294677734375,44.747314453125,-77.0086669921875
1758878118.3896582,-0.73681640625,-0.02685546875,0.64111328125,25.5126953125,2.62451171875,-1.708984375,-0.604248046875,44.791259765625,-77.047119140625
1758878118.3994668,-0.74951171875,-0.009765625,0.6806640625,26.30615234375,2.3193359375,-0.9765625,-0.3680419921875,44.835205078125,-77.080078125
1758878118.4095514,-0.74951171875,-0.009765625,0.6806640625,26.30615234375,2.3193359375,-0.9765625,-0.1263427734375,44.8736572265625,-77.1075439453125
1758878118.419753,-0.7958984375,0.02294921875,0.71533203125,24.4140625,1.8310546875,-0.06103515625,0.1043701171875,44.912109375,-77.1295166015625
1758878118.4295526,-0.7958984375,0.02294921875,0.71533203125,24.4140625,1.8310546875,-0.06103515625,0.3350830078125,44.945068359375,-77.14599609375
1758878118.4395118,-0.78271484375,0.02685546875,0.67578125,10.55908203125,1.15966796875,0.732421875,0.50537109375,44.97802734375,-77.1514892578125
1758878118.4501507,-0.78271484375,0.02685546875,0.67578125,10.55908203125,1.15966796875,0.732421875,0.6097412109375,45.0054931640625,-77.14599609375
1758878118.4595623,-0.7802734375,0.03369140625,0.66064453125,-9.1552734375,0.48828125,1.953125,0.6207275390625,45.032958984375,-77.135009765625
1758878118.4696827,-0.7802734375,0.03369140625,0.66064453125,-9.1552734375,0.48828125,1.953125,0.5438232421875,45.054931640625,-77.113037109375
1758878118.4797845,-0.771484375,0.0361328125,0.63525390625,-18.6767578125,0.30517578125,2.74658203125,0.4229736328125,45.076904296875,-77.0855712890625
1758878118.4896748,-0.771484375,0.0361328125,0.63525390625,-18.6767578125,0.30517578125,2.74658203125,0.2691650390625,45.1043701171875,-77.0526123046875
1758878118.4996917,-0.7470703125,0.001953125,0.6201171875,-17.15087890625,0.0,3.0517578125,0.120849609375,45.1263427734375,-77.01416015625
1758878118.510463,-0.7470703125,0.001953125,0.6201171875,-17.15087890625,0.0,3.0517578125,-0.0164794921875,45.1483154296875,-76.97021484375
1758878118.5199277,-0.73095703125,-0.02880859375,0.63427734375,-11.41357421875,0.244140625,3.173828125,-0.120849609375,45.17578125,-76.9317626953125
1758878118.5297227,-0.73095703125,-0.02880859375,0.63427734375,-11.41357421875,0.244140625,3.173828125,-0.2032470703125,45.19775390625,-76.8878173828125
1758878118.53976,-0.7177734375,-0.0419921875,0.65185546875,-3.173828125,0.48828125,2.99072265625,-0.24169921875,45.2252197265625,-76.849365234375
1758878118.5497196,-0.7177734375,-0.0419921875,0.65185546875,-3.173828125,0.48828125,2.99072265625,-0.2471923828125,45.252685546875,-76.81640625
1758878118.5597255,-0.70947265625,-0.03466796875,0.6865234375,3.173828125,0.732421875,2.9296875,-0.2197265625,45.2801513671875,-76.783447265625
1758878118.5698078,-0.70947265625,-0.03466796875,0.6865234375,3.173828125,0.732421875,2.9296875,-0.164794921875,45.3076171875,-76.7559814453125
1758878118.5800521,-0.71044921875,-0.0048828125,0.6884765625,5.4931640625,0.9765625,2.62451171875,-0.098876953125,45.32958984375,-76.7230224609375
1758878118.5897737,-0.71044921875,-0.0048828125,0.6884765625,5.4931640625,0.9765625,2.62451171875,-0.02197265625,45.3570556640625,-76.7010498046875
1758878118.5997493,-0.70458984375,0.02197265625,0.7060546875,4.82177734375,0.91552734375,2.5634765625,0.0439453125,45.3790283203125,-76.673583984375
1758878118.6099377,-0.70458984375,0.02197265625,0.7060546875,4.82177734375,0.91552734375,2.5634765625,0.1153564453125,45.4010009765625,-76.6461181640625
1758878118.6198084,-0.69775390625,0.0224609375,0.70849609375,4.2724609375,0.732421875,2.197265625,0.1812744140625,45.4229736328125,-76.61865234375
1758878118.629846,-0.69775390625,0.0224609375,0.70849609375,4.2724609375,0.732421875,2.197265625,0.24169921875,45.439453125,-76.5911865234375
1758878118.6400983,-0.69775390625,0.0224609375,0.70849609375,2.25830078125,0.30517578125,2.197265625,0.296630859375,45.450439453125,-76.563720703125
1758878118.6500313,-0.69384765625,0.0126953125,0.72607421875,2.25830078125,0.30517578125,2.197265625,0.340576171875,45.46142578125,-76.5362548828125
1758878118.659893,-0.70458984375,0.01220703125,0.71728515625,0.54931640625,-0.244140625,2.3193359375,0.3790283203125,45.46142578125,-76.5087890625
1758878118.669898,-0.70458984375,0.01220703125,0.71728515625,0.54931640625,-0.244140625,2.3193359375,0.406494140625,45.4669189453125,-76.4813232421875
1758878118.6801913,-0.724609375,0.01220703125,0.69873046875,-0.67138671875,-0.732421875,2.3193359375,0.428466796875,45.46142578125,-76.4483642578125
1758878118.6899226,-0.724609375,0.01220703125,0.69873046875,-0.67138671875,-0.732421875,2.3193359375,0.4449462890625,45.4559326171875,-76.4208984375
1758878118.6999002,-0.72216796875,0.00439453125,0.69189453125,-1.8310546875,-1.0986328125,2.13623046875,0.4559326171875,45.450439453125,-76.3934326171875
1758878118.7099516,-0.72216796875,0.00439453125,0.69189453125,-1.8310546875,-1.0986328125,2.13623046875,0.4559326171875,45.4449462890625,-76.365966796875
1758878118.7202928,-0.7255859375,0.005859375,0.67724609375,-2.0751953125,-1.40380859375,2.01416015625,0.46142578125,45.4339599609375,-76.3385009765625
1758878118.7299936,-0.7255859375,0.005859375,0.67724609375,-2.0751953125,-1.40380859375,2.01416015625,0.4559326171875,45.4229736328125,-76.31103515625
1758878118.740038,-0.72802734375,0.0087890625,0.671875,-2.99072265625,-1.8310546875,2.13623046875,0.4559326171875,45.4119873046875,-76.2835693359375
1758878118.7501643,-0.72802734375,0.0087890625,0.671875,-2.99072265625,-1.8310546875,2.13623046875,0.4449462890625,45.3955078125,-76.2615966796875
1758878118.760038,-0.73486328125,0.01806640625,0.67578125,-4.8828125,-1.953125,2.3193359375,0.428466796875,45.384521484375,-76.2286376953125
1758878118.7700505,-0.73486328125,0.01806640625,0.67578125,-4.8828125,-1.953125,2.3193359375,0.406494140625,45.37353515625,-76.201171875
1758878118.780363,-0.73095703125,0.015625,0.67919921875,-6.77490234375,-2.25830078125,2.50244140625,0.37353515625,45.3570556640625,-76.168212890625
1758878118.7901976,-0.73095703125,0.015625,0.67919921875,-6.77490234375,-2.25830078125,2.50244140625,0.3350830078125,45.340576171875,-76.13525390625
1758878118.800054,-0.72412109375,0.01123046875,0.6826171875,-9.765625,-2.44140625,2.50244140625,0.2801513671875,45.32958984375,-76.0968017578125
1758878118.8101645,-0.72412109375,0.01123046875,0.6826171875,-9.765625,-2.44140625,2.50244140625,0.208740234375,45.3131103515625,-76.0638427734375
1758878118.8204823,-0.7138671875,0.00537109375,0.6845703125,-8.7890625,-2.685546875,2.197265625,0.142822265625,45.2911376953125,-76.0308837890625
1758878118.8302717,-0.7138671875,0.00537109375,0.6845703125,-8.7890625,-2.685546875,2.197265625,0.0823974609375,45.274658203125,-75.9979248046875
1758878118.8402593,-0.70068359375,-0.0009765625,0.703125,-4.82177734375,-3.0517578125,1.64794921875,0.0384521484375,45.252685546875,-75.970458984375
1758878118.8504941,-0.70068359375,-0.0009765625,0.703125,-4.82177734375,-3.0517578125,1.64794921875,0.010986328125,45.230712890625,-75.948486328125
1758878118.8603978,-0.68798828125,-0.00732421875,0.708984375,-2.38037109375,-3.5400390625,0.9765625,-0.0054931640625,45.2032470703125,-75.9320068359375
1758878118.8701727,-0.68798828125,-0.00732421875,0.708984375,-2.38037109375,-3.5400390625,0.9765625,-0.0164794921875,45.1702880859375,-75.9210205078125
1758878118.8803,-0.67822265625,0.00048828125,0.71875,-2.99072265625,-4.33349609375,0.42724609375,-0.032958984375,45.1373291015625,-75.9100341796875
1758878118.890865,-0.67822265625,0.00048828125,0.71875,-2.99072265625,-4.33349609375,0.42724609375,-0.054931640625,45.098876953125,-75.904541015625
1758878118.9002955,-0.66650390625,0.013671875,0.74755859375,-6.04248046875,-5.2490234375,0.0,-0.0933837890625,45.0494384765625,-75.904541015625
1758878118.910291,-0.66650390625,0.013671875,0.74755859375,-6.04248046875,-5.2490234375,0.0,-0.15380859375,44.9945068359375,-75.904541015625
1758878118.9202893,-0.65234375,0.02099609375,0.75927734375,-10.31494140625,-6.28662109375,-0.18310546875,-0.230712890625,44.9395751953125,-75.904541015625
1758878118.9306183,-0.65234375,0.02099609375,0.75927734375,-10.31494140625,-6.28662109375,-0.18310546875,-0.32958984375,44.8681640625,-75.904541015625
1758878118.9402947,-0.66455078125,0.0146484375,0.75390625,-13.7939453125,-7.01904296875,-0.54931640625,-0.4449462890625,44.7967529296875,-75.8990478515625
1758878118.9506032,-0.66455078125,0.0146484375,0.75390625,-13.7939453125,-7.01904296875,-0.54931640625,-0.582275390625,44.7198486328125,-75.904541015625
1758878118.9603124,-0.66943359375,0.00048828125,0.73828125,-12.6953125,-7.26318359375,-1.15966796875,-0.714111328125,44.6429443359375,-75.904541015625
1758878118.9703329,-0.66943359375,0.00048828125,0.73828125,-12.6953125,-7.26318359375,-1.15966796875,-0.8404541015625,44.560546875,-75.91552734375
1758878118.9804597,-0.68212890625,-0.01904296875,0.70458984375,-11.16943359375,-6.89697265625,-1.5869140625,-0.966796875,44.483642578125,-75.9210205078125
1758878118.9904737,-0.68212890625,-0.01904296875,0.70458984375,-11.16943359375,-6.89697265625,-1.5869140625,-1.0821533203125,44.40673828125,-75.9375
1758878119.0003908,-0.70361328125,-0.02685546875,0.701171875,-8.9111328125,-6.4697265625,-2.13623046875,-1.1920166015625,44.3353271484375,-75.9539794921875
1758878119.0104535,-0.70361328125,-0.02685546875,0.701171875,-8.9111328125,-6.4697265625,-2.13623046875,-1.2908935546875,44.2694091796875,-75.9759521484375
1758878119.020742,-0.69580078125,-0.02294921875,0.7021484375,-4.57763671875,-6.103515625,-2.685546875,-1.373291015625,44.197998046875,-76.00341796875
1758878119.0304685,-0.69580078125,-0.02294921875,0.7021484375,-4.57763671875,-6.103515625,-2.685546875,-1.439208984375,44.1375732421875,-76.036376953125
1758878119.040471,-0.68701171875,-0.03125,0.69873046875,-0.8544921875,-5.859375,-2.9296875,-1.4886474609375,44.0771484375,-76.0693359375
1758878119.0509996,-0.68701171875,-0.03125,0.69873046875,-0.8544921875,-5.859375,-2.9296875,-1.51611328125,44.0167236328125,-76.1077880859375
1758878119.0604413,-0.67822265625,-0.0302734375,0.716796875,-1.0986328125,-5.7373046875,-2.685546875,-1.549072265625,43.956298828125,-76.1407470703125
1758878119.0704985,-0.67822265625,-0.0302734375,0.716796875,-1.0986328125,-5.7373046875,-2.685546875,-1.58203125,43.9013671875,-76.1737060546875
1758878119.0806007,-0.6787109375,-0.0078125,0.73828125,-4.8828125,-5.7373046875,-2.13623046875,-1.6314697265625,43.8409423828125,-76.2066650390625
1758878119.090547,-0.6787109375,-0.0078125,0.73828125,-4.8828125,-5.7373046875,-2.13623046875,-1.69189453125,43.780517578125,-76.234130859375
1758878119.100684,-0.681640625,0.0087890625,0.73095703125,-10.07080078125,-5.615234375,-1.28173828125,-1.77978515625,43.7255859375,-76.2506103515625
1758878119.1116388,-0.681640625,0.0087890625,0.73095703125,-10.07080078125,-5.615234375,-1.28173828125,-1.8841552734375,43.6651611328125,-76.2615966796875
1758878119.12087,-0.66650390625,0.001953125,0.7197265625,-18.85986328125,-5.7373046875,-0.244140625,-2.0269775390625,43.6102294921875,-76.2615966796875
1758878119.1306143,-0.66650390625,0.001953125,0.7197265625,-18.85986328125,-5.7373046875,-0.244140625,-2.208251953125,43.5498046875,-76.256103515625
1758878119.1406152,-0.6474609375,-0.013671875,0.73681640625,-24.4140625,-5.43212890625,0.67138671875,-2.406005859375,43.494873046875,-76.2396240234375
1758878119.1506908,-0.6474609375,-0.013671875,0.73681640625,-24.4140625,-5.43212890625,0.67138671875,-2.6312255859375,43.43994140625,-76.2176513671875
1758878119.1609347,-0.63232421875,-0.03515625,0.7412109375,-24.96337890625,-5.0048828125,1.40380859375,-2.8509521484375,43.385009765625,-76.190185546875
1758878119.1706288,-0.63232421875,-0.03515625,0.7412109375,-24.96337890625,-5.0048828125,1.40380859375,-3.076171875,43.330078125,-76.1517333984375
1758878119.1808467,-0.61572265625,-0.056640625,0.75732421875,-23.3154296875,-4.638671875,1.89208984375,-3.284912109375,43.2806396484375,-76.11328125
1758878119.1907613,-0.61572265625,-0.056640625,0.75732421875,-23.3154296875,-4.638671875,1.89208984375,-3.4881591796875,43.231201171875,-76.0748291015625
1758878119.2006838,-0.6103515625,-0.08203125,0.75341796875,-21.240234375,-3.90625,2.50244140625,-3.6749267578125,43.1817626953125,-76.036376953125
1758878119.2107632,-0.6103515625,-0.08203125,0.75341796875,-21.240234375,-3.90625,2.50244140625,-3.8507080078125,43.13232421875,-75.9869384765625
1758878119.2210147,-0.61474609375,-0.08837890625,0.75732421875,-12.5732421875,-3.2958984375,2.99072265625,-3.9825439453125,43.08837890625,-75.9429931640625
1758878119.2307634,-0.61474609375,-0.08837890625,0.75732421875,-12.5732421875,-3.2958984375,2.99072265625,-4.0704345703125,43.04443359375,-75.8935546875
1758878119.2407317,-0.62744140625,-0.0927734375,0.7587890625,-1.77001953125,-2.5634765625,3.173828125,-4.10888671875,43.0059814453125,-75.849609375
1758878119.250838,-0.62744140625,-0.0927734375,0.7587890625,-1.77001953125,-2.5634765625,3.173828125,-4.0924072265625,42.967529296875,-75.8001708984375
1758878119.260742,-0.64208984375,-0.09228515625,0.78125,10.68115234375,-2.44140625,3.23486328125,-3.955078125,42.9345703125,-75.7562255859375
1758878119.2707794,-0.64208984375,-0.09228515625,0.78125,10.68115234375,-2.44140625,3.23486328125,-3.8232421875,42.8961181640625,-75.7177734375
1758878119.2809854,-0.6806640625,-0.07666015625,0.82275390625,20.56884765625,-2.13623046875,3.0517578125,-3.592529296875,42.8631591796875,-75.6793212890625
1758878119.2909088,-0.6806640625,-0.07666015625,0.82275390625,20.56884765625,-2.13623046875,3.0517578125,-3.36181640625,42.82470703125,-75.640869140625
1758878119.300829,-0.71240234375,0.00439453125,0.8173828125,14.2822265625,-2.44140625,3.41796875,-3.1915283203125,42.7862548828125,-75.6024169921875
1758878119.3108835,-0.71240234375,0.00439453125,0.8173828125,14.2822265625,-2.44140625,3.41796875,-3.021240234375,42.7532958984375,-75.552978515625
1758878119.3211474,-0.70068359375,0.046875,0.80908203125,-6.9580078125,-3.47900390625,3.90625,-3.05419921875,42.703857421875,-75.498046875
1758878119.330894,-0.70068359375,0.046875,0.80908203125,-6.9580078125,-3.47900390625,3.90625,-3.0816650390625,42.659912109375,-75.4376220703125
1758878119.3410928,-0.6630859375,0.04052734375,0.7548828125,-29.23583984375,-3.47900390625,4.8828125,-3.31787109375,42.615966796875,-75.355224609375
1758878119.3509407,-0.6630859375,0.04052734375,0.7548828125,-29.23583984375,-3.47900390625,4.8828125,-3.5540771484375,42.572021484375,-75.2728271484375
1758878119.360911,-0.6630859375,0.04052734375,0.7548828125,-35.7666015625,-3.173828125,5.2490234375,-3.84521484375,42.5335693359375,-75.1849365234375
1758878119.3709662,-0.650390625,-0.033203125,0.70361328125,-35.7666015625,-3.173828125,5.2490234375,-4.1363525390625,42.4951171875,-75.0970458984375
1758878119.3811948,-0.6591796875,-0.09521484375,0.70068359375,-27.2216796875,-2.01416015625,4.94384765625,-4.3505859375,42.47314453125,-75.0201416015625
1758878119.3909948,-0.6591796875,-0.09521484375,0.70068359375,-27.2216796875,-2.01416015625,4.94384765625,-4.5648193359375,42.451171875,-74.9432373046875
1758878119.4011934,-0.6630859375,-0.1435546875,0.69873046875,-8.056640625,-0.67138671875,3.84521484375,-4.5977783203125,42.440185546875,-74.8883056640625
1758878119.412041,-0.6630859375,-0.1435546875,0.69873046875,-8.056640625,-0.67138671875,3.84521484375,-4.6417236328125,42.4346923828125,-74.8388671875
1758878119.4210267,-0.6728515625,-0.15234375,0.68212890625,17.63916015625,1.15966796875,2.38037109375,-4.4439697265625,42.4456787109375,-74.8114013671875
1758878119.431017,-0.6728515625,-0.15234375,0.68212890625,17.63916015625,1.15966796875,2.38037109375,-4.2572021484375,42.4566650390625,-74.794921875
1758878119.4410312,-0.73779296875,-0.12451171875,0.7080078125,37.4755859375,2.685546875,0.8544921875,-3.88916015625,42.484130859375,-74.805908203125
1758878119.4513462,-0.73779296875,-0.12451171875,0.7080078125,37.4755859375,2.685546875,0.8544921875,-3.5211181640625,42.5115966796875,-74.81689453125
1758878119.460994,-0.81005859375,-0.0224609375,0.771484375,42.724609375,2.99072265625,0.0,-3.1146240234375,42.5445556640625,-74.8388671875
1758878119.4710264,-0.81005859375,-0.0224609375,0.771484375,42.724609375,2.99072265625,0.0,-2.70263671875,42.5830078125,-74.86083984375
1758878119.481228,-0.7880859375,0.04638671875,0.75634765625,29.9072265625,3.5400390625,-0.67138671875,-2.427978515625,42.626953125,-74.8883056640625
1758878119.4914482,-0.7880859375,0.04638671875,0.75634765625,29.9072265625,3.5400390625,-0.67138671875,-2.1478271484375,42.6708984375,-74.915771484375
1758878119.5010235,-0.72802734375,0.064453125,0.6728515625,1.40380859375,4.0283203125,0.0,-2.142333984375,42.7203369140625,-74.9212646484375
1758878119.5114002,-0.72802734375,0.064453125,0.6728515625,1.40380859375,4.0283203125,0.0,-2.13134765625,42.769775390625,-74.9267578125
1758878119.5214818,-0.6953125,0.0302734375,0.677734375,-15.7470703125,4.94384765625,0.1220703125,-2.28515625,42.8302001953125,-74.9322509765625
1758878119.5314374,-0.6953125,0.0302734375,0.677734375,-15.7470703125,4.94384765625,0.1220703125,-2.43896484375,42.8961181640625,-74.9267578125
1758878119.5411696,-0.693359375,-0.02734375,0.66796875,-10.31494140625,5.92041015625,-0.06103515625,-2.537841796875,42.967529296875,-74.9322509765625
1758878119.551587,-0.693359375,-0.02734375,0.66796875,-10.31494140625,5.92041015625,-0.06103515625,-2.63671875,43.0389404296875,-74.9322509765625
1758878119.5611665,-0.6787109375,-0.09765625,0.68408203125,2.86865234375,6.4697265625,-0.48828125,-2.61474609375,43.1158447265625,-74.9432373046875
1758878119.5714767,-0.6787109375,-0.09765625,0.68408203125,2.86865234375,6.4697265625,-0.48828125,-2.5927734375,43.187255859375,-74.959716796875
1758878119.5814948,-0.6748046875,-0.1240234375,0.68408203125,14.6484375,6.9580078125,-0.91552734375,-2.4609375,43.2696533203125,-74.9871826171875
1758878119.5918424,-0.6748046875,-0.1240234375,0.68408203125,14.6484375,6.9580078125,-0.91552734375,-2.3345947265625,43.3465576171875,-75.0201416015625
1758878119.601263,-0.67138671875,-0.10009765625,0.68408203125,27.7099609375,7.26318359375,-1.64794921875,-2.08740234375,43.428955078125,-75.0640869140625
1758878119.6113825,-0.67138671875,-0.10009765625,0.68408203125,27.7099609375,7.26318359375,-1.64794921875,-1.845703125,43.5113525390625,-75.1080322265625
1758878119.6214097,-0.66357421875,-0.07373046875,0.7177734375,37.78076171875,7.38525390625,-1.89208984375,-1.5106201171875,43.5882568359375,-75.1629638671875
1758878119.63143,-0.66357421875,-0.07373046875,0.7177734375,37.78076171875,7.38525390625,-1.89208984375,-1.175537109375,43.6651611328125,-75.2178955078125
1758878119.6412897,-0.66357421875,-0.07373046875,0.7177734375,42.3583984375,6.9580078125,-1.89208984375,-0.791015625,43.7420654296875,-75.2728271484375
1758878119.6517978,-0.6806640625,-0.02880859375,0.7470703125,42.3583984375,6.9580078125,-1.89208984375,-0.4119873046875,43.8134765625,-75.322265625
1758878119.661408,-0.693359375,0.00048828125,0.7451171875,43.8232421875,6.4697265625,-2.01416015625,-0.0164794921875,43.87939453125,-75.377197265625
1758878119.6714327,-0.693359375,0.00048828125,0.7451171875,43.8232421875,6.4697265625,-2.01416015625,0.3680419921875,43.9398193359375,-75.4266357421875
1758878119.681423,-0.71044921875,0.03466796875,0.716796875,41.259765625,5.79833984375,-1.708984375,0.7470703125,44.000244140625,-75.47607421875
1758878119.6916995,-0.71044921875,0.03466796875,0.716796875,41.259765625,5.79833984375,-1.708984375,1.12060546875,44.0606689453125,-75.5145263671875
1758878119.7013907,-0.71533203125,0.04638671875,0.71142578125,35.15625,5.18798828125,-1.15966796875,1.439208984375,44.110107421875,-75.5474853515625
1758878119.7113955,-0.71533203125,0.04638671875,0.71142578125,35.15625,5.18798828125,-1.15966796875,1.7633056640625,44.1650390625,-75.5804443359375
1758878119.7218962,-0.70068359375,0.044921875,0.70751953125,26.4892578125,4.7607421875,-0.79345703125,2.0050048828125,44.2144775390625,-75.60791015625
1758878119.731466,-0.70068359375,0.044921875,0.70751953125,26.4892578125,4.7607421875,-0.79345703125,2.2467041015625,44.263916015625,-75.6298828125
1758878119.7417426,-0.693359375,0.04443359375,0.7265625,19.6533203125,4.2724609375,-0.67138671875,2.4224853515625,44.3023681640625,-75.65185546875
1758878119.7514975,-0.693359375,0.04443359375,0.7265625,19.6533203125,4.2724609375,-0.67138671875,2.603759765625,44.3463134765625,-75.6683349609375
1758878119.7614486,-0.669921875,0.0400390625,0.73486328125,14.09912109375,4.08935546875,-0.732421875,2.724609375,44.384765625,-75.6903076171875
1758878119.771569,-0.669921875,0.0400390625,0.73486328125,14.09912109375,4.08935546875,-0.732421875,2.8509521484375,44.4232177734375,-75.7122802734375
1758878119.7818487,-0.6630859375,0.06201171875,0.7021484375,6.40869140625,4.08935546875,-0.06103515625,2.9058837890625,44.461669921875,-75.7232666015625
