timestamp,acc_x,acc_y,acc_z,gyro_x,gyro_y,gyro_z,angle_x,angle_y,angle_z
1758788207.288872,-0.69677734375,0.07080078125,0.7080078125,0.244140625,0.06103515625,-0.18310546875,5.2020263671875,44.0277099609375,-157.950439453125
1758788207.2977486,-0.69482421875,0.06494140625,0.71435546875,-0.1220703125,0.0,-0.1220703125,5.196533203125,44.0277099609375,-157.950439453125
1758788207.3074863,-0.69482421875,0.06494140625,0.71435546875,-0.1220703125,0.0,-0.1220703125,5.196533203125,44.0277099609375,-157.950439453125
1758788207.3173914,-0.6875,0.05908203125,0.72119140625,-0.06103515625,-0.30517578125,0.0,5.196533203125,44.022216796875,-157.950439453125
1758788207.3274772,-0.6875,0.05908203125,0.72119140625,-0.06103515625,-0.30517578125,0.0,5.196533203125,44.0167236328125,-157.950439453125
1758788207.3396375,-0.6884765625,0.06787109375,0.70703125,1.0986328125,-1.03759765625,-0.244140625,5.2020263671875,44.0057373046875,-157.9559326171875
1758788207.351307,-0.6884765625,0.06787109375,0.70703125,1.0986328125,-1.03759765625,-0.244140625,5.2130126953125,44.000244140625,-157.96142578125
1758788207.3600914,-0.6904296875,0.078125,0.72265625,-0.30517578125,-1.46484375,-0.1220703125,5.20751953125,43.9837646484375,-157.96142578125
1758788207.3674111,-0.6904296875,0.078125,0.72265625,-0.30517578125,-1.46484375,-0.1220703125,5.2020263671875,43.96728515625,-157.9669189453125
1758788207.3764331,-0.681640625,0.05908203125,0.72216796875,-2.38037109375,-1.52587890625,0.3662109375,5.1800537109375,43.9508056640625,-157.96142578125
1758788207.3864737,-0.681640625,0.05908203125,0.72216796875,-2.38037109375,-1.52587890625,0.3662109375,5.16357421875,43.934326171875,-157.96142578125
1758788207.3964965,-0.705078125,0.0498046875,0.734375,-0.91552734375,-0.8544921875,0.48828125,5.1580810546875,43.92333984375,-157.9559326171875
1758788207.4064956,-0.705078125,0.0498046875,0.734375,-0.91552734375,-0.8544921875,0.48828125,5.152587890625,43.9178466796875,-157.950439453125
1758788207.4166853,-0.7060546875,0.0712890625,0.71533203125,1.89208984375,-0.244140625,0.18310546875,5.1690673828125,43.912353515625,-157.950439453125
1758788207.4266105,-0.7060546875,0.0712890625,0.71533203125,1.89208984375,-0.244140625,0.18310546875,5.1910400390625,43.912353515625,-157.9449462890625
1758788207.4365876,-0.701171875,0.0615234375,0.6845703125,1.15966796875,-0.30517578125,0.54931640625,5.20751953125,43.9068603515625,-157.939453125
1758788207.446647,-0.701171875,0.0615234375,0.6845703125,1.15966796875,-0.30517578125,0.54931640625,5.2239990234375,43.9068603515625,-157.928466796875
1758788207.4567997,-0.69775390625,0.07373046875,0.701171875,-0.48828125,-0.79345703125,0.3662109375,5.218505859375,43.9013671875,-157.9229736328125
1758788207.4670343,-0.69775390625,0.07373046875,0.701171875,-0.48828125,-0.79345703125,0.3662109375,5.218505859375,43.890380859375,-157.91748046875
1758788207.4766824,-0.6904296875,0.0712890625,0.7177734375,-1.03759765625,-0.91552734375,0.30517578125,5.2130126953125,43.8848876953125,-157.9119873046875
1758788207.486703,-0.6904296875,0.0712890625,0.7177734375,-1.03759765625,-0.91552734375,0.30517578125,5.2020263671875,43.87939453125,-157.906494140625
1758788207.4968715,-0.6787109375,0.072265625,0.744140625,-1.40380859375,-0.48828125,0.0,5.1910400390625,43.8739013671875,-157.906494140625
1758788207.5070407,-0.6787109375,0.072265625,0.744140625,-1.40380859375,-0.48828125,0.0,5.1800537109375,43.868408203125,-157.906494140625
1758788207.516633,-0.6611328125,0.07763671875,0.7490234375,-0.79345703125,-0.48828125,-0.48828125,5.1690673828125,43.8629150390625,-157.9119873046875
1758788207.5266476,-0.6611328125,0.07763671875,0.7490234375,-0.79345703125,-0.48828125,-0.48828125,5.1580810546875,43.857421875,-157.9229736328125
1758788207.5367105,-0.65234375,0.0703125,0.74853515625,-2.685546875,-1.220703125,-0.3662109375,5.1251220703125,43.8409423828125,-157.928466796875
1758788207.5467424,-0.65234375,0.0703125,0.74853515625,-2.685546875,-1.220703125,-0.3662109375,5.09765625,43.824462890625,-157.939453125
1758788207.5567393,-0.65234375,0.06640625,0.7666015625,-5.06591796875,-1.40380859375,-0.18310546875,5.0482177734375,43.802490234375,-157.950439453125
1758788207.566772,-0.65234375,0.06640625,0.7666015625,-5.06591796875,-1.40380859375,-0.18310546875,4.9932861328125,43.780517578125,-157.9559326171875
1758788207.5767672,-0.64990234375,0.060546875,0.76025390625,-4.69970703125,-1.89208984375,-0.30517578125,4.94384765625,43.7530517578125,-157.972412109375
1758788207.5867746,-0.64990234375,0.060546875,0.76025390625,-4.69970703125,-1.89208984375,-0.30517578125,4.8944091796875,43.7255859375,-157.9833984375
1758788207.596787,-0.65478515625,0.0615234375,0.75439453125,-1.708984375,-2.5634765625,-0.91552734375,4.866943359375,43.692626953125,-158.00537109375
1758788207.6068006,-0.65478515625,0.0615234375,0.75439453125,-1.708984375,-2.5634765625,-0.91552734375,4.844970703125,43.6541748046875,-158.0328369140625
1758788207.616745,-0.65673828125,0.06640625,0.755859375,-1.03759765625,-2.99072265625,-1.3427734375,4.8175048828125,43.61572265625,-158.060302734375
1758788207.626767,-0.65673828125,0.06640625,0.755859375,-1.03759765625,-2.99072265625,-1.3427734375,4.7955322265625,43.5772705078125,-158.0877685546875
1758788207.6367698,-0.66064453125,0.0693359375,0.73876953125,-2.5634765625,-3.2958984375,-1.3427734375,4.757080078125,43.5333251953125,-158.1207275390625
1758788207.6467962,-0.66064453125,0.0693359375,0.73876953125,-2.5634765625,-3.2958984375,-1.3427734375,4.7186279296875,43.4893798828125,-158.148193359375
1758788207.6567998,-0.64306640625,0.056640625,0.76025390625,-5.79833984375,-3.84521484375,-1.03759765625,4.647216796875,43.43994140625,-158.1756591796875
1758788207.6669385,-0.64306640625,0.056640625,0.76025390625,-5.79833984375,-3.84521484375,-1.03759765625,4.581298828125,43.3905029296875,-158.1976318359375
1758788207.6768208,-0.650390625,0.0517578125,0.77734375,-5.0048828125,-3.84521484375,-0.79345703125,4.5208740234375,43.341064453125,-158.22509765625
1758788207.6869082,-0.650390625,0.0517578125,0.77734375,-5.0048828125,-3.84521484375,-0.79345703125,4.4659423828125,43.2916259765625,-158.2470703125
1758788207.6968584,-0.640625,0.0400390625,0.7578125,-3.11279296875,-3.90625,-0.67138671875,4.4219970703125,43.2366943359375,-158.2745361328125
1758788207.7070105,-0.640625,0.0400390625,0.7578125,-3.11279296875,-3.90625,-0.67138671875,4.383544921875,43.187255859375,-158.2965087890625
1758788207.7168713,-0.64404296875,0.04833984375,0.76708984375,-0.67138671875,-3.90625,-0.67138671875,4.3670654296875,43.13232421875,-158.323974609375
1758788207.7269945,-0.64404296875,0.04833984375,0.76708984375,-0.67138671875,-3.90625,-0.67138671875,4.3505859375,43.0828857421875,-158.345947265625
1758788207.7368846,-0.65966796875,0.0478515625,0.75244140625,0.9765625,-3.84521484375,-0.732421875,4.3505859375,43.0279541015625,-158.3734130859375
1758788207.7470264,-0.65966796875,0.0478515625,0.75244140625,0.9765625,-3.84521484375,-0.732421875,4.3505859375,42.978515625,-158.40087890625
1758788207.7569156,-0.66162109375,0.04541015625,0.7236328125,1.77001953125,-3.90625,-0.42724609375,4.3560791015625,42.9290771484375,-158.4228515625
1758788207.767043,-0.66162109375,0.04541015625,0.7236328125,1.77001953125,-3.90625,-0.42724609375,4.3670654296875,42.879638671875,-158.44482421875
1758788207.776931,-0.66162109375,0.04541015625,0.7236328125,0.732421875,-3.96728515625,-0.18310546875,4.3670654296875,42.8302001953125,-158.4613037109375
1758788207.7872243,-0.65625,0.05712890625,0.74169921875,0.732421875,-3.96728515625,-0.18310546875,4.3670654296875,42.78076171875,-158.477783203125
1758788207.7969923,-0.67138671875,0.0625,0.76416015625,-2.38037109375,-3.90625,0.30517578125,4.3450927734375,42.7313232421875,-158.48876953125
1758788207.8071513,-0.67138671875,0.0625,0.76416015625,-2.38037109375,-3.90625,0.30517578125,4.317626953125,42.681884765625,-158.4942626953125
1758788207.817069,-0.666015625,0.06494140625,0.7314453125,-2.86865234375,-3.41796875,0.30517578125,4.2901611328125,42.637939453125,-158.499755859375
1758788207.8271627,-0.666015625,0.06494140625,0.7314453125,-2.86865234375,-3.41796875,0.30517578125,4.2626953125,42.5994873046875,-158.5052490234375
1758788207.8371062,-0.66943359375,0.04150390625,0.7470703125,-0.6103515625,-3.41796875,0.48828125,4.2572021484375,42.5555419921875,-158.5052490234375
1758788207.8472152,-0.66943359375,0.04150390625,0.7470703125,-0.6103515625,-3.41796875,0.48828125,4.2572021484375,42.51708984375,-158.5107421875
1758788207.8571358,-0.7001953125,0.05126953125,0.7412109375,-0.1220703125,-3.0517578125,0.54931640625,4.2572021484375,42.4786376953125,-158.5107421875
1758788207.8672495,-0.7001953125,0.06005859375,0.6904296875,-2.44140625,-2.8076171875,0.30517578125,4.2462158203125,42.4456787109375,-158.5052490234375
1758788207.8771346,-0.7001953125,0.06005859375,0.6904296875,-2.44140625,-2.8076171875,0.30517578125,4.21875,42.418212890625,-158.5052490234375
1758788207.887516,-0.6923828125,0.078125,0.7333984375,-8.056640625,-2.9296875,0.18310546875,4.1693115234375,42.38525390625,-158.499755859375
1758788207.897495,-0.6923828125,0.078125,0.7333984375,-8.056640625,-2.9296875,0.18310546875,4.0924072265625,42.3577880859375,-158.4942626953125
1758788207.9074194,-0.6748046875,0.06396484375,0.7431640625,-4.08935546875,-2.62451171875,0.244140625,4.031982421875,42.330322265625,-158.48876953125
1758788207.917204,-0.6748046875,0.06396484375,0.7431640625,-4.08935546875,-2.62451171875,0.244140625,3.9990234375,42.308349609375,-158.477783203125
1758788207.927871,-0.6826171875,0.0146484375,0.751953125,-1.708984375,-2.5634765625,-0.244140625,3.9715576171875,42.2808837890625,-158.4722900390625
1758788207.9373338,-0.6826171875,0.0146484375,0.751953125,-1.708984375,-2.5634765625,-0.244140625,3.9495849609375,42.2589111328125,-158.4722900390625
1758788207.9472864,-0.67138671875,0.037109375,0.7333984375,0.244140625,-2.38037109375,-0.30517578125,3.9385986328125,42.2314453125,-158.477783203125
1758788207.9573116,-0.67138671875,0.037109375,0.7333984375,0.244140625,-2.38037109375,-0.30517578125,3.9385986328125,42.20947265625,-158.477783203125
1758788207.9673488,-0.6708984375,0.05615234375,0.7275390625,4.2724609375,-2.44140625,-0.91552734375,3.955078125,42.1875,-158.4832763671875
1758788207.9780514,-0.6708984375,0.05615234375,0.7275390625,4.2724609375,-2.44140625,-0.91552734375,3.9825439453125,42.16552734375,-158.4942626953125
1758788207.9874177,-0.666015625,0.060546875,0.73388671875,5.0048828125,-2.0751953125,-1.46484375,4.02099609375,42.1490478515625,-158.5052490234375
1758788207.9973102,-0.666015625,0.060546875,0.73388671875,5.0048828125,-2.0751953125,-1.46484375,4.053955078125,42.1270751953125,-158.5162353515625
1758788208.0074556,-0.66796875,0.05810546875,0.75341796875,6.103515625,-1.8310546875,-2.13623046875,4.0924072265625,42.110595703125,-158.5382080078125
1758788208.0178373,-0.66796875,0.05810546875,0.75341796875,6.103515625,-1.8310546875,-2.13623046875,4.130859375,42.099609375,-158.565673828125
1758788208.0274336,-0.66162109375,0.05859375,0.75830078125,7.50732421875,-1.5869140625,-2.86865234375,4.1748046875,42.0831298828125,-158.5931396484375
1758788208.0373862,-0.66162109375,0.05859375,0.75830078125,7.50732421875,-1.5869140625,-2.86865234375,4.2242431640625,42.066650390625,-158.6260986328125
1758788208.0474224,-0.66357421875,0.06298828125,0.73876953125,7.26318359375,-1.8310546875,-3.5400390625,4.2681884765625,42.0556640625,-158.6700439453125
1758788208.0579817,-0.66357421875,0.06298828125,0.73876953125,7.26318359375,-1.8310546875,-3.5400390625,4.306640625,42.0391845703125,-158.7139892578125
1758788208.0674603,-0.67138671875,0.0771484375,0.716796875,2.0751953125,-2.0751953125,-3.7841796875,4.317626953125,42.022705078125,-158.7579345703125
1758788208.077472,-0.67138671875,0.0771484375,0.716796875,2.0751953125,-2.0751953125,-3.7841796875,4.306640625,42.000732421875,-158.8018798828125
1758788208.0875537,-0.67041015625,0.0771484375,0.7158203125,-1.0986328125,-2.197265625,-3.90625,4.2791748046875,41.9842529296875,-158.851318359375
1758788208.098364,-0.67041015625,0.0771484375,0.7158203125,-1.0986328125,-2.197265625,-3.90625,4.2352294921875,41.9677734375,-158.8897705078125
1758788208.1075573,-0.66796875,0.06494140625,0.75634765625,-2.86865234375,-2.62451171875,-4.33349609375,4.1802978515625,41.9512939453125,-158.939208984375
1758788208.117584,-0.66796875,0.06494140625,0.75634765625,-2.86865234375,-2.62451171875,-4.33349609375,4.1143798828125,41.9293212890625,-158.9886474609375
1758788208.1276853,-0.6435546875,0.05712890625,0.7705078125,-4.82177734375,-2.86865234375,-4.82177734375,4.0374755859375,41.9073486328125,-159.0380859375
1758788208.1385405,-0.6435546875,0.05712890625,0.7705078125,-4.82177734375,-2.86865234375,-4.82177734375,3.9495849609375,41.8798828125,-159.0985107421875
1758788208.1475234,-0.6376953125,0.0498046875,0.7470703125,-2.50244140625,-3.60107421875,-5.18798828125,3.8726806640625,41.846923828125,-159.158935546875
1758788208.157557,-0.6376953125,0.0498046875,0.7470703125,-2.50244140625,-3.60107421875,-5.18798828125,3.80126953125,41.81396484375,-159.2193603515625
1758788208.1676316,-0.65185546875,0.05029296875,0.75048828125,-3.35693359375,-4.150390625,-5.37109375,3.7298583984375,41.7755126953125,-159.2852783203125
1758788208.178154,-0.65185546875,0.05029296875,0.75048828125,-3.35693359375,-4.150390625,-5.37109375,3.6529541015625,41.737060546875,-159.356689453125
1758788208.1875944,-0.63037109375,0.05810546875,0.755859375,-4.82177734375,-4.57763671875,-5.43212890625,3.5650634765625,41.693115234375,-159.422607421875
1758788208.1976342,-0.63037109375,0.05810546875,0.755859375,-4.82177734375,-4.57763671875,-5.43212890625,3.4716796875,41.649169921875,-159.488525390625
1758788208.2076404,-0.64306640625,0.0185546875,0.81005859375,-1.52587890625,-5.06591796875,-5.7373046875,3.394775390625,41.5997314453125,-159.5599365234375
1758788208.2184868,-0.64306640625,0.0185546875,0.81005859375,-1.52587890625,-5.06591796875,-5.7373046875,3.328857421875,41.55029296875,-159.6368408203125
1758788208.2276375,-0.615234375,0.0068359375,0.771484375,2.99072265625,-5.0048828125,-6.28662109375,3.284912109375,41.495361328125,-159.71923828125
1758788208.237737,-0.615234375,0.0068359375,0.771484375,2.99072265625,-5.0048828125,-6.28662109375,3.2574462890625,41.4459228515625,-159.8126220703125
1758788208.2478983,-0.6025390625,0.015625,0.75146484375,9.70458984375,-5.18798828125,-6.7138671875,3.2574462890625,41.3909912109375,-159.906005859375
1758788208.2584956,-0.6025390625,0.015625,0.75146484375,9.70458984375,-5.18798828125,-6.7138671875,3.2958984375,41.33056640625,-159.9993896484375
1758788208.2680318,-0.6025390625,0.015625,0.75146484375,11.5966796875,-5.615234375,-7.01904296875,3.3343505859375,41.275634765625,-160.103759765625
1758788208.2778018,-0.61962890625,0.0400390625,0.80078125,11.5966796875,-5.615234375,-7.01904296875,3.3837890625,41.2152099609375,-160.2081298828125
1758788208.2877278,-0.64453125,0.07470703125,0.8173828125,5.67626953125,-6.04248046875,-6.77490234375,3.4002685546875,41.1492919921875,-160.3070068359375
1758788208.2986822,-0.64453125,0.07470703125,0.8173828125,5.67626953125,-6.04248046875,-6.77490234375,3.394775390625,41.0833740234375,-160.411376953125
1758788208.3077002,-0.62548828125,0.09326171875,0.76171875,-6.4697265625,-6.04248046875,-5.859375,3.3343505859375,41.0174560546875,-160.5047607421875
1758788208.3177316,-0.62548828125,0.09326171875,0.76171875,-6.4697265625,-6.04248046875,-5.859375,3.218994140625,40.946044921875,-160.587158203125
1758788208.327786,-0.64892578125,0.068359375,0.77783203125,-13.671875,-6.65283203125,-5.615234375,3.0706787109375,40.880126953125,-160.6640625
1758788208.3386734,-0.64892578125,0.068359375,0.77783203125,-13.671875,-6.65283203125,-5.615234375,2.889404296875,40.80322265625,-160.740966796875
1758788208.3477318,-0.6103515625,0.0185546875,0.77490234375,-15.0146484375,-7.4462890625,-5.43212890625,2.70263671875,40.726318359375,-160.81787109375
1758788208.3577802,-0.6103515625,0.0185546875,0.77490234375,-15.0146484375,-7.4462890625,-5.43212890625,2.5103759765625,40.6494140625,-160.8892822265625
1758788208.3678687,-0.58349609375,0.01220703125,0.74609375,-10.68115234375,-8.30078125,-5.2490234375,2.340087890625,40.5615234375,-160.960693359375
1758788208.3785894,-0.58349609375,0.01220703125,0.74609375,-10.68115234375,-8.30078125,-5.2490234375,2.1917724609375,40.4736328125,-161.0321044921875
1758788208.3877099,-0.623046875,-0.0185546875,0.802734375,-1.5869140625,-8.9111328125,-5.2490234375,2.0928955078125,40.3802490234375,-161.1090087890625
1758788208.3992662,-0.623046875,-0.0185546875,0.802734375,-1.5869140625,-8.9111328125,-5.2490234375,2.032470703125,40.2813720703125,-161.180419921875
1758788208.4078214,-0.6083984375,-0.01953125,0.78271484375,7.87353515625,-8.30078125,-5.126953125,2.0159912109375,40.18798828125,-161.25732421875
1758788208.4178655,-0.6083984375,-0.01953125,0.78271484375,7.87353515625,-8.30078125,-5.126953125,2.0489501953125,40.10009765625,-161.3287353515625
1758788208.427794,-0.61962890625,-0.03271484375,0.77197265625,22.8271484375,-8.11767578125,-6.103515625,2.1478271484375,40.01220703125,-161.4111328125
1758788208.4385552,-0.61962890625,-0.03271484375,0.77197265625,22.8271484375,-8.11767578125,-6.103515625,2.318115234375,39.92431640625,-161.5045166015625
1758788208.4480376,-0.5927734375,-0.02734375,0.796875,39.306640625,-7.87353515625,-6.7138671875,2.559814453125,39.8419189453125,-161.6033935546875
1758788208.4578178,-0.5927734375,-0.02734375,0.796875,39.306640625,-7.87353515625,-6.7138671875,2.87841796875,39.759521484375,-161.7022705078125
1758788208.4679356,-0.623046875,0.00927734375,0.84619140625,42.29736328125,-9.70458984375,-7.568359375,3.2080078125,39.6661376953125,-161.817626953125
1758788208.4780366,-0.623046875,0.00927734375,0.84619140625,42.29736328125,-9.70458984375,-7.568359375,3.5430908203125,39.561767578125,-161.9384765625
1758788208.4885793,-0.63671875,0.13671875,0.8427734375,18.98193359375,-11.3525390625,-7.50732421875,3.7628173828125,39.451904296875,-162.059326171875
1758788208.4978786,-0.63671875,0.13671875,0.8427734375,18.98193359375,-11.3525390625,-7.50732421875,3.8726806640625,39.3365478515625,-162.1746826171875
1758788208.507909,-0.580078125,0.20751953125,0.744140625,-10.498046875,-12.5732421875,-6.103515625,3.84521484375,39.210205078125,-162.279052734375
1758788208.518502,-0.580078125,0.20751953125,0.744140625,-10.498046875,-12.5732421875,-6.103515625,3.680419921875,39.0838623046875,-162.3614501953125
1758788208.5286026,-0.58935546875,0.12158203125,0.75537109375,-23.681640625,-12.51220703125,-5.9814453125,3.460693359375,38.9520263671875,-162.44384765625
1758788208.5379345,-0.58935546875,0.12158203125,0.75537109375,-23.681640625,-12.51220703125,-5.9814453125,3.1805419921875,38.82568359375,-162.5152587890625
1758788208.5479784,-0.5986328125,-0.01513671875,0.80029296875,-23.98681640625,-12.20703125,-5.859375,2.9058837890625,38.6993408203125,-162.586669921875
1758788208.5586755,-0.5986328125,-0.01513671875,0.80029296875,-23.98681640625,-12.20703125,-5.859375,2.625732421875,38.572998046875,-162.6580810546875
1758788208.5692608,-0.63916015625,-0.08740234375,0.8359375,-0.732421875,-11.5966796875,-5.615234375,2.4609375,38.4521484375,-162.7294921875
1758788208.5781288,-0.63916015625,-0.08740234375,0.8359375,-0.732421875,-11.5966796875,-5.615234375,2.406005859375,38.331298828125,-162.8009033203125
1758788208.5880992,-0.630859375,-0.07568359375,0.7421875,16.17431640625,-10.19287109375,-5.92041015625,2.4334716796875,38.221435546875,-162.8778076171875
1758788208.598056,-0.630859375,-0.07568359375,0.7421875,16.17431640625,-10.19287109375,-5.92041015625,2.537841796875,38.12255859375,-162.960205078125
1758788208.6086755,-0.66455078125,-0.009765625,0.7568359375,21.240234375,-8.30078125,-6.53076171875,2.65869140625,38.03466796875,-163.0426025390625
1758788208.6181195,-0.66455078125,-0.009765625,0.7568359375,21.240234375,-8.30078125,-6.53076171875,2.8070068359375,37.957763671875,-163.125
1758788208.6280177,-0.650390625,0.0517578125,0.7744140625,17.27294921875,-5.0048828125,-6.591796875,2.933349609375,37.8973388671875,-163.2073974609375
1758788208.6380599,-0.650390625,0.0517578125,0.7744140625,17.27294921875,-5.0048828125,-6.591796875,3.0377197265625,37.8533935546875,-163.289794921875
1758788208.648731,-0.6259765625,0.10498046875,0.765625,15.19775390625,-2.74658203125,-7.080078125,3.1365966796875,37.825927734375,-163.36669921875
1758788208.6580663,-0.6259765625,0.10498046875,0.765625,15.19775390625,-2.74658203125,-7.080078125,3.2244873046875,37.8094482421875,-163.443603515625
1758788208.6681225,-0.6083984375,0.048828125,0.8359375,11.77978515625,-0.91552734375,-6.8359375,3.2958984375,37.803955078125,-163.5205078125
1758788208.6781154,-0.6083984375,0.048828125,0.8359375,11.77978515625,-0.91552734375,-6.8359375,3.3563232421875,37.803955078125,-163.5919189453125
1758788208.688913,-0.5791015625,0.05419921875,0.80126953125,6.8359375,-0.3662109375,-6.65283203125,3.394775390625,37.803955078125,-163.663330078125
1758788208.6981502,-0.5791015625,0.05419921875,0.80126953125,6.8359375,-0.3662109375,-6.65283203125,3.40576171875,37.803955078125,-163.7347412109375
1758788208.708351,-0.59716796875,0.025390625,0.7958984375,14.6484375,-0.6103515625,-6.4697265625,3.4552001953125,37.803955078125,-163.8116455078125
1758788208.7180884,-0.59716796875,0.025390625,0.7958984375,14.6484375,-0.6103515625,-6.4697265625,3.548583984375,37.803955078125,-163.883056640625
1758788208.7289708,-0.62060546875,0.00537109375,0.81689453125,13.671875,-0.8544921875,-6.103515625,3.636474609375,37.7984619140625,-163.9544677734375
1758788208.7382076,-0.62060546875,0.00537109375,0.81689453125,13.671875,-0.8544921875,-6.103515625,3.71337890625,37.79296875,-164.02587890625
1758788208.748277,-0.59423828125,0.060546875,0.76953125,3.0517578125,-0.30517578125,-5.2490234375,3.746337890625,37.7874755859375,-164.0972900390625
1758788208.7582326,-0.59423828125,0.060546875,0.76953125,3.0517578125,-0.30517578125,-5.2490234375,3.7298583984375,37.7874755859375,-164.15771484375
1758788208.7693005,-0.65771484375,0.107421875,0.82275390625,1.64794921875,0.18310546875,-4.5166015625,3.7078857421875,37.79296875,-164.212646484375
1758788208.7782452,-0.65771484375,0.107421875,0.82275390625,1.64794921875,0.18310546875,-4.5166015625,3.6859130859375,37.79296875,-164.2620849609375
1758788208.7883496,-0.6357421875,0.0390625,0.7275390625,-6.7138671875,2.197265625,-3.90625,3.62548828125,37.8094482421875,-164.300537109375
1758788208.7986107,-0.6357421875,0.0390625,0.7275390625,-6.7138671875,2.197265625,-3.90625,3.5321044921875,37.8369140625,-164.33349609375
1758788208.8089147,-0.61572265625,0.04638671875,0.685546875,-15.19775390625,2.5634765625,-3.35693359375,3.394775390625,37.8643798828125,-164.366455078125
1758788208.8184774,-0.61572265625,0.04638671875,0.685546875,-15.19775390625,2.5634765625,-3.35693359375,3.218994140625,37.8973388671875,-164.3829345703125
1758788208.8282816,-0.66748046875,0.03466796875,0.83056640625,-9.46044921875,2.44140625,-2.9296875,3.076171875,37.9302978515625,-164.4049072265625
1758788208.8384676,-0.66748046875,0.03466796875,0.83056640625,-9.46044921875,2.44140625,-2.9296875,2.9608154296875,37.9632568359375,-164.42138671875
1758788208.8488643,-0.64990234375,-0.00146484375,0.7666015625,1.46484375,2.5634765625,-3.35693359375,2.900390625,37.9962158203125,-164.443359375
1758788208.8584156,-0.64990234375,-0.00146484375,0.7666015625,1.46484375,2.5634765625,-3.35693359375,2.889404296875,38.0291748046875,-164.46533203125
1758788208.8682976,-0.57958984375,0.00634765625,0.75390625,2.25830078125,1.40380859375,-3.23486328125,2.87841796875,38.056640625,-164.4927978515625
1758788208.8787577,-0.57958984375,0.00634765625,0.75390625,2.25830078125,1.40380859375,-3.23486328125,2.8729248046875,38.07861328125,-164.5147705078125
1758788208.8888535,-0.6240234375,0.02734375,0.8251953125,2.44140625,1.3427734375,-3.11279296875,2.867431640625,38.1005859375,-164.542236328125
1758788208.8984842,-0.6240234375,0.02734375,0.8251953125,2.44140625,1.3427734375,-3.11279296875,2.867431640625,38.1170654296875,-164.5697021484375
1758788208.908316,-0.5830078125,0.00830078125,0.7568359375,7.2021484375,0.79345703125,-2.685546875,2.889404296875,38.133544921875,-164.59716796875
1758788208.9190147,-0.5830078125,0.00830078125,0.7568359375,7.2021484375,0.79345703125,-2.685546875,2.933349609375,38.14453125,-164.6246337890625
1758788208.928591,-0.5869140625,0.00732421875,0.80078125,16.05224609375,-0.79345703125,-2.9296875,3.065185546875,38.1390380859375,-164.6575927734375
1758788208.9387357,-0.5869140625,0.00732421875,0.80078125,16.05224609375,-0.79345703125,-2.9296875,3.1915283203125,38.133544921875,-164.6905517578125
1758788208.9484406,-0.60693359375,0.03076171875,0.771484375,15.07568359375,-1.40380859375,-4.08935546875,3.3013916015625,38.1170654296875,-164.739990234375
1758788208.9593782,-0.60693359375,0.03076171875,0.771484375,15.07568359375,-1.40380859375,-4.08935546875,3.4112548828125,38.1060791015625,-164.7894287109375
1758788208.9685957,-0.599609375,0.1064453125,0.76416015625,4.94384765625,-1.03759765625,-4.638671875,3.416748046875,38.1005859375,-164.8443603515625
1758788208.9786081,-0.599609375,0.1064453125,0.76416015625,4.94384765625,-1.03759765625,-4.638671875,3.4222412109375,38.089599609375,-164.8992919921875
1758788208.9885035,-0.56982421875,0.1328125,0.798828125,-9.033203125,-0.6103515625,-4.150390625,3.3013916015625,38.0841064453125,-164.9432373046875
1758788208.9992743,-0.56982421875,0.1328125,0.798828125,-9.033203125,-0.6103515625,-4.150390625,3.18603515625,38.07861328125,-164.9871826171875
1758788209.0090094,-0.6201171875,0.056640625,0.845703125,-10.986328125,-1.15966796875,-4.39453125,3.0487060546875,38.067626953125,-165.03662109375
1758788209.0186787,-0.6201171875,0.056640625,0.845703125,-10.986328125,-1.15966796875,-4.39453125,2.9058837890625,38.0511474609375,-165.0860595703125
1758788209.028535,-0.62060546875,-0.0439453125,0.78759765625,-0.244140625,-1.77001953125,-4.57763671875,2.8729248046875,38.03466796875,-165.135498046875
1758788209.0387988,-0.62060546875,-0.0439453125,0.78759765625,-0.244140625,-1.77001953125,-4.57763671875,2.83447265625,38.0126953125,-165.1904296875
1758788209.0491076,-0.61572265625,-0.01220703125,0.79248046875,10.43701171875,-3.41796875,-5.37109375,2.8948974609375,37.979736328125,-165.25634765625
1758788209.0588043,-0.61572265625,-0.01220703125,0.79248046875,10.43701171875,-3.41796875,-5.37109375,2.9498291015625,37.94677734375,-165.3277587890625
1758788209.0685117,-0.65576171875,0.095703125,0.80419921875,2.8076171875,-3.662109375,-4.94384765625,2.933349609375,37.9083251953125,-165.38818359375
1758788209.078748,-0.65576171875,0.095703125,0.80419921875,2.8076171875,-3.662109375,-4.94384765625,2.92236328125,37.8753662109375,-165.443115234375
1758788209.0887463,-0.61962890625,0.12353515625,0.80322265625,-12.3291015625,-4.33349609375,-4.45556640625,2.7685546875,37.8369140625,-165.4925537109375
1758788209.0987291,-0.61962890625,0.12353515625,0.80322265625,-12.3291015625,-4.33349609375,-4.45556640625,2.61474609375,37.79296875,-165.5364990234375
1758788209.1086283,-0.603515625,0.03857421875,0.74853515625,-9.70458984375,-4.0283203125,-4.0283203125,2.493896484375,37.7545166015625,-165.574951171875
1758788209.1187868,-0.603515625,0.03857421875,0.74853515625,-9.70458984375,-4.0283203125,-4.0283203125,2.373046875,37.7215576171875,-165.60791015625
1758788209.1291912,-0.60400390625,-0.07666015625,0.7119140625,8.97216796875,-3.7841796875,-4.5166015625,2.4334716796875,37.68310546875,-165.6573486328125
1758788209.1390584,-0.60400390625,-0.07666015625,0.7119140625,8.97216796875,-3.7841796875,-4.5166015625,2.4884033203125,37.6556396484375,-165.7012939453125
1758788209.1485775,-0.630859375,-0.0966796875,0.77587890625,34.85107421875,-4.0283203125,-6.40869140625,2.7740478515625,37.6226806640625,-165.7781982421875
1758788209.1589425,-0.630859375,-0.0966796875,0.77587890625,34.85107421875,-4.0283203125,-6.40869140625,3.0596923828125,37.5897216796875,-165.860595703125
1758788209.1693418,-0.63671875,-0.0068359375,0.85009765625,46.9970703125,-4.94384765625,-7.50732421875,3.44970703125,37.55126953125,-165.9539794921875
1758788209.179603,-0.63671875,-0.0068359375,0.85009765625,46.9970703125,-4.94384765625,-7.50732421875,3.8397216796875,37.5128173828125,-166.0528564453125
1758788209.18864,-0.63671875,0.1513671875,0.88671875,20.81298828125,-6.77490234375,-6.53076171875,3.97705078125,37.452392578125,-166.1407470703125
1758788209.1989412,-0.63671875,0.1513671875,0.88671875,20.81298828125,-6.77490234375,-6.53076171875,4.119873046875,37.3919677734375,-166.2286376953125
1758788209.2087247,-0.576171875,0.22216796875,0.77001953125,-8.11767578125,-7.568359375,-4.39453125,3.9935302734375,37.320556640625,-166.2835693359375
1758788209.2196417,-0.576171875,0.22216796875,0.77001953125,-8.11767578125,-7.568359375,-4.39453125,3.878173828125,37.2491455078125,-166.3275146484375
1758788209.2291605,-0.53662109375,0.08447265625,0.7158203125,-26.85546875,-7.568359375,-2.8076171875,3.592529296875,37.177734375,-166.35498046875
1758788209.2390106,-0.53662109375,0.08447265625,0.7158203125,-26.85546875,-7.568359375,-2.8076171875,3.3123779296875,37.100830078125,-166.3714599609375
1758788209.2487805,-0.6162109375,-0.01171875,0.84912109375,-18.5546875,-8.36181640625,-2.74658203125,3.109130859375,37.02392578125,-166.39892578125
1758788209.2596045,-0.6162109375,-0.01171875,0.84912109375,-18.5546875,-8.36181640625,-2.74658203125,2.9058837890625,36.9415283203125,-166.4208984375
1758788209.268852,-0.6162109375,-0.01171875,0.84912109375,9.27734375,-7.9345703125,-4.0283203125,2.96630859375,36.8646240234375,-166.46484375
1758788209.2791095,-0.62548828125,-0.0634765625,0.8095703125,9.27734375,-7.9345703125,-4.0283203125,3.0267333984375,36.793212890625,-166.5142822265625
1758788209.2888727,-0.630859375,-0.0341796875,0.71435546875,21.91162109375,-7.62939453125,-6.103515625,3.1915283203125,36.7218017578125,-166.585693359375
1758788209.2996907,-0.630859375,-0.0341796875,0.71435546875,21.91162109375,-7.62939453125,-6.103515625,3.350830078125,36.6558837890625,-166.6571044921875
1758788209.308856,-0.6455078125,0.0400390625,0.76416015625,27.16064453125,-5.615234375,-6.8359375,3.5540771484375,36.6119384765625,-166.7340087890625
1758788209.318913,-0.6455078125,0.0400390625,0.76416015625,27.16064453125,-5.615234375,-6.8359375,3.7628173828125,36.573486328125,-166.81640625
1758788209.3288224,-0.63916015625,0.0625,0.7705078125,30.1513671875,-3.84521484375,-7.080078125,3.9990234375,36.551513671875,-166.893310546875
1758788209.3396375,-0.63916015625,0.0625,0.7705078125,30.1513671875,-3.84521484375,-7.080078125,4.229736328125,36.529541015625,-166.9647216796875
1758788209.3488266,-0.6748046875,0.04638671875,0.82470703125,22.52197265625,-1.8310546875,-6.65283203125,4.39453125,36.529541015625,-167.0361328125
1758788209.3590117,-0.6748046875,0.04638671875,0.82470703125,22.52197265625,-1.8310546875,-6.65283203125,4.559326171875,36.529541015625,-167.10205078125
1758788209.3690612,-0.666015625,0.0947265625,0.77783203125,16.78466796875,-0.1220703125,-6.591796875,4.6636962890625,36.5460205078125,-167.16796875
1758788209.3795192,-0.666015625,0.0947265625,0.77783203125,16.78466796875,-0.1220703125,-6.591796875,4.7735595703125,36.5679931640625,-167.2283935546875
1758788209.3889325,-0.65234375,0.06982421875,0.75048828125,17.333984375,0.8544921875,-6.9580078125,4.888916015625,36.595458984375,-167.2943115234375
1758788209.3990388,-0.65234375,0.06982421875,0.75048828125,17.333984375,0.8544921875,-6.9580078125,5.0042724609375,36.62841796875,-167.354736328125
1758788209.4089386,-0.63427734375,0.0625,0.80859375,10.19287109375,0.9765625,-7.26318359375,5.042724609375,36.6558837890625,-167.4261474609375
1758788209.4194531,-0.63427734375,0.0625,0.80859375,10.19287109375,0.9765625,-7.26318359375,5.0811767578125,36.6888427734375,-167.4920654296875
1758788209.4289362,-0.591796875,0.12451171875,0.76171875,4.08935546875,0.8544921875,-7.62939453125,5.0592041015625,36.71630859375,-167.5689697265625
1758788209.4390588,-0.591796875,0.12451171875,0.76171875,4.08935546875,0.8544921875,-7.62939453125,5.042724609375,36.7437744140625,-167.640380859375
1758788209.449048,-0.5830078125,0.08251953125,0.7529296875,2.0751953125,0.42724609375,-7.9345703125,5.0042724609375,36.771240234375,-167.71728515625
1758788209.4597208,-0.5830078125,0.08251953125,0.7529296875,2.0751953125,0.42724609375,-7.9345703125,4.9658203125,36.793212890625,-167.794189453125
1758788209.4694695,-0.6337890625,0.0546875,0.77734375,4.39453125,-0.244140625,-7.9345703125,4.9493408203125,36.8096923828125,-167.87109375
1758788209.4791865,-0.6337890625,0.0546875,0.77734375,4.39453125,-0.244140625,-7.9345703125,4.932861328125,36.826171875,-167.947998046875
1758788209.4890935,-0.61767578125,0.03515625,0.80029296875,3.173828125,-0.9765625,-7.568359375,4.9053955078125,36.8316650390625,-168.0194091796875
1758788209.4997704,-0.61767578125,0.03515625,0.80029296875,3.173828125,-0.9765625,-7.568359375,4.8779296875,36.837158203125,-168.0963134765625
1758788209.5091345,-0.63671875,0.08935546875,0.7646484375,-4.08935546875,-0.67138671875,-6.9580078125,4.7845458984375,36.84814453125,-168.1622314453125
1758788209.5192332,-0.63671875,0.08935546875,0.7646484375,-4.08935546875,-0.67138671875,-6.9580078125,4.691162109375,36.859130859375,-168.2281494140625
1758788209.529499,-0.59765625,0.08056640625,0.759765625,-2.62451171875,-1.15966796875,-6.65283203125,4.6142578125,36.8646240234375,-168.2940673828125
1758788209.5395863,-0.59765625,0.08056640625,0.759765625,-2.62451171875,-1.15966796875,-6.65283203125,4.5428466796875,36.8646240234375,-168.3544921875
1758788209.5491009,-0.62109375,0.04052734375,0.87255859375,-6.28662109375,-2.01416015625,-6.40869140625,4.4329833984375,36.859130859375,-168.4149169921875
1758788209.5592046,-0.62109375,0.04052734375,0.87255859375,-6.28662109375,-2.01416015625,-6.40869140625,4.3231201171875,36.8536376953125,-168.4808349609375
1758788209.5694766,-0.5625,0.033203125,0.77978515625,-2.62451171875,-1.708984375,-4.45556640625,4.2626953125,36.8426513671875,-168.5247802734375
1758788209.579579,-0.5625,0.033203125,0.77978515625,-2.62451171875,-1.708984375,-4.45556640625,4.2022705078125,36.837158203125,-168.57421875
1758788209.5891707,-0.5751953125,-0.00048828125,0.80126953125,6.53076171875,-3.41796875,-4.0283203125,4.229736328125,36.8096923828125,-168.6181640625
1758788209.5993989,-0.5751953125,-0.00048828125,0.80126953125,6.53076171875,-3.41796875,-4.0283203125,4.2626953125,36.7822265625,-168.662109375
1758788209.6099818,-0.6142578125,0.02490234375,0.837890625,8.36181640625,-3.0517578125,-2.50244140625,4.317626953125,36.7547607421875,-168.695068359375
1758788209.6193228,-0.6142578125,0.02490234375,0.837890625,8.36181640625,-3.0517578125,-2.50244140625,4.37255859375,36.727294921875,-168.7225341796875
1758788209.6294851,-0.60302734375,0.1015625,0.73046875,-0.6103515625,-2.50244140625,-1.3427734375,4.3505859375,36.705322265625,-168.7335205078125
1758788209.639393,-0.60302734375,0.1015625,0.73046875,-0.6103515625,-2.50244140625,-1.3427734375,4.32861328125,36.6888427734375,-168.7445068359375
1758788209.6499863,-0.5966796875,0.109375,0.77490234375,-5.859375,-2.3193359375,-0.1220703125,4.2681884765625,36.6668701171875,-168.7335205078125
1758788209.659254,-0.5966796875,0.109375,0.77490234375,-5.859375,-2.3193359375,-0.1220703125,4.207763671875,36.650390625,-168.7225341796875
1758788209.6694558,-0.595703125,0.09423828125,0.806640625,-17.51708984375,-1.52587890625,0.9765625,4.04296875,36.639404296875,-168.695068359375
1758788209.6793978,-0.595703125,0.09423828125,0.806640625,-17.51708984375,-1.52587890625,0.9765625,3.8836669921875,36.62841796875,-168.6676025390625
1758788209.6901221,-0.59521484375,0.04345703125,0.8115234375,-16.05224609375,-1.15966796875,1.15966796875,3.7353515625,36.617431640625,-168.64013671875
1758788209.699498,-0.59521484375,0.04345703125,0.8115234375,-16.05224609375,-1.15966796875,1.15966796875,3.592529296875,36.6064453125,-168.6126708984375
1758788209.709434,-0.60107421875,0.01318359375,0.78662109375,-8.1787109375,-0.79345703125,0.91552734375,3.5211181640625,36.6009521484375,-168.5906982421875
1758788209.7194948,-0.60107421875,0.01318359375,0.78662109375,-8.1787109375,-0.79345703125,0.91552734375,3.44970703125,36.595458984375,-168.563232421875
1758788209.730388,-0.6181640625,0.02685546875,0.8408203125,2.44140625,-0.91552734375,0.244140625,3.4771728515625,36.5899658203125,-168.55224609375
1758788209.73949,-0.6181640625,0.02685546875,0.8408203125,2.44140625,-0.91552734375,0.244140625,3.504638671875,36.58447265625,-168.541259765625
1758788209.7495463,-0.5888671875,0.072265625,0.79248046875,-0.79345703125,-0.244140625,0.244140625,3.4991455078125,36.58447265625,-168.5302734375
1758788209.7595465,-0.5888671875,0.072265625,0.79248046875,-0.79345703125,-0.244140625,0.244140625,3.49365234375,36.58447265625,-168.5137939453125
1758788209.7701304,-0.591796875,0.12109375,0.80859375,-14.95361328125,-1.15966796875,0.30517578125,3.350830078125,36.573486328125,-168.5028076171875
1758788209.779469,-0.591796875,0.12109375,0.80859375,-14.95361328125,-1.15966796875,0.30517578125,3.2135009765625,36.5625,-168.486328125
1758788209.7895184,-0.5126953125,0.09375,0.8017578125,-19.1650390625,-1.0986328125,1.52587890625,3.043212890625,36.551513671875,-168.453369140625
1758788209.7995365,-0.5126953125,0.09375,0.8017578125,-19.1650390625,-1.0986328125,1.52587890625,2.8729248046875,36.5350341796875,-168.4259033203125
1758788209.8101633,-0.5361328125,-0.0205078125,0.81640625,-10.25390625,-1.0986328125,1.8310546875,2.7960205078125,36.5185546875,-168.3929443359375
1758788209.8195596,-0.5361328125,-0.0205078125,0.81640625,-10.25390625,-1.0986328125,1.8310546875,2.713623046875,36.5020751953125,-168.3709716796875
1758788209.8294842,-0.5810546875,-0.0810546875,0.85888671875,8.23974609375,0.0,1.3427734375,2.8070068359375,36.4910888671875,-168.3544921875
1758788209.8397696,-0.5810546875,-0.0810546875,0.85888671875,8.23974609375,0.0,1.3427734375,2.8948974609375,36.485595703125,-168.343505859375
1758788209.8502612,-0.5849609375,-0.0673828125,0.87255859375,37.29248046875,1.03759765625,-0.18310546875,3.2574462890625,36.4910888671875,-168.3544921875
1758788209.859584,-0.5849609375,-0.0673828125,0.87255859375,37.29248046875,1.03759765625,-0.18310546875,3.614501953125,36.4910888671875,-168.3709716796875
1758788209.8694828,-0.5791015625,0.05126953125,0.8505859375,39.00146484375,1.220703125,-1.46484375,3.97705078125,36.49658203125,-168.4039306640625
1758788209.8797488,-0.5791015625,0.05126953125,0.8505859375,39.00146484375,1.220703125,-1.46484375,4.339599609375,36.49658203125,-168.4368896484375
1758788209.8900895,-0.59375,0.2158203125,0.85986328125,8.60595703125,0.91552734375,-0.67138671875,4.405517578125,36.49658203125,-168.4588623046875
1758788209.8997686,-0.59375,0.2158203125,0.85986328125,8.60595703125,0.91552734375,-0.67138671875,4.482421875,36.49658203125,-168.4698486328125
1758788209.909582,-0.5419921875,0.22998046875,0.75732421875,-12.5732421875,1.28173828125,0.48828125,4.361572265625,36.49658203125,-168.46435546875
1758788209.9196985,-0.5419921875,0.22998046875,0.75732421875,-12.5732421875,1.28173828125,0.48828125,4.251708984375,36.5020751953125,-168.4588623046875
1758788209.9300985,-0.55712890625,0.0546875,0.74951171875,-26.55029296875,1.03759765625,1.46484375,4.010009765625,36.5020751953125,-168.431396484375
1758788209.9397984,-0.55712890625,0.0546875,0.74951171875,-26.55029296875,1.03759765625,1.46484375,3.768310546875,36.5020751953125,-168.409423828125
1758788209.9496481,-0.62353515625,0.009765625,0.9111328125,-17.27294921875,0.06103515625,2.25830078125,3.6199951171875,36.4910888671875,-168.37646484375
1758788209.9598212,-0.58935546875,-0.0615234375,0.75927734375,3.11279296875,1.03759765625,2.5634765625,3.5760498046875,36.485595703125,-168.343505859375
1758788209.9702241,-0.58935546875,-0.0615234375,0.75927734375,3.11279296875,1.03759765625,2.5634765625,3.62548828125,36.4910888671875,-168.3160400390625
1758788209.9798536,-0.58984375,-0.03466796875,0.80517578125,16.357421875,0.0,1.40380859375,3.7353515625,36.485595703125,-168.2940673828125
1758788209.989647,-0.58984375,-0.03466796875,0.80517578125,16.357421875,0.0,1.40380859375,3.900146484375,36.4801025390625,-168.277587890625
1758788209.9998462,-0.55078125,0.0205078125,0.74755859375,28.99169921875,1.03759765625,1.15966796875,4.1253662109375,36.4801025390625,-168.2720947265625
1758788210.0103178,-0.55078125,0.0205078125,0.74755859375,28.99169921875,1.03759765625,1.15966796875,4.4110107421875,36.485595703125,-168.2611083984375
1758788210.0197496,-0.56591796875,0.08935546875,0.86962890625,21.91162109375,-0.42724609375,-0.06103515625,4.658203125,36.485595703125,-168.2611083984375
1758788210.0297308,-0.56591796875,0.08935546875,0.86962890625,21.91162109375,-0.42724609375,-0.06103515625,4.8614501953125,36.474609375,-168.2720947265625
1758788210.039795,-0.56591796875,0.08935546875,0.86962890625,3.72314453125,-0.06103515625,0.67138671875,4.9822998046875,36.463623046875,-168.2830810546875
1758788210.0503793,-0.59326171875,0.14306640625,0.82666015625,3.72314453125,-0.06103515625,0.67138671875,5.0152587890625,36.4581298828125,-168.277587890625
1758788210.0597541,-0.6220703125,0.10498046875,0.81787109375,7.99560546875,-1.03759765625,0.3662109375,5.0701904296875,36.441650390625,-168.277587890625
1758788210.069994,-0.6220703125,0.10498046875,0.81787109375,7.99560546875,-1.03759765625,0.3662109375,5.152587890625,36.4251708984375,-168.277587890625
1758788210.0800066,-0.609375,0.03125,0.7685546875,8.11767578125,-1.03759765625,-0.1220703125,5.2294921875,36.4141845703125,-168.277587890625
1758788210.0903895,-0.609375,0.03125,0.7685546875,8.11767578125,-1.03759765625,-0.1220703125,5.3009033203125,36.397705078125,-168.2830810546875
1758788210.0999708,-0.5712890625,0.12451171875,0.76904296875,0.30517578125,-1.0986328125,-0.67138671875,5.3338623046875,36.38671875,-168.28857421875
1758788210.10972,-0.5712890625,0.12451171875,0.76904296875,0.30517578125,-1.0986328125,-0.67138671875,5.3338623046875,36.375732421875,-168.299560546875
1758788210.1198773,-0.5859375,0.11181640625,0.77880859375,-6.65283203125,-0.79345703125,-1.15966796875,5.2899169921875,36.36474609375,-168.3050537109375
1758788210.1308641,-0.5859375,0.11181640625,0.77880859375,-6.65283203125,-0.79345703125,-1.15966796875,5.218505859375,36.3592529296875,-168.3160400390625
1758788210.1404672,-0.61962890625,0.06982421875,0.8125,-9.521484375,-1.40380859375,-1.220703125,5.130615234375,36.3482666015625,-168.3270263671875
1758788210.1496904,-0.61962890625,0.06982421875,0.8125,-9.521484375,-1.40380859375,-1.220703125,5.03173828125,36.3372802734375,-168.33251953125
1758788210.159821,-0.65478515625,0.04833984375,0.78515625,-0.42724609375,0.0,-2.197265625,4.9713134765625,36.331787109375,-168.3489990234375
1758788210.1709425,-0.65478515625,0.04833984375,0.78515625,-0.42724609375,0.0,-2.197265625,4.954833984375,36.3372802734375,-168.365478515625
1758788210.180341,-0.63037109375,0.01416015625,0.87646484375,-0.67138671875,-0.1220703125,-2.62451171875,4.932861328125,36.3427734375,-168.387451171875
1758788210.1898835,-0.63037109375,0.01416015625,0.87646484375,-0.67138671875,-0.1220703125,-2.62451171875,4.9053955078125,36.3482666015625,-168.4149169921875
1758788210.2009032,-0.57568359375,0.064453125,0.76611328125,4.0283203125,-0.48828125,-3.2958984375,4.8944091796875,36.3482666015625,-168.4423828125
1758788210.2100308,-0.57568359375,0.064453125,0.76611328125,4.0283203125,-0.48828125,-3.2958984375,4.9053955078125,36.3482666015625,-168.4808349609375
1758788210.2200592,-0.6083984375,0.04541015625,0.81494140625,18.73779296875,-1.28173828125,-3.96728515625,4.9932861328125,36.3482666015625,-168.519287109375
1758788210.2301302,-0.6083984375,0.04541015625,0.81494140625,18.73779296875,-1.28173828125,-3.96728515625,5.1416015625,36.3427734375,-168.5687255859375
1758788210.2406838,-0.6005859375,0.05908203125,0.76708984375,10.1318359375,0.0,-3.7841796875,5.25146484375,36.3427734375,-168.6126708984375
1758788210.2498477,-0.6005859375,0.05908203125,0.76708984375,10.1318359375,0.0,-3.7841796875,5.3173828125,36.3482666015625,-168.651123046875
1758788210.2604759,-0.5966796875,0.1748046875,0.759765625,-6.16455078125,0.30517578125,-4.0283203125,5.306396484375,36.3592529296875,-168.695068359375
1758788210.2699196,-0.5966796875,0.1748046875,0.759765625,-6.16455078125,0.30517578125,-4.0283203125,5.2130126953125,36.3702392578125,-168.7335205078125
1758788210.2809463,-0.57666015625,0.14794921875,0.79736328125,-18.310546875,0.30517578125,-3.662109375,5.0701904296875,36.3812255859375,-168.7664794921875
1758788210.2899177,-0.57666015625,0.14794921875,0.79736328125,-18.310546875,0.30517578125,-3.662109375,4.866943359375,36.38671875,-168.7994384765625
1758788210.3003595,-0.56591796875,0.07470703125,0.8232421875,-21.728515625,0.54931640625,-3.5400390625,4.6527099609375,36.397705078125,-168.826904296875
1758788210.3099318,-0.56591796875,0.07470703125,0.8232421875,-21.728515625,0.54931640625,-3.5400390625,4.4219970703125,36.40869140625,-168.85986328125
1758788210.320993,-0.6015625,0.0244140625,0.82177734375,-10.43701171875,0.67138671875,-4.2724609375,4.2462158203125,36.419677734375,-168.892822265625
1758788210.3299701,-0.6015625,0.0244140625,0.82177734375,-10.43701171875,0.67138671875,-4.2724609375,4.119873046875,36.4251708984375,-168.936767578125
1758788210.3402555,-0.61669921875,0.044921875,0.87646484375,-7.32421875,1.46484375,-4.638671875,4.010009765625,36.441650390625,-168.980712890625
1758788210.3499804,-0.61669921875,0.044921875,0.87646484375,-7.32421875,1.46484375,-4.638671875,3.9111328125,36.4581298828125,-169.0301513671875
1758788210.3620007,-0.5751953125,0.126953125,0.744140625,-19.34814453125,3.96728515625,-5.06591796875,3.746337890625,36.485595703125,-169.07958984375
1758788210.3707454,-0.5751953125,0.126953125,0.744140625,-19.34814453125,3.96728515625,-5.06591796875,3.5321044921875,36.5240478515625,-169.1290283203125
1758788210.380055,-0.53466796875,0.1201171875,0.77197265625,-29.4189453125,5.0048828125,-4.21142578125,3.2684326171875,36.573486328125,-169.1729736328125
1758788210.3900564,-0.53466796875,0.1201171875,0.77197265625,-29.4189453125,5.0048828125,-4.21142578125,2.96630859375,36.6229248046875,-169.2059326171875
1758788210.4002514,-0.56591796875,-0.01220703125,0.81201171875,-18.6767578125,4.45556640625,-4.150390625,2.7191162109375,36.6668701171875,-169.2388916015625
1758788210.4110742,-0.56591796875,-0.01220703125,0.81201171875,-18.6767578125,4.45556640625,-4.150390625,2.5213623046875,36.7108154296875,-169.27734375
1758788210.4201565,-0.57861328125,-0.14306640625,0.81103515625,15.80810546875,3.90625,-5.126953125,2.48291015625,36.749267578125,-169.3267822265625
1758788210.430142,-0.57861328125,-0.14306640625,0.81103515625,15.80810546875,3.90625,-5.126953125,2.6092529296875,36.7822265625,-169.38720703125
1758788210.4407485,-0.67431640625,-0.10107421875,0.94189453125,42.41943359375,2.50244140625,-6.8359375,2.8509521484375,36.8096923828125,-169.4696044921875
1758788210.4508007,-0.67431640625,-0.10107421875,0.94189453125,42.41943359375,2.50244140625,-6.8359375,3.2135009765625,36.837158203125,-169.56298828125
1758788210.4602966,-0.57275390625,0.1201171875,0.76513671875,26.91650390625,2.99072265625,-6.7138671875,3.49365234375,36.859130859375,-169.6563720703125
1758788210.4702322,-0.57275390625,0.1201171875,0.76513671875,26.91650390625,2.99072265625,-6.7138671875,3.6968994140625,36.8865966796875,-169.749755859375
1758788210.4810176,-0.54248046875,0.21728515625,0.73681640625,-5.18798828125,3.23486328125,-5.615234375,3.7518310546875,36.9195556640625,-169.8321533203125
1758788210.4903672,-0.54248046875,0.21728515625,0.73681640625,-5.18798828125,3.23486328125,-5.615234375,3.658447265625,36.947021484375,-169.8980712890625
1758788210.500293,-0.55810546875,0.09912109375,0.806640625,-19.95849609375,0.0,-3.90625,3.504638671875,36.9580078125,-169.9530029296875
1758788210.5102224,-0.55810546875,0.09912109375,0.806640625,-19.95849609375,0.0,-3.90625,3.284912109375,36.9580078125,-170.00244140625
1758788210.5204902,-0.60791015625,-0.01708984375,0.91357421875,-9.3994140625,-2.38037109375,-2.50244140625,3.1256103515625,36.93603515625,-170.0408935546875
1758788210.5310404,-0.60791015625,-0.01708984375,0.91357421875,-9.3994140625,-2.38037109375,-2.50244140625,3.0157470703125,36.9085693359375,-170.079345703125
1758788210.5402167,-0.619140625,-0.14013671875,0.744140625,10.80322265625,-1.708984375,-2.13623046875,3.01025390625,36.881103515625,-170.1177978515625
1758788210.5503097,-0.619140625,-0.14013671875,0.744140625,10.80322265625,-1.708984375,-2.13623046875,3.0926513671875,36.859130859375,-170.15625
1758788210.561218,-0.5859375,-0.0537109375,0.71435546875,31.92138671875,0.18310546875,-2.50244140625,3.2794189453125,36.84814453125,-170.1947021484375
1758788210.5708227,-0.5859375,-0.0537109375,0.71435546875,31.92138671875,0.18310546875,-2.50244140625,3.5595703125,36.84814453125,-170.2386474609375
1758788210.5803094,-0.64599609375,0.0205078125,0.8525390625,42.90771484375,0.30517578125,-3.41796875,3.88916015625,36.8536376953125,-170.2880859375
1758788210.5903869,-0.64599609375,0.0205078125,0.8525390625,42.90771484375,0.30517578125,-3.41796875,4.273681640625,36.859130859375,-170.343017578125
1758788210.601039,-0.64990234375,0.10791015625,0.7880859375,28.1982421875,1.40380859375,-3.72314453125,4.581298828125,36.8701171875,-170.39794921875
1758788210.610957,-0.64990234375,0.10791015625,0.7880859375,28.1982421875,1.40380859375,-3.72314453125,4.81201171875,36.8865966796875,-170.452880859375
1758788210.6203501,-0.6923828125,0.1416015625,0.76708984375,16.357421875,1.89208984375,-3.90625,4.9932861328125,36.9085693359375,-170.5023193359375
1758788210.6306846,-0.6923828125,0.1416015625,0.76708984375,16.357421875,1.89208984375,-3.90625,5.1141357421875,36.93603515625,-170.5462646484375
1758788210.641272,-0.60400390625,0.11181640625,0.69677734375,2.86865234375,2.99072265625,-3.41796875,5.174560546875,36.9744873046875,-170.584716796875
1758788210.6508696,-0.60400390625,0.11181640625,0.69677734375,2.86865234375,2.99072265625,-3.41796875,5.174560546875,37.012939453125,-170.61767578125
1758788210.660361,-0.62548828125,0.11376953125,0.7734375,-7.99560546875,2.50244140625,-3.72314453125,5.11962890625,37.056884765625,-170.650634765625
1758788210.6707504,-0.62548828125,0.11376953125,0.7734375,-7.99560546875,2.50244140625,-3.72314453125,5.009765625,37.08984375,-170.6781005859375
1758788210.6811254,-0.638671875,0.07080078125,0.771484375,-11.90185546875,2.38037109375,-3.2958984375,4.888916015625,37.1282958984375,-170.70556640625
1758788210.6906931,-0.638671875,0.07080078125,0.771484375,-11.90185546875,2.38037109375,-3.2958984375,4.74609375,37.166748046875,-170.7330322265625
1758788210.7005677,-0.60888671875,0.0341796875,0.73779296875,-6.77490234375,1.220703125,-2.99072265625,4.6307373046875,37.1942138671875,-170.7550048828125
1758788210.7110868,-0.60888671875,0.0341796875,0.73779296875,-6.77490234375,1.220703125,-2.99072265625,4.5428466796875,37.2216796875,-170.7769775390625
1758788210.7215104,-0.6669921875,0.03515625,0.748046875,-2.8076171875,0.06103515625,-2.99072265625,4.4769287109375,37.2381591796875,-170.7989501953125
1758788210.7308886,-0.6669921875,0.03515625,0.748046875,-2.8076171875,0.06103515625,-2.99072265625,4.4219970703125,37.254638671875,-170.826416015625
1758788210.7405994,-0.6513671875,0.04296875,0.84619140625,-6.2255859375,-1.3427734375,-2.44140625,4.3560791015625,37.2601318359375,-170.8428955078125
1758788210.7515225,-0.6513671875,0.04296875,0.84619140625,-6.2255859375,-1.3427734375,-2.44140625,4.273681640625,37.2601318359375,-170.8648681640625
1758788210.760703,-0.5908203125,0.04345703125,0.7177734375,2.25830078125,-1.220703125,-2.13623046875,4.2352294921875,37.2601318359375,-170.8868408203125
1758788210.7708123,-0.5908203125,0.04345703125,0.7177734375,2.25830078125,-1.220703125,-2.13623046875,4.24072265625,37.2601318359375,-170.9033203125
1758788210.7805042,-0.60546875,0.03759765625,0.82958984375,14.404296875,-2.9296875,-2.3193359375,4.3011474609375,37.254638671875,-170.9197998046875
1758788210.7915473,-0.60546875,0.03759765625,0.82958984375,14.404296875,-2.9296875,-2.3193359375,4.4219970703125,37.232666015625,-170.9417724609375
1758788210.8008637,-0.615234375,0.0458984375,0.724609375,6.591796875,-4.21142578125,-1.46484375,4.50439453125,37.210693359375,-170.9637451171875
1758788210.8105156,-0.615234375,0.0458984375,0.724609375,6.591796875,-4.21142578125,-1.46484375,4.5538330078125,37.177734375,-170.980224609375
1758788210.8206217,-0.6259765625,0.14111328125,0.74072265625,-6.8359375,-4.8828125,-0.06103515625,4.537353515625,37.144775390625,-170.9857177734375
1758788210.8317044,-0.6259765625,0.14111328125,0.74072265625,-6.8359375,-4.8828125,-0.06103515625,4.4659423828125,37.1063232421875,-170.9747314453125
1758788210.840698,-0.68115234375,0.111328125,0.85107421875,-17.333984375,-4.0283203125,1.5869140625,4.3505859375,37.0733642578125,-170.9527587890625
1758788210.8507066,-0.68115234375,0.111328125,0.85107421875,-17.333984375,-4.0283203125,1.5869140625,4.19677734375,37.0458984375,-170.9197998046875
1758788210.860673,-0.63916015625,0.04345703125,0.712890625,-15.31982421875,-1.40380859375,2.99072265625,4.053955078125,37.02392578125,-170.8758544921875
1758788210.871636,-0.63916015625,0.04345703125,0.712890625,-15.31982421875,-1.40380859375,2.99072265625,3.93310546875,37.02392578125,-170.8209228515625
1758788210.8806777,-0.681640625,0.046875,0.84130859375,-13.24462890625,-0.8544921875,3.5400390625,3.8177490234375,37.02392578125,-170.760498046875
1758788210.8909018,-0.681640625,0.046875,0.84130859375,-13.24462890625,-0.8544921875,3.5400390625,3.7188720703125,37.0294189453125,-170.7000732421875
1758788210.9007466,-0.669921875,0.08251953125,0.7275390625,-19.6533203125,0.06103515625,4.69970703125,3.592529296875,37.034912109375,-170.628662109375
1758788210.9115436,-0.669921875,0.08251953125,0.7275390625,-19.6533203125,0.06103515625,4.69970703125,3.438720703125,37.0513916015625,-170.5462646484375
1758788210.9208665,-0.6083984375,0.07373046875,0.74365234375,-21.8505859375,-0.3662109375,5.18798828125,3.2794189453125,37.0623779296875,-170.4583740234375
1758788210.9309456,-0.6083984375,0.07373046875,0.74365234375,-21.8505859375,-0.3662109375,5.18798828125,3.109130859375,37.0733642578125,-170.3704833984375
1758788210.9408464,-0.59765625,0.033203125,0.72216796875,-23.98681640625,-0.8544921875,6.591796875,2.933349609375,37.078857421875,-170.26611328125
1758788210.951941,-0.59765625,0.033203125,0.72216796875,-23.98681640625,-0.8544921875,6.591796875,2.757568359375,37.0843505859375,-170.1617431640625
1758788210.961246,-0.6357421875,-0.01904296875,0.80908203125,-14.404296875,-1.708984375,7.50732421875,2.625732421875,37.0843505859375,-170.0518798828125
1758788210.9712915,-0.6357421875,-0.01904296875,0.80908203125,-14.404296875,-1.708984375,7.50732421875,2.548828125,37.078857421875,-169.9365234375
1758788210.9807563,-0.615234375,-0.06005859375,0.7646484375,13.18359375,-2.01416015625,6.34765625,2.5982666015625,37.0733642578125,-169.8321533203125
1758788210.990896,-0.615234375,-0.06005859375,0.7646484375,13.18359375,-2.01416015625,6.34765625,2.7740478515625,37.0623779296875,-169.7442626953125
1758788211.0012736,-0.63720703125,-0.0263671875,0.8046875,25.81787109375,-3.35693359375,5.06591796875,3.0047607421875,37.0458984375,-169.661865234375
1758788211.0109553,-0.63720703125,-0.0263671875,0.8046875,25.81787109375,-3.35693359375,5.06591796875,3.2904052734375,37.02392578125,-169.595947265625
1758788211.0207732,-0.66259765625,0.09814453125,0.82861328125,15.13671875,-4.2724609375,4.82177734375,3.4661865234375,36.990966796875,-169.530029296875
1758788211.0309098,-0.66259765625,0.09814453125,0.82861328125,15.13671875,-4.2724609375,4.82177734375,3.6474609375,36.9580078125,-169.464111328125
1758788211.0413206,-0.66259765625,0.09814453125,0.82861328125,-12.87841796875,-3.41796875,3.23486328125,3.53759765625,36.93603515625,-169.4146728515625
1758788211.0510118,-0.60400390625,0.21875,0.7548828125,-12.87841796875,-3.41796875,3.23486328125,3.438720703125,36.9140625,-169.354248046875
1758788211.061538,-0.59326171875,0.19873046875,0.81494140625,-24.10888671875,-3.60107421875,4.21142578125,3.240966796875,36.8865966796875,-169.2828369140625
1758788211.0710146,-0.59326171875,0.19873046875,0.81494140625,-24.10888671875,-3.60107421875,4.21142578125,3.0487060546875,36.859130859375,-169.2059326171875
1758788211.0816386,-0.51513671875,0.0126953125,0.74658203125,-31.982421875,-3.2958984375,4.39453125,2.7850341796875,36.8316650390625,-169.1290283203125
1758788211.0909965,-0.51513671875,0.0126953125,0.74658203125,-31.982421875,-3.2958984375,4.39453125,2.515869140625,36.7987060546875,-169.0576171875
1758788211.10102,-0.6015625,0.01220703125,0.8984375,-24.10888671875,-5.37109375,3.173828125,2.3126220703125,36.749267578125,-169.002685546875
1758788211.111275,-0.6015625,0.01220703125,0.8984375,-24.10888671875,-5.37109375,3.173828125,2.109375,36.6998291015625,-168.9532470703125
1758788211.121611,-0.57861328125,-0.0546875,0.8798828125,3.662109375,-5.37109375,4.21142578125,2.186279296875,36.6448974609375,-168.8983154296875
1758788211.131052,-0.57861328125,-0.0546875,0.8798828125,3.662109375,-5.37109375,4.21142578125,2.2576904296875,36.58447265625,-168.8433837890625
1758788211.1410234,-0.5576171875,-0.06201171875,0.7587890625,11.3525390625,-5.55419921875,3.47900390625,2.4005126953125,36.529541015625,-168.804931640625
1758788211.151786,-0.5576171875,-0.06201171875,0.7587890625,11.3525390625,-5.55419921875,3.47900390625,2.5323486328125,36.4691162109375,-168.77197265625
1758788211.161677,-0.57958984375,0.005859375,0.82177734375,19.95849609375,-6.04248046875,3.47900390625,2.74658203125,36.4031982421875,-168.7335205078125
1758788211.171203,-0.57958984375,0.005859375,0.82177734375,19.95849609375,-6.04248046875,3.47900390625,2.9608154296875,36.3427734375,-168.7005615234375
1758788211.1811116,-0.55322265625,0.0263671875,0.8173828125,25.57373046875,-5.43212890625,4.150390625,3.2354736328125,36.2823486328125,-168.662109375
1758788211.1918786,-0.55322265625,0.0263671875,0.8173828125,25.57373046875,-5.43212890625,4.150390625,3.5101318359375,36.221923828125,-168.6236572265625
1758788211.2014954,-0.54443359375,0.07666015625,0.85009765625,16.2353515625,-5.92041015625,4.39453125,3.69140625,36.156005859375,-168.585205078125
1758788211.2111228,-0.54443359375,0.07666015625,0.85009765625,16.2353515625,-5.92041015625,4.39453125,3.8726806640625,36.090087890625,-168.5467529296875
1758788211.221102,-0.5693359375,0.11181640625,0.845703125,4.57763671875,-6.591796875,4.82177734375,3.9385986328125,36.0186767578125,-168.5028076171875
1758788211.2317104,-0.5693359375,0.11181640625,0.845703125,4.57763671875,-6.591796875,4.82177734375,4.010009765625,35.9417724609375,-168.4588623046875
1758788211.2414145,-0.58740234375,0.0625,0.8271484375,10.19287109375,-6.65283203125,5.31005859375,4.141845703125,35.8648681640625,-168.4039306640625
1758788211.2510872,-0.58740234375,0.0625,0.8271484375,10.19287109375,-6.65283203125,5.31005859375,4.273681640625,35.7879638671875,-168.3544921875
1758788211.2613876,-0.603515625,0.03125,0.80078125,2.8076171875,-6.4697265625,5.18798828125,4.3341064453125,35.716552734375,-168.3050537109375
1758788211.2723243,-0.603515625,0.03125,0.80078125,2.8076171875,-6.4697265625,5.18798828125,4.3890380859375,35.6451416015625,-168.2501220703125
1758788211.282038,-0.5673828125,0.1357421875,0.7626953125,-6.28662109375,-5.2490234375,5.615234375,4.3560791015625,35.5902099609375,-168.189697265625
1758788211.2912698,-0.5673828125,0.1357421875,0.7626953125,-6.28662109375,-5.2490234375,5.615234375,4.32861328125,35.52978515625,-168.123779296875
1758788211.3011177,-0.591796875,0.08447265625,0.80908203125,-11.41357421875,-3.23486328125,5.92041015625,4.2572021484375,35.496826171875,-168.046875
1758788211.311768,-0.591796875,0.08447265625,0.80908203125,-11.41357421875,-3.23486328125,5.92041015625,4.185791015625,35.4583740234375,-167.9754638671875
1758788211.3214197,-0.6220703125,0.05029296875,0.80419921875,-15.380859375,-1.0986328125,6.4697265625,4.0814208984375,35.4473876953125,-167.8875732421875
1758788211.3312316,-0.6220703125,0.05029296875,0.80419921875,-15.380859375,-1.0986328125,6.4697265625,3.97705078125,35.4364013671875,-167.7996826171875
1758788211.3413026,-0.6630859375,0.06787109375,0.77734375,-12.8173828125,1.40380859375,6.89697265625,3.900146484375,35.4473876953125,-167.706298828125
1758788211.351674,-0.6630859375,0.06787109375,0.77734375,-12.8173828125,1.40380859375,6.89697265625,3.8287353515625,35.4638671875,-167.607421875
1758788211.3612072,-0.6484375,0.0537109375,0.76513671875,-14.2822265625,3.84521484375,6.9580078125,3.7408447265625,35.5078125,-167.49755859375
1758788211.3714366,-0.6484375,0.0537109375,0.76513671875,-14.2822265625,3.84521484375,6.9580078125,3.6529541015625,35.5517578125,-167.3931884765625
1758788211.3812842,-0.60546875,0.060546875,0.8486328125,-20.44677734375,4.45556640625,7.080078125,3.5101318359375,35.606689453125,-167.2833251953125
1758788211.391923,-0.60546875,0.060546875,0.8486328125,-20.44677734375,4.45556640625,7.080078125,3.36181640625,35.6561279296875,-167.1734619140625
1758788211.4013221,-0.56689453125,0.04638671875,0.794921875,-8.85009765625,4.8828125,7.26318359375,3.3343505859375,35.70556640625,-167.0635986328125
1758788211.4114964,-0.56689453125,0.04638671875,0.794921875,-8.85009765625,4.8828125,7.26318359375,3.3013916015625,35.7550048828125,-166.959228515625
1758788211.421289,-0.560546875,-0.015625,0.83935546875,1.03759765625,2.9296875,6.7138671875,3.3673095703125,35.7879638671875,-166.8603515625
1758788211.4319274,-0.560546875,-0.015625,0.83935546875,1.03759765625,2.9296875,6.7138671875,3.427734375,35.8154296875,-166.7724609375
1758788211.441455,-0.53466796875,0.048828125,0.79443359375,-1.8310546875,1.89208984375,6.53076171875,3.4552001953125,35.8319091796875,-166.6845703125
1758788211.4513392,-0.53466796875,0.048828125,0.79443359375,-1.8310546875,1.89208984375,6.53076171875,3.482666015625,35.848388671875,-166.6021728515625
1758788211.4622736,-0.54833984375,0.13427734375,0.78369140625,-8.6669921875,-0.06103515625,6.4697265625,3.4442138671875,35.8428955078125,-166.5142822265625
1758788211.471423,-0.54833984375,0.13427734375,0.78369140625,-8.6669921875,-0.06103515625,6.4697265625,3.4112548828125,35.83740234375,-166.431884765625
1758788211.4813344,-0.533203125,0.11279296875,0.80712890625,-23.01025390625,-2.50244140625,7.4462890625,3.240966796875,35.804443359375,-166.3330078125
1758788211.491476,-0.533203125,0.11279296875,0.80712890625,-23.01025390625,-2.50244140625,7.4462890625,3.076171875,35.771484375,-166.234130859375
1758788211.5021274,-0.55078125,0.07470703125,0.853515625,-26.18408203125,-4.33349609375,7.50732421875,2.87841796875,35.7220458984375,-166.13525390625
1758788211.5117447,-0.55078125,0.07470703125,0.853515625,-26.18408203125,-4.33349609375,7.50732421875,2.6806640625,35.6671142578125,-166.036376953125
1758788211.5213733,-0.525390625,-0.00390625,0.81298828125,-15.56396484375,-5.06591796875,8.48388671875,2.5982666015625,35.606689453125,-165.9320068359375
1758788211.531487,-0.525390625,-0.00390625,0.81298828125,-15.56396484375,-5.06591796875,8.48388671875,2.5103759765625,35.5462646484375,-165.82763671875
1758788211.5417726,-0.625,0.0087890625,0.857421875,-9.1552734375,-5.9814453125,7.32421875,2.4774169921875,35.4803466796875,-165.73974609375
1758788211.55209,-0.625,0.0087890625,0.857421875,-9.1552734375,-5.9814453125,7.32421875,2.4444580078125,35.408935546875,-165.65185546875
1758788211.5613997,-0.60888671875,0.0849609375,0.77783203125,-11.5966796875,-5.55419921875,8.36181640625,2.39501953125,35.3485107421875,-165.5419921875
1758788211.5715299,-0.60888671875,0.0849609375,0.77783203125,-11.5966796875,-5.55419921875,8.36181640625,2.3455810546875,35.2880859375,-165.43212890625
1758788211.5817518,-0.5869140625,0.06884765625,0.7861328125,-20.01953125,-5.37109375,8.48388671875,2.2137451171875,35.233154296875,-165.3167724609375
1758788211.592045,-0.5869140625,0.06884765625,0.7861328125,-20.01953125,-5.37109375,8.48388671875,2.0819091796875,35.17822265625,-165.201416015625
1758788211.601502,-0.5576171875,0.06103515625,0.76416015625,-25.57373046875,-4.638671875,9.1552734375,1.900634765625,35.13427734375,-165.0750732421875
1758788211.6116757,-0.5576171875,0.06103515625,0.76416015625,-25.57373046875,-4.638671875,9.1552734375,1.724853515625,35.0848388671875,-164.94873046875
1758788211.621598,-0.5888671875,0.0029296875,0.83740234375,-9.521484375,-5.18798828125,8.60595703125,1.702880859375,35.035400390625,-164.827880859375
1758788211.632347,-0.5888671875,0.0029296875,0.83740234375,-9.521484375,-5.18798828125,8.60595703125,1.6754150390625,34.9859619140625,-164.70703125
1758788211.64162,-0.57373046875,-0.10302734375,0.78125,18.5546875,-4.150390625,7.26318359375,1.9171142578125,34.947509765625,-164.608154296875
1758788211.6516716,-0.57373046875,-0.10302734375,0.78125,18.5546875,-4.150390625,7.26318359375,2.1478271484375,34.9090576171875,-164.50927734375
1758788211.6616085,-0.62353515625,-0.046875,0.904296875,27.587890625,-4.21142578125,5.67626953125,2.4554443359375,34.8651123046875,-164.4378662109375
1758788211.6724908,-0.62353515625,-0.046875,0.904296875,27.587890625,-4.21142578125,5.67626953125,2.757568359375,34.82666015625,-164.3719482421875
1758788211.681552,-0.66845703125,0.13525390625,0.84521484375,11.90185546875,-3.11279296875,5.55419921875,2.9058837890625,34.7991943359375,-164.300537109375
1758788211.691752,-0.66845703125,0.13525390625,0.84521484375,11.90185546875,-3.11279296875,5.55419921875,3.05419921875,34.771728515625,-164.2181396484375
1758788211.7015781,-0.57470703125,0.2080078125,0.7509765625,-8.544921875,-1.64794921875,5.92041015625,3.01025390625,34.7607421875,-164.1302490234375
1758788211.7124915,-0.57470703125,0.2080078125,0.7509765625,-8.544921875,-1.64794921875,5.92041015625,2.9718017578125,34.749755859375,-164.036865234375
1758788211.7215936,-0.55517578125,0.08740234375,0.75146484375,-19.6533203125,-0.91552734375,6.2255859375,2.8289794921875,34.7442626953125,-163.9324951171875
1758788211.7319105,-0.55517578125,0.08740234375,0.75146484375,-19.6533203125,-0.91552734375,6.2255859375,2.6861572265625,34.7442626953125,-163.828125
1758788211.741932,-0.5947265625,0.025390625,0.87353515625,-23.4375,-2.01416015625,5.79833984375,2.5048828125,34.727783203125,-163.7347412109375
1758788211.752641,-0.5947265625,0.025390625,0.87353515625,-23.4375,-2.01416015625,5.79833984375,2.318115234375,34.7113037109375,-163.641357421875
1758788211.7616918,-0.5595703125,-0.03173828125,0.83740234375,-5.18798828125,-2.0751953125,5.37109375,2.3126220703125,34.69482421875,-163.553466796875
1758788211.7719028,-0.5595703125,-0.03173828125,0.83740234375,-5.18798828125,-2.0751953125,5.37109375,2.3016357421875,34.6783447265625,-163.4765625
1758788211.7824326,-0.56787109375,-0.029296875,0.8017578125,6.40869140625,-1.5869140625,4.150390625,2.39501953125,34.6673583984375,-163.41064453125
1758788211.792089,-0.56787109375,-0.029296875,0.8017578125,6.40869140625,-1.5869140625,4.150390625,2.4884033203125,34.65087890625,-163.355712890625
1758788211.8016558,-0.5634765625,0.0009765625,0.83984375,16.29638671875,-2.13623046875,3.47900390625,2.669677734375,34.6343994140625,-163.3062744140625
1758788211.8118162,-0.5634765625,0.0009765625,0.83984375,16.29638671875,-2.13623046875,3.47900390625,2.8509521484375,34.6124267578125,-163.2568359375
1758788211.822403,-0.53515625,0.01220703125,0.77099609375,20.56884765625,-1.953125,3.96728515625,3.076171875,34.595947265625,-163.2073974609375
1758788211.8318872,-0.53515625,0.01220703125,0.77099609375,20.56884765625,-1.953125,3.96728515625,3.2958984375,34.5794677734375,-163.157958984375
1758788211.8419995,-0.5498046875,0.08447265625,0.87841796875,15.0146484375,-3.11279296875,4.150390625,3.4661865234375,34.5465087890625,-163.1085205078125
1758788211.8518853,-0.5498046875,0.08447265625,0.87841796875,15.0146484375,-3.11279296875,4.150390625,3.636474609375,34.5135498046875,-163.05908203125
1758788211.8625426,-0.54150390625,0.07373046875,0.83447265625,4.08935546875,-2.44140625,5.4931640625,3.702392578125,34.486083984375,-162.9931640625
1758788211.8731318,-0.54150390625,0.07373046875,0.83447265625,4.08935546875,-2.44140625,5.4931640625,3.7738037109375,34.453125,-162.92724609375
1758788211.8818688,-0.59521484375,0.09375,0.8681640625,3.72314453125,-1.5869140625,5.4931640625,3.84521484375,34.43115234375,-162.861328125
1758788211.8921397,-0.59521484375,0.09375,0.8681640625,3.72314453125,-1.5869140625,5.4931640625,3.9166259765625,34.4146728515625,-162.79541015625
1758788211.9019182,-0.61962890625,0.037109375,0.8212890625,6.8359375,-0.3662109375,4.94384765625,4.0155029296875,34.4036865234375,-162.7294921875
1758788211.9125206,-0.61962890625,0.037109375,0.8212890625,6.8359375,-0.3662109375,4.94384765625,4.1143798828125,34.398193359375,-162.66357421875
1758788211.9218252,-0.57177734375,0.095703125,0.7685546875,-3.0517578125,0.0,4.0283203125,4.10888671875,34.398193359375,-162.608642578125
1758788211.9320495,-0.57177734375,0.095703125,0.7685546875,-3.0517578125,0.0,4.0283203125,4.1033935546875,34.4036865234375,-162.5482177734375
1758788211.9426484,-0.56201171875,0.14111328125,0.79541015625,-3.7841796875,-0.48828125,3.90625,4.0924072265625,34.398193359375,-162.48779296875
1758788211.9520705,-0.56201171875,0.14111328125,0.79541015625,-3.7841796875,-0.48828125,3.90625,4.0869140625,34.3927001953125,-162.421875
1758788211.962586,-0.57861328125,0.04150390625,0.81201171875,-9.33837890625,0.1220703125,4.0283203125,4.0264892578125,34.398193359375,-162.3614501953125
1758788211.9719918,-0.57861328125,0.04150390625,0.81201171875,-9.33837890625,0.1220703125,4.0283203125,3.966064453125,34.398193359375,-162.2955322265625
1758788211.9824378,-0.57763671875,0.052734375,0.826171875,-11.29150390625,0.3662109375,3.35693359375,3.878173828125,34.4036865234375,-162.2406005859375
1758788211.992197,-0.57763671875,0.052734375,0.826171875,-11.29150390625,0.3662109375,3.35693359375,3.7957763671875,34.4091796875,-162.1856689453125
1758788212.0019796,-0.59716796875,0.0673828125,0.81640625,-6.2255859375,0.732421875,3.11279296875,3.75732421875,34.420166015625,-162.13623046875
1758788212.0120084,-0.59716796875,0.0673828125,0.81640625,-6.2255859375,0.732421875,3.11279296875,3.724365234375,34.43115234375,-162.081298828125
1758788212.0224135,-0.5849609375,0.06689453125,0.7861328125,-6.65283203125,0.6103515625,2.5634765625,3.680419921875,34.442138671875,-162.0318603515625
1758788212.0320156,-0.5849609375,0.06689453125,0.7861328125,-6.65283203125,0.6103515625,2.5634765625,3.636474609375,34.453125,-161.9879150390625
1758788212.0419562,-0.5849609375,0.06689453125,0.7861328125,-12.75634765625,-0.9765625,2.0751953125,3.526611328125,34.4476318359375,-161.9439697265625
1758788212.0520146,-0.57568359375,0.0556640625,0.8818359375,-12.75634765625,-0.9765625,2.0751953125,3.416748046875,34.4366455078125,-161.905517578125
1758788212.0626256,-0.537109375,0.0537109375,0.806640625,-8.97216796875,-0.6103515625,2.74658203125,3.350830078125,34.43115234375,-161.8560791015625
1758788212.072062,-0.537109375,0.0537109375,0.806640625,-8.97216796875,-0.6103515625,2.74658203125,3.2904052734375,34.4256591796875,-161.8121337890625
1758788212.082191,-0.5390625,0.00537109375,0.8251953125,-0.6103515625,-0.8544921875,2.44140625,3.3013916015625,34.420166015625,-161.773681640625
1758788212.0923612,-0.57177734375,0.03955078125,0.85693359375,1.5869140625,-0.3662109375,2.62451171875,3.328857421875,34.4146728515625,-161.7352294921875
1758788212.1025329,-0.57177734375,0.03955078125,0.85693359375,1.5869140625,-0.3662109375,2.62451171875,3.36181640625,34.4091796875,-161.69677734375
1758788212.1121874,-0.54150390625,0.1064453125,0.7705078125,-4.39453125,0.18310546875,2.13623046875,3.3673095703125,34.4036865234375,-161.6583251953125
1758788212.1221812,-0.54150390625,0.1064453125,0.7705078125,-4.39453125,0.18310546875,2.13623046875,3.33984375,34.4091796875,-161.6253662109375
1758788212.1327038,-0.52197265625,0.11328125,0.80126953125,-13.61083984375,-0.244140625,2.685546875,3.27392578125,34.4036865234375,-161.5869140625
1758788212.1424687,-0.52197265625,0.11328125,0.80126953125,-13.61083984375,-0.244140625,2.685546875,3.1640625,34.398193359375,-161.5374755859375
1758788212.152108,-0.5166015625,0.111328125,0.84912109375,-30.21240234375,0.0,2.8076171875,2.977294921875,34.398193359375,-161.4935302734375
1758788212.1623297,-0.5166015625,0.111328125,0.84912109375,-30.21240234375,0.0,2.8076171875,2.7081298828125,34.3927001953125,-161.444091796875
1758788212.1721566,-0.53564453125,0.02880859375,0.89892578125,-21.30126953125,0.1220703125,2.5634765625,2.4884033203125,34.38720703125,-161.3946533203125
1758788212.1831481,-0.53564453125,0.02880859375,0.89892578125,-21.30126953125,0.1220703125,2.5634765625,2.30712890625,34.3817138671875,-161.356201171875
1758788212.192152,-0.529296875,-0.0615234375,0.806640625,-5.37109375,1.28173828125,0.9765625,2.2027587890625,34.376220703125,-161.3232421875
1758788212.2022552,-0.529296875,-0.0615234375,0.806640625,-5.37109375,1.28173828125,0.9765625,2.164306640625,34.3817138671875,-161.3067626953125
1758788212.212155,-0.54931640625,0.02734375,0.89794921875,0.8544921875,1.52587890625,-0.1220703125,2.1478271484375,34.38720703125,-161.2957763671875
1758788212.223188,-0.54931640625,0.02734375,0.89794921875,0.8544921875,1.52587890625,-0.1220703125,2.164306640625,34.398193359375,-161.2957763671875
1758788212.232275,-0.56982421875,0.11083984375,0.8251953125,-7.75146484375,2.8076171875,0.18310546875,2.13134765625,34.4091796875,-161.2957763671875
1758788212.2423172,-0.56982421875,0.11083984375,0.8251953125,-7.75146484375,2.8076171875,0.18310546875,2.0654296875,34.4256591796875,-161.2847900390625
1758788212.2524126,-0.49853515625,0.09521484375,0.81103515625,-25.146484375,2.8076171875,0.8544921875,1.9171142578125,34.4476318359375,-161.268310546875
1758788212.26233,-0.49853515625,0.09521484375,0.81103515625,-25.146484375,2.8076171875,0.8544921875,1.6864013671875,34.464111328125,-161.2518310546875
1758788212.27291,-0.513671875,0.03173828125,0.81884765625,-27.83203125,3.173828125,1.708984375,1.4447021484375,34.486083984375,-161.224365234375
1758788212.282359,-0.513671875,0.03173828125,0.81884765625,-27.83203125,3.173828125,1.708984375,1.197509765625,34.508056640625,-161.19140625
1758788212.292553,-0.55029296875,-0.07568359375,0.88671875,-6.28662109375,3.96728515625,2.13623046875,1.0546875,34.530029296875,-161.1639404296875
1758788212.3032799,-0.55029296875,-0.07568359375,0.88671875,-6.28662109375,3.96728515625,2.13623046875,1.021728515625,34.5574951171875,-161.1309814453125
1758788212.3125262,-0.5361328125,-0.15625,0.8125,25.20751953125,5.7373046875,1.220703125,1.131591796875,34.595947265625,-161.114501953125
1758788212.3222594,-0.5361328125,-0.15625,0.8125,25.20751953125,5.7373046875,1.220703125,1.3897705078125,34.639892578125,-161.103515625
1758788212.3325036,-0.60595703125,-0.07275390625,0.916015625,41.93115234375,7.32421875,0.06103515625,1.7193603515625,34.69482421875,-161.1090087890625
1758788212.3430665,-0.60595703125,-0.07275390625,0.916015625,41.93115234375,7.32421875,0.06103515625,2.120361328125,34.7552490234375,-161.1199951171875
1758788212.3525105,-0.6123046875,0.12353515625,0.869140625,21.54541015625,9.21630859375,0.54931640625,2.4224853515625,34.82666015625,-161.1309814453125
1758788212.3623793,-0.6123046875,0.12353515625,0.869140625,21.54541015625,9.21630859375,0.54931640625,2.6312255859375,34.9090576171875,-161.136474609375
1758788212.372556,-0.55712890625,0.19873046875,0.75927734375,-1.40380859375,10.6201171875,0.8544921875,2.7301025390625,34.9969482421875,-161.1309814453125
1758788212.3830252,-0.55712890625,0.19873046875,0.75927734375,-1.40380859375,10.6201171875,0.8544921875,2.7191162109375,35.0958251953125,-161.114501953125
1758788212.3930895,-0.533203125,0.09521484375,0.7578125,-20.69091796875,11.41357421875,1.220703125,2.625732421875,35.1947021484375,-161.092529296875
1758788212.4023468,-0.533203125,0.09521484375,0.7578125,-20.69091796875,11.41357421875,1.220703125,2.4334716796875,35.3045654296875,-161.0650634765625
1758788212.4125335,-0.57373046875,0.05859375,0.9169921875,-22.88818359375,9.765625,0.67138671875,2.2357177734375,35.39794921875,-161.0430908203125
1758788212.4226928,-0.57373046875,0.05859375,0.9169921875,-22.88818359375,9.765625,0.67138671875,2.0269775390625,35.48583984375,-161.026611328125
1758788212.4328365,-0.5556640625,-0.0419921875,0.82763671875,-3.60107421875,8.72802734375,0.3662109375,1.91162109375,35.5682373046875,-161.015625
1758788212.4423819,-0.5556640625,-0.0419921875,0.82763671875,-3.60107421875,8.72802734375,0.3662109375,1.8841552734375,35.6396484375,-161.0101318359375
1758788212.4524078,-0.5498046875,-0.07958984375,0.79443359375,13.427734375,6.4697265625,-1.40380859375,1.93359375,35.70556640625,-161.0211181640625
1758788212.4631104,-0.5498046875,-0.07958984375,0.79443359375,13.427734375,6.4697265625,-1.40380859375,2.0599365234375,35.760498046875,-161.0430908203125
1758788212.47257,-0.544921875,-0.05224609375,0.7890625,31.73828125,4.45556640625,-1.52587890625,2.2686767578125,35.804443359375,-161.070556640625
1758788212.4823828,-0.544921875,-0.05224609375,0.7890625,31.73828125,4.45556640625,-1.52587890625,2.559814453125,35.83740234375,-161.0980224609375
1758788212.492572,-0.544921875,0.0048828125,0.87890625,37.4755859375,2.0751953125,-1.15966796875,2.8839111328125,35.859375,-161.1309814453125
1758788212.5030563,-0.544921875,0.0048828125,0.87890625,37.4755859375,2.0751953125,-1.15966796875,3.22998046875,35.870361328125,-161.1639404296875
1758788212.512532,-0.5537109375,0.06787109375,0.84716796875,23.681640625,1.220703125,0.48828125,3.515625,35.870361328125,-161.19140625
1758788212.522496,-0.5537109375,0.06787109375,0.84716796875,23.681640625,1.220703125,0.48828125,3.7408447265625,35.870361328125,-161.2078857421875
1758788212.5326233,-0.56103515625,0.08740234375,0.81494140625,17.39501953125,0.0,2.0751953125,3.9385986328125,35.859375,-161.21337890625
1758788212.5434508,-0.56103515625,0.08740234375,0.81494140625,17.39501953125,0.0,2.0751953125,4.10888671875,35.848388671875,-161.2078857421875
1758788212.5525877,-0.5517578125,0.04833984375,0.7685546875,7.26318359375,-0.6103515625,3.662109375,4.24072265625,35.8319091796875,-161.19140625
1758788212.5625944,-0.5517578125,0.04833984375,0.7685546875,7.26318359375,-0.6103515625,3.662109375,4.3231201171875,35.8099365234375,-161.1639404296875
1758788212.572654,-0.55419921875,0.09619140625,0.7958984375,-4.21142578125,-0.54931640625,4.39453125,4.3560791015625,35.7879638671875,-161.1309814453125
1758788212.5832984,-0.55419921875,0.09619140625,0.7958984375,-4.21142578125,-0.54931640625,4.39453125,4.3341064453125,35.771484375,-161.092529296875
1758788212.592628,-0.58544921875,0.08447265625,0.763671875,-10.80322265625,1.3427734375,4.69970703125,4.28466796875,35.760498046875,-161.048583984375
1758788212.6026921,-0.58544921875,0.08447265625,0.763671875,-10.80322265625,1.3427734375,4.69970703125,4.207763671875,35.7659912109375,-160.9991455078125
1758788212.6130226,-0.6298828125,0.07275390625,0.8125,-10.25390625,2.685546875,4.33349609375,4.1363525390625,35.7769775390625,-160.94970703125
1758788212.6232736,-0.6298828125,0.07275390625,0.8125,-10.25390625,2.685546875,4.33349609375,4.06494140625,35.79345703125,-160.9002685546875
1758788212.633065,-0.62841796875,0.06982421875,0.7607421875,-12.6953125,4.33349609375,3.60107421875,3.97705078125,35.826416015625,-160.850830078125
1758788212.6426513,-0.62841796875,0.06982421875,0.7607421875,-12.6953125,4.33349609375,3.60107421875,3.878173828125,35.8648681640625,-160.8013916015625
1758788212.6535726,-0.63427734375,0.05712890625,0.85205078125,-14.2822265625,3.96728515625,2.99072265625,3.7738037109375,35.9088134765625,-160.751953125
1758788212.6626923,-0.63427734375,0.05712890625,0.85205078125,-14.2822265625,3.96728515625,2.99072265625,3.658447265625,35.947265625,-160.7135009765625
1758788212.6728907,-0.615234375,0.0185546875,0.79345703125,4.08935546875,4.08935546875,3.11279296875,3.6309814453125,35.9857177734375,-160.6695556640625
1758788212.6831422,-0.615234375,0.0185546875,0.79345703125,4.08935546875,4.08935546875,3.11279296875,3.6968994140625,36.024169921875,-160.6256103515625
1758788212.693879,-0.6015625,-0.0078125,0.767578125,10.3759765625,3.5400390625,2.685546875,3.790283203125,36.0626220703125,-160.5816650390625
1758788212.7033925,-0.6015625,-0.0078125,0.767578125,10.3759765625,3.5400390625,2.685546875,3.9111328125,36.10107421875,-160.5487060546875
1758788212.713458,-0.60888671875,0.10595703125,0.72021484375,1.3427734375,2.99072265625,2.3193359375,3.9825439453125,36.1395263671875,-160.5157470703125
1758788212.7231913,-0.60888671875,0.10595703125,0.72021484375,1.3427734375,2.99072265625,2.3193359375,4.0155029296875,36.1724853515625,-160.4827880859375
1758788212.7336133,-0.59326171875,0.166015625,0.80517578125,-17.02880859375,1.220703125,4.21142578125,3.9605712890625,36.1944580078125,-160.433349609375
1758788212.7427049,-0.59326171875,0.166015625,0.80517578125,-17.02880859375,1.220703125,4.21142578125,3.8232421875,36.2109375,-160.3729248046875
1758788212.7529588,-0.6025390625,0.10546875,0.83984375,-36.43798828125,-0.48828125,6.16455078125,3.6090087890625,36.2164306640625,-160.2960205078125
1758788212.764065,-0.6025390625,0.10546875,0.83984375,-36.43798828125,-0.48828125,6.16455078125,3.3013916015625,36.2109375,-160.20263671875
1758788212.773797,-0.58837890625,0.05517578125,0.75732421875,-37.2314453125,-0.91552734375,8.23974609375,2.999267578125,36.2054443359375,-160.103759765625
1758788212.7828147,-0.58837890625,0.05517578125,0.75732421875,-37.2314453125,-0.91552734375,8.23974609375,2.70263671875,36.199951171875,-159.9884033203125
1758788212.7929113,-0.63037109375,0.0048828125,0.8515625,-26.4892578125,-0.9765625,9.033203125,2.4609375,36.18896484375,-159.862060546875
1758788212.802987,-0.63037109375,0.0048828125,0.8515625,-26.4892578125,-0.9765625,9.033203125,2.2796630859375,36.177978515625,-159.7412109375
1758788212.8137698,-0.6650390625,-0.033203125,0.8291015625,-13.48876953125,0.06103515625,9.46044921875,2.1588134765625,36.177978515625,-159.6148681640625
1758788212.822979,-0.6650390625,-0.033203125,0.8291015625,-13.48876953125,0.06103515625,9.46044921875,2.1038818359375,36.177978515625,-159.4830322265625
1758788212.8328688,-0.54248046875,0.0224609375,0.6845703125,-17.39501953125,1.52587890625,10.6201171875,2.0269775390625,36.18896484375,-159.3511962890625
1758788212.842975,-0.54248046875,0.0224609375,0.6845703125,-17.39501953125,1.52587890625,10.6201171875,1.9390869140625,36.2109375,-159.2083740234375
1758788212.8535426,-0.5712890625,0.03076171875,0.7685546875,-10.1318359375,1.28173828125,11.5966796875,1.8896484375,36.2274169921875,-159.06005859375
1758788212.86301,-0.5712890625,0.03076171875,0.7685546875,-10.1318359375,1.28173828125,11.5966796875,1.878662109375,36.243896484375,-158.90625
1758788212.8728697,-0.61376953125,-0.05029296875,0.82763671875,9.3994140625,0.6103515625,12.75634765625,1.966552734375,36.2548828125,-158.7469482421875
1758788212.8830328,-0.61376953125,-0.05029296875,0.82763671875,9.3994140625,0.6103515625,12.75634765625,2.1533203125,36.2603759765625,-158.587646484375
1758788212.893634,-0.6767578125,-0.0419921875,0.85205078125,14.16015625,0.48828125,14.09912109375,2.3675537109375,36.265869140625,-158.4173583984375
1758788212.903407,-0.6767578125,-0.0419921875,0.85205078125,14.16015625,0.48828125,14.09912109375,2.603759765625,36.2713623046875,-158.2470703125
1758788212.9129837,-0.693359375,0.10009765625,0.8203125,0.06103515625,1.28173828125,16.05224609375,2.7740478515625,36.2823486328125,-158.060302734375
1758788212.9230125,-0.693359375,0.10009765625,0.8203125,0.06103515625,1.28173828125,16.05224609375,2.8839111328125,36.298828125,-157.862548828125
1758788212.933656,-0.6162109375,0.15478515625,0.70068359375,-13.00048828125,2.44140625,18.6767578125,2.9388427734375,36.3153076171875,-157.6373291015625
1758788212.9431155,-0.6162109375,0.15478515625,0.70068359375,-13.00048828125,2.44140625,18.6767578125,2.9498291015625,36.3427734375,-157.3956298828125
1758788212.952985,-0.58544921875,0.0556640625,0.697265625,-26.3671875,2.8076171875,20.56884765625,2.900390625,36.3702392578125,-157.1319580078125
1758788212.9631586,-0.58544921875,0.0556640625,0.697265625,-26.3671875,2.8076171875,20.56884765625,2.7960205078125,36.4031982421875,-156.8572998046875
1758788212.9739227,-0.6669921875,0.048828125,0.8681640625,-24.7802734375,0.732421875,21.97265625,2.70263671875,36.4251708984375,-156.5771484375
1758788212.9831028,-0.6669921875,0.048828125,0.8681640625,-24.7802734375,0.732421875,21.97265625,2.625732421875,36.4361572265625,-156.2860107421875
1758788212.9933994,-0.611328125,-0.02783203125,0.78662109375,-11.3525390625,0.42724609375,23.8037109375,2.6202392578125,36.441650390625,-155.9893798828125
1758788213.0042634,-0.611328125,-0.02783203125,0.78662109375,-11.3525390625,0.42724609375,23.8037109375,2.6806640625,36.4471435546875,-155.6817626953125
1758788213.0141687,-0.6484375,-0.01708984375,0.72509765625,-6.16455078125,1.40380859375,23.74267578125,2.7685546875,36.4581298828125,-155.379638671875
1758788213.0236626,-0.6484375,-0.01708984375,0.72509765625,-6.16455078125,1.40380859375,23.74267578125,2.87841796875,36.474609375,-155.072021484375
1758788213.0330896,-0.6484375,-0.01708984375,0.72509765625,9.09423828125,2.13623046875,23.5595703125,3.065185546875,36.49658203125,-154.7698974609375
1758788213.0442705,-0.6484375,-0.01708984375,0.72509765625,9.09423828125,2.13623046875,23.5595703125,3.31787109375,36.5185546875,-154.4732666015625
1758788213.053514,-0.61572265625,0.03271484375,0.74365234375,10.498046875,2.86865234375,24.5361328125,3.5870361328125,36.5460205078125,-154.1656494140625
1758788213.0642087,-0.61572265625,0.03271484375,0.74365234375,10.498046875,2.86865234375,24.5361328125,3.8616943359375,36.573486328125,-153.8580322265625
1758788213.0733495,-0.63818359375,0.09912109375,0.79833984375,-0.9765625,2.685546875,26.06201171875,4.0869140625,36.6009521484375,-153.533935546875
1758788213.0840678,-0.63818359375,0.09912109375,0.79833984375,-0.9765625,2.685546875,26.06201171875,4.2626953125,36.6229248046875,-153.204345703125
1758788213.093458,-0.6123046875,0.1083984375,0.77099609375,-15.13671875,2.86865234375,28.01513671875,4.3780517578125,36.6448974609375,-152.86376953125
1758788213.103647,-0.6123046875,0.1083984375,0.77099609375,-15.13671875,2.86865234375,28.01513671875,4.4329833984375,36.6668701171875,-152.5067138671875
1758788213.1131806,-0.64404296875,0.09130859375,0.796875,-8.36181640625,3.2958984375,28.4423828125,4.5208740234375,36.6888427734375,-152.1441650390625
1758788213.1243608,-0.64404296875,0.09130859375,0.796875,-8.36181640625,3.2958984375,28.4423828125,4.647216796875,36.7108154296875,-151.7816162109375
1758788213.1334705,-0.677734375,0.05029296875,0.79052734375,-6.04248046875,3.41796875,28.4423828125,4.7955322265625,36.73828125,-151.4190673828125
1758788213.1433465,-0.677734375,0.05029296875,0.79052734375,-6.04248046875,3.41796875,28.4423828125,4.94384765625,36.76025390625,-151.0565185546875
1758788213.153458,-0.63720703125,0.08837890625,0.6982421875,-19.83642578125,3.41796875,28.9306640625,4.9603271484375,36.7877197265625,-150.6884765625
1758788213.1639616,-0.63720703125,0.08837890625,0.6982421875,-19.83642578125,3.41796875,28.9306640625,4.976806640625,36.815185546875,-150.31494140625
1758788213.1734715,-0.62353515625,0.16552734375,0.73291015625,-28.13720703125,2.685546875,30.09033203125,4.9273681640625,36.8316650390625,-149.9249267578125
1758788213.1835353,-0.62353515625,0.16552734375,0.73291015625,-28.13720703125,2.685546875,30.09033203125,4.8779296875,36.84814453125,-149.534912109375
1758788213.1933403,-0.62548828125,0.12158203125,0.7626953125,-37.04833984375,2.50244140625,32.1044921875,4.757080078125,36.8646240234375,-149.1119384765625
1758788213.2043357,-0.62548828125,0.12158203125,0.7626953125,-37.04833984375,2.50244140625,32.1044921875,4.63623046875,36.881103515625,-148.6944580078125
1758788213.2133894,-0.6162109375,0.0693359375,0.7919921875,-47.607421875,2.50244140625,33.02001953125,4.4219970703125,36.8975830078125,-148.260498046875
1758788213.2239175,-0.6162109375,0.0693359375,0.7919921875,-47.607421875,2.50244140625,33.02001953125,4.207763671875,36.9085693359375,-147.83203125
1758788213.2333724,-0.63330078125,0.04833984375,0.76123046875,-38.39111328125,2.74658203125,33.50830078125,4.0869140625,36.9305419921875,-147.3980712890625
1758788213.2441976,-0.63330078125,0.04833984375,0.76123046875,-38.39111328125,2.74658203125,33.50830078125,3.966064453125,36.947021484375,-146.9696044921875
1758788213.2535188,-0.64599609375,0.0224609375,0.77294921875,-22.15576171875,2.50244140625,33.26416015625,4.0045166015625,36.9635009765625,-146.5411376953125
1758788213.2637281,-0.64599609375,0.0224609375,0.77294921875,-22.15576171875,2.50244140625,33.26416015625,4.04296875,36.97998046875,-146.1126708984375
1758788213.2740068,-0.64111328125,0.0673828125,0.75927734375,-23.92578125,2.685546875,33.5693359375,4.0594482421875,36.9964599609375,-145.6842041015625
1758788213.283796,-0.64111328125,0.0673828125,0.75927734375,-23.92578125,2.685546875,33.5693359375,4.0814208984375,37.0184326171875,-145.2557373046875
1758788213.2933502,-0.67724609375,0.119140625,0.7314453125,-29.23583984375,3.2958984375,35.0341796875,4.06494140625,37.0404052734375,-144.8052978515625
1758788213.3046088,-0.67724609375,0.119140625,0.7314453125,-29.23583984375,3.2958984375,35.0341796875,4.04296875,37.06787109375,-144.349365234375
1758788213.3141737,-0.677734375,0.0888671875,0.7490234375,-34.7900390625,4.33349609375,36.31591796875,3.9825439453125,37.1063232421875,-143.876953125
1758788213.3236477,-0.677734375,0.0888671875,0.7490234375,-34.7900390625,4.33349609375,36.31591796875,3.922119140625,37.144775390625,-143.3990478515625
1758788213.333462,-0.6611328125,0.0517578125,0.79443359375,-37.04833984375,6.04248046875,36.31591796875,3.8397216796875,37.19970703125,-142.9266357421875
1758788213.343581,-0.6611328125,0.0517578125,0.79443359375,-37.04833984375,6.04248046875,36.31591796875,3.7628173828125,37.254638671875,-142.44873046875
1758788213.354302,-0.6611328125,0.04931640625,0.78662109375,-34.48486328125,6.7138671875,35.888671875,3.702392578125,37.3150634765625,-141.9818115234375
1758788213.363574,-0.6611328125,0.04931640625,0.78662109375,-34.48486328125,6.7138671875,35.888671875,3.6419677734375,37.37548828125,-141.514892578125
1758788213.3735094,-0.64404296875,0.046875,0.75,-29.72412109375,8.30078125,36.2548828125,3.6309814453125,37.452392578125,-141.04248046875
1758788213.3836186,-0.64404296875,0.046875,0.75,-29.72412109375,8.30078125,36.2548828125,3.62548828125,37.529296875,-140.570068359375
1758788213.394214,-0.6689453125,0.052734375,0.7607421875,-21.78955078125,10.7421875,35.70556640625,3.69140625,37.6336669921875,-140.1031494140625
1758788213.4036956,-0.6689453125,0.052734375,0.7607421875,-21.78955078125,10.7421875,35.70556640625,3.7628173828125,37.7325439453125,-139.63623046875
1758788213.413515,-0.65869140625,0.05322265625,0.7685546875,-17.08984375,12.87841796875,34.912109375,3.8726806640625,37.8533935546875,-139.1748046875
1758788213.4237742,-0.65869140625,0.05322265625,0.7685546875,-17.08984375,12.87841796875,34.912109375,3.9825439453125,37.9742431640625,-138.7188720703125
1758788213.4341884,-0.634765625,0.09521484375,0.76611328125,-18.6767578125,13.3056640625,34.0576171875,4.075927734375,38.1005859375,-138.27392578125
1758788213.4437103,-0.634765625,0.09521484375,0.76611328125,-18.6767578125,13.3056640625,34.0576171875,4.163818359375,38.221435546875,-137.823486328125
1758788213.453756,-0.60107421875,0.109375,0.7646484375,-24.169921875,12.451171875,34.36279296875,4.207763671875,38.331298828125,-137.373046875
1758788213.4643252,-0.60107421875,0.109375,0.7646484375,-24.169921875,12.451171875,34.36279296875,4.251708984375,38.4356689453125,-136.9171142578125
1758788213.4739132,-0.62255859375,0.0830078125,0.7822265625,-29.35791015625,11.1083984375,34.72900390625,4.251708984375,38.529052734375,-136.461181640625
1758788213.4838188,-0.62255859375,0.0830078125,0.7822265625,-29.35791015625,11.1083984375,34.72900390625,4.2462158203125,38.6224365234375,-136.0052490234375
1758788213.4937117,-0.6240234375,0.05126953125,0.7783203125,-29.11376953125,10.07080078125,35.15625,4.251708984375,38.6993408203125,-135.54931640625
1758788213.5068371,-0.6240234375,0.05126953125,0.7783203125,-29.11376953125,10.07080078125,35.15625,4.251708984375,38.78173828125,-135.0933837890625
1758788213.5146463,-0.62451171875,0.04736328125,0.7607421875,-28.9306640625,9.09423828125,35.7666015625,4.2626953125,38.84765625,-134.6319580078125
1758788213.523738,-0.62451171875,0.04736328125,0.7607421875,-28.9306640625,9.09423828125,35.7666015625,4.273681640625,38.91357421875,-134.176025390625
1758788213.5336707,-0.62255859375,0.06396484375,0.763671875,-32.2265625,7.87353515625,36.376953125,4.251708984375,38.968505859375,-133.7091064453125
1758788213.5442553,-0.62255859375,0.06396484375,0.763671875,-32.2265625,7.87353515625,36.376953125,4.229736328125,39.0234375,-133.2421875
1758788213.5538862,-0.60791015625,0.07080078125,0.7734375,-33.63037109375,6.7138671875,36.56005859375,4.2022705078125,39.0618896484375,-132.78076171875
1758788213.5638835,-0.60791015625,0.07080078125,0.7734375,-33.63037109375,6.7138671875,36.56005859375,4.1693115234375,39.1058349609375,-132.3138427734375
1758788213.57371,-0.65380859375,0.05908203125,0.759765625,-31.1279296875,6.8359375,36.376953125,4.163818359375,39.144287109375,-131.8524169921875
1758788213.5843751,-0.65380859375,0.05908203125,0.759765625,-31.1279296875,6.8359375,36.376953125,4.15283203125,39.188232421875,-131.3909912109375
1758788213.594277,-0.6376953125,0.0634765625,0.7744140625,-26.7333984375,7.2021484375,35.33935546875,4.185791015625,39.2376708984375,-130.9405517578125
1758788213.604016,-0.6376953125,0.0634765625,0.7744140625,-26.7333984375,7.2021484375,35.33935546875,4.2132568359375,39.2816162109375,-130.4901123046875
1758788213.613996,-0.642578125,0.08935546875,0.775390625,-29.84619140625,7.9345703125,34.48486328125,4.207763671875,39.3365478515625,-130.0506591796875
1758788213.6243901,-0.642578125,0.08935546875,0.775390625,-29.84619140625,7.9345703125,34.48486328125,4.2022705078125,39.3914794921875,-129.6112060546875
1758788213.6340709,-0.61669921875,0.12451171875,0.76318359375,-37.53662109375,7.9345703125,33.5693359375,4.1143798828125,39.4464111328125,-129.1827392578125
1758788213.6438909,-0.61669921875,0.12451171875,0.76318359375,-37.53662109375,7.9345703125,33.5693359375,4.0264892578125,39.5013427734375,-128.748779296875
1758788213.6542706,-0.64111328125,0.08837890625,0.7919921875,-37.353515625,8.23974609375,32.958984375,3.944091796875,39.5562744140625,-128.3203125
1758788213.6668797,-0.64111328125,0.08837890625,0.7919921875,-37.353515625,8.23974609375,32.958984375,3.856201171875,39.6112060546875,-127.8973388671875
1758788213.674737,-0.654296875,0.04248046875,0.75146484375,-35.64453125,8.544921875,32.16552734375,3.7847900390625,39.6771240234375,-127.4798583984375
1758788213.6850257,-0.654296875,0.04248046875,0.75146484375,-35.64453125,8.544921875,32.16552734375,3.71337890625,39.737548828125,-127.06787109375
1758788213.694323,-0.62841796875,0.03515625,0.75,-32.40966796875,7.9345703125,30.6396484375,3.6529541015625,39.7979736328125,-126.67236328125
1758788213.7048922,-0.62841796875,0.03515625,0.75,-32.40966796875,7.9345703125,30.6396484375,3.5980224609375,39.8529052734375,-126.2823486328125
1758788213.7145476,-0.65380859375,0.0556640625,0.7607421875,-21.97265625,6.9580078125,27.7099609375,3.6199951171875,39.90234375,-125.9307861328125
1758788213.7241023,-0.65380859375,0.0556640625,0.7607421875,-21.97265625,6.9580078125,27.7099609375,3.6474609375,39.957275390625,-125.5792236328125
1758788213.7348044,-0.6376953125,0.07470703125,0.77490234375,-23.86474609375,7.50732421875,26.7333984375,3.6419677734375,40.01220703125,-125.244140625
1758788213.7440455,-0.6376953125,0.07470703125,0.77490234375,-23.86474609375,7.50732421875,26.7333984375,3.6419677734375,40.067138671875,-124.903564453125
1758788213.753897,-0.62841796875,0.08349609375,0.767578125,-28.076171875,8.056640625,26.0009765625,3.592529296875,40.1275634765625,-124.5684814453125
1758788213.764067,-0.62841796875,0.08349609375,0.767578125,-28.076171875,8.056640625,26.0009765625,3.5430908203125,40.18798828125,-124.2388916015625
1758788213.7747958,-0.63134765625,0.05517578125,0.78759765625,-27.16064453125,8.4228515625,24.96337890625,3.49365234375,40.25390625,-123.9202880859375
1758788213.784055,-0.63134765625,0.05517578125,0.78759765625,-27.16064453125,8.4228515625,24.96337890625,3.44970703125,40.3143310546875,-123.6016845703125
1758788213.7940145,-0.59814453125,0.046875,0.7919921875,-24.47509765625,8.30078125,24.10888671875,3.4222412109375,40.3802490234375,-123.2940673828125
1758788213.8047538,-0.59814453125,0.046875,0.7919921875,-24.47509765625,8.30078125,24.10888671875,3.394775390625,40.440673828125,-122.991943359375
1758788213.8144033,-0.57470703125,0.03369140625,0.81689453125,-22.27783203125,7.32421875,23.193359375,3.3782958984375,40.484619140625,-122.706298828125
1758788213.8245018,-0.57470703125,0.03369140625,0.81689453125,-22.27783203125,7.32421875,23.193359375,3.36181640625,40.5340576171875,-122.420654296875
1758788213.8344302,-0.56396484375,0.029296875,0.83203125,-19.6533203125,6.16455078125,22.64404296875,3.3673095703125,40.5670166015625,-122.1405029296875
1758788213.845547,-0.56396484375,0.029296875,0.83203125,-19.6533203125,6.16455078125,22.64404296875,3.3673095703125,40.594482421875,-121.871337890625
1758788213.854825,-0.5498046875,0.04345703125,0.83544921875,-19.59228515625,5.0048828125,22.216796875,3.3673095703125,40.6109619140625,-121.607666015625
1758788213.8641918,-0.5498046875,0.04345703125,0.83544921875,-19.59228515625,5.0048828125,22.216796875,3.36181640625,40.62744140625,-121.343994140625
1758788213.874209,-0.56103515625,0.05322265625,0.8544921875,-19.83642578125,3.96728515625,21.6064453125,3.350830078125,40.62744140625,-121.0968017578125
1758788213.884877,-0.56103515625,0.05322265625,0.8544921875,-19.83642578125,3.96728515625,21.6064453125,3.33984375,40.62744140625,-120.8441162109375
1758788213.8942122,-0.5439453125,0.068359375,0.845703125,-21.3623046875,3.173828125,21.30126953125,3.3123779296875,40.616455078125,-120.6024169921875
1758788213.9043412,-0.5439453125,0.068359375,0.845703125,-21.3623046875,3.173828125,21.30126953125,3.2794189453125,40.60546875,-120.355224609375
1758788213.91445,-0.53857421875,0.06591796875,0.84033203125,-18.310546875,2.0751953125,20.751953125,3.2794189453125,40.58349609375,-120.1190185546875
1758788213.9253325,-0.53857421875,0.06591796875,0.84033203125,-18.310546875,2.0751953125,20.751953125,3.27392578125,40.5560302734375,-119.8883056640625
1758788213.934158,-0.56103515625,0.04248046875,0.84716796875,-15.19775390625,1.220703125,20.08056640625,3.2958984375,40.5230712890625,-119.6630859375
1758788213.944282,-0.56103515625,0.04248046875,0.84716796875,-15.19775390625,1.220703125,20.08056640625,3.31787109375,40.4901123046875,-119.4378662109375
1758788213.9549596,-0.568359375,0.06005859375,0.84423828125,-23.193359375,0.79345703125,19.775390625,3.251953125,40.45166015625,-119.2181396484375
1758788213.965131,-0.568359375,0.06005859375,0.84423828125,-23.193359375,0.79345703125,19.775390625,3.1915283203125,40.4132080078125,-118.9984130859375
1758788213.9746976,-0.61279296875,0.11865234375,0.78466796875,-29.23583984375,1.03759765625,20.08056640625,3.076171875,40.374755859375,-118.773193359375
1758788213.9843142,-0.61279296875,0.11865234375,0.78466796875,-29.23583984375,1.03759765625,20.08056640625,2.9608154296875,40.341796875,-118.5369873046875
1758788213.9947538,-0.59619140625,0.044921875,0.80517578125,-32.5927734375,0.6103515625,20.1416015625,2.8179931640625,40.308837890625,-118.3062744140625
1758788214.0043473,-0.59619140625,0.044921875,0.80517578125,-32.5927734375,0.6103515625,20.1416015625,2.669677734375,40.27587890625,-118.070068359375
1758788214.014606,-0.6220703125,0.04150390625,0.7958984375,-33.75244140625,0.9765625,19.287109375,2.5048828125,40.2484130859375,-117.8448486328125
1758788214.024609,-0.6220703125,0.04150390625,0.7958984375,-33.75244140625,0.9765625,19.287109375,2.340087890625,40.220947265625,-117.61962890625
1758788214.0343075,-0.5263671875,0.0380859375,0.78173828125,-26.85546875,0.79345703125,18.798828125,2.2412109375,40.1934814453125,-117.39990234375
1758788214.0444431,-0.5263671875,0.0380859375,0.78173828125,-26.85546875,0.79345703125,18.798828125,2.142333984375,40.166015625,-117.1856689453125
1758788214.0552135,-0.568359375,0.0,0.85595703125,-11.962890625,0.3662109375,17.88330078125,2.1807861328125,40.133056640625,-116.982421875
1758788214.0647302,-0.568359375,0.0,0.85595703125,-11.962890625,0.3662109375,17.88330078125,2.2137451171875,40.10009765625,-116.7791748046875
1758788214.0743904,-0.56396484375,-0.00439453125,0.8095703125,-6.8359375,0.3662109375,17.76123046875,2.296142578125,40.067138671875,-116.5814208984375
1758788214.084499,-0.56396484375,-0.00439453125,0.8095703125,-6.8359375,0.3662109375,17.76123046875,2.3785400390625,40.0341796875,-116.38916015625
1758788214.0945997,-0.59765625,0.01806640625,0.83642578125,5.859375,-0.732421875,17.51708984375,2.581787109375,39.990234375,-116.202392578125
1758788214.1053343,-0.59765625,0.01806640625,0.83642578125,5.859375,-0.732421875,17.51708984375,2.779541015625,39.9462890625,-116.015625
1758788214.1144018,-0.62109375,0.00048828125,0.85400390625,5.615234375,-0.67138671875,17.88330078125,2.977294921875,39.90234375,-115.828857421875
1758788214.124563,-0.62109375,0.00048828125,0.85400390625,5.615234375,-0.67138671875,17.88330078125,3.175048828125,39.8638916015625,-115.64208984375
1758788214.1345403,-0.6513671875,0.115234375,0.77685546875,-10.3759765625,-0.18310546875,18.24951171875,3.2135009765625,39.825439453125,-115.4498291015625
1758788214.1453793,-0.6513671875,0.115234375,0.77685546875,-10.3759765625,-0.18310546875,18.24951171875,3.2574462890625,39.79248046875,-115.2520751953125
1758788214.154449,-0.65087890625,0.15234375,0.7568359375,-27.40478515625,0.06103515625,19.4091796875,3.1475830078125,39.759521484375,-115.02685546875
1758788214.1647396,-0.65087890625,0.15234375,0.7568359375,-27.40478515625,0.06103515625,19.4091796875,3.043212890625,39.7320556640625,-114.8016357421875
1758788214.1745114,-0.58740234375,0.08203125,0.76806640625,-30.8837890625,0.732421875,20.263671875,2.911376953125,39.715576171875,-114.554443359375
1758788214.185285,-0.5732421875,-0.00634765625,0.7646484375,-31.06689453125,1.220703125,20.56884765625,2.779541015625,39.693603515625,-114.3072509765625
1758788214.19446,-0.5732421875,-0.00634765625,0.7646484375,-31.06689453125,1.220703125,20.56884765625,2.647705078125,39.6826171875,-114.0655517578125
1758788214.204655,-0.6396484375,0.02880859375,0.8603515625,-20.08056640625,0.67138671875,20.3857421875,2.57080078125,39.6661376953125,-113.8238525390625
1758788214.2148685,-0.6396484375,0.02880859375,0.8603515625,-20.08056640625,0.67138671875,20.3857421875,2.5433349609375,39.649658203125,-113.587646484375
1758788214.2248263,-0.599609375,0.00048828125,0.82763671875,-10.31494140625,1.03759765625,20.56884765625,2.5653076171875,39.627685546875,-113.3514404296875
1758788214.2345407,-0.599609375,0.00048828125,0.82763671875,-10.31494140625,1.03759765625,20.56884765625,2.6312255859375,39.61669921875,-113.115234375
1758788214.2446141,-0.6494140625,0.029296875,0.7568359375,-9.1552734375,2.197265625,19.287109375,2.70263671875,39.605712890625,-112.8900146484375
1758788214.255407,-0.6494140625,0.029296875,0.7568359375,-9.1552734375,2.197265625,19.287109375,2.7685546875,39.6002197265625,-112.6702880859375
1758788214.2646089,-0.62841796875,0.0146484375,0.7451171875,1.5869140625,3.7841796875,17.9443359375,2.8839111328125,39.6112060546875,-112.4615478515625
1758788214.27454,-0.62841796875,0.0146484375,0.7451171875,1.5869140625,3.7841796875,17.9443359375,3.043212890625,39.627685546875,-112.25830078125
1758788214.2846138,-0.61474609375,0.0595703125,0.76171875,7.2021484375,4.69970703125,16.66259765625,3.22998046875,39.649658203125,-112.0660400390625
1758788214.2954779,-0.61474609375,0.0595703125,0.76171875,7.2021484375,4.69970703125,16.66259765625,3.438720703125,39.6771240234375,-111.8792724609375
1758788214.3045778,-0.63134765625,0.08740234375,0.8203125,2.9296875,4.57763671875,15.68603515625,3.6199951171875,39.70458984375,-111.697998046875
1758788214.3145986,-0.63134765625,0.08740234375,0.8203125,2.9296875,4.57763671875,15.68603515625,3.779296875,39.7320556640625,-111.522216796875
1758788214.3246667,-0.65087890625,0.09765625,0.78759765625,3.35693359375,4.08935546875,15.80810546875,3.9385986328125,39.7540283203125,-111.346435546875
1758788214.3353145,-0.65087890625,0.09765625,0.78759765625,3.35693359375,4.08935546875,15.80810546875,4.1033935546875,39.7705078125,-111.1651611328125
1758788214.3446395,-0.6689453125,0.05517578125,0.7685546875,6.65283203125,2.99072265625,16.2353515625,4.2901611328125,39.7869873046875,-110.9783935546875
1758788214.3546755,-0.6689453125,0.05517578125,0.7685546875,6.65283203125,2.99072265625,16.2353515625,4.4879150390625,39.7979736328125,-110.797119140625
1758788214.3646739,-0.69287109375,0.06494140625,0.6962890625,-7.568359375,3.23486328125,16.357421875,4.6197509765625,39.8089599609375,-110.6103515625
1758788214.375806,-0.69287109375,0.06494140625,0.6962890625,-7.568359375,3.23486328125,16.357421875,4.68017578125,39.825439453125,-110.423583984375
1758788214.3847775,-0.65283203125,0.1298828125,0.6806640625,-16.90673828125,3.173828125,16.66259765625,4.691162109375,39.847412109375,-110.2313232421875
1758788214.3947427,-0.65283203125,0.1298828125,0.6806640625,-16.90673828125,3.173828125,16.66259765625,4.669189453125,39.869384765625,-110.0335693359375
1758788214.4049747,-0.61767578125,0.0986328125,0.75146484375,-25.390625,3.0517578125,17.15087890625,4.603271484375,39.8858642578125,-109.8248291015625
1758788214.4156284,-0.61767578125,0.0986328125,0.75146484375,-25.390625,3.0517578125,17.15087890625,4.50439453125,39.9078369140625,-109.6160888671875
1758788214.4247472,-0.67431640625,0.07666015625,0.791015625,-30.029296875,2.86865234375,17.2119140625,4.3780517578125,39.92431640625,-109.4073486328125
1758788214.4347663,-0.67431640625,0.07666015625,0.791015625,-30.029296875,2.86865234375,17.2119140625,4.229736328125,39.9407958984375,-109.1986083984375
1758788214.4452739,-0.65234375,0.06103515625,0.73193359375,-26.7333984375,2.5634765625,17.15087890625,4.1033935546875,39.957275390625,-108.9898681640625
1758788214.4549124,-0.65234375,0.06103515625,0.73193359375,-26.7333984375,2.5634765625,17.15087890625,3.988037109375,39.9737548828125,-108.7811279296875
1758788214.4647586,-0.69482421875,0.04150390625,0.68212890625,-22.64404296875,2.197265625,16.90673828125,3.8946533203125,39.990234375,-108.577880859375
1758788214.4748356,-0.69482421875,0.04150390625,0.68212890625,-22.64404296875,2.197265625,16.90673828125,3.8232421875,40.0067138671875,-108.3746337890625
1758788214.4850767,-0.6787109375,0.0400390625,0.7734375,-23.92578125,0.9765625,15.93017578125,3.7353515625,40.0177001953125,-108.1768798828125
1758788214.4949079,-0.6787109375,0.0400390625,0.7734375,-23.92578125,0.9765625,15.93017578125,3.6419677734375,40.0286865234375,-107.984619140625
1758788214.5047896,-0.63134765625,0.03515625,0.77392578125,-9.033203125,2.0751953125,15.9912109375,3.614501953125,40.0396728515625,-107.7978515625
1758788214.5149806,-0.63134765625,0.03515625,0.77392578125,-9.033203125,2.0751953125,15.9912109375,3.66943359375,40.05615234375,-107.611083984375
1758788214.5257041,-0.63134765625,0.03515625,0.77392578125,1.8310546875,1.46484375,14.95361328125,3.7628173828125,40.0726318359375,-107.4298095703125
1758788214.5349684,-0.63525390625,0.009765625,0.78076171875,1.8310546875,1.46484375,14.95361328125,3.9111328125,40.078125,-107.259521484375
1758788214.5448775,-0.642578125,0.06591796875,0.751953125,-7.75146484375,1.953125,15.7470703125,4.010009765625,40.089111328125,-107.0892333984375
1758788214.56287,-0.642578125,0.06591796875,0.751953125,-7.75146484375,1.953125,15.7470703125,4.06494140625,40.10009765625,-106.9134521484375
1758788214.5702522,-0.66064453125,0.16552734375,0.68017578125,-23.193359375,2.01416015625,16.78466796875,4.0484619140625,40.111083984375,-106.7266845703125
1758788214.5777028,-0.66064453125,0.16552734375,0.68017578125,-23.193359375,2.01416015625,16.78466796875,3.966064453125,40.1220703125,-106.5234375
1758788214.5849073,-0.6875,0.14111328125,0.6845703125,-37.841796875,2.86865234375,18.73779296875,3.8232421875,40.14404296875,-106.3037109375
1758788214.5960524,-0.6875,0.14111328125,0.6845703125,-37.841796875,2.86865234375,18.73779296875,3.6199951171875,40.166015625,-106.0675048828125
1758788214.6050804,-0.6328125,0.0732421875,0.7568359375,-49.4384765625,2.25830078125,19.47021484375,3.36181640625,40.1934814453125,-105.8203125
1758788214.6154146,-0.6328125,0.0732421875,0.7568359375,-49.4384765625,2.25830078125,19.47021484375,3.05419921875,40.2099609375,-105.5731201171875
1758788214.6249833,-0.67431640625,0.00146484375,0.82373046875,-38.330078125,2.38037109375,19.59228515625,2.801513671875,40.23193359375,-105.3204345703125
1758788214.6369421,-0.67431640625,0.00146484375,0.82373046875,-38.330078125,2.38037109375,19.59228515625,2.603759765625,40.2484130859375,-105.0787353515625
1758788214.648278,-0.63232421875,-0.00341796875,0.76806640625,-21.484375,2.685546875,18.24951171875,2.4774169921875,40.2703857421875,-104.842529296875
1758788214.6553292,-0.63232421875,-0.00341796875,0.76806640625,-21.484375,2.685546875,18.24951171875,2.4334716796875,40.2923583984375,-104.6173095703125
1758788214.6651368,-0.64697265625,0.06982421875,0.76171875,-19.04296875,2.50244140625,17.63916015625,2.39501953125,40.3143310546875,-104.403076171875
1758788214.6762156,-0.64697265625,0.06982421875,0.76171875,-19.04296875,2.50244140625,17.63916015625,2.3675537109375,40.3363037109375,-104.1888427734375
1758788214.6850357,-0.666015625,0.0947265625,0.74462890625,-28.01513671875,2.74658203125,17.822265625,2.296142578125,40.352783203125,-103.974609375
1758788214.6950696,-0.666015625,0.0947265625,0.74462890625,-28.01513671875,2.74658203125,17.822265625,2.1807861328125,40.3802490234375,-103.7493896484375
1758788214.7050402,-0.58544921875,0.0830078125,0.7314453125,-41.44287109375,2.5634765625,18.798828125,2.010498046875,40.4022216796875,-103.5186767578125
1758788214.7160923,-0.58544921875,0.0830078125,0.7314453125,-41.44287109375,2.5634765625,18.798828125,1.7742919921875,40.418701171875,-103.282470703125
1758788214.725034,-0.5751953125,0.04833984375,0.78564453125,-39.00146484375,1.708984375,19.34814453125,1.5545654296875,40.4351806640625,-103.040771484375
1758788214.7350814,-0.5751953125,0.04833984375,0.78564453125,-39.00146484375,1.708984375,19.34814453125,1.351318359375,40.4461669921875,-102.7935791015625
1758788214.7450395,-0.650390625,-0.0341796875,0.8037109375,-25.0244140625,1.3427734375,19.775390625,1.219482421875,40.45166015625,-102.54638671875
1758788214.755903,-0.650390625,-0.0341796875,0.8037109375,-25.0244140625,1.3427734375,19.775390625,1.153564453125,40.45166015625,-102.3046875
1758788214.7651443,-0.62158203125,-0.0849609375,0.763671875,6.89697265625,1.0986328125,18.4326171875,1.241455078125,40.4571533203125,-102.073974609375
1758788214.7752078,-0.62158203125,-0.0849609375,0.763671875,6.89697265625,1.0986328125,18.4326171875,1.47216796875,40.4571533203125,-101.8597412109375
1758788214.7851307,-0.65234375,-0.05810546875,0.833984375,19.71435546875,-0.06103515625,17.578125,1.7578125,40.45166015625,-101.6619873046875
1758788214.7961864,-0.65234375,-0.05810546875,0.833984375,19.71435546875,-0.06103515625,17.578125,2.0928955078125,40.440673828125,-101.4697265625
1758788214.8051333,-0.71435546875,0.10595703125,0.79736328125,2.38037109375,0.18310546875,18.4326171875,2.35107421875,40.4241943359375,-101.2774658203125
1758788214.8154411,-0.71435546875,0.10595703125,0.79736328125,2.38037109375,0.18310546875,18.4326171875,2.5213623046875,40.4132080078125,-101.07421875
1758788214.8252773,-0.583984375,0.166015625,0.7001953125,-20.56884765625,-0.42724609375,19.775390625,2.5927734375,40.4022216796875,-100.8599853515625
1758788214.8361585,-0.583984375,0.166015625,0.7001953125,-20.56884765625,-0.42724609375,19.775390625,2.5543212890625,40.3857421875,-100.6292724609375
1758788214.8452618,-0.5771484375,0.0986328125,0.7060546875,-37.78076171875,-0.1220703125,20.5078125,2.4444580078125,40.3692626953125,-100.382080078125
1758788214.8553567,-0.5771484375,0.0986328125,0.7060546875,-37.78076171875,-0.1220703125,20.5078125,2.252197265625,40.352783203125,-100.1348876953125
1758788214.86627,-0.68017578125,0.0517578125,0.8759765625,-38.51318359375,-1.46484375,20.01953125,2.0599365234375,40.330810546875,-99.8876953125
1758788214.876551,-0.68017578125,0.0517578125,0.8759765625,-38.51318359375,-1.46484375,20.01953125,1.856689453125,40.3033447265625,-99.6405029296875
1758788214.8852835,-0.6083984375,-0.01318359375,0.79345703125,-23.4375,-0.732421875,20.20263671875,1.7303466796875,40.2813720703125,-99.3988037109375
1758788214.895446,-0.6083984375,-0.01318359375,0.79345703125,-23.4375,-0.732421875,20.20263671875,1.680908203125,40.2593994140625,-99.1571044921875
1758788214.9052727,-0.63427734375,-0.01513671875,0.71826171875,-10.31494140625,-1.89208984375,18.06640625,1.680908203125,40.23193359375,-98.931884765625
1758788214.916056,-0.63427734375,-0.01513671875,0.71826171875,-10.31494140625,-1.89208984375,18.06640625,1.73583984375,40.2044677734375,-98.72314453125
1758788214.9252782,-0.61328125,-0.0224609375,0.755859375,6.40869140625,-1.40380859375,17.7001953125,1.8731689453125,40.177001953125,-98.5198974609375
1758788214.9354231,-0.61328125,-0.0224609375,0.755859375,6.40869140625,-1.40380859375,17.7001953125,2.0819091796875,40.1495361328125,-98.32763671875
1758788214.945581,-0.62841796875,0.03125,0.7802734375,5.37109375,-2.44140625,17.51708984375,2.28515625,40.1165771484375,-98.1353759765625
1758788214.95612,-0.62841796875,0.03125,0.7802734375,5.37109375,-2.44140625,17.51708984375,2.48291015625,40.0836181640625,-97.943115234375
1758788214.9655685,-0.6591796875,0.08447265625,0.83740234375,1.52587890625,-3.60107421875,17.822265625,2.65869140625,40.0396728515625,-97.7508544921875
1758788214.9754834,-0.6591796875,0.08447265625,0.83740234375,1.52587890625,-3.60107421875,17.822265625,2.823486328125,39.990234375,-97.55859375
1758788214.986167,-0.64794921875,0.07470703125,0.76220703125,-0.9765625,-3.7841796875,17.822265625,2.9718017578125,39.9407958984375,-97.36083984375
1758788214.9955926,-0.64794921875,0.07470703125,0.76220703125,-0.9765625,-3.7841796875,17.822265625,3.109130859375,39.8858642578125,-97.1630859375
1758788215.0054846,-0.66455078125,0.0732421875,0.70361328125,-8.23974609375,-3.662109375,17.39501953125,3.2080078125,39.83642578125,-96.9708251953125
1758788215.0156617,-0.66455078125,0.0732421875,0.70361328125,-8.23974609375,-3.662109375,17.39501953125,3.2684326171875,39.7869873046875,-96.778564453125
1758788215.0260997,-0.6123046875,0.10107421875,0.71728515625,-15.7470703125,-3.90625,17.2119140625,3.2904052734375,39.7430419921875,-96.5863037109375
1758788215.0356107,-0.6123046875,0.10107421875,0.71728515625,-15.7470703125,-3.90625,17.2119140625,3.2794189453125,39.693603515625,-96.39404296875
1758788215.045496,-0.61572265625,0.07177734375,0.77099609375,-26.123046875,-3.5400390625,17.39501953125,3.218994140625,39.649658203125,-96.1962890625
1758788215.0555723,-0.61572265625,0.07177734375,0.77099609375,-26.123046875,-3.5400390625,17.39501953125,3.109130859375,39.605712890625,-95.9930419921875
1758788215.0663867,-0.6455078125,0.056640625,0.7802734375,-25.2685546875,-3.60107421875,17.9443359375,3.0047607421875,39.561767578125,-95.789794921875
1758788215.0756903,-0.6455078125,0.056640625,0.7802734375,-25.2685546875,-3.60107421875,17.9443359375,2.911376953125,39.517822265625,-95.5865478515625
1758788215.0857131,-0.6484375,0.0439453125,0.74365234375,-19.59228515625,-3.7841796875,18.798828125,2.845458984375,39.473876953125,-95.372314453125
1758788215.0960023,-0.6484375,0.0439453125,0.74365234375,-19.59228515625,-3.7841796875,18.798828125,2.8125,39.429931640625,-95.1580810546875
1758788215.1063347,-0.6748046875,0.02197265625,0.75146484375,-22.4609375,-4.638671875,18.6767578125,2.7630615234375,39.3804931640625,-94.94384765625
1758788215.1157975,-0.6748046875,0.02197265625,0.75146484375,-22.4609375,-4.638671875,18.6767578125,2.6971435546875,39.3310546875,-94.7296142578125
1758788215.1256611,-0.60302734375,0.02685546875,0.8359375,-13.18359375,-5.67626953125,19.287109375,2.6806640625,39.276123046875,-94.515380859375
1758788215.1360347,-0.60302734375,0.02685546875,0.8359375,-13.18359375,-5.67626953125,19.287109375,2.7081298828125,39.210205078125,-94.3011474609375
1758788215.1456106,-0.615234375,0.00244140625,0.77880859375,-4.8828125,-5.92041015625,19.59228515625,2.779541015625,39.144287109375,-94.0869140625
1758788215.1556318,-0.615234375,0.00244140625,0.77880859375,-4.8828125,-5.92041015625,19.59228515625,2.8839111328125,39.078369140625,-93.8726806640625
1758788215.1657262,-0.59521484375,0.0810546875,0.73779296875,-14.58740234375,-6.04248046875,20.6298828125,2.9498291015625,39.012451171875,-93.6529541015625
1758788215.176396,-0.59521484375,0.0810546875,0.73779296875,-14.58740234375,-6.04248046875,20.6298828125,2.9718017578125,38.9410400390625,-93.4222412109375
1758788215.1855981,-0.65869140625,0.14208984375,0.72998046875,-33.26416015625,-6.40869140625,22.4609375,2.9058837890625,38.86962890625,-93.18603515625
1758788215.195755,-0.65869140625,0.14208984375,0.72998046875,-33.26416015625,-6.40869140625,22.4609375,2.757568359375,38.7982177734375,-92.9278564453125
1758788215.2061527,-0.56396484375,0.1103515625,0.73779296875,-52.67333984375,-6.53076171875,24.35302734375,2.52685546875,38.726806640625,-92.647705078125
1758788215.2159889,-0.56396484375,0.1103515625,0.73779296875,-52.67333984375,-6.53076171875,24.35302734375,2.2137451171875,38.6553955078125,-92.3565673828125
1758788215.2256074,-0.5947265625,0.06982421875,0.87158203125,-51.08642578125,-7.87353515625,26.42822265625,1.9171142578125,38.5784912109375,-92.054443359375
1758788215.2365263,-0.5947265625,0.06982421875,0.87158203125,-51.08642578125,-7.87353515625,26.42822265625,1.636962890625,38.4906005859375,-91.73583984375
1758788215.245631,-0.62158203125,-0.0341796875,0.82275390625,-36.9873046875,-8.7890625,26.4892578125,1.494140625,38.3917236328125,-91.417236328125
1758788215.2557402,-0.62158203125,-0.0341796875,0.82275390625,-36.9873046875,-8.7890625,26.4892578125,1.3458251953125,38.29833984375,-91.1041259765625
1758788215.2658646,-0.62939453125,0.025390625,0.77685546875,-33.87451171875,-8.60595703125,26.91650390625,1.23046875,38.2049560546875,-90.791015625
