timestamp,acc_x,acc_y,acc_z,gyro_x,gyro_y,gyro_z,angle_x,angle_y,angle_z
1760967316.212246,-0.7060546875,-0.0185546875,0.712890625,-5.18798828125,2.62451171875,5.9814453125,-1.7193603515625,45.4888916015625,-177.5390625
1760967316.2210195,-0.72705078125,-0.0419921875,0.69140625,-2.685546875,2.13623046875,6.103515625,-1.680908203125,45.4998779296875,-177.451171875
1760967316.2311287,-0.72705078125,-0.0419921875,0.69140625,-2.685546875,2.13623046875,6.103515625,-1.6534423828125,45.516357421875,-177.3687744140625
1760967316.241271,-0.68896484375,-0.04931640625,0.6259765625,6.89697265625,-0.67138671875,5.06591796875,-1.5325927734375,45.50537109375,-177.2918701171875
1760967316.251042,-0.68896484375,-0.04931640625,0.6259765625,6.89697265625,-0.67138671875,5.06591796875,-1.417236328125,45.494384765625,-177.220458984375
1760967316.2610552,-0.7626953125,-0.01806640625,0.685546875,11.77978515625,-0.42724609375,3.7841796875,-1.2689208984375,45.4833984375,-177.1600341796875
1760967316.2712417,-0.7626953125,-0.01806640625,0.685546875,11.77978515625,-0.42724609375,3.7841796875,-1.12060546875,45.4779052734375,-177.099609375
1760967316.2808907,-0.73828125,0.0234375,0.7421875,12.20703125,-0.1220703125,2.3193359375,-0.977783203125,45.4779052734375,-177.0611572265625
1760967316.2907715,-0.73828125,0.0234375,0.7421875,12.20703125,-0.1220703125,2.3193359375,-0.8404541015625,45.4779052734375,-177.0172119140625
1760967316.300589,-0.73828125,0.0234375,0.7421875,7.14111328125,-0.9765625,2.86865234375,-0.7415771484375,45.4669189453125,-176.9677734375
1760967316.3107402,-0.67578125,0.0234375,0.67626953125,7.14111328125,-0.9765625,2.86865234375,-0.6427001953125,45.4559326171875,-176.9183349609375
1760967316.3198805,-0.68115234375,0.029296875,0.724609375,-6.77490234375,-1.40380859375,3.2958984375,-0.6756591796875,45.439453125,-176.8634033203125
1760967316.3298788,-0.68115234375,0.029296875,0.724609375,-6.77490234375,-1.40380859375,3.2958984375,-0.7086181640625,45.4229736328125,-176.802978515625
1760967316.339892,-0.6923828125,0.01904296875,0.75830078125,-14.83154296875,-1.46484375,3.2958984375,-0.8184814453125,45.4010009765625,-176.748046875
1760967316.3499458,-0.6923828125,0.01904296875,0.75830078125,-14.83154296875,-1.46484375,3.2958984375,-0.9283447265625,45.384521484375,-176.693115234375
1760967316.3598957,-0.69091796875,-0.01904296875,0.73388671875,-11.962890625,-1.46484375,2.74658203125,-1.0107421875,45.362548828125,-176.649169921875
1760967316.3699179,-0.69091796875,-0.01904296875,0.73388671875,-11.962890625,-1.46484375,2.74658203125,-1.0986328125,45.340576171875,-176.5997314453125
1760967316.3802645,-0.6806640625,-0.0400390625,0.72412109375,-6.9580078125,-1.52587890625,1.64794921875,-1.1480712890625,45.318603515625,-176.572265625
1760967316.3899624,-0.6806640625,-0.0400390625,0.72412109375,-6.9580078125,-1.52587890625,1.64794921875,-1.197509765625,45.296630859375,-176.55029296875
1760967316.3999383,-0.68701171875,-0.0244140625,0.7353515625,0.06103515625,-1.46484375,0.6103515625,-1.1865234375,45.274658203125,-176.539306640625
1760967316.4099383,-0.68701171875,-0.0244140625,0.7353515625,0.06103515625,-1.46484375,0.6103515625,-1.1810302734375,45.2471923828125,-176.5283203125
1760967316.4199436,-0.67919921875,-0.01806640625,0.75244140625,3.662109375,-1.0986328125,0.0,-1.142578125,45.230712890625,-176.5283203125
1760967316.42994,-0.67919921875,-0.01806640625,0.75244140625,3.662109375,-1.0986328125,0.0,-1.1041259765625,45.208740234375,-176.5283203125
1760967316.4399726,-0.6845703125,-0.00634765625,0.73779296875,2.38037109375,-0.6103515625,-0.3662109375,-1.0821533203125,45.1922607421875,-176.5338134765625
1760967316.4499874,-0.6845703125,-0.00634765625,0.73779296875,2.38037109375,-0.6103515625,-0.3662109375,-1.0601806640625,45.17578125,-176.539306640625
1760967316.4599924,-0.7138671875,-0.015625,0.71484375,3.84521484375,0.0,-0.48828125,-1.0272216796875,45.164794921875,-176.5447998046875
1760967316.4700224,-0.7138671875,-0.015625,0.71484375,3.84521484375,0.0,-0.48828125,-0.9942626953125,45.15380859375,-176.55029296875
1760967316.4800313,-0.71484375,-0.0302734375,0.7138671875,10.68115234375,0.79345703125,-1.03759765625,-0.90087890625,45.15380859375,-176.5667724609375
1760967316.490016,-0.71484375,-0.0302734375,0.7138671875,10.68115234375,0.79345703125,-1.03759765625,-0.8074951171875,45.15380859375,-176.5777587890625
1760967316.5000634,-0.716796875,-0.015625,0.6962890625,13.61083984375,1.52587890625,-1.5869140625,-0.6866455078125,45.164794921875,-176.5997314453125
1760967316.5100462,-0.716796875,-0.015625,0.6962890625,13.61083984375,1.52587890625,-1.5869140625,-0.5712890625,45.1702880859375,-176.6217041015625
1760967316.5200682,-0.70458984375,0.0302734375,0.705078125,9.521484375,1.953125,-1.953125,-0.4998779296875,45.186767578125,-176.6436767578125
1760967316.530074,-0.70458984375,0.0302734375,0.705078125,9.521484375,1.953125,-1.953125,-0.428466796875,45.2032470703125,-176.6656494140625
1760967316.5400698,-0.70751953125,0.0791015625,0.708984375,3.11279296875,2.13623046875,-2.8076171875,-0.4229736328125,45.2197265625,-176.693115234375
1760967316.5500824,-0.70751953125,0.0791015625,0.708984375,3.11279296875,2.13623046875,-2.8076171875,-0.4119873046875,45.2362060546875,-176.7205810546875
1760967316.5600834,-0.71630859375,0.02734375,0.71826171875,-4.94384765625,2.25830078125,-3.84521484375,-0.494384765625,45.252685546875,-176.759033203125
1760967316.5701203,-0.71630859375,0.02734375,0.71826171875,-4.94384765625,2.25830078125,-3.84521484375,-0.5712890625,45.2691650390625,-176.802978515625
1760967316.5801175,-0.73828125,-0.04736328125,0.70556640625,-3.47900390625,3.2958984375,-4.69970703125,-0.648193359375,45.3021240234375,-176.85791015625
1760967316.5901136,-0.73828125,-0.04736328125,0.70556640625,-3.47900390625,3.2958984375,-4.69970703125,-0.72509765625,45.32958984375,-176.912841796875
1760967316.6001163,-0.708984375,-0.0537109375,0.72216796875,7.568359375,4.39453125,-6.04248046875,-0.7086181640625,45.3680419921875,-176.98974609375
1760967316.6101296,-0.708984375,-0.0537109375,0.72216796875,7.568359375,4.39453125,-6.04248046875,-0.692138671875,45.406494140625,-177.066650390625
1760967316.6201465,-0.6279296875,-0.013671875,0.73095703125,12.63427734375,3.47900390625,-6.34765625,-0.6317138671875,45.439453125,-177.154541015625
1760967316.6301403,-0.6279296875,-0.013671875,0.73095703125,12.63427734375,3.47900390625,-6.34765625,-0.5712890625,45.46142578125,-177.242431640625
1760967316.6401668,-0.69189453125,0.02099609375,0.77978515625,6.103515625,3.41796875,-5.37109375,-0.5657958984375,45.4888916015625,-177.3193359375
1760967316.6501698,-0.69189453125,0.02099609375,0.77978515625,6.103515625,3.41796875,-5.37109375,-0.560302734375,45.5108642578125,-177.396240234375
1760967316.660176,-0.70166015625,0.02490234375,0.69873046875,-2.44140625,3.90625,-4.45556640625,-0.626220703125,45.538330078125,-177.462158203125
1760967316.6702595,-0.70166015625,0.02490234375,0.69873046875,-2.44140625,3.90625,-4.45556640625,-0.692138671875,45.5657958984375,-177.5225830078125
1760967316.6802628,-0.7294921875,-0.005859375,0.689453125,-4.2724609375,4.150390625,-3.90625,-0.76904296875,45.5987548828125,-177.5775146484375
1760967316.690254,-0.7294921875,-0.005859375,0.689453125,-4.2724609375,4.150390625,-3.90625,-0.8514404296875,45.6317138671875,-177.6324462890625
1760967316.7002792,-0.72412109375,-0.02880859375,0.70068359375,-4.08935546875,4.8828125,-2.9296875,-0.9173583984375,45.6756591796875,-177.6708984375
1760967316.710278,-0.72412109375,-0.02880859375,0.70068359375,-4.08935546875,4.8828125,-2.9296875,-0.9832763671875,45.714111328125,-177.7093505859375
1760967316.7202842,-0.71435546875,-0.037109375,0.73046875,-4.5166015625,5.7373046875,-1.77001953125,-1.043701171875,45.7635498046875,-177.7313232421875
1760967316.7302823,-0.71435546875,-0.037109375,0.73046875,-4.5166015625,5.7373046875,-1.77001953125,-1.109619140625,45.81298828125,-177.7587890625
1760967316.7403655,-0.70703125,-0.02880859375,0.71875,0.67138671875,6.2255859375,-0.9765625,-1.1151123046875,45.867919921875,-177.7752685546875
1760967316.7502773,-0.70703125,-0.02880859375,0.71875,0.67138671875,6.2255859375,-0.9765625,-1.1151123046875,45.9228515625,-177.791748046875
1760967316.7603772,-0.701171875,-0.0390625,0.7236328125,1.953125,5.67626953125,0.06103515625,-1.0986328125,45.9722900390625,-177.7972412109375
1760967316.77031,-0.701171875,-0.0390625,0.7236328125,1.953125,5.67626953125,0.06103515625,-1.0821533203125,46.021728515625,-177.802734375
1760967316.7803378,-0.70263671875,-0.01953125,0.7021484375,0.67138671875,4.0283203125,0.54931640625,-1.07666015625,46.0491943359375,-177.7972412109375
1760967316.7903407,-0.70263671875,-0.01953125,0.7021484375,0.67138671875,4.0283203125,0.54931640625,-1.065673828125,46.0821533203125,-177.7972412109375
1760967316.8006825,-0.712890625,-0.01123046875,0.65576171875,2.50244140625,1.5869140625,0.1220703125,-1.043701171875,46.0931396484375,-177.802734375
1760967316.811024,-0.712890625,-0.01123046875,0.65576171875,2.50244140625,1.5869140625,0.1220703125,-1.021728515625,46.0986328125,-177.802734375
1760967316.820569,-0.72802734375,0.00732421875,0.65966796875,3.2958984375,0.0,-1.0986328125,-0.999755859375,46.0931396484375,-177.8192138671875
1760967316.8303735,-0.72802734375,0.00732421875,0.65966796875,3.2958984375,0.0,-1.0986328125,-0.977783203125,46.0931396484375,-177.835693359375
1760967316.8404636,-0.71484375,0.00537109375,0.6982421875,2.5634765625,-1.0986328125,-1.708984375,-0.9722900390625,46.07666015625,-177.857666015625
1760967316.8504822,-0.71484375,0.00537109375,0.6982421875,2.5634765625,-1.0986328125,-1.708984375,-0.9613037109375,46.065673828125,-177.879638671875
1760967316.8724244,-0.70361328125,-0.0087890625,0.7099609375,0.91552734375,-1.46484375,-2.3193359375,-0.977783203125,46.043701171875,-177.91259765625
1760967316.8788784,-0.70361328125,-0.0087890625,0.7099609375,0.91552734375,-1.46484375,-2.3193359375,-0.98876953125,46.0272216796875,-177.9400634765625
1760967316.885575,-0.70166015625,0.0126953125,0.72119140625,0.54931640625,-1.0986328125,-2.25830078125,-1.0052490234375,46.0107421875,-177.9730224609375
1760967316.9089336,-0.70166015625,0.0126953125,0.72119140625,0.54931640625,-1.0986328125,-2.25830078125,-1.0162353515625,45.9942626953125,-178.00048828125
1760967316.9162562,-0.69873046875,-0.02294921875,0.75732421875,-5.55419921875,-0.42724609375,-0.67138671875,-1.07666015625,45.9832763671875,-178.011474609375
1760967316.9232194,-0.69873046875,-0.02294921875,0.75732421875,-5.55419921875,-0.42724609375,-0.67138671875,-1.1370849609375,45.9722900390625,-178.0224609375
1760967316.9298897,-0.6669921875,-0.05908203125,0.708984375,-4.57763671875,-0.42724609375,0.91552734375,-1.1700439453125,45.9613037109375,-178.011474609375
1760967316.936873,-0.6669921875,-0.05908203125,0.708984375,-4.57763671875,-0.42724609375,0.91552734375,-1.20849609375,45.9503173828125,-178.0059814453125
1760967316.9581382,-0.611328125,-0.041015625,0.76123046875,2.3193359375,-0.79345703125,0.1220703125,-1.1865234375,45.9283447265625,-178.011474609375
1760967316.9653945,-0.611328125,-0.041015625,0.76123046875,2.3193359375,-0.79345703125,0.1220703125,-1.16455078125,45.9063720703125,-178.0279541015625
1760967316.9719574,-0.63671875,-0.0068359375,0.8681640625,2.86865234375,-0.67138671875,0.67138671875,-1.1370849609375,45.8843994140625,-178.0389404296875
1760967316.978702,-0.63671875,-0.0068359375,0.8681640625,2.86865234375,-0.67138671875,0.67138671875,-1.1041259765625,45.8514404296875,-178.0499267578125
1760967316.9854684,-0.6484375,-0.02734375,0.77294921875,-0.79345703125,-0.48828125,1.40380859375,-1.0986328125,45.823974609375,-178.055419921875
1760967316.993086,-0.65673828125,-0.02734375,0.69287109375,1.0986328125,-1.28173828125,0.91552734375,-1.0931396484375,45.791015625,-178.06640625
1760967317.0010853,-0.65673828125,-0.02734375,0.69287109375,1.0986328125,-1.28173828125,0.91552734375,-1.07666015625,45.758056640625,-178.077392578125
1760967317.0107846,-0.65771484375,0.0361328125,0.79296875,-3.0517578125,-1.8310546875,0.67138671875,-1.0821533203125,45.7196044921875,-178.0938720703125
1760967317.0209754,-0.65771484375,0.0361328125,0.79296875,-3.0517578125,-1.8310546875,0.67138671875,-1.1041259765625,45.6756591796875,-178.1048583984375
1760967317.0317497,-0.64404296875,0.02001953125,0.81787109375,-11.29150390625,-2.197265625,1.03759765625,-1.16455078125,45.6317138671875,-178.1158447265625
1760967317.0410936,-0.64404296875,0.02001953125,0.81787109375,-11.29150390625,-2.197265625,1.03759765625,-1.263427734375,45.582275390625,-178.1268310546875
1760967317.0512102,-0.66162109375,-0.02099609375,0.76025390625,-13.5498046875,-2.8076171875,0.8544921875,-1.373291015625,45.5328369140625,-178.1378173828125
1760967317.0608346,-0.66162109375,-0.02099609375,0.76025390625,-13.5498046875,-2.8076171875,0.8544921875,-1.494140625,45.4779052734375,-178.1488037109375
1760967317.0708852,-0.68310546875,-0.04345703125,0.7373046875,-10.3759765625,-3.41796875,0.18310546875,-1.60400390625,45.41748046875,-178.165283203125
1760967317.080805,-0.68310546875,-0.04345703125,0.7373046875,-10.3759765625,-3.41796875,0.18310546875,-1.702880859375,45.3570556640625,-178.187255859375
1760967317.0908728,-0.7021484375,-0.01904296875,0.72802734375,-1.708984375,-3.96728515625,-0.9765625,-1.7633056640625,45.296630859375,-178.2147216796875
1760967317.1008418,-0.7021484375,-0.01904296875,0.72802734375,-1.708984375,-3.96728515625,-0.9765625,-1.7852783203125,45.2362060546875,-178.2476806640625
1760967317.1118276,-0.74365234375,-0.00390625,0.71337890625,6.53076171875,-4.39453125,-2.50244140625,-1.7742919921875,45.17578125,-178.2861328125
1760967317.1208987,-0.74365234375,-0.00390625,0.71337890625,6.53076171875,-4.39453125,-2.50244140625,-1.7303466796875,45.10986328125,-178.330078125
1760967317.1315532,-0.75732421875,-0.01220703125,0.626953125,7.080078125,-3.84521484375,-3.5400390625,-1.6864013671875,45.054931640625,-178.3795166015625
1760967317.1408975,-0.75732421875,-0.01220703125,0.626953125,7.080078125,-3.84521484375,-3.5400390625,-1.64794921875,45.0054931640625,-178.428955078125
1760967317.1518137,-0.76123046875,-0.02783203125,0.65771484375,7.6904296875,-3.41796875,-4.45556640625,-1.6094970703125,44.967041015625,-178.48388671875
1760967317.1621149,-0.76123046875,-0.02783203125,0.65771484375,7.6904296875,-3.41796875,-4.45556640625,-1.571044921875,44.9285888671875,-178.538818359375
1760967317.173732,-0.75439453125,0.001953125,0.689453125,8.1787109375,-2.74658203125,-4.82177734375,-1.5380859375,44.8956298828125,-178.59375
1760967317.184448,-0.75439453125,0.001953125,0.689453125,8.1787109375,-2.74658203125,-4.82177734375,-1.4996337890625,44.8681640625,-178.648681640625
1760967317.1936076,-0.7568359375,-0.0029296875,0.6220703125,6.77490234375,-1.77001953125,-4.82177734375,-1.47216796875,44.8516845703125,-178.70361328125
1760967317.2051642,-0.7568359375,-0.0029296875,0.6220703125,6.77490234375,-1.77001953125,-4.82177734375,-1.4447021484375,44.8406982421875,-178.7530517578125
1760967317.24177,-0.7177734375,-0.0166015625,0.6943359375,4.5166015625,-1.708984375,-4.69970703125,-1.4337158203125,44.8297119140625,-178.7969970703125
1760967317.248815,-0.7177734375,-0.0166015625,0.6943359375,4.5166015625,-1.708984375,-4.69970703125,-1.4337158203125,44.8187255859375,-178.846435546875
1760967317.2913043,-0.73095703125,-0.01953125,0.71630859375,0.0,-1.28173828125,-4.2724609375,-1.4556884765625,44.813232421875,-178.8848876953125
1760967317.297772,-0.73095703125,-0.01953125,0.71630859375,0.0,-1.28173828125,-4.2724609375,-1.494140625,44.8077392578125,-178.9288330078125
1760967317.3052552,-0.73046875,-0.02685546875,0.66796875,-0.3662109375,-0.9765625,-3.96728515625,-1.5325927734375,44.80224609375,-178.96728515625
1760967317.3117504,-0.73046875,-0.02685546875,0.66796875,-0.3662109375,-0.9765625,-3.96728515625,-1.5765380859375,44.80224609375,-179.0057373046875
1760967317.3310554,-0.72900390625,-0.033203125,0.70849609375,2.50244140625,-0.732421875,-3.2958984375,-1.5985107421875,44.80224609375,-179.033203125
1760967317.3410285,-0.72900390625,-0.033203125,0.70849609375,2.50244140625,-0.732421875,-3.2958984375,-1.60400390625,44.80224609375,-179.066162109375
1760967317.3496952,-0.71728515625,-0.03515625,0.7001953125,1.40380859375,-0.6103515625,-2.44140625,-1.614990234375,44.8077392578125,-179.088134765625
1760967317.355979,-0.71728515625,-0.03515625,0.7001953125,1.40380859375,-0.6103515625,-2.44140625,-1.6259765625,44.8077392578125,-179.1046142578125
1760967317.369567,-0.716796875,-0.02685546875,0.68701171875,0.3662109375,-0.54931640625,-1.64794921875,-1.636962890625,44.8077392578125,-179.1156005859375
1760967317.3762076,-0.716796875,-0.02685546875,0.68701171875,0.3662109375,-0.54931640625,-1.64794921875,-1.6534423828125,44.813232421875,-179.1265869140625
1760967317.382559,-0.7158203125,-0.03125,0.71533203125,0.3662109375,-0.42724609375,-1.15966796875,-1.6644287109375,44.813232421875,-179.132080078125
1760967317.3906076,-0.7158203125,-0.03125,0.71533203125,0.3662109375,-0.42724609375,-1.15966796875,-1.6754150390625,44.8187255859375,-179.132080078125
1760967317.406246,-0.70751953125,-0.02587890625,0.72412109375,-0.3662109375,-0.48828125,-0.54931640625,-1.6864013671875,44.8187255859375,-179.132080078125
1760967317.4129994,-0.70751953125,-0.02587890625,0.72412109375,-0.3662109375,-0.48828125,-0.54931640625,-1.6973876953125,44.8187255859375,-179.1265869140625
1760967317.4205928,-0.7060546875,-0.017578125,0.6962890625,1.03759765625,-0.48828125,-0.3662109375,-1.6973876953125,44.8187255859375,-179.1265869140625
1760967317.4269972,-0.7060546875,-0.017578125,0.6962890625,1.03759765625,-0.48828125,-0.3662109375,-1.69189453125,44.8187255859375,-179.12109375
1760967317.4430418,-0.7109375,-0.02490234375,0.7138671875,1.708984375,-0.48828125,-0.244140625,-1.680908203125,44.8187255859375,-179.110107421875
1760967317.4623811,-0.7109375,-0.02490234375,0.7138671875,1.708984375,-0.48828125,-0.244140625,-1.669921875,44.8187255859375,-179.1046142578125
1760967317.468747,-0.71044921875,-0.02197265625,0.72021484375,1.46484375,-0.3662109375,-0.3662109375,-1.658935546875,44.8187255859375,-179.09912109375
1760967317.4749625,-0.71044921875,-0.02197265625,0.72021484375,1.46484375,-0.3662109375,-0.3662109375,-1.64794921875,44.8187255859375,-179.09912109375
1760967317.4812737,-0.70849609375,-0.01806640625,0.70751953125,2.38037109375,-0.3662109375,-0.54931640625,-1.636962890625,44.8187255859375,-179.0936279296875
1760967317.4948246,-0.70849609375,-0.01806640625,0.70751953125,2.38037109375,-0.3662109375,-0.54931640625,-1.6204833984375,44.813232421875,-179.0936279296875
1760967317.5013843,-0.71142578125,-0.00634765625,0.70849609375,1.5869140625,-0.30517578125,-0.732421875,-1.60400390625,44.813232421875,-179.0936279296875
1760967317.5076761,-0.71142578125,-0.00634765625,0.70849609375,1.5869140625,-0.30517578125,-0.732421875,-1.5985107421875,44.813232421875,-179.09912109375
1760967317.5142684,-0.71484375,-0.0078125,0.71240234375,-0.3662109375,-0.42724609375,-0.91552734375,-1.5985107421875,44.813232421875,-179.09912109375
1760967317.5207226,-0.71484375,-0.0078125,0.71240234375,-0.3662109375,-0.42724609375,-0.91552734375,-1.6094970703125,44.8077392578125,-179.1046142578125
1760967317.5504334,-0.71240234375,-0.02783203125,0.69775390625,0.0,-0.244140625,-1.15966796875,-1.6204833984375,44.8077392578125,-179.1046142578125
1760967317.5936744,-0.71240234375,-0.02783203125,0.69775390625,0.0,-0.244140625,-1.15966796875,-1.6314697265625,44.8077392578125,-179.1156005859375
1760967317.6006825,-0.705078125,-0.0205078125,0.7109375,3.47900390625,-0.30517578125,-1.46484375,-1.6259765625,44.8077392578125,-179.12109375
1760967317.607493,-0.705078125,-0.0205078125,0.7109375,3.47900390625,-0.30517578125,-1.46484375,-1.6094970703125,44.8077392578125,-179.132080078125
1760967317.6180625,-0.7021484375,-0.01171875,0.72802734375,3.5400390625,-0.30517578125,-1.708984375,-1.5875244140625,44.8077392578125,-179.1485595703125
1760967317.6245155,-0.7021484375,-0.01171875,0.72802734375,3.5400390625,-0.30517578125,-1.708984375,-1.571044921875,44.80224609375,-179.1650390625
1760967317.6309335,-0.7001953125,-0.01953125,0.7265625,2.01416015625,-0.18310546875,-1.708984375,-1.56005859375,44.80224609375,-179.1815185546875
1760967317.6377845,-0.7001953125,-0.01953125,0.7265625,2.01416015625,-0.18310546875,-1.708984375,-1.5545654296875,44.7967529296875,-179.197998046875
1760967317.644313,-0.69921875,-0.03076171875,0.71142578125,2.0751953125,-0.30517578125,-1.52587890625,-1.549072265625,44.7967529296875,-179.208984375
1760967317.650529,-0.69921875,-0.03076171875,0.71142578125,2.0751953125,-0.30517578125,-1.52587890625,-1.5435791015625,44.791259765625,-179.2254638671875
1760967317.658685,-0.7001953125,-0.01953125,0.7236328125,2.01416015625,-0.30517578125,-1.52587890625,-1.5380859375,44.7857666015625,-179.241943359375
1760967317.6657605,-0.7001953125,-0.01953125,0.7236328125,2.01416015625,-0.30517578125,-1.52587890625,-1.5325927734375,44.7857666015625,-179.2584228515625
1760967317.6719615,-0.6982421875,-0.0185546875,0.72216796875,3.173828125,-0.244140625,-1.52587890625,-1.5216064453125,44.7802734375,-179.27490234375
1760967317.701401,-0.6982421875,-0.0185546875,0.72216796875,3.173828125,-0.244140625,-1.52587890625,-1.5106201171875,44.7747802734375,-179.296875
1760967317.721214,-0.7060546875,-0.0234375,0.716796875,4.82177734375,-0.3662109375,-1.46484375,-1.483154296875,44.769287109375,-179.3133544921875
1760967317.7414467,-0.7060546875,-0.0234375,0.716796875,4.82177734375,-0.3662109375,-1.46484375,-1.4501953125,44.7637939453125,-179.329833984375
1760967317.7577631,-0.71533203125,-0.02294921875,0.68994140625,4.82177734375,-0.30517578125,-1.52587890625,-1.417236328125,44.75830078125,-179.351806640625
1760967317.7706833,-0.71533203125,-0.02294921875,0.68994140625,4.82177734375,-0.30517578125,-1.52587890625,-1.3897705078125,44.7528076171875,-179.3682861328125
1760967317.783993,-0.71728515625,-0.009765625,0.705078125,5.06591796875,-0.18310546875,-1.40380859375,-1.3568115234375,44.7528076171875,-179.384765625
1760967317.790715,-0.71728515625,-0.009765625,0.705078125,5.06591796875,-0.18310546875,-1.40380859375,-1.318359375,44.7528076171875,-179.4012451171875
1760967317.8134441,-0.71630859375,-0.0146484375,0.71533203125,2.9296875,0.1220703125,-1.3427734375,-1.29638671875,44.7528076171875,-179.417724609375
1760967317.8197863,-0.71630859375,-0.0146484375,0.71533203125,2.9296875,0.1220703125,-1.3427734375,-1.2799072265625,44.7528076171875,-179.4287109375
1760967317.8282478,-0.7099609375,-0.0107421875,0.70068359375,1.3427734375,0.48828125,-1.28173828125,-1.2744140625,44.75830078125,-179.4451904296875
1760967317.8569217,-0.7099609375,-0.0107421875,0.70068359375,1.3427734375,0.48828125,-1.28173828125,-1.2744140625,44.7637939453125,-179.4561767578125
1760967317.8693175,-0.70263671875,-0.0126953125,0.70166015625,1.64794921875,0.3662109375,-1.3427734375,-1.2689208984375,44.769287109375,-179.47265625
1760967317.876271,-0.70263671875,-0.0126953125,0.70166015625,1.64794921875,0.3662109375,-1.3427734375,-1.2689208984375,44.7747802734375,-179.483642578125
1760967317.8909626,-0.7041015625,-0.01611328125,0.73388671875,1.15966796875,0.30517578125,-1.3427734375,-1.2689208984375,44.7747802734375,-179.49462890625
1760967317.8979764,-0.7041015625,-0.01611328125,0.73388671875,1.15966796875,0.30517578125,-1.3427734375,-1.2689208984375,44.7802734375,-179.5111083984375
1760967317.9168944,-0.6953125,-0.02294921875,0.720703125,1.46484375,0.3662109375,-1.3427734375,-1.2689208984375,44.7857666015625,-179.527587890625
1760967317.9236698,-0.6953125,-0.02294921875,0.720703125,1.46484375,0.3662109375,-1.3427734375,-1.2689208984375,44.7857666015625,-179.5440673828125
1760967317.932236,-0.68701171875,-0.0087890625,0.72119140625,2.5634765625,0.18310546875,-1.46484375,-1.263427734375,44.7857666015625,-179.560546875
1760967317.9390066,-0.68701171875,-0.0087890625,0.72119140625,2.5634765625,0.18310546875,-1.46484375,-1.25244140625,44.7857666015625,-179.5770263671875
1760967317.9452283,-0.6875,-0.00341796875,0.74560546875,1.15966796875,0.06103515625,-1.46484375,-1.2469482421875,44.7857666015625,-179.5989990234375
1760967317.9514341,-0.6875,-0.00341796875,0.74560546875,1.15966796875,0.06103515625,-1.46484375,-1.25244140625,44.7857666015625,-179.6209716796875
1760967317.9579136,-0.6962890625,-0.02001953125,0.72998046875,0.0,0.30517578125,-1.46484375,-1.2579345703125,44.7802734375,-179.6429443359375
1760967317.9662366,-0.6962890625,-0.02001953125,0.72998046875,0.0,0.30517578125,-1.46484375,-1.2744140625,44.7802734375,-179.6649169921875
1760967317.9757707,-0.70068359375,-0.021484375,0.71728515625,1.40380859375,0.30517578125,-1.5869140625,-1.2799072265625,44.7747802734375,-179.6868896484375
1760967318.0243769,-0.70068359375,-0.021484375,0.71728515625,1.40380859375,0.30517578125,-1.5869140625,-1.2799072265625,44.7747802734375,-179.71435546875
1760967318.0334535,-0.69775390625,-0.01318359375,0.7197265625,2.13623046875,0.3662109375,-1.77001953125,-1.2799072265625,44.7747802734375,-179.736328125
1760967318.0403764,-0.69775390625,-0.01318359375,0.7197265625,2.13623046875,0.3662109375,-1.77001953125,-1.2744140625,44.7747802734375,-179.7637939453125
1760967318.0580833,-0.6953125,-0.0068359375,0.72998046875,1.15966796875,0.3662109375,-1.89208984375,-1.2799072265625,44.7747802734375,-179.791259765625
1760967318.06461,-0.6953125,-0.0068359375,0.72998046875,1.15966796875,0.3662109375,-1.89208984375,-1.285400390625,44.769287109375,-179.8187255859375
1760967318.0724025,-0.69970703125,-0.01416015625,0.7255859375,-0.42724609375,0.42724609375,-1.708984375,-1.29638671875,44.769287109375,-179.84619140625
1760967318.078845,-0.69970703125,-0.01416015625,0.7255859375,-0.42724609375,0.42724609375,-1.708984375,-1.318359375,44.769287109375,-179.8736572265625
1760967318.085243,-0.7021484375,-0.02294921875,0.71044921875,-0.18310546875,0.3662109375,-1.708984375,-1.3348388671875,44.769287109375,-179.8956298828125
1760967318.1028175,-0.7021484375,-0.02294921875,0.71044921875,-0.18310546875,0.3662109375,-1.708984375,-1.351318359375,44.769287109375,-179.923095703125
1760967318.110407,-0.71044921875,-0.02197265625,0.70849609375,-0.3662109375,0.3662109375,-1.64794921875,-1.373291015625,44.769287109375,-179.9505615234375
1760967318.1170568,-0.71044921875,-0.02197265625,0.70849609375,-0.3662109375,0.3662109375,-1.64794921875,-1.3897705078125,44.769287109375,-179.9725341796875
1760967318.1234772,-0.7080078125,-0.0146484375,0.70703125,0.0,0.3662109375,-1.708984375,-1.4117431640625,44.769287109375,-179.9945068359375
1760967318.1295693,-0.7080078125,-0.0146484375,0.70703125,0.0,0.3662109375,-1.708984375,-1.42822265625,44.769287109375,179.9725341796875
1760967318.1478853,-0.70361328125,-0.0263671875,0.71240234375,0.3662109375,0.244140625,-1.52587890625,-1.439208984375,44.769287109375,179.9505615234375
1760967318.1548123,-0.70361328125,-0.0263671875,0.71240234375,0.3662109375,0.244140625,-1.52587890625,-1.4501953125,44.769287109375,179.93408203125
1760967318.1609254,-0.70751953125,-0.0224609375,0.71435546875,0.3662109375,0.06103515625,-1.220703125,-1.461181640625,44.769287109375,179.912109375
1760967318.1675875,-0.70751953125,-0.0224609375,0.71435546875,0.3662109375,0.06103515625,-1.220703125,-1.47216796875,44.769287109375,179.8956298828125
1760967318.1741173,-0.72314453125,-0.01708984375,0.6943359375,-0.8544921875,0.0,-0.91552734375,-1.4886474609375,44.7637939453125,179.8846435546875
1760967318.182255,-0.72314453125,-0.01708984375,0.6943359375,-0.8544921875,0.0,-0.91552734375,-1.505126953125,44.7637939453125,179.8736572265625
1760967318.1887643,-0.712890625,-0.02197265625,0.68798828125,0.1220703125,0.0,-0.9765625,-1.51611328125,44.7637939453125,179.8681640625
1760967318.1950302,-0.712890625,-0.02197265625,0.68798828125,0.1220703125,0.0,-0.9765625,-1.5216064453125,44.769287109375,179.857177734375
1760967318.202398,-0.71044921875,-0.033203125,0.7236328125,2.13623046875,0.244140625,-0.9765625,-1.5106201171875,44.769287109375,179.84619140625
1760967318.2087893,-0.71044921875,-0.033203125,0.7236328125,2.13623046875,0.244140625,-0.9765625,-1.4996337890625,44.7747802734375,179.835205078125
1760967318.2164207,-0.69482421875,-0.01806640625,0.72900390625,2.86865234375,0.244140625,-1.15966796875,-1.483154296875,44.7747802734375,179.82421875
1760967318.2232184,-0.69482421875,-0.01806640625,0.72900390625,2.86865234375,0.244140625,-1.15966796875,-1.47216796875,44.7802734375,179.8077392578125
1760967318.2300947,-0.6845703125,-0.00390625,0.7333984375,2.86865234375,0.06103515625,-1.52587890625,-1.4556884765625,44.7747802734375,179.7857666015625
1760967318.2367592,-0.6845703125,-0.00390625,0.7333984375,2.86865234375,0.06103515625,-1.52587890625,-1.4447021484375,44.7747802734375,179.7637939453125
1760967318.242862,-0.6806640625,-0.009765625,0.724609375,2.50244140625,-0.06103515625,-2.01416015625,-1.439208984375,44.769287109375,179.736328125
1760967318.2493694,-0.6806640625,-0.009765625,0.724609375,2.50244140625,-0.06103515625,-2.01416015625,-1.4337158203125,44.7637939453125,179.703369140625
1760967318.2572827,-0.68408203125,-0.0234375,0.75634765625,3.11279296875,-0.3662109375,-2.25830078125,-1.4227294921875,44.75830078125,179.67041015625
1760967318.2636416,-0.68408203125,-0.0234375,0.75634765625,3.11279296875,-0.3662109375,-2.25830078125,-1.4117431640625,44.747314453125,179.6319580078125
1760967318.2696826,-0.67822265625,-0.0234375,0.74462890625,3.35693359375,-0.48828125,-2.197265625,-1.4007568359375,44.736328125,179.593505859375
1760967318.27591,-0.67822265625,-0.0234375,0.74462890625,3.35693359375,-0.48828125,-2.197265625,-1.3897705078125,44.725341796875,179.5550537109375
1760967318.2828043,-0.67578125,-0.00634765625,0.74169921875,3.41796875,-0.6103515625,-2.25830078125,-1.3787841796875,44.7088623046875,179.5166015625
1760967318.2894382,-0.67578125,-0.00634765625,0.74169921875,3.41796875,-0.6103515625,-2.25830078125,-1.3677978515625,44.6923828125,179.4781494140625
1760967318.297481,-0.677734375,-0.0126953125,0.7421875,4.08935546875,-0.79345703125,-2.3193359375,-1.351318359375,44.6759033203125,179.439697265625
1760967318.3037877,-0.677734375,-0.0126953125,0.7421875,4.08935546875,-0.79345703125,-2.3193359375,-1.329345703125,44.659423828125,179.395751953125
1760967318.3098128,-0.681640625,-0.0166015625,0.7333984375,0.91552734375,-0.8544921875,-2.3193359375,-1.3458251953125,44.637451171875,179.3572998046875
1760967318.3159673,-0.681640625,-0.0166015625,0.7333984375,0.91552734375,-0.8544921875,-2.3193359375,-1.3568115234375,44.6209716796875,179.3133544921875
1760967318.3227797,-0.68505859375,-0.0087890625,0.732421875,1.03759765625,-1.0986328125,-2.62451171875,-1.3677978515625,44.5989990234375,179.2694091796875
1760967318.3375478,-0.68505859375,-0.0087890625,0.732421875,1.03759765625,-1.0986328125,-2.62451171875,-1.38427734375,44.58251953125,179.2254638671875
1760967318.3442132,-0.68359375,-0.02734375,0.73681640625,2.74658203125,-1.220703125,-2.685546875,-1.38427734375,44.560546875,179.1815185546875
1760967318.3502963,-0.68359375,-0.02734375,0.73681640625,2.74658203125,-1.220703125,-2.685546875,-1.3787841796875,44.53857421875,179.132080078125
1760967318.3565273,-0.685546875,-0.02685546875,0.7255859375,2.86865234375,-1.15966796875,-2.62451171875,-1.3787841796875,44.5166015625,179.088134765625
1760967318.3637033,-0.685546875,-0.02685546875,0.7255859375,2.86865234375,-1.15966796875,-2.62451171875,-1.373291015625,44.49462890625,179.044189453125
1760967318.3700602,-0.69921875,-0.0068359375,0.72265625,3.47900390625,-1.0986328125,-2.5634765625,-1.3677978515625,44.47265625,179.000244140625
1760967318.3781848,-0.69921875,-0.0068359375,0.72265625,3.47900390625,-1.0986328125,-2.5634765625,-1.3568115234375,44.4561767578125,178.9617919921875
1760967318.3846908,-0.69921875,0.00048828125,0.724609375,-0.1220703125,-0.8544921875,-2.38037109375,-1.3787841796875,44.439697265625,178.92333984375
1760967318.3920138,-0.69921875,0.00048828125,0.724609375,-0.1220703125,-0.8544921875,-2.38037109375,-1.4007568359375,44.4232177734375,178.890380859375
1760967318.398388,-0.66552734375,-0.01025390625,0.7529296875,-2.9296875,-0.79345703125,-2.25830078125,-1.4501953125,44.4122314453125,178.8519287109375
1760967318.4046454,-0.66552734375,-0.01025390625,0.7529296875,-2.9296875,-0.79345703125,-2.25830078125,-1.4996337890625,44.395751953125,178.8134765625
1760967318.4122462,-0.68798828125,-0.0283203125,0.728515625,-3.35693359375,-0.54931640625,-2.3193359375,-1.5545654296875,44.3792724609375,178.7750244140625
1760967318.4227393,-0.68798828125,-0.0283203125,0.728515625,-3.35693359375,-0.54931640625,-2.3193359375,-1.60400390625,44.36279296875,178.736572265625
1760967318.429729,-0.68359375,-0.03076171875,0.736328125,-2.9296875,-0.9765625,-2.44140625,-1.658935546875,44.3463134765625,178.6981201171875
1760967318.4368312,-0.68359375,-0.03076171875,0.736328125,-2.9296875,-0.9765625,-2.44140625,-1.7083740234375,44.329833984375,178.6541748046875
1760967318.4431403,-0.6943359375,-0.0205078125,0.71533203125,-2.3193359375,-1.03759765625,-2.38037109375,-1.7523193359375,44.3133544921875,178.61572265625
1760967318.4513521,-0.6943359375,-0.0205078125,0.71533203125,-2.3193359375,-1.03759765625,-2.38037109375,-1.7962646484375,44.2913818359375,178.5772705078125
1760967318.4636462,-0.701171875,-0.02001953125,0.7392578125,-3.72314453125,-0.732421875,-2.25830078125,-1.8511962890625,44.2803955078125,178.538818359375
1760967318.4697282,-0.701171875,-0.02001953125,0.7392578125,-3.72314453125,-0.732421875,-2.25830078125,-1.91162109375,44.263916015625,178.505859375
1760967318.4759529,-0.697265625,-0.02099609375,0.73046875,-5.31005859375,-0.06103515625,-2.5634765625,-1.9830322265625,44.2584228515625,178.4619140625
1760967318.4823134,-0.697265625,-0.02099609375,0.73046875,-5.31005859375,-0.06103515625,-2.5634765625,-2.0599365234375,44.2529296875,178.4234619140625
1760967318.490035,-0.68896484375,-0.02734375,0.7177734375,-1.953125,0.244140625,-3.0517578125,-2.109375,44.2474365234375,178.3740234375
1760967318.4973545,-0.68896484375,-0.02734375,0.7177734375,-1.953125,0.244140625,-3.0517578125,-2.1533203125,44.241943359375,178.330078125
1760967318.503901,-0.6845703125,-0.01953125,0.74072265625,-2.01416015625,0.42724609375,-3.5400390625,-2.2027587890625,44.241943359375,178.275146484375
1760967318.51028,-0.6845703125,-0.01953125,0.74072265625,-2.01416015625,0.42724609375,-3.5400390625,-2.2576904296875,44.2364501953125,178.22021484375
1760967318.5165515,-0.68408203125,-0.029296875,0.7314453125,-1.953125,0.48828125,-3.84521484375,-2.30712890625,44.2364501953125,178.165283203125
1760967318.5252674,-0.68408203125,-0.029296875,0.7314453125,-1.953125,0.48828125,-3.84521484375,-2.362060546875,44.2364501953125,178.1103515625
1760967318.5328732,-0.68798828125,-0.0361328125,0.748046875,-0.9765625,0.42724609375,-4.21142578125,-2.4114990234375,44.23095703125,178.04443359375
1760967318.5417013,-0.68798828125,-0.0361328125,0.748046875,-0.9765625,0.42724609375,-4.21142578125,-2.4554443359375,44.2254638671875,177.978515625
1760967318.5518122,-0.693359375,-0.02099609375,0.7109375,1.46484375,0.6103515625,-4.8828125,-2.4884033203125,44.2254638671875,177.9071044921875
1760967318.5618982,-0.693359375,-0.02099609375,0.7109375,1.46484375,0.6103515625,-4.8828125,-2.515869140625,44.219970703125,177.835693359375
1760967318.5718403,-0.693359375,-0.02099609375,0.7109375,-0.67138671875,0.42724609375,-5.2490234375,-2.57080078125,44.219970703125,177.7587890625
1760967318.5826168,-0.69091796875,-0.02001953125,0.7333984375,-0.67138671875,0.42724609375,-5.2490234375,-2.625732421875,44.2144775390625,177.681884765625
1760967318.5918412,-0.7060546875,-0.02001953125,0.74658203125,-7.4462890625,0.54931640625,-5.2490234375,-2.7410888671875,44.2144775390625,177.60498046875
1760967318.6092563,-0.7060546875,-0.02001953125,0.74658203125,-7.4462890625,0.54931640625,-5.2490234375,-2.8619384765625,44.208984375,177.528076171875
1760967318.6218085,-0.71875,-0.03759765625,0.6923828125,-8.4228515625,0.9765625,-5.06591796875,-2.98828125,44.2144775390625,177.451171875
1760967318.6306784,-0.71875,-0.03759765625,0.6923828125,-8.4228515625,0.9765625,-5.06591796875,-3.1201171875,44.219970703125,177.3797607421875
1760967318.661228,-0.72900390625,-0.029296875,0.68115234375,-8.4228515625,1.52587890625,-5.31005859375,-3.2464599609375,44.23095703125,177.308349609375
1760967318.6718705,-0.72900390625,-0.029296875,0.68115234375,-8.4228515625,1.52587890625,-5.31005859375,-3.3782958984375,44.241943359375,177.242431640625
1760967318.693284,-0.77197265625,-0.04736328125,0.67578125,-9.033203125,2.50244140625,-4.69970703125,-3.504638671875,44.2694091796875,177.1820068359375
1760967318.7004151,-0.77197265625,-0.04736328125,0.67578125,-9.033203125,2.50244140625,-4.69970703125,-3.636474609375,44.296875,177.1270751953125
1760967318.713067,-0.74169921875,-0.07861328125,0.6201171875,-6.7138671875,2.8076171875,-4.5166015625,-3.746337890625,44.329833984375,177.0721435546875
1760967318.7295432,-0.74169921875,-0.07861328125,0.6201171875,-6.7138671875,2.8076171875,-4.5166015625,-3.856201171875,44.36279296875,177.022705078125
1760967318.7423806,-0.75146484375,-0.0693359375,0.7080078125,-1.953125,2.38037109375,-4.45556640625,-3.9166259765625,44.395751953125,176.9732666015625
1760967318.7494118,-0.75146484375,-0.0693359375,0.7080078125,-1.953125,2.38037109375,-4.45556640625,-3.97705078125,44.4232177734375,176.923828125
1760967318.7578847,-0.744140625,-0.0556640625,0.64599609375,-2.3193359375,2.13623046875,-4.69970703125,-4.0484619140625,44.4561767578125,176.8743896484375
1760967318.7645557,-0.744140625,-0.0556640625,0.64599609375,-2.3193359375,2.13623046875,-4.69970703125,-4.119873046875,44.483642578125,176.8194580078125
1760967318.770864,-0.751953125,-0.06787109375,0.6435546875,-0.42724609375,1.708984375,-4.57763671875,-4.1693115234375,44.5111083984375,176.7755126953125
1760967318.7796,-0.751953125,-0.06787109375,0.6435546875,-0.42724609375,1.708984375,-4.57763671875,-4.21875,44.5440673828125,176.72607421875
1760967318.7859037,-0.7392578125,-0.0673828125,0.6748046875,0.1220703125,1.40380859375,-3.7841796875,-4.2572021484375,44.571533203125,176.693115234375
1760967318.7958233,-0.7392578125,-0.0673828125,0.6748046875,0.1220703125,1.40380859375,-3.7841796875,-4.295654296875,44.593505859375,176.66015625
1760967318.8020406,-0.732421875,-0.052734375,0.70458984375,-1.5869140625,1.64794921875,-2.99072265625,-4.3450927734375,44.62646484375,176.6326904296875
1760967318.8084211,-0.732421875,-0.052734375,0.70458984375,-1.5869140625,1.64794921875,-2.99072265625,-4.39453125,44.6539306640625,176.605224609375
1760967318.8148494,-0.72314453125,-0.05859375,0.70263671875,-0.91552734375,2.3193359375,-2.5634765625,-4.427490234375,44.6868896484375,176.583251953125
1760967318.8226664,-0.72314453125,-0.05859375,0.70263671875,-0.91552734375,2.3193359375,-2.5634765625,-4.4659423828125,44.7198486328125,176.5557861328125
1760967318.8292754,-0.71875,-0.05517578125,0.6982421875,-0.67138671875,2.99072265625,-2.685546875,-4.50439453125,44.7637939453125,176.5283203125
1760967318.837853,-0.71875,-0.05517578125,0.6982421875,-0.67138671875,2.99072265625,-2.685546875,-4.537353515625,44.80224609375,176.5008544921875
1760967318.8597627,-0.71240234375,-0.05224609375,0.71484375,-1.03759765625,3.0517578125,-2.86865234375,-4.581298828125,44.835205078125,176.4678955078125
1760967318.866175,-0.71240234375,-0.05224609375,0.71484375,-1.03759765625,3.0517578125,-2.86865234375,-4.6197509765625,44.8736572265625,176.4349365234375
1760967318.8732343,-0.701171875,-0.05078125,0.7138671875,-1.03759765625,2.62451171875,-3.11279296875,-4.6636962890625,44.9066162109375,176.396484375
1760967318.8819633,-0.701171875,-0.05078125,0.7138671875,-1.03759765625,2.62451171875,-3.11279296875,-4.7021484375,44.93408203125,176.3580322265625
1760967318.9054046,-0.69384765625,-0.05322265625,0.70751953125,-0.18310546875,1.8310546875,-3.41796875,-4.7406005859375,44.9560546875,176.3140869140625
1760967318.9123404,-0.69384765625,-0.05322265625,0.70751953125,-0.18310546875,1.8310546875,-3.41796875,-4.7735595703125,44.9725341796875,176.2646484375
1760967318.91965,-0.70458984375,-0.04833984375,0.70849609375,-1.3427734375,1.0986328125,-3.47900390625,-4.822998046875,44.989013671875,176.220703125
1760967318.9267638,-0.70458984375,-0.04833984375,0.70849609375,-1.3427734375,1.0986328125,-3.47900390625,-4.866943359375,45.0,176.1712646484375
1760967318.9347348,-0.7109375,-0.07177734375,0.7060546875,-1.77001953125,0.67138671875,-3.60107421875,-4.9163818359375,45.0054931640625,176.121826171875
1760967318.9557846,-0.7109375,-0.07177734375,0.7060546875,-1.77001953125,0.67138671875,-3.60107421875,-4.9713134765625,45.010986328125,176.0723876953125
1760967318.9738681,-0.7158203125,-0.07666015625,0.7080078125,-0.6103515625,0.67138671875,-3.2958984375,-5.0042724609375,45.0164794921875,176.0284423828125
1760967318.9806583,-0.7158203125,-0.07666015625,0.7080078125,-0.6103515625,0.67138671875,-3.2958984375,-5.042724609375,45.02197265625,175.97900390625
1760967318.9875169,-0.7060546875,-0.076171875,0.69384765625,1.708984375,0.732421875,-3.173828125,-5.0592041015625,45.0274658203125,175.93505859375
1760967318.9983184,-0.7060546875,-0.076171875,0.69384765625,1.708984375,0.732421875,-3.173828125,-5.07568359375,45.032958984375,175.8856201171875
1760967319.0152204,-0.70751953125,-0.07861328125,0.7255859375,1.220703125,0.9765625,-2.62451171875,-5.0921630859375,45.0439453125,175.84716796875
1760967319.0234551,-0.70751953125,-0.07861328125,0.7255859375,1.220703125,0.9765625,-2.62451171875,-5.108642578125,45.0494384765625,175.80322265625
1760967319.031159,-0.7109375,-0.068359375,0.7060546875,0.8544921875,1.0986328125,-2.13623046875,-5.11962890625,45.0604248046875,175.770263671875
1760967319.0396955,-0.7109375,-0.068359375,0.7060546875,0.8544921875,1.0986328125,-2.13623046875,-5.1361083984375,45.0714111328125,175.7373046875
1760967319.0538664,-0.7119140625,-0.06005859375,0.697265625,1.15966796875,0.91552734375,-1.953125,-5.1470947265625,45.076904296875,175.704345703125
1760967319.0611207,-0.7119140625,-0.06005859375,0.697265625,1.15966796875,0.91552734375,-1.953125,-5.1580810546875,45.0823974609375,175.6768798828125
1760967319.0677607,-0.71142578125,-0.0634765625,0.70703125,1.220703125,0.79345703125,-1.77001953125,-5.16357421875,45.0933837890625,175.6494140625
1760967319.074798,-0.71142578125,-0.0634765625,0.70703125,1.220703125,0.79345703125,-1.77001953125,-5.1690673828125,45.098876953125,175.6219482421875
1760967319.0877972,-0.71533203125,-0.0791015625,0.7041015625,0.42724609375,0.67138671875,-1.0986328125,-5.1800537109375,45.1043701171875,175.5999755859375
1760967319.1102073,-0.71533203125,-0.0791015625,0.7041015625,0.42724609375,0.67138671875,-1.0986328125,-5.185546875,45.10986328125,175.58349609375
1760967319.1275976,-0.71435546875,-0.07275390625,0.70947265625,0.06103515625,0.42724609375,-0.244140625,-5.1910400390625,45.1153564453125,175.5780029296875
1760967319.1450675,-0.71435546875,-0.07275390625,0.70947265625,-1.52587890625,0.30517578125,0.6103515625,-5.196533203125,45.120849609375,175.5780029296875
1760967319.1516035,-0.71826171875,-0.06884765625,0.6982421875,-1.52587890625,0.30517578125,0.6103515625,-5.2130126953125,45.120849609375,175.58349609375
1760967319.1581678,-0.712890625,-0.07568359375,0.7021484375,-1.64794921875,0.18310546875,1.28173828125,-5.218505859375,45.1263427734375,175.5889892578125
1760967319.1755803,-0.712890625,-0.07568359375,0.7021484375,-1.64794921875,0.18310546875,1.28173828125,-5.2239990234375,45.1318359375,175.60546875
1760967319.1923013,-0.71728515625,-0.08447265625,0.70361328125,-1.46484375,0.3662109375,1.89208984375,-5.2294921875,45.1373291015625,175.6219482421875
1760967319.2148004,-0.71728515625,-0.08447265625,0.70361328125,-1.46484375,0.3662109375,1.89208984375,-5.2294921875,45.142822265625,175.6439208984375
1760967319.2288659,-0.7099609375,-0.07470703125,0.68017578125,-1.220703125,0.244140625,1.89208984375,-5.2239990234375,45.1483154296875,175.6658935546875
1760967319.2371068,-0.7099609375,-0.07470703125,0.68017578125,-1.220703125,0.244140625,1.89208984375,-5.2239990234375,45.15380859375,175.6878662109375
1760967319.2514524,-0.70849609375,-0.06298828125,0.70458984375,-0.79345703125,-0.06103515625,1.46484375,-5.2239990234375,45.1593017578125,175.7098388671875
1760967319.258218,-0.70849609375,-0.06298828125,0.70458984375,-0.79345703125,-0.06103515625,1.46484375,-5.218505859375,45.1593017578125,175.726318359375
1760967319.265751,-0.70849609375,-0.04833984375,0.7080078125,-0.79345703125,-0.732421875,0.67138671875,-5.218505859375,45.1593017578125,175.7373046875
1760967319.2795632,-0.70849609375,-0.04833984375,0.7080078125,-0.79345703125,-0.732421875,0.67138671875,-5.218505859375,45.15380859375,175.7427978515625
1760967319.2864487,-0.708984375,-0.05908203125,0.708984375,0.6103515625,-1.0986328125,-0.06103515625,-5.218505859375,45.142822265625,175.7427978515625
1760967319.2945666,-0.708984375,-0.05908203125,0.708984375,0.6103515625,-1.0986328125,-0.06103515625,-5.2130126953125,45.1318359375,175.7427978515625
1760967319.3142097,-0.7080078125,-0.05908203125,0.70751953125,2.3193359375,-1.15966796875,-1.03759765625,-5.2020263671875,45.120849609375,175.7318115234375
1760967319.323115,-0.7080078125,-0.05908203125,0.70751953125,2.3193359375,-1.15966796875,-1.03759765625,-5.1910400390625,45.10986328125,175.71533203125
1760967319.3299448,-0.70458984375,-0.06103515625,0.7138671875,3.23486328125,-1.28173828125,-1.77001953125,-5.174560546875,45.0933837890625,175.693359375
1760967319.3376913,-0.70458984375,-0.06103515625,0.7138671875,3.23486328125,-1.28173828125,-1.77001953125,-5.1580810546875,45.0823974609375,175.67138671875
1760967319.3529394,-0.6982421875,-0.0654296875,0.71533203125,3.90625,-1.40380859375,-2.01416015625,-5.1416015625,45.06591796875,175.6439208984375
1760967319.3651397,-0.6982421875,-0.0654296875,0.71533203125,3.90625,-1.40380859375,-2.01416015625,-5.11962890625,45.0494384765625,175.6109619140625
1760967319.3710961,-0.68896484375,-0.07177734375,0.72216796875,3.72314453125,-1.8310546875,-1.77001953125,-5.1031494140625,45.032958984375,175.58349609375
1760967319.377922,-0.68896484375,-0.07177734375,0.72216796875,3.72314453125,-1.8310546875,-1.77001953125,-5.0811767578125,45.010986328125,175.5560302734375
1760967319.3912191,-0.68896484375,-0.07177734375,0.72216796875,2.99072265625,-2.197265625,-1.28173828125,-5.064697265625,44.9835205078125,175.528564453125
1760967319.401207,-0.6865234375,-0.06982421875,0.7421875,2.99072265625,-2.197265625,-1.28173828125,-5.042724609375,44.9560546875,175.506591796875
1760967319.407939,-0.68359375,-0.07177734375,0.7353515625,1.8310546875,-2.74658203125,-0.732421875,-5.03173828125,44.9285888671875,175.4901123046875
1760967319.4233203,-0.68359375,-0.07177734375,0.7353515625,1.8310546875,-2.74658203125,-0.732421875,-5.020751953125,44.8956298828125,175.4681396484375
1760967319.4315717,-0.681640625,-0.07080078125,0.72119140625,2.8076171875,-3.23486328125,-0.3662109375,-4.998779296875,44.8626708984375,175.4571533203125
1760967319.4388573,-0.681640625,-0.07080078125,0.72119140625,2.8076171875,-3.23486328125,-0.3662109375,-4.976806640625,44.82421875,175.4461669921875
1760967319.4463847,-0.68603515625,-0.0712890625,0.72802734375,0.48828125,-3.60107421875,0.3662109375,-4.9603271484375,44.7802734375,175.4351806640625
1760967319.4529815,-0.68603515625,-0.0712890625,0.72802734375,0.48828125,-3.60107421875,0.3662109375,-4.9493408203125,44.7418212890625,175.4351806640625
1760967319.467469,-0.6767578125,-0.080078125,0.74072265625,-0.18310546875,-4.150390625,1.52587890625,-4.9383544921875,44.6978759765625,175.440673828125
1760967319.4764872,-0.6767578125,-0.080078125,0.74072265625,-0.18310546875,-4.150390625,1.52587890625,-4.9273681640625,44.6484375,175.45166015625
1760967319.4827192,-0.66552734375,-0.08251953125,0.74365234375,0.6103515625,-4.5166015625,2.9296875,-4.9053955078125,44.5989990234375,175.4791259765625
1760967319.5066469,-0.66552734375,-0.08251953125,0.74365234375,0.6103515625,-4.5166015625,2.9296875,-4.866943359375,44.549560546875,175.506591796875
1760967319.5131152,-0.66064453125,-0.07177734375,0.74658203125,0.732421875,-5.126953125,4.0283203125,-4.8284912109375,44.5001220703125,175.5450439453125
1760967319.5214832,-0.66064453125,-0.07177734375,0.74658203125,0.732421875,-5.126953125,4.0283203125,-4.7845458984375,44.439697265625,175.5889892578125
1760967319.5326161,-0.65576171875,-0.0595703125,0.759765625,0.06103515625,-5.615234375,4.8828125,-4.7406005859375,44.3792724609375,175.638427734375
1760967319.5484157,-0.65576171875,-0.0595703125,0.759765625,0.06103515625,-5.615234375,4.8828125,-4.691162109375,44.31884765625,175.693359375
1760967319.5548747,-0.6513671875,-0.0673828125,0.7685546875,-0.8544921875,-5.7373046875,5.2490234375,-4.647216796875,44.2529296875,175.748291015625
1760967319.561684,-0.6513671875,-0.0673828125,0.7685546875,-0.8544921875,-5.7373046875,5.2490234375,-4.603271484375,44.18701171875,175.80322265625
1760967319.5691638,-0.65185546875,-0.06787109375,0.765625,-0.48828125,-5.43212890625,5.43212890625,-4.559326171875,44.1265869140625,175.8636474609375
1760967319.5811436,-0.65185546875,-0.06787109375,0.765625,-0.48828125,-5.43212890625,5.43212890625,-4.515380859375,44.0606689453125,175.924072265625
1760967319.6027029,-0.6396484375,-0.0498046875,0.75,1.64794921875,-5.31005859375,5.18798828125,-4.46044921875,43.9947509765625,175.97900390625
1760967319.6095674,-0.6396484375,-0.0498046875,0.75,1.64794921875,-5.31005859375,5.18798828125,-4.39453125,43.934326171875,176.0284423828125
1760967319.6162488,-0.63330078125,-0.052734375,0.7763671875,3.7841796875,-5.67626953125,4.638671875,-4.3231201171875,43.868408203125,176.077880859375
1760967319.6273406,-0.63330078125,-0.052734375,0.7763671875,3.7841796875,-5.67626953125,4.638671875,-4.24072265625,43.7969970703125,176.1273193359375
1760967319.634153,-0.63916015625,-0.04931640625,0.77490234375,2.25830078125,-6.04248046875,3.96728515625,-4.1693115234375,43.7255859375,176.165771484375
1760967319.6490202,-0.63916015625,-0.04931640625,0.77490234375,2.25830078125,-6.04248046875,3.96728515625,-4.10888671875,43.6541748046875,176.2042236328125
1760967319.6554387,-0.66796875,-0.02783203125,0.74951171875,2.38037109375,-6.34765625,3.47900390625,-4.0484619140625,43.5772705078125,176.2371826171875
1760967319.6670754,-0.66796875,-0.02783203125,0.74951171875,2.38037109375,-6.34765625,3.47900390625,-3.988037109375,43.5003662109375,176.2701416015625
1760967319.674441,-0.7119140625,-0.05029296875,0.70703125,1.220703125,-6.16455078125,3.0517578125,-3.9385986328125,43.4234619140625,176.3031005859375
1760967319.6879766,-0.7119140625,-0.05029296875,0.70703125,1.220703125,-6.16455078125,3.0517578125,-3.8946533203125,43.35205078125,176.3360595703125
1760967319.6982853,-0.7490234375,-0.04736328125,0.71435546875,0.91552734375,-5.9814453125,2.685546875,-3.856201171875,43.2861328125,176.3690185546875
1760967319.7055762,-0.7490234375,-0.04736328125,0.71435546875,0.91552734375,-5.9814453125,2.685546875,-3.8177490234375,43.22021484375,176.407470703125
1760967319.7120132,-0.7255859375,-0.0341796875,0.68798828125,3.2958984375,-5.859375,2.44140625,-3.7738037109375,43.1597900390625,176.4404296875
1760967319.7190144,-0.7255859375,-0.0341796875,0.68798828125,3.2958984375,-5.859375,2.44140625,-3.71337890625,43.1048583984375,176.484375
1760967319.7258797,-0.7490234375,-0.04345703125,0.6796875,0.54931640625,-5.126953125,2.44140625,-3.66943359375,43.055419921875,176.5228271484375
1760967319.7345786,-0.7490234375,-0.04345703125,0.6796875,0.54931640625,-5.126953125,2.44140625,-3.636474609375,43.0059814453125,176.5667724609375
1760967319.7426639,-0.73681640625,-0.04248046875,0.6923828125,-0.79345703125,-4.82177734375,2.50244140625,-3.614501953125,42.967529296875,176.6162109375
1760967319.7504468,-0.73681640625,-0.04248046875,0.6923828125,-0.79345703125,-4.82177734375,2.50244140625,-3.5980224609375,42.9290771484375,176.6656494140625
1760967319.7577062,-0.7314453125,-0.03662109375,0.68798828125,-0.42724609375,-4.2724609375,2.74658203125,-3.5760498046875,42.8961181640625,176.7205810546875
1760967319.7655103,-0.7314453125,-0.03662109375,0.68798828125,-0.42724609375,-4.2724609375,2.74658203125,-3.5540771484375,42.86865234375,176.7755126953125
1760967319.7736487,-0.72265625,-0.03173828125,0.689453125,-2.86865234375,-3.96728515625,3.11279296875,-3.5430908203125,42.8411865234375,176.8414306640625
1760967319.7822073,-0.72265625,-0.03173828125,0.689453125,-2.86865234375,-3.96728515625,3.11279296875,-3.5430908203125,42.8192138671875,176.9073486328125
1760967319.790064,-0.71435546875,-0.0419921875,0.71484375,-4.638671875,-3.7841796875,3.84521484375,-3.5430908203125,42.7972412109375,176.978759765625
1760967319.7977786,-0.71435546875,-0.0419921875,0.71484375,-4.638671875,-3.7841796875,3.84521484375,-3.5540771484375,42.7752685546875,177.0556640625
1760967319.805426,-0.70849609375,-0.064453125,0.7060546875,-6.103515625,-3.90625,4.5166015625,-3.5650634765625,42.7532958984375,177.132568359375
1760967319.812144,-0.70849609375,-0.064453125,0.7060546875,-6.103515625,-3.90625,4.5166015625,-3.5870361328125,42.7313232421875,177.220458984375
1760967319.8202455,-0.71142578125,-0.06005859375,0.69970703125,-5.67626953125,-4.0283203125,5.126953125,-3.5980224609375,42.7093505859375,177.308349609375
1760967319.8290246,-0.71142578125,-0.06005859375,0.69970703125,-5.67626953125,-4.0283203125,5.126953125,-3.6090087890625,42.6873779296875,177.4017333984375
1760967319.8355792,-0.7060546875,-0.0478515625,0.697265625,-4.2724609375,-4.150390625,5.67626953125,-3.6090087890625,42.6654052734375,177.4951171875
1760967319.8437033,-0.7060546875,-0.0478515625,0.697265625,-4.2724609375,-4.150390625,5.67626953125,-3.5980224609375,42.6434326171875,177.5994873046875
1760967319.8501744,-0.71533203125,-0.0390625,0.69970703125,-4.5166015625,-3.7841796875,5.92041015625,-3.592529296875,42.6214599609375,177.6983642578125
1760967319.8572826,-0.71533203125,-0.0390625,0.69970703125,-4.5166015625,-3.7841796875,5.92041015625,-3.58154296875,42.60498046875,177.8082275390625
1760967319.8638783,-0.69921875,-0.04736328125,0.71240234375,-5.0048828125,-3.96728515625,5.92041015625,-3.5760498046875,42.5830078125,177.91259765625
1760967319.870946,-0.69921875,-0.04736328125,0.71240234375,-5.0048828125,-3.96728515625,5.92041015625,-3.570556640625,42.5665283203125,178.0169677734375
1760967319.8781297,-0.6943359375,-0.06494140625,0.72265625,-3.72314453125,-4.21142578125,5.859375,-3.5595703125,42.5445556640625,178.121337890625
1760967319.8858728,-0.6943359375,-0.06494140625,0.72265625,-3.72314453125,-4.21142578125,5.859375,-3.5430908203125,42.51708984375,178.2257080078125
1760967319.8919961,-0.6796875,-0.04638671875,0.7236328125,-1.64794921875,-4.7607421875,5.7373046875,-3.5211181640625,42.4896240234375,178.3245849609375
1760967319.8981948,-0.6796875,-0.04638671875,0.7236328125,-1.64794921875,-4.7607421875,5.7373046875,-3.482666015625,42.462158203125,178.4234619140625
1760967319.9056165,-0.67041015625,-0.0234375,0.74658203125,-0.9765625,-5.43212890625,5.37109375,-3.44970703125,42.4237060546875,178.5223388671875
1760967319.9118814,-0.67041015625,-0.0234375,0.74658203125,-0.9765625,-5.43212890625,5.37109375,-3.40576171875,42.38525390625,178.61572265625
1760967319.918226,-0.66650390625,-0.033203125,0.7509765625,-0.8544921875,-5.615234375,4.8828125,-3.3673095703125,42.34130859375,178.7091064453125
1760967319.924632,-0.66650390625,-0.033203125,0.7509765625,-0.8544921875,-5.615234375,4.8828125,-3.328857421875,42.29736328125,178.79150390625
1760967319.9318223,-0.64990234375,-0.0341796875,0.77001953125,-2.86865234375,-5.43212890625,4.33349609375,-3.306884765625,42.25341796875,178.8739013671875
1760967319.9448023,-0.64990234375,-0.0341796875,0.77001953125,-2.86865234375,-5.43212890625,4.33349609375,-3.2904052734375,42.20947265625,178.9508056640625
1760967319.9527626,-0.6474609375,-0.0361328125,0.77001953125,-5.31005859375,-5.18798828125,3.96728515625,-3.2904052734375,42.1600341796875,179.022216796875
1760967319.959898,-0.6474609375,-0.0361328125,0.77001953125,-5.31005859375,-5.18798828125,3.96728515625,-3.306884765625,42.1160888671875,179.0936279296875
1760967319.9669054,-0.6484375,-0.0458984375,0.77001953125,-4.82177734375,-5.18798828125,3.60107421875,-3.31787109375,42.066650390625,179.154052734375
1760967319.9732404,-0.6484375,-0.0458984375,0.77001953125,-4.82177734375,-5.18798828125,3.60107421875,-3.328857421875,42.0172119140625,179.2144775390625
1760967319.9890358,-0.65234375,-0.0400390625,0.75732421875,-2.62451171875,-5.4931640625,3.41796875,-3.328857421875,41.9677734375,179.27490234375
1760967319.9957113,-0.65234375,-0.0400390625,0.75732421875,-2.62451171875,-5.4931640625,3.41796875,-3.3233642578125,41.912841796875,179.3353271484375
1760967320.0031037,-0.65283203125,-0.03125,0.7607421875,-1.77001953125,-5.92041015625,3.173828125,-3.3123779296875,41.85791015625,179.3902587890625
1760967320.013396,-0.65283203125,-0.03125,0.7607421875,-1.77001953125,-5.92041015625,3.173828125,-3.2958984375,41.7974853515625,179.4451904296875
1760967320.0303223,-0.66259765625,-0.0380859375,0.7626953125,-3.2958984375,-5.9814453125,3.2958984375,-3.2904052734375,41.737060546875,179.5001220703125
1760967320.0377836,-0.66259765625,-0.0380859375,0.7626953125,-3.2958984375,-5.9814453125,3.2958984375,-3.284912109375,41.68212890625,179.5550537109375
1760967320.0451233,-0.67041015625,-0.0390625,0.7490234375,-5.43212890625,-5.615234375,3.47900390625,-3.2958984375,41.6217041015625,179.615478515625
1760967320.053236,-0.67041015625,-0.0390625,0.7490234375,-5.43212890625,-5.615234375,3.47900390625,-3.3123779296875,41.5667724609375,179.6759033203125
1760967320.063323,-0.6806640625,-0.04931640625,0.74072265625,-5.2490234375,-4.8828125,3.72314453125,-3.328857421875,41.517333984375,179.736328125
1760967320.0779784,-0.6806640625,-0.04931640625,0.74072265625,-5.2490234375,-4.8828125,3.72314453125,-3.3453369140625,41.473388671875,179.80224609375
1760967320.084799,-0.6806640625,-0.04931640625,0.74072265625,-2.62451171875,-4.2724609375,3.84521484375,-3.350830078125,41.429443359375,179.8626708984375
1760967320.093924,-0.67822265625,-0.05810546875,0.7412109375,-2.62451171875,-4.2724609375,3.84521484375,-3.33984375,41.3909912109375,179.93408203125
1760967320.1057286,-0.68408203125,-0.05517578125,0.75,0.244140625,-3.5400390625,3.72314453125,-3.3013916015625,41.363525390625,179.9945068359375
1760967320.1146605,-0.68408203125,-0.05517578125,0.75,0.244140625,-3.5400390625,3.72314453125,-3.2684326171875,41.33056640625,-179.93408203125
1760967320.1308172,-0.6669921875,-0.033203125,0.72802734375,1.3427734375,-2.9296875,3.2958984375,-3.2244873046875,41.30859375,-179.8736572265625
1760967320.1385005,-0.6669921875,-0.033203125,0.72802734375,1.3427734375,-2.9296875,3.2958984375,-3.1805419921875,41.28662109375,-179.8187255859375
1760967320.14709,-0.66845703125,-0.02294921875,0.775390625,-0.06103515625,-2.50244140625,2.74658203125,-3.1585693359375,41.2646484375,-179.7637939453125
1760967320.1619692,-0.66845703125,-0.02294921875,0.775390625,-0.06103515625,-2.50244140625,2.74658203125,-3.131103515625,41.24267578125,-179.71435546875
1760967320.1708486,-0.65869140625,-0.02587890625,0.7451171875,-1.3427734375,-2.3193359375,2.197265625,-3.1256103515625,41.2261962890625,-179.67041015625
1760967320.1778579,-0.65869140625,-0.02587890625,0.7451171875,-1.3427734375,-2.3193359375,2.197265625,-3.1146240234375,41.2042236328125,-179.6209716796875
1760967320.184573,-0.6533203125,-0.0390625,0.7548828125,0.18310546875,-2.25830078125,1.708984375,-3.0926513671875,41.187744140625,-179.58251953125
1760967320.1935773,-0.6533203125,-0.0390625,0.7548828125,0.18310546875,-2.25830078125,1.708984375,-3.076171875,41.165771484375,-179.5440673828125
1760967320.209067,-0.6455078125,-0.03662109375,0.7783203125,1.708984375,-2.50244140625,1.64794921875,-3.043212890625,41.143798828125,-179.5111083984375
1760967320.2157118,-0.6455078125,-0.03662109375,0.7783203125,1.708984375,-2.50244140625,1.64794921875,-3.01025390625,41.121826171875,-179.4781494140625
1760967320.2232807,-0.64892578125,-0.0361328125,0.7568359375,0.732421875,-2.74658203125,1.708984375,-2.9827880859375,41.0943603515625,-179.439697265625
1760967320.233329,-0.64892578125,-0.0361328125,0.7568359375,0.732421875,-2.74658203125,1.708984375,-2.9608154296875,41.06689453125,-179.40673828125
1760967320.2484179,-0.65380859375,-0.02490234375,0.7470703125,-2.62451171875,-3.23486328125,1.64794921875,-2.96630859375,41.0394287109375,-179.373779296875
1760967320.2570412,-0.65380859375,-0.02490234375,0.7470703125,-2.62451171875,-3.23486328125,1.64794921875,-2.977294921875,41.0064697265625,-179.3353271484375
1760967320.2635994,-0.64794921875,-0.03271484375,0.759765625,-5.79833984375,-3.662109375,1.5869140625,-3.0157470703125,40.9735107421875,-179.3023681640625
1760967320.2737813,-0.64794921875,-0.03271484375,0.759765625,-5.79833984375,-3.662109375,1.5869140625,-3.0596923828125,40.93505859375,-179.263916015625
1760967320.283352,-0.64599609375,-0.04443359375,0.7705078125,-6.16455078125,-4.0283203125,1.5869140625,-3.09814453125,40.8966064453125,-179.23095703125
1760967320.2937596,-0.64599609375,-0.04443359375,0.7705078125,-6.16455078125,-4.0283203125,1.5869140625,-3.14208984375,40.858154296875,-179.1925048828125
1760967320.3188627,-0.64599609375,-0.04443359375,0.7705078125,-2.9296875,-4.33349609375,2.01416015625,-3.153076171875,40.814208984375,-179.154052734375
1760967320.3254132,-0.64794921875,-0.0595703125,0.77099609375,-2.9296875,-4.33349609375,2.01416015625,-3.1640625,40.770263671875,-179.1156005859375
1760967320.3329306,-0.6484375,-0.0673828125,0.759765625,-2.197265625,-4.2724609375,2.5634765625,-3.1585693359375,40.726318359375,-179.066162109375
1760967320.340647,-0.6484375,-0.0673828125,0.759765625,-2.197265625,-4.2724609375,2.5634765625,-3.1585693359375,40.6878662109375,-179.022216796875
1760967320.3480558,-0.65185546875,-0.04931640625,0.7744140625,-4.150390625,-3.7841796875,3.5400390625,-3.1695556640625,40.6494140625,-178.9617919921875
1760967320.3565395,-0.65185546875,-0.04931640625,0.7744140625,-4.150390625,-3.7841796875,3.5400390625,-3.1805419921875,40.616455078125,-178.9068603515625
1760967320.3636813,-0.6513671875,-0.02880859375,0.77880859375,-6.89697265625,-3.35693359375,4.21142578125,-3.2135009765625,40.58349609375,-178.8409423828125
1760967320.3737597,-0.6513671875,-0.02880859375,0.77880859375,-6.89697265625,-3.35693359375,4.21142578125,-3.2464599609375,40.550537109375,-178.76953125
1760967320.383481,-0.6474609375,-0.041015625,0.7509765625,-4.150390625,-3.0517578125,4.150390625,-3.2464599609375,40.5230712890625,-178.70361328125
1760967320.3941007,-0.6474609375,-0.041015625,0.7509765625,-4.150390625,-3.0517578125,4.150390625,-3.251953125,40.4901123046875,-178.6376953125
1760967320.4035041,-0.642578125,-0.060546875,0.7705078125,-0.732421875,-3.173828125,3.7841796875,-3.2244873046875,40.462646484375,-178.57177734375
1760967320.4142313,-0.642578125,-0.060546875,0.7705078125,-0.732421875,-3.173828125,3.7841796875,-3.2025146484375,40.4296875,-178.5113525390625
1760967320.4243026,-0.64599609375,-0.04736328125,0.7724609375,3.173828125,-3.41796875,3.173828125,-3.14208984375,40.396728515625,-178.4564208984375
1760967320.4359007,-0.64599609375,-0.04736328125,0.7724609375,3.173828125,-3.41796875,3.173828125,-3.087158203125,40.36376953125,-178.406982421875
1760967320.443809,-0.65283203125,-0.02734375,0.78466796875,2.13623046875,-3.662109375,2.62451171875,-3.043212890625,40.330810546875,-178.3575439453125
1760967320.4577613,-0.65283203125,-0.02734375,0.78466796875,2.13623046875,-3.662109375,2.62451171875,-2.999267578125,40.2923583984375,-178.3135986328125
1760967320.4660857,-0.67333984375,-0.01220703125,0.732421875,1.52587890625,-3.662109375,2.01416015625,-2.96630859375,40.2593994140625,-178.2696533203125
1760967320.473528,-0.67333984375,-0.01220703125,0.732421875,1.52587890625,-3.662109375,2.01416015625,-2.9278564453125,40.2264404296875,-178.2257080078125
1760967320.484901,-0.6962890625,-0.01416015625,0.71923828125,2.25830078125,-3.5400390625,1.0986328125,-2.8948974609375,40.1934814453125,-178.1927490234375
1760967320.4935348,-0.6962890625,-0.01416015625,0.71923828125,2.25830078125,-3.5400390625,1.0986328125,-2.8619384765625,40.166015625,-178.154296875
1760967320.5035872,-0.7001953125,-0.04296875,0.7216796875,4.39453125,-3.173828125,0.1220703125,-2.8125,40.1385498046875,-178.1268310546875
1760967320.5138686,-0.7001953125,-0.04296875,0.7216796875,4.39453125,-3.173828125,0.1220703125,-2.7630615234375,40.1165771484375,-178.099365234375
1760967320.5237517,-0.68310546875,-0.0537109375,0.751953125,5.859375,-2.86865234375,-0.42724609375,-2.7081298828125,40.10009765625,-178.077392578125
1760967320.5347269,-0.68310546875,-0.0537109375,0.751953125,5.859375,-2.86865234375,-0.42724609375,-2.6531982421875,40.0836181640625,-178.055419921875
1760967320.5435426,-0.6630859375,-0.0322265625,0.7646484375,4.33349609375,-2.62451171875,-0.48828125,-2.61474609375,40.067138671875,-178.0389404296875
1760967320.553701,-0.6630859375,-0.0322265625,0.7646484375,4.33349609375,-2.62451171875,-0.48828125,-2.5762939453125,40.0506591796875,-178.0224609375
1760967320.5650258,-0.65576171875,-0.0009765625,0.74169921875,2.01416015625,-2.62451171875,-0.54931640625,-2.5653076171875,40.0286865234375,-178.0059814453125
1760967320.5803292,-0.65576171875,-0.0009765625,0.74169921875,2.01416015625,-2.62451171875,-0.54931640625,-2.5433349609375,40.01220703125,-177.9840087890625
1760967320.588311,-0.64990234375,-0.025390625,0.7802734375,-1.40380859375,-2.13623046875,-0.18310546875,-2.559814453125,40.001220703125,-177.9620361328125
1760967320.597311,-0.64990234375,-0.025390625,0.7802734375,-1.40380859375,-2.13623046875,-0.18310546875,-2.57080078125,39.990234375,-177.9400634765625
1760967320.6056151,-0.6416015625,-0.06005859375,0.78955078125,-2.685546875,-1.220703125,0.54931640625,-2.5927734375,39.9847412109375,-177.91259765625
1760967320.625559,-0.6416015625,-0.06005859375,0.78955078125,-2.685546875,-1.220703125,0.54931640625,-2.61474609375,39.979248046875,-177.8851318359375
1760967320.6320632,-0.62548828125,-0.06640625,0.75830078125,-0.30517578125,-0.67138671875,1.15966796875,-2.6092529296875,39.9737548828125,-177.8521728515625
1760967320.6406236,-0.62548828125,-0.06640625,0.75830078125,-0.30517578125,-0.67138671875,1.15966796875,-2.603759765625,39.9737548828125,-177.8192138671875
1760967320.6477823,-0.619140625,-0.0361328125,0.7900390625,2.25830078125,-0.67138671875,1.28173828125,-2.5762939453125,39.96826171875,-177.791748046875
1760967320.6643684,-0.619140625,-0.0361328125,0.7900390625,2.25830078125,-0.67138671875,1.28173828125,-2.5433349609375,39.9627685546875,-177.7587890625
1760967320.671637,-0.61376953125,-0.0341796875,0.810546875,1.708984375,-0.732421875,1.220703125,-2.5213623046875,39.957275390625,-177.73681640625
1760967320.6785805,-0.61376953125,-0.0341796875,0.810546875,1.708984375,-0.732421875,1.220703125,-2.493896484375,39.9517822265625,-177.7093505859375
1760967320.6873012,-0.630859375,-0.01904296875,0.7734375,2.9296875,-0.67138671875,0.48828125,-2.4609375,39.9407958984375,-177.69287109375
1760967320.6963477,-0.630859375,-0.01904296875,0.7734375,2.9296875,-0.67138671875,0.48828125,-2.427978515625,39.9298095703125,-177.681884765625
1760967320.7044232,-0.6513671875,0.0048828125,0.763671875,2.9296875,-0.18310546875,-0.732421875,-2.406005859375,39.9298095703125,-177.6763916015625
1760967320.714787,-0.6513671875,0.0048828125,0.763671875,2.9296875,-0.18310546875,-0.732421875,-2.3785400390625,39.92431640625,-177.6708984375
1760967320.7250288,-0.65283203125,-0.01123046875,0.7666015625,2.13623046875,0.42724609375,-1.89208984375,-2.373046875,39.92431640625,-177.681884765625
1760967320.7338588,-0.65283203125,-0.01123046875,0.7666015625,2.13623046875,0.42724609375,-1.89208984375,-2.362060546875,39.9298095703125,-177.69287109375
1760967320.747769,-0.64794921875,-0.04052734375,0.77587890625,0.8544921875,0.8544921875,-2.38037109375,-2.373046875,39.935302734375,-177.7093505859375
1760967320.7553852,-0.64794921875,-0.04052734375,0.77587890625,0.8544921875,0.8544921875,-2.38037109375,-2.384033203125,39.9407958984375,-177.7313232421875
1760967320.7667325,-0.64697265625,-0.02734375,0.77099609375,-0.18310546875,0.91552734375,-2.38037109375,-2.4005126953125,39.9517822265625,-177.747802734375
1760967320.775515,-0.64697265625,-0.02734375,0.77099609375,-0.18310546875,0.91552734375,-2.38037109375,-2.4224853515625,39.957275390625,-177.769775390625
1760967320.78565,-0.642578125,-0.03662109375,0.775390625,-0.48828125,0.91552734375,-2.197265625,-2.4444580078125,39.9627685546875,-177.7862548828125
1760967320.7938957,-0.642578125,-0.03662109375,0.775390625,-0.48828125,0.91552734375,-2.197265625,-2.4664306640625,39.9737548828125,-177.802734375
1760967320.8045926,-0.64794921875,-0.04296875,0.7626953125,-1.03759765625,0.67138671875,-2.01416015625,-2.493896484375,39.979248046875,-177.8192138671875
1760967320.8172421,-0.64794921875,-0.04296875,0.7626953125,-1.03759765625,0.67138671875,-2.01416015625,-2.515869140625,39.9847412109375,-177.835693359375
1760967320.8279357,-0.65234375,-0.02001953125,0.7548828125,-0.54931640625,0.3662109375,-2.5634765625,-2.5433349609375,39.9847412109375,-177.857666015625
1760967320.8356066,-0.65234375,-0.02001953125,0.7548828125,-0.54931640625,0.3662109375,-2.5634765625,-2.57080078125,39.990234375,-177.879638671875
1760967320.8461063,-0.64599609375,-0.0078125,0.77392578125,-0.8544921875,0.244140625,-3.23486328125,-2.603759765625,39.990234375,-177.9071044921875
1760967320.8538113,-0.64599609375,-0.0078125,0.77392578125,-0.8544921875,0.244140625,-3.23486328125,-2.6312255859375,39.990234375,-177.9345703125
1760967320.8648462,-0.64208984375,-0.04443359375,0.78271484375,-2.01416015625,0.42724609375,-3.173828125,-2.6751708984375,39.9957275390625,-177.9620361328125
1760967320.8740833,-0.64208984375,-0.04443359375,0.78271484375,-2.01416015625,0.42724609375,-3.173828125,-2.7191162109375,39.9957275390625,-177.989501953125
1760967320.8844197,-0.64013671875,-0.05712890625,0.7880859375,-2.74658203125,1.03759765625,-2.44140625,-2.7630615234375,40.001220703125,-178.011474609375
1760967320.8941422,-0.64013671875,-0.05712890625,0.7880859375,-2.74658203125,1.03759765625,-2.44140625,-2.8125,40.01220703125,-178.033447265625
1760967320.9046595,-0.638671875,-0.05126953125,0.77294921875,-1.708984375,1.708984375,-1.77001953125,-2.845458984375,40.023193359375,-178.0499267578125
1760967320.9149907,-0.638671875,-0.05126953125,0.77294921875,-1.708984375,1.708984375,-1.77001953125,-2.8729248046875,40.0396728515625,-178.06640625
1760967320.924268,-0.6376953125,-0.0400390625,0.77587890625,-1.77001953125,2.01416015625,-1.220703125,-2.9058837890625,40.05615234375,-178.0718994140625
1760967320.9352334,-0.6376953125,-0.0400390625,0.77587890625,-1.77001953125,2.01416015625,-1.220703125,-2.933349609375,40.0726318359375,-178.0828857421875
1760967320.9439688,-0.6279296875,-0.060546875,0.78564453125,-0.732421875,1.77001953125,-0.91552734375,-2.9443359375,40.089111328125,-178.08837890625
1760967320.9547276,-0.6279296875,-0.060546875,0.78564453125,-0.732421875,1.77001953125,-0.91552734375,-2.9608154296875,40.10009765625,-178.0938720703125
1760967320.9667797,-0.6279296875,-0.03564453125,0.76220703125,1.3427734375,1.40380859375,-1.28173828125,-2.9608154296875,40.111083984375,-178.1048583984375
1760967320.9746807,-0.6279296875,-0.03564453125,0.76220703125,1.3427734375,1.40380859375,-1.28173828125,-2.9608154296875,40.1220703125,-178.121337890625
1760967320.984178,-0.63134765625,-0.02783203125,0.78955078125,1.5869140625,1.220703125,-1.8310546875,-2.9608154296875,40.1275634765625,-178.1378173828125
1760967320.9965098,-0.63134765625,-0.02783203125,0.78955078125,1.5869140625,1.220703125,-1.8310546875,-2.9608154296875,40.133056640625,-178.1597900390625
1760967321.005783,-0.62841796875,-0.03466796875,0.78125,-0.30517578125,1.220703125,-2.01416015625,-2.977294921875,40.1385498046875,-178.1817626953125
1760967321.016644,-0.62841796875,-0.03466796875,0.78125,-0.30517578125,1.220703125,-2.01416015625,-2.999267578125,40.14404296875,-178.2037353515625
1760967321.025451,-0.6240234375,-0.04833984375,0.77685546875,-0.6103515625,1.40380859375,-2.01416015625,-3.021240234375,40.1495361328125,-178.2257080078125
1760967321.0345204,-0.6240234375,-0.04833984375,0.77685546875,-0.6103515625,1.40380859375,-2.01416015625,-3.043212890625,40.1605224609375,-178.253173828125
1760967321.0439608,-0.60888671875,-0.04931640625,0.80712890625,0.48828125,1.953125,-2.0751953125,-3.05419921875,40.1715087890625,-178.2806396484375
1760967321.0550492,-0.60888671875,-0.04931640625,0.80712890625,0.48828125,1.953125,-2.0751953125,-3.0706787109375,40.177001953125,-178.30810546875
1760967321.0709448,-0.59716796875,-0.03857421875,0.83935546875,2.685546875,2.685546875,-2.38037109375,-3.065185546875,40.1934814453125,-178.3465576171875
1760967321.078972,-0.59716796875,-0.03857421875,0.83935546875,2.685546875,2.685546875,-2.38037109375,-3.0596923828125,40.2099609375,-178.385009765625
1760967321.0859597,-0.60205078125,-0.0166015625,0.8076171875,3.662109375,2.9296875,-3.11279296875,-3.0487060546875,40.220947265625,-178.4344482421875
1760967321.09473,-0.60205078125,-0.0166015625,0.8076171875,3.662109375,2.9296875,-3.11279296875,-3.0377197265625,40.2374267578125,-178.48388671875
1760967321.1106179,-0.60986328125,-0.01318359375,0.78564453125,4.45556640625,2.685546875,-4.33349609375,-3.0267333984375,40.242919921875,-178.5443115234375
1760967321.1205125,-0.60986328125,-0.01318359375,0.78564453125,4.45556640625,2.685546875,-4.33349609375,-3.0157470703125,40.25390625,-178.6102294921875
1760967321.127588,-0.611328125,-0.03173828125,0.8037109375,3.47900390625,2.13623046875,-5.2490234375,-3.021240234375,40.2593994140625,-178.6871337890625
1760967321.135751,-0.62744140625,-0.04541015625,0.77392578125,4.08935546875,1.40380859375,-5.615234375,-3.0267333984375,40.2593994140625,-178.76953125
1760967321.1459093,-0.62744140625,-0.04541015625,0.77392578125,4.08935546875,1.40380859375,-5.615234375,-3.0322265625,40.25390625,-178.8519287109375
1760967321.1603534,-0.6396484375,-0.05419921875,0.77734375,5.7373046875,0.732421875,-5.67626953125,-3.0267333984375,40.2484130859375,-178.9288330078125
1760967321.1679642,-0.6396484375,-0.05419921875,0.77734375,5.7373046875,0.732421875,-5.67626953125,-3.0157470703125,40.242919921875,-179.01123046875
1760967321.1780932,-0.654296875,-0.05419921875,0.74267578125,7.38525390625,0.244140625,-5.37109375,-2.999267578125,40.23193359375,-179.0936279296875
1760967321.1845937,-0.654296875,-0.05419921875,0.74267578125,7.38525390625,0.244140625,-5.37109375,-2.96630859375,40.220947265625,-179.1650390625
1760967321.194346,-0.65771484375,-0.0458984375,0.73291015625,9.27734375,-0.1220703125,-4.94384765625,-2.9278564453125,40.2099609375,-179.2364501953125
1760967321.2105436,-0.65771484375,-0.0458984375,0.73291015625,9.27734375,-0.1220703125,-4.94384765625,-2.87841796875,40.198974609375,-179.3023681640625
1760967321.2193058,-0.6591796875,-0.05615234375,0.76123046875,7.2021484375,-0.30517578125,-4.08935546875,-2.83447265625,40.1934814453125,-179.36279296875
1760967321.226983,-0.6591796875,-0.05615234375,0.76123046875,7.2021484375,-0.30517578125,-4.08935546875,-2.801513671875,40.1824951171875,-179.417724609375
1760967321.2346594,-0.65771484375,-0.04052734375,0.75341796875,4.45556640625,0.0,-3.23486328125,-2.779541015625,40.177001953125,-179.4671630859375
1760967321.244394,-0.65771484375,-0.04052734375,0.75341796875,4.45556640625,0.0,-3.23486328125,-2.7630615234375,40.1715087890625,-179.505615234375
1760967321.2593162,-0.658203125,-0.037109375,0.7724609375,1.03759765625,0.3662109375,-2.25830078125,-2.7630615234375,40.1715087890625,-179.53857421875
1760967321.2655313,-0.658203125,-0.037109375,0.7724609375,1.03759765625,0.3662109375,-2.25830078125,-2.7740478515625,40.1715087890625,-179.5660400390625
1760967321.2741702,-0.66845703125,-0.03515625,0.75927734375,0.91552734375,0.91552734375,-1.77001953125,-2.7850341796875,40.177001953125,-179.5880126953125
1760967321.2865167,-0.66845703125,-0.03515625,0.75927734375,0.91552734375,0.91552734375,-1.77001953125,-2.79052734375,40.18798828125,-179.6099853515625
1760967321.3030288,-0.67236328125,-0.04296875,0.751953125,3.662109375,1.28173828125,-1.89208984375,-2.7850341796875,40.1934814453125,-179.62646484375
1760967321.3115034,-0.67236328125,-0.04296875,0.751953125,3.662109375,1.28173828125,-1.89208984375,-2.7685546875,40.2099609375,-179.6484375
1760967321.3202996,-0.67822265625,-0.0263671875,0.74072265625,2.99072265625,1.52587890625,-2.38037109375,-2.757568359375,40.2264404296875,-179.67041015625
1760967321.3302915,-0.67822265625,-0.0263671875,0.74072265625,2.99072265625,1.52587890625,-2.38037109375,-2.74658203125,40.242919921875,-179.6923828125
1760967321.3375437,-0.677734375,-0.0322265625,0.75634765625,-0.30517578125,2.01416015625,-2.38037109375,-2.757568359375,40.2593994140625,-179.71435546875
1760967321.3522232,-0.677734375,-0.0322265625,0.75634765625,-0.30517578125,2.01416015625,-2.38037109375,-2.779541015625,40.286865234375,-179.736328125
1760967321.3587136,-0.67138671875,-0.037109375,0.75439453125,-0.48828125,2.685546875,-2.3193359375,-2.8070068359375,40.3143310546875,-179.75830078125
1760967321.3654244,-0.67138671875,-0.037109375,0.75439453125,-0.48828125,2.685546875,-2.3193359375,-2.8289794921875,40.341796875,-179.7747802734375
1760967321.3748434,-0.66650390625,-0.02783203125,0.75439453125,0.91552734375,3.0517578125,-2.50244140625,-2.8509521484375,40.374755859375,-179.7967529296875
1760967321.3858087,-0.66650390625,-0.02783203125,0.75439453125,0.91552734375,3.0517578125,-2.50244140625,-2.8619384765625,40.40771484375,-179.82421875
1760967321.3954513,-0.6572265625,-0.02392578125,0.7529296875,1.64794921875,3.2958984375,-2.9296875,-2.8729248046875,40.4461669921875,-179.84619140625
1760967321.4070106,-0.6572265625,-0.02392578125,0.7529296875,1.64794921875,3.2958984375,-2.9296875,-2.8839111328125,40.4791259765625,-179.879150390625
1760967321.4149697,-0.63720703125,-0.0439453125,0.76708984375,2.0751953125,2.99072265625,-3.173828125,-2.889404296875,40.5120849609375,-179.9066162109375
1760967321.4251356,-0.63720703125,-0.0439453125,0.76708984375,2.0751953125,2.99072265625,-3.173828125,-2.8948974609375,40.5450439453125,-179.9395751953125
1760967321.435201,-0.62744140625,-0.0576171875,0.783203125,1.64794921875,2.5634765625,-2.86865234375,-2.900390625,40.572509765625,-179.9725341796875
1760967321.4477885,-0.62744140625,-0.0576171875,0.783203125,1.64794921875,2.5634765625,-2.86865234375,-2.911376953125,40.594482421875,179.9835205078125
1760967321.4549649,-0.634765625,-0.0439453125,0.771484375,2.13623046875,2.0751953125,-2.44140625,-2.9168701171875,40.616455078125,179.9560546875
1760967321.467252,-0.634765625,-0.0439453125,0.771484375,2.13623046875,2.0751953125,-2.44140625,-2.9168701171875,40.638427734375,179.923095703125
1760967321.475264,-0.6455078125,-0.04345703125,0.765625,3.72314453125,1.64794921875,-2.3193359375,-2.911376953125,40.6494140625,179.89013671875
1760967321.4845421,-0.6455078125,-0.04345703125,0.765625,3.72314453125,1.64794921875,-2.3193359375,-2.8948974609375,40.6658935546875,179.857177734375
1760967321.4957492,-0.6416015625,-0.052734375,0.767578125,4.2724609375,1.46484375,-1.89208984375,-2.8729248046875,40.6768798828125,179.8297119140625
1760967321.5054202,-0.6416015625,-0.052734375,0.767578125,4.2724609375,1.46484375,-1.89208984375,-2.8509521484375,40.6878662109375,179.80224609375
1760967321.5149574,-0.64208984375,-0.03173828125,0.7705078125,4.150390625,1.3427734375,-1.708984375,-2.8289794921875,40.6988525390625,179.7747802734375
1760967321.5281432,-0.64208984375,-0.03173828125,0.7705078125,4.150390625,1.3427734375,-1.708984375,-2.801513671875,40.704345703125,179.747314453125
1760967321.5389476,-0.65380859375,-0.029296875,0.76611328125,3.72314453125,1.3427734375,-1.5869140625,-2.779541015625,40.71533203125,179.725341796875
1760967321.5468295,-0.65380859375,-0.029296875,0.76611328125,3.72314453125,1.3427734375,-1.5869140625,-2.757568359375,40.726318359375,179.6978759765625
1760967321.5550308,-0.65478515625,-0.037109375,0.76220703125,1.8310546875,1.3427734375,-1.5869140625,-2.74658203125,40.7318115234375,179.6759033203125
1760967321.5682619,-0.65478515625,-0.037109375,0.76220703125,1.8310546875,1.3427734375,-1.5869140625,-2.7410888671875,40.7427978515625,179.6539306640625
1760967321.5783105,-0.65576171875,-0.044921875,0.75732421875,3.41796875,1.220703125,-1.708984375,-2.7301025390625,40.7537841796875,179.6319580078125
1760967321.5859876,-0.65576171875,-0.044921875,0.75732421875,3.41796875,1.220703125,-1.708984375,-2.713623046875,40.75927734375,179.6044921875
1760967321.5967066,-0.64990234375,-0.03466796875,0.763671875,4.21142578125,0.9765625,-2.01416015625,-2.691650390625,40.770263671875,179.5770263671875
1760967321.605179,-0.64990234375,-0.03466796875,0.763671875,4.21142578125,0.9765625,-2.01416015625,-2.669677734375,40.7757568359375,179.549560546875
1760967321.6157444,-0.65087890625,-0.02734375,0.7587890625,3.11279296875,0.79345703125,-1.77001953125,-2.6531982421875,40.78125,179.5220947265625
1760967321.625276,-0.65087890625,-0.02734375,0.7587890625,3.11279296875,0.79345703125,-1.77001953125,-2.63671875,40.7867431640625,179.5001220703125
1760967321.6361558,-0.654296875,-0.0302734375,0.76611328125,0.3662109375,0.67138671875,-1.3427734375,-2.63671875,40.7867431640625,179.4781494140625
1760967321.6464458,-0.654296875,-0.0302734375,0.76611328125,0.3662109375,0.67138671875,-1.3427734375,-2.6422119140625,40.792236328125,179.4561767578125
1760967321.6575847,-0.65185546875,-0.03662109375,0.75927734375,-0.48828125,0.6103515625,-0.9765625,-2.6531982421875,40.7977294921875,179.439697265625
1760967321.6665928,-0.65185546875,-0.03662109375,0.75927734375,-0.48828125,0.6103515625,-0.9765625,-2.669677734375,40.7977294921875,179.4232177734375
1760967321.6800594,-0.64404296875,-0.04443359375,0.7724609375,-0.30517578125,0.6103515625,-0.6103515625,-2.6806640625,40.80322265625,179.4122314453125
1760967321.6888316,-0.64404296875,-0.04443359375,0.7724609375,-0.30517578125,0.6103515625,-0.6103515625,-2.6861572265625,40.8087158203125,179.4012451171875
1760967321.6971843,-0.64501953125,-0.0341796875,0.75927734375,-1.28173828125,0.42724609375,-0.42724609375,-2.70263671875,40.8087158203125,179.3902587890625
1760967321.706997,-0.64501953125,-0.0341796875,0.75927734375,-1.28173828125,0.42724609375,-0.42724609375,-2.7191162109375,40.8087158203125,179.384765625
1760967321.715252,-0.654296875,-0.03076171875,0.76708984375,-1.77001953125,0.30517578125,-0.30517578125,-2.735595703125,40.8087158203125,179.373779296875
1760967321.7271209,-0.654296875,-0.03076171875,0.76708984375,-1.77001953125,0.30517578125,-0.30517578125,-2.757568359375,40.8087158203125,179.3682861328125
1760967321.7347054,-0.6533203125,-0.044921875,0.7587890625,-1.40380859375,0.18310546875,-0.3662109375,-2.7740478515625,40.8087158203125,179.36279296875
1760967321.7761457,-0.6533203125,-0.044921875,0.7587890625,-1.40380859375,0.18310546875,-0.3662109375,-2.79052734375,40.8087158203125,179.3572998046875
1760967321.7824152,-0.64990234375,-0.0400390625,0.751953125,0.3662109375,0.0,-0.42724609375,-2.801513671875,40.8087158203125,179.3463134765625
1760967321.827354,-0.64990234375,-0.0400390625,0.751953125,0.3662109375,0.0,-0.42724609375,-2.801513671875,40.80322265625,179.3353271484375
1760967321.847678,-0.6572265625,-0.03564453125,0.77392578125,1.89208984375,-0.18310546875,-0.54931640625,-2.7960205078125,40.80322265625,179.329833984375
1760967321.8642094,-0.6572265625,-0.03564453125,0.77392578125,1.89208984375,-0.18310546875,-0.54931640625,-2.779541015625,40.7977294921875,179.31884765625
1760967321.8734796,-0.66015625,-0.037109375,0.75244140625,1.89208984375,-0.3662109375,-0.732421875,-2.7685546875,40.792236328125,179.307861328125
1760967321.8858156,-0.66015625,-0.037109375,0.75244140625,1.89208984375,-0.3662109375,-0.732421875,-2.7520751953125,40.7867431640625,179.296875
1760967321.8941228,-0.66845703125,-0.03759765625,0.7529296875,3.2958984375,-0.42724609375,-1.0986328125,-2.735595703125,40.78125,179.2803955078125
1760967321.9003458,-0.66845703125,-0.03759765625,0.7529296875,3.2958984375,-0.42724609375,-1.0986328125,-2.713623046875,40.7757568359375,179.263916015625
1760967321.9353275,-0.67333984375,-0.03662109375,0.73828125,2.99072265625,-0.48828125,-1.28173828125,-2.691650390625,40.770263671875,179.2474365234375
1760967321.9424274,-0.67333984375,-0.03662109375,0.73828125,2.99072265625,-0.48828125,-1.28173828125,-2.6751708984375,40.770263671875,179.23095703125
1760967321.95465,-0.66650390625,-0.041015625,0.7490234375,3.5400390625,-0.732421875,-1.52587890625,-2.6531982421875,40.7647705078125,179.219970703125
1760967321.9637773,-0.66650390625,-0.041015625,0.7490234375,3.5400390625,-0.732421875,-1.52587890625,-2.6312255859375,40.75927734375,179.197998046875
1760967321.9721377,-0.66015625,-0.0390625,0.75732421875,3.84521484375,-1.03759765625,-1.5869140625,-2.6092529296875,40.748291015625,179.1815185546875
1760967321.9831166,-0.66015625,-0.0390625,0.75732421875,3.84521484375,-1.03759765625,-1.5869140625,-2.5872802734375,40.7427978515625,179.1650390625
1760967321.992124,-0.66748046875,-0.02001953125,0.74365234375,4.5166015625,-1.46484375,-1.89208984375,-2.559814453125,40.7318115234375,179.1485595703125
1760967322.000584,-0.66748046875,-0.02001953125,0.74365234375,4.5166015625,-1.46484375,-1.89208984375,-2.5323486328125,40.7208251953125,179.1265869140625
1760967322.0075955,-0.67138671875,-0.0166015625,0.74951171875,3.41796875,-1.89208984375,-2.197265625,-2.5103759765625,40.704345703125,179.1046142578125
1760967322.022459,-0.67138671875,-0.0166015625,0.74951171875,3.41796875,-1.89208984375,-2.197265625,-2.493896484375,40.6878662109375,179.088134765625
1760967322.0319052,-0.7060546875,-0.0302734375,0.72314453125,3.23486328125,-1.46484375,-2.01416015625,-2.4774169921875,40.6768798828125,179.066162109375
1760967322.0389977,-0.7060546875,-0.0302734375,0.72314453125,3.23486328125,-1.46484375,-2.01416015625,-2.4609375,40.6658935546875,179.0496826171875
1760967322.0452816,-0.64697265625,-0.05419921875,0.74462890625,1.03759765625,-1.64794921875,-1.953125,-2.4609375,40.6549072265625,179.0386962890625
1760967322.0522962,-0.64697265625,-0.05419921875,0.74462890625,1.03759765625,-1.64794921875,-1.953125,-2.4664306640625,40.6494140625,179.022216796875
1760967322.0670187,-0.6484375,-0.01904296875,0.7744140625,4.57763671875,-1.64794921875,-2.13623046875,-2.4554443359375,40.638427734375,179.000244140625
1760967322.077283,-0.6484375,-0.01904296875,0.7744140625,4.57763671875,-1.64794921875,-2.13623046875,-2.427978515625,40.6219482421875,178.9837646484375
1760967322.0853484,-0.65478515625,-0.02685546875,0.76611328125,1.708984375,-1.46484375,-1.89208984375,-2.4114990234375,40.6109619140625,178.96728515625
1760967322.1018956,-0.65478515625,-0.02685546875,0.76611328125,1.708984375,-1.46484375,-1.89208984375,-2.4114990234375,40.5999755859375,178.9453125
1760967322.1106005,-0.6416015625,-0.03515625,0.74853515625,1.46484375,-1.52587890625,-1.89208984375,-2.4114990234375,40.5889892578125,178.9288330078125
1760967322.1198106,-0.6416015625,-0.03515625,0.74853515625,1.46484375,-1.52587890625,-1.89208984375,-2.4114990234375,40.5780029296875,178.912353515625
1760967322.1276715,-0.65283203125,-0.03515625,0.78369140625,1.28173828125,-1.28173828125,-1.5869140625,-2.4114990234375,40.5670166015625,178.8958740234375
1760967322.142734,-0.65283203125,-0.03515625,0.78369140625,1.28173828125,-1.28173828125,-1.5869140625,-2.4169921875,40.5560302734375,178.87939453125
1760967322.1518755,-0.646484375,-0.037109375,0.76171875,0.8544921875,-1.03759765625,-1.40380859375,-2.4169921875,40.5450439453125,178.8629150390625
1760967322.160111,-0.646484375,-0.037109375,0.76171875,0.8544921875,-1.03759765625,-1.40380859375,-2.4224853515625,40.5340576171875,178.846435546875
1760967322.167278,-0.64306640625,-0.03125,0.77392578125,0.9765625,-0.9765625,-1.220703125,-2.4224853515625,40.5230712890625,178.8299560546875
1760967322.1751683,-0.64306640625,-0.03125,0.77392578125,0.9765625,-0.9765625,-1.220703125,-2.4224853515625,40.5120849609375,178.8134765625
1760967322.1921816,-0.64013671875,-0.0234375,0.7802734375,0.0,-0.91552734375,-1.220703125,-2.427978515625,40.506591796875,178.802490234375
1760967322.2017126,-0.64013671875,-0.0234375,0.7802734375,0.0,-0.91552734375,-1.220703125,-2.43896484375,40.49560546875,178.7860107421875
1760967322.210566,-0.63671875,-0.03466796875,0.7724609375,-0.732421875,-0.9765625,-1.03759765625,-2.449951171875,40.484619140625,178.76953125
1760967322.2265506,-0.63671875,-0.03466796875,0.7724609375,-0.732421875,-0.9765625,-1.03759765625,-2.4664306640625,40.4736328125,178.7530517578125
1760967322.2348063,-0.63330078125,-0.04736328125,0.7841796875,1.03759765625,-1.15966796875,-0.9765625,-2.471923828125,40.4571533203125,178.7420654296875
1760967322.2435036,-0.63330078125,-0.04736328125,0.7841796875,1.03759765625,-1.15966796875,-0.9765625,-2.471923828125,40.4461669921875,178.7255859375
1760967322.262725,-0.62890625,-0.03564453125,0.7783203125,2.44140625,-1.28173828125,-0.9765625,-2.4609375,40.4296875,178.714599609375
1760967322.2708251,-0.62890625,-0.03564453125,0.7783203125,2.44140625,-1.28173828125,-0.9765625,-2.4444580078125,40.4132080078125,178.6981201171875
1760967322.2824304,-0.62841796875,-0.02587890625,0.78271484375,1.28173828125,-1.46484375,-1.03759765625,-2.43896484375,40.3912353515625,178.6761474609375
1760967322.2907195,-0.62841796875,-0.02587890625,0.78271484375,1.28173828125,-1.46484375,-1.03759765625,-2.43896484375,40.374755859375,178.65966796875
1760967322.300522,-0.62646484375,-0.01416015625,0.77978515625,-1.03759765625,-1.708984375,-0.91552734375,-2.4554443359375,40.352783203125,178.6431884765625
1760967322.3135543,-0.62646484375,-0.01416015625,0.77978515625,-1.03759765625,-1.708984375,-0.91552734375,-2.471923828125,40.3253173828125,178.626708984375
1760967322.3345754,-0.6240234375,-0.02587890625,0.8076171875,-2.01416015625,-1.89208984375,-1.15966796875,-2.4993896484375,40.3033447265625,178.604736328125
1760967322.3434098,-0.6240234375,-0.02587890625,0.8076171875,-2.01416015625,-1.89208984375,-1.15966796875,-2.52685546875,40.27587890625,178.582763671875
1760967322.350473,-0.61962890625,-0.029296875,0.7900390625,-2.99072265625,-1.89208984375,-1.5869140625,-2.5653076171875,40.2484130859375,178.5552978515625
1760967322.3571937,-0.61962890625,-0.029296875,0.7900390625,-2.99072265625,-1.89208984375,-1.5869140625,-2.603759765625,40.220947265625,178.52783203125
1760967322.3684077,-0.623046875,-0.0400390625,0.7841796875,-2.99072265625,-1.953125,-1.708984375,-2.647705078125,40.1934814453125,178.494873046875
1760967322.3871593,-0.623046875,-0.0400390625,0.7841796875,-2.99072265625,-1.953125,-1.708984375,-2.6861572265625,40.166015625,178.4674072265625
1760967322.394667,-0.625,-0.04052734375,0.79443359375,-3.173828125,-2.01416015625,-1.708984375,-2.7301025390625,40.1385498046875,178.4344482421875
1760967322.4041917,-0.625,-0.04052734375,0.79443359375,-3.173828125,-2.01416015625,-1.708984375,-2.7740478515625,40.1055908203125,178.4014892578125
1760967322.4120312,-0.6328125,-0.0390625,0.7841796875,-1.46484375,-2.01416015625,-1.8310546875,-2.801513671875,40.078125,178.3685302734375
1760967322.420483,-0.6328125,-0.0390625,0.7841796875,-1.46484375,-2.01416015625,-1.8310546875,-2.8289794921875,40.0506591796875,178.3355712890625
1760967322.439106,-0.63427734375,-0.03466796875,0.77880859375,-0.732421875,-2.01416015625,-1.8310546875,-2.845458984375,40.0177001953125,178.30810546875
1760967322.4478705,-0.63427734375,-0.03466796875,0.77880859375,-0.732421875,-2.01416015625,-1.8310546875,-2.867431640625,39.990234375,178.275146484375
1760967322.4576802,-0.64501953125,-0.02978515625,0.77001953125,-1.89208984375,-1.89208984375,-1.708984375,-2.8948974609375,39.9627685546875,178.2476806640625
1760967322.4665632,-0.64501953125,-0.02978515625,0.77001953125,-1.89208984375,-1.89208984375,-1.708984375,-2.9278564453125,39.9407958984375,178.22021484375
1760967322.4744065,-0.65869140625,-0.02392578125,0.75390625,-5.55419921875,-1.52587890625,-1.52587890625,-2.98828125,39.9188232421875,178.1982421875
1760967322.495972,-0.65869140625,-0.02392578125,0.75390625,-5.55419921875,-1.52587890625,-1.52587890625,-3.05419921875,39.90234375,178.17626953125
1760967322.5032506,-0.6416015625,-0.03759765625,0.7705078125,-5.615234375,-1.46484375,-1.40380859375,-3.1146240234375,39.88037109375,178.1597900390625
1760967322.511617,-0.6416015625,-0.03759765625,0.7705078125,-5.615234375,-1.46484375,-1.40380859375,-3.1805419921875,39.8638916015625,178.143310546875
1760967322.518238,-0.66259765625,-0.06396484375,0.765625,-5.79833984375,-1.28173828125,-1.220703125,-3.240966796875,39.847412109375,178.1268310546875
1760967322.5362897,-0.66259765625,-0.06396484375,0.765625,-5.79833984375,-1.28173828125,-1.220703125,-3.306884765625,39.83642578125,178.1158447265625
1760967322.546388,-0.6630859375,-0.0537109375,0.7138671875,-2.9296875,-1.40380859375,-1.220703125,-3.3453369140625,39.8199462890625,178.1048583984375
1760967322.554397,-0.6630859375,-0.0537109375,0.7138671875,-2.9296875,-1.40380859375,-1.220703125,-3.3837890625,39.8089599609375,178.0938720703125
1760967322.5626378,-0.6640625,-0.05126953125,0.755859375,-0.8544921875,-1.52587890625,-1.28173828125,-3.4002685546875,39.79248046875,178.0828857421875
1760967322.573372,-0.6640625,-0.05126953125,0.755859375,-0.8544921875,-1.52587890625,-1.28173828125,-3.416748046875,39.781494140625,178.077392578125
1760967322.5909202,-0.6484375,-0.04443359375,0.7666015625,-2.38037109375,-1.46484375,-0.91552734375,-3.4442138671875,39.7705078125,178.0718994140625
1760967322.5991518,-0.6484375,-0.04443359375,0.7666015625,-2.38037109375,-1.46484375,-0.91552734375,-3.4771728515625,39.759521484375,178.06640625
1760967322.6066248,-0.6435546875,-0.046875,0.77099609375,-3.72314453125,-1.40380859375,-0.48828125,-3.515625,39.74853515625,178.0718994140625
1760967322.6138604,-0.6435546875,-0.046875,0.77099609375,-3.72314453125,-1.40380859375,-0.48828125,-3.5540771484375,39.737548828125,178.0718994140625
1760967322.6200435,-0.6484375,-0.0458984375,0.76123046875,-5.06591796875,-1.15966796875,0.0,-3.603515625,39.7320556640625,178.077392578125
1760967322.627024,-0.6484375,-0.0458984375,0.76123046875,-5.06591796875,-1.15966796875,0.0,-3.6474609375,39.7210693359375,178.08837890625
1760967322.6446435,-0.654296875,-0.05908203125,0.7578125,-3.23486328125,-0.91552734375,0.06103515625,-3.680419921875,39.715576171875,178.0938720703125
1760967322.6523573,-0.654296875,-0.05908203125,0.7578125,-3.23486328125,-0.91552734375,0.06103515625,-3.7078857421875,39.7100830078125,178.1048583984375
1760967322.6587105,-0.6611328125,-0.072265625,0.76318359375,-1.64794921875,-0.732421875,0.18310546875,-3.724365234375,39.7100830078125,178.1158447265625
1760967322.6653519,-0.6611328125,-0.072265625,0.76318359375,-1.64794921875,-0.732421875,0.18310546875,-3.7408447265625,39.70458984375,178.1268310546875
1760967322.6714733,-0.65087890625,-0.06103515625,0.75,0.0,-0.48828125,0.30517578125,-3.7353515625,39.70458984375,178.1378173828125
1760967322.6785772,-0.65087890625,-0.06103515625,0.75,0.0,-0.48828125,0.30517578125,-3.7353515625,39.70458984375,178.1488037109375
1760967322.693428,-0.6552734375,-0.0478515625,0.7646484375,0.06103515625,-0.3662109375,0.3662109375,-3.7353515625,39.7100830078125,178.1597900390625
1760967322.699544,-0.6552734375,-0.0478515625,0.7646484375,0.06103515625,-0.3662109375,0.3662109375,-3.7298583984375,39.7100830078125,178.17626953125
1760967322.7068772,-0.64794921875,-0.03759765625,0.75927734375,-1.03759765625,-0.1220703125,0.42724609375,-3.7408447265625,39.715576171875,178.187255859375
1760967322.7139804,-0.64794921875,-0.03759765625,0.75927734375,-1.03759765625,-0.1220703125,0.42724609375,-3.746337890625,39.715576171875,178.2037353515625
1760967322.7206256,-0.6435546875,-0.06005859375,0.7822265625,-0.9765625,0.1220703125,0.6103515625,-3.7518310546875,39.7210693359375,178.2147216796875
1760967322.7364314,-0.6435546875,-0.06005859375,0.7822265625,-0.9765625,0.1220703125,0.6103515625,-3.75732421875,39.7265625,178.231201171875
1760967322.7438293,-0.642578125,-0.0615234375,0.7763671875,-0.1220703125,0.42724609375,0.8544921875,-3.7518310546875,39.737548828125,178.2476806640625
1760967322.7507572,-0.642578125,-0.0615234375,0.7763671875,-0.1220703125,0.42724609375,0.8544921875,-3.746337890625,39.7430419921875,178.2586669921875
1760967322.7597692,-0.6337890625,-0.05029296875,0.77587890625,0.0,0.54931640625,1.03759765625,-3.7408447265625,39.7540283203125,178.275146484375
1760967322.766472,-0.6337890625,-0.05029296875,0.77587890625,0.0,0.54931640625,1.03759765625,-3.7353515625,39.759521484375,178.2916259765625
1760967322.772563,-0.62451171875,-0.05224609375,0.79638671875,0.0,0.732421875,1.0986328125,-3.724365234375,39.7705078125,178.30810546875
1760967322.786647,-0.62451171875,-0.05224609375,0.79638671875,0.0,0.732421875,1.0986328125,-3.7188720703125,39.7760009765625,178.319091796875
1760967322.798504,-0.62939453125,-0.0595703125,0.78076171875,0.42724609375,0.67138671875,1.40380859375,-3.702392578125,39.781494140625,178.341064453125
1760967322.80478,-0.62939453125,-0.0595703125,0.78076171875,0.42724609375,0.67138671875,1.40380859375,-3.69140625,39.7869873046875,178.3575439453125
1760967322.8111217,-0.642578125,-0.041015625,0.7578125,1.03759765625,0.42724609375,1.220703125,-3.66943359375,39.79248046875,178.3685302734375
1760967322.8187706,-0.642578125,-0.041015625,0.7578125,1.03759765625,0.42724609375,1.220703125,-3.6529541015625,39.79248046875,178.385009765625
1760967322.8250027,-0.65625,-0.04345703125,0.7626953125,0.54931640625,0.30517578125,1.0986328125,-3.636474609375,39.7979736328125,178.4014892578125
1760967322.8396666,-0.65625,-0.04345703125,0.7626953125,0.54931640625,0.30517578125,1.0986328125,-3.62548828125,39.803466796875,178.41796875
1760967322.8468263,-0.6484375,-0.05810546875,0.76220703125,0.54931640625,0.18310546875,1.15966796875,-3.6090087890625,39.803466796875,178.4344482421875
1760967322.8535354,-0.6484375,-0.05810546875,0.76220703125,0.54931640625,0.18310546875,1.15966796875,-3.5980224609375,39.8089599609375,178.450927734375
1760967322.8614204,-0.640625,-0.05712890625,0.751953125,2.0751953125,0.0,1.220703125,-3.570556640625,39.8089599609375,178.4674072265625
1760967322.8687818,-0.640625,-0.05712890625,0.751953125,2.0751953125,0.0,1.220703125,-3.53759765625,39.8089599609375,178.48388671875
1760967322.8758402,-0.64697265625,-0.0390625,0.775390625,2.197265625,0.0,1.40380859375,-3.5101318359375,39.814453125,178.5003662109375
1760967322.8836443,-0.64697265625,-0.0390625,0.775390625,2.197265625,0.0,1.40380859375,-3.4771728515625,39.814453125,178.5223388671875
1760967322.891134,-0.6513671875,-0.03662109375,0.78369140625,-1.40380859375,0.1220703125,1.708984375,-3.4771728515625,39.814453125,178.5443115234375
1760967322.8994274,-0.6513671875,-0.03662109375,0.78369140625,-1.40380859375,0.1220703125,1.708984375,-3.4771728515625,39.8199462890625,178.5662841796875
1760967322.906139,-0.6494140625,-0.04541015625,0.73974609375,-2.62451171875,0.48828125,1.77001953125,-3.4881591796875,39.825439453125,178.59375
1760967322.9123275,-0.6494140625,-0.04541015625,0.73974609375,-2.62451171875,0.48828125,1.77001953125,-3.4991455078125,39.83642578125,178.61572265625
1760967322.9187922,-0.65185546875,-0.064453125,0.78564453125,-0.42724609375,0.54931640625,1.64794921875,-3.49365234375,39.8419189453125,178.6376953125
1760967322.9275517,-0.65185546875,-0.064453125,0.78564453125,-0.42724609375,0.54931640625,1.64794921875,-3.482666015625,39.8529052734375,178.65966796875
1760967322.933978,-0.64697265625,-0.03857421875,0.76220703125,-1.15966796875,0.79345703125,1.64794921875,-3.482666015625,39.8583984375,178.681640625
1760967322.941685,-0.64697265625,-0.03857421875,0.76220703125,-1.15966796875,0.79345703125,1.64794921875,-3.482666015625,39.869384765625,178.70361328125
1760967322.948148,-0.64404296875,-0.03759765625,0.76171875,-1.77001953125,0.8544921875,1.708984375,-3.4881591796875,39.88037109375,178.7310791015625
1760967322.9561934,-0.64404296875,-0.03759765625,0.76171875,-1.77001953125,0.8544921875,1.708984375,-3.49365234375,39.891357421875,178.7530517578125
1760967322.9673061,-0.6435546875,-0.048828125,0.783203125,-2.3193359375,0.8544921875,1.89208984375,-3.4991455078125,39.90234375,178.780517578125
1760967322.9757497,-0.6435546875,-0.048828125,0.783203125,-2.3193359375,0.8544921875,1.89208984375,-3.504638671875,39.913330078125,178.802490234375
1760967322.9833648,-0.64501953125,-0.05078125,0.76904296875,-4.150390625,0.91552734375,2.197265625,-3.5321044921875,39.92431640625,178.83544921875
1760967322.9904208,-0.64501953125,-0.05078125,0.76904296875,-4.150390625,0.91552734375,2.197265625,-3.5540771484375,39.935302734375,178.8629150390625
1760967322.9966924,-0.6494140625,-0.046875,0.76318359375,-3.60107421875,0.9765625,2.25830078125,-3.570556640625,39.9462890625,178.890380859375
1760967323.0047498,-0.6494140625,-0.046875,0.76318359375,-3.60107421875,0.9765625,2.25830078125,-3.5870361328125,39.957275390625,178.92333984375
1760967323.0138295,-0.650390625,-0.0439453125,0.7626953125,-4.2724609375,1.0986328125,2.25830078125,-3.614501953125,39.96826171875,178.956298828125
1760967323.0222275,-0.650390625,-0.0439453125,0.7626953125,-4.2724609375,1.0986328125,2.25830078125,-3.636474609375,39.9847412109375,178.9837646484375
1760967323.0294921,-0.6494140625,-0.0576171875,0.77001953125,-4.0283203125,1.28173828125,2.62451171875,-3.6529541015625,39.9957275390625,179.022216796875
1760967323.0366538,-0.6494140625,-0.0576171875,0.77001953125,-4.0283203125,1.28173828125,2.62451171875,-3.6749267578125,40.01220703125,179.0606689453125
1760967323.0445533,-0.646484375,-0.0673828125,0.763671875,-3.96728515625,1.28173828125,3.173828125,-3.6859130859375,40.0286865234375,179.09912109375
1760967323.0517166,-0.646484375,-0.0673828125,0.763671875,-3.96728515625,1.28173828125,3.173828125,-3.702392578125,40.045166015625,179.14306640625
1760967323.0586407,-0.64599609375,-0.046875,0.76318359375,-3.90625,1.220703125,3.41796875,-3.71337890625,40.05615234375,179.18701171875
1760967323.0669262,-0.64599609375,-0.046875,0.76318359375,-3.90625,1.220703125,3.41796875,-3.724365234375,40.0726318359375,179.23095703125
1760967323.073604,-0.64013671875,-0.052734375,0.765625,-4.69970703125,1.0986328125,3.662109375,-3.7408447265625,40.089111328125,179.2803955078125
1760967323.0803094,-0.64013671875,-0.052734375,0.765625,-4.69970703125,1.0986328125,3.662109375,-3.75732421875,40.10009765625,179.3243408203125
1760967323.0889277,-0.6435546875,-0.05419921875,0.771484375,-5.7373046875,1.03759765625,4.0283203125,-3.7847900390625,40.111083984375,179.3792724609375
1760967323.0951312,-0.6435546875,-0.05419921875,0.771484375,-5.7373046875,1.03759765625,4.0283203125,-3.8067626953125,40.1220703125,179.4287109375
1760967323.1014428,-0.64794921875,-0.03955078125,0.76806640625,-7.080078125,1.0986328125,4.21142578125,-3.84521484375,40.1385498046875,179.483642578125
1760967323.1083415,-0.64794921875,-0.03955078125,0.76806640625,-7.080078125,1.0986328125,4.21142578125,-3.878173828125,40.1495361328125,179.53857421875
1760967323.116389,-0.6494140625,-0.048828125,0.77294921875,-7.75146484375,1.0986328125,4.33349609375,-3.922119140625,40.166015625,179.5989990234375
1760967323.1266198,-0.6494140625,-0.048828125,0.77294921875,-7.75146484375,1.0986328125,4.33349609375,-3.9605712890625,40.177001953125,179.6539306640625
1760967323.1392403,-0.65771484375,-0.06103515625,0.7607421875,-6.89697265625,1.28173828125,4.39453125,-3.9935302734375,40.1934814453125,179.71435546875
1760967323.1470497,-0.65771484375,-0.06103515625,0.7607421875,-6.89697265625,1.28173828125,4.39453125,-4.02099609375,40.2099609375,179.769287109375
1760967323.1586885,-0.6611328125,-0.06201171875,0.75244140625,-5.4931640625,1.52587890625,4.57763671875,-4.0374755859375,40.2264404296875,179.8297119140625
1760967323.1661184,-0.6611328125,-0.06201171875,0.75244140625,-5.4931640625,1.52587890625,4.57763671875,-4.053955078125,40.242919921875,179.89013671875
1760967323.1759193,-0.66162109375,-0.05126953125,0.751953125,-5.859375,1.8310546875,4.638671875,-4.075927734375,40.264892578125,179.9505615234375
1760967323.1856554,-0.66162109375,-0.05126953125,0.751953125,-5.859375,1.8310546875,4.638671875,-4.097900390625,40.2923583984375,-179.97802734375
1760967323.1976826,-0.6669921875,-0.0576171875,0.7607421875,-6.40869140625,2.13623046875,4.8828125,-4.119873046875,40.3143310546875,-179.912109375
1760967323.20658,-0.6669921875,-0.0576171875,0.7607421875,-6.40869140625,2.13623046875,4.8828125,-4.141845703125,40.341796875,-179.84619140625
1760967323.215841,-0.658203125,-0.05810546875,0.75732421875,-5.2490234375,2.44140625,5.126953125,-4.15283203125,40.374755859375,-179.7747802734375
1760967323.2262287,-0.650390625,-0.06396484375,0.77197265625,-4.39453125,2.62451171875,5.31005859375,-4.1583251953125,40.4022216796875,-179.703369140625
1760967323.2362454,-0.650390625,-0.06396484375,0.77197265625,-4.39453125,2.62451171875,5.31005859375,-4.1583251953125,40.4351806640625,-179.6319580078125
1760967323.2476,-0.654296875,-0.0517578125,0.76220703125,-5.0048828125,2.8076171875,5.79833984375,-4.1583251953125,40.4681396484375,-179.560546875
1760967323.2568786,-0.654296875,-0.0517578125,0.76220703125,-5.0048828125,2.8076171875,5.79833984375,-4.163818359375,40.5010986328125,-179.483642578125
1760967323.2669806,-0.66064453125,-0.04736328125,0.76025390625,-7.080078125,3.11279296875,6.2255859375,-4.1748046875,40.5340576171875,-179.4012451171875
1760967323.290283,-0.66064453125,-0.04736328125,0.76025390625,-7.080078125,3.11279296875,6.2255859375,-4.1912841796875,40.5670166015625,-179.31884765625
1760967323.3023684,-0.66357421875,-0.064453125,0.74072265625,-6.16455078125,3.41796875,5.859375,-4.207763671875,40.60546875,-179.2364501953125
1760967323.3099182,-0.66357421875,-0.064453125,0.74072265625,-6.16455078125,3.41796875,5.859375,-4.2242431640625,40.6439208984375,-179.1595458984375
1760967323.3302102,-0.66357421875,-0.064453125,0.74072265625,-3.11279296875,3.662109375,5.4931640625,-4.2242431640625,40.6878662109375,-179.0826416015625
1760967323.339889,-0.66845703125,-0.07470703125,0.75537109375,-3.11279296875,3.662109375,5.4931640625,-4.207763671875,40.726318359375,-179.01123046875
1760967323.346519,-0.6708984375,-0.05224609375,0.73974609375,-0.91552734375,4.08935546875,5.2490234375,-4.185791015625,40.770263671875,-178.9398193359375
1760967323.3634331,-0.6708984375,-0.05224609375,0.73974609375,-0.91552734375,4.08935546875,5.2490234375,-4.1583251953125,40.8197021484375,-178.8739013671875
1760967323.374056,-0.66943359375,-0.03369140625,0.755859375,-0.54931640625,4.5166015625,5.06591796875,-4.1253662109375,40.869140625,-178.8079833984375
1760967323.3833573,-0.66943359375,-0.03369140625,0.755859375,-0.54931640625,4.5166015625,5.06591796875,-4.0869140625,40.9185791015625,-178.736572265625
1760967323.415378,-0.65625,-0.0517578125,0.763671875,-1.77001953125,4.94384765625,5.06591796875,-4.0594482421875,40.968017578125,-178.670654296875
1760967323.4255803,-0.65625,-0.0517578125,0.763671875,-1.77001953125,4.94384765625,5.06591796875,-4.0374755859375,41.02294921875,-178.604736328125
1760967323.4365647,-0.65380859375,-0.0556640625,0.763671875,-1.953125,5.2490234375,5.0048828125,-4.0155029296875,41.077880859375,-178.538818359375
1760967323.4592688,-0.65380859375,-0.0556640625,0.763671875,-1.953125,5.2490234375,5.0048828125,-3.9935302734375,41.1328125,-178.4783935546875
1760967323.4729147,-0.6552734375,-0.04736328125,0.75537109375,-1.5869140625,5.67626953125,4.69970703125,-3.9715576171875,41.187744140625,-178.41796875
1760967323.4806485,-0.6552734375,-0.04736328125,0.75537109375,-1.5869140625,5.67626953125,4.69970703125,-3.9495849609375,41.2481689453125,-178.3575439453125
1760967323.4886773,-0.658203125,-0.048828125,0.7626953125,-0.3662109375,6.16455078125,4.0283203125,-3.9276123046875,41.30859375,-178.3026123046875
1760967323.5150304,-0.658203125,-0.048828125,0.7626953125,-0.3662109375,6.16455078125,4.0283203125,-3.900146484375,41.3690185546875,-178.2586669921875
1760967323.5226264,-0.6552734375,-0.0439453125,0.7685546875,-0.244140625,6.65283203125,3.47900390625,-3.8726806640625,41.4349365234375,-178.2147216796875
1760967323.5301394,-0.6552734375,-0.0439453125,0.7685546875,-0.244140625,6.65283203125,3.47900390625,-3.84521484375,41.5008544921875,-178.17626953125
1760967323.5374594,-0.65380859375,-0.04052734375,0.7666015625,-1.708984375,7.14111328125,3.23486328125,-3.8287353515625,41.5667724609375,-178.1378173828125
1760967323.5616288,-0.65380859375,-0.04052734375,0.7666015625,-1.708984375,7.14111328125,3.23486328125,-3.8232421875,41.6326904296875,-178.1048583984375
1760967323.5685651,-0.66357421875,-0.05126953125,0.7490234375,-1.5869140625,7.50732421875,3.0517578125,-3.8177490234375,41.7041015625,-178.0718994140625
1760967323.5754743,-0.66357421875,-0.05126953125,0.7490234375,-1.5869140625,7.50732421875,3.0517578125,-3.8067626953125,41.7755126953125,-178.0389404296875
1760967323.582881,-0.6689453125,-0.05029296875,0.73828125,-0.6103515625,7.32421875,2.74658203125,-3.7957763671875,41.846923828125,-178.0059814453125
1760967323.5907295,-0.6689453125,-0.05029296875,0.73828125,-0.6103515625,7.32421875,2.74658203125,-3.779296875,41.912841796875,-177.978515625
1760967323.6000276,-0.6728515625,-0.0439453125,0.75048828125,-0.1220703125,6.9580078125,2.25830078125,-3.768310546875,41.9842529296875,-177.95654296875
1760967323.607463,-0.6728515625,-0.0439453125,0.75048828125,-0.1220703125,6.9580078125,2.25830078125,-3.7518310546875,42.0501708984375,-177.9345703125
1760967323.6158242,-0.66943359375,-0.04150390625,0.73828125,0.79345703125,6.591796875,1.64794921875,-3.7353515625,42.110595703125,-177.9180908203125
1760967323.6232514,-0.66943359375,-0.04150390625,0.73828125,0.79345703125,6.591796875,1.64794921875,-3.71337890625,42.176513671875,-177.901611328125
1760967323.6296103,-0.67236328125,-0.03076171875,0.72705078125,0.30517578125,6.16455078125,1.03759765625,-3.702392578125,42.2369384765625,-177.8961181640625
1760967323.637253,-0.67236328125,-0.03076171875,0.72705078125,0.30517578125,6.16455078125,1.03759765625,-3.69140625,42.2918701171875,-177.8851318359375
1760967323.6451635,-0.673828125,-0.0322265625,0.7470703125,-1.5869140625,6.04248046875,0.42724609375,-3.69140625,42.352294921875,-177.8851318359375
1760967323.6535177,-0.673828125,-0.0322265625,0.7470703125,-1.5869140625,6.04248046875,0.42724609375,-3.702392578125,42.4072265625,-177.8851318359375
1760967323.6598728,-0.671875,-0.05224609375,0.75,-2.8076171875,6.04248046875,0.1220703125,-3.724365234375,42.462158203125,-177.8851318359375
1760967323.6667256,-0.671875,-0.05224609375,0.75,-2.8076171875,6.04248046875,0.1220703125,-3.7518310546875,42.51708984375,-177.890625
1760967323.6746542,-0.6650390625,-0.05712890625,0.74658203125,-1.5869140625,5.92041015625,-0.06103515625,-3.7738037109375,42.572021484375,-177.901611328125
1760967323.6827173,-0.6650390625,-0.05712890625,0.74658203125,-1.5869140625,5.92041015625,-0.06103515625,-3.790283203125,42.626953125,-177.91259765625
1760967323.6899207,-0.65478515625,-0.0390625,0.7529296875,-0.9765625,5.615234375,-0.42724609375,-3.812255859375,42.6763916015625,-177.923583984375
1760967323.697769,-0.65478515625,-0.0390625,0.7529296875,-0.9765625,5.615234375,-0.42724609375,-3.8232421875,42.725830078125,-177.9400634765625
1760967323.7059252,-0.63671875,-0.0390625,0.77783203125,-2.685546875,5.06591796875,-0.6103515625,-3.8507080078125,42.769775390625,-177.9620361328125
1760967323.7173855,-0.63671875,-0.0390625,0.77783203125,-2.685546875,5.06591796875,-0.6103515625,-3.8836669921875,42.813720703125,-177.9840087890625
1760967323.7507577,-0.61962890625,-0.048828125,0.79833984375,-4.638671875,4.33349609375,-0.6103515625,-3.922119140625,42.8466796875,-178.011474609375
1760967323.7596736,-0.61962890625,-0.048828125,0.79833984375,-4.638671875,4.33349609375,-0.6103515625,-3.97705078125,42.879638671875,-178.0389404296875
1760967323.8040822,-0.60546875,-0.04443359375,0.80859375,-5.2490234375,3.84521484375,-0.67138671875,-4.031982421875,42.9071044921875,-178.06640625
1760967323.827742,-0.60546875,-0.04443359375,0.80859375,-5.2490234375,3.84521484375,-0.67138671875,-4.0869140625,42.923583984375,-178.099365234375
1760967323.8340886,-0.58935546875,-0.0537109375,0.8115234375,-5.615234375,3.662109375,-0.91552734375,-4.1473388671875,42.9400634765625,-178.1378173828125
1760967323.8408422,-0.58935546875,-0.0537109375,0.8115234375,-5.615234375,3.662109375,-0.91552734375,-4.207763671875,42.95654296875,-178.1817626953125
1760967323.847968,-0.583984375,-0.0634765625,0.82666015625,-5.31005859375,2.62451171875,-1.40380859375,-4.273681640625,42.9620361328125,-178.2257080078125
1760967323.854571,-0.583984375,-0.0634765625,0.82666015625,-5.31005859375,2.62451171875,-1.40380859375,-4.339599609375,42.9620361328125,-178.2806396484375
1760967323.8608134,-0.60498046875,-0.04736328125,0.78076171875,-5.0048828125,1.28173828125,-2.25830078125,-4.405517578125,42.9510498046875,-178.341064453125
1760967323.8670819,-0.60498046875,-0.04736328125,0.78076171875,-5.0048828125,1.28173828125,-2.25830078125,-4.471435546875,42.9345703125,-178.406982421875
1760967323.8746483,-0.62060546875,-0.04736328125,0.7880859375,-2.74658203125,-0.30517578125,-3.173828125,-4.5318603515625,42.9071044921875,-178.4783935546875
1760967323.8806705,-0.62060546875,-0.04736328125,0.7880859375,-2.74658203125,-0.30517578125,-3.173828125,-4.5867919921875,42.8741455078125,-178.5552978515625
1760967323.887798,-0.6201171875,-0.0595703125,0.783203125,1.89208984375,-1.52587890625,-3.96728515625,-4.6197509765625,42.835693359375,-178.6376953125
1760967323.894372,-0.6201171875,-0.0595703125,0.783203125,1.89208984375,-1.52587890625,-3.96728515625,-4.6307373046875,42.791748046875,-178.7200927734375
1760967323.901313,-0.6201171875,-0.0595703125,0.783203125,6.28662109375,-2.0751953125,-4.69970703125,-4.625244140625,42.7423095703125,-178.8079833984375
1760967323.9096375,-0.6357421875,-0.080078125,0.74853515625,6.28662109375,-2.0751953125,-4.69970703125,-4.5977783203125,42.69287109375,-178.9013671875
1760967323.9159753,-0.65966796875,-0.05517578125,0.748046875,12.26806640625,-2.25830078125,-5.31005859375,-4.54833984375,42.6434326171875,-178.9947509765625
1760967323.92217,-0.65966796875,-0.05517578125,0.748046875,12.26806640625,-2.25830078125,-5.31005859375,-4.471435546875,42.593994140625,-179.0936279296875
1760967323.9291248,-0.66943359375,-0.05029296875,0.76904296875,12.51220703125,-2.13623046875,-6.04248046875,-4.4000244140625,42.5445556640625,-179.1925048828125
1760967323.9362361,-0.66943359375,-0.05029296875,0.76904296875,12.51220703125,-2.13623046875,-6.04248046875,-4.32861328125,42.5006103515625,-179.296875
1760967323.9431968,-0.69580078125,-0.03466796875,0.71044921875,11.71875,-1.953125,-6.53076171875,-4.2626953125,42.4566650390625,-179.4012451171875
1760967323.951359,-0.69580078125,-0.03466796875,0.71044921875,11.71875,-1.953125,-6.53076171875,-4.2022705078125,42.418212890625,-179.505615234375
1760967323.9589496,-0.71435546875,-0.02587890625,0.71337890625,4.08935546875,-1.953125,-6.53076171875,-4.1802978515625,42.38525390625,-179.6044921875
1760967323.9651878,-0.71435546875,-0.02587890625,0.71337890625,4.08935546875,-1.953125,-6.53076171875,-4.1912841796875,42.352294921875,-179.6978759765625
1760967323.9720602,-0.72509765625,-0.04638671875,0.7021484375,-0.732421875,-1.77001953125,-6.591796875,-4.229736328125,42.3193359375,-179.7857666015625
1760967323.9783268,-0.72509765625,-0.04638671875,0.7021484375,-0.732421875,-1.77001953125,-6.591796875,-4.2901611328125,42.29736328125,-179.8736572265625
1760967323.98504,-0.74951171875,-0.07177734375,0.6826171875,0.79345703125,-1.46484375,-6.53076171875,-4.3450927734375,42.275390625,-179.9615478515625
1760967323.9914193,-0.74951171875,-0.07177734375,0.6826171875,0.79345703125,-1.46484375,-6.53076171875,-4.39453125,42.2589111328125,179.9560546875
1760967323.9975147,-0.765625,-0.0712890625,0.6376953125,0.3662109375,-0.67138671875,-6.2255859375,-4.4439697265625,42.2479248046875,179.879150390625
1760967324.003979,-0.765625,-0.0712890625,0.6376953125,0.3662109375,-0.67138671875,-6.2255859375,-4.493408203125,42.2479248046875,179.8077392578125
1760967324.0109618,-0.7607421875,-0.06005859375,0.69921875,2.0751953125,-0.18310546875,-5.9814453125,-4.537353515625,42.25341796875,179.7418212890625
1760967324.019455,-0.7607421875,-0.06005859375,0.69921875,2.0751953125,-0.18310546875,-5.9814453125,-4.5703125,42.2589111328125,179.681396484375
1760967324.0259469,-0.75537109375,-0.0556640625,0.65966796875,-1.77001953125,0.67138671875,-5.126953125,-4.6197509765625,42.275390625,179.62646484375
1760967324.03348,-0.75537109375,-0.0556640625,0.65966796875,-1.77001953125,0.67138671875,-5.126953125,-4.68017578125,42.29736328125,179.5770263671875
1760967324.0397518,-0.76220703125,-0.0810546875,0.66259765625,-2.62451171875,1.5869140625,-4.150390625,-4.74609375,42.3248291015625,179.53857421875
1760967324.046283,-0.76220703125,-0.0810546875,0.66259765625,-2.62451171875,1.5869140625,-4.150390625,-4.81201171875,42.3577880859375,179.5111083984375
1760967324.0537565,-0.7666015625,-0.09033203125,0.654296875,-3.11279296875,2.25830078125,-2.74658203125,-4.8779296875,42.396240234375,179.4891357421875
1760967324.0600038,-0.7666015625,-0.09033203125,0.654296875,-3.11279296875,2.25830078125,-2.74658203125,-4.9383544921875,42.4456787109375,179.47265625
1760967324.0679946,-0.7490234375,-0.0908203125,0.666015625,-2.197265625,2.50244140625,-1.5869140625,-4.9932861328125,42.4896240234375,179.47265625
1760967324.0762866,-0.7490234375,-0.0908203125,0.666015625,-2.197265625,2.50244140625,-1.5869140625,-5.0372314453125,42.5445556640625,179.47265625
1760967324.0864096,-0.73388671875,-0.07470703125,0.68701171875,-1.220703125,2.50244140625,-0.3662109375,-5.0701904296875,42.593994140625,179.483642578125
1760967324.097957,-0.73388671875,-0.07470703125,0.68701171875,-1.220703125,2.50244140625,-0.3662109375,-5.09765625,42.6434326171875,179.5001220703125
1760967324.1070154,-0.71435546875,-0.0771484375,0.7001953125,-2.44140625,2.50244140625,0.42724609375,-5.11962890625,42.69287109375,179.5220947265625
1760967324.1165612,-0.71435546875,-0.0771484375,0.7001953125,-2.44140625,2.50244140625,0.42724609375,-5.152587890625,42.7423095703125,179.549560546875
1760967324.126721,-0.705078125,-0.07666015625,0.72900390625,-2.8076171875,2.5634765625,1.40380859375,-5.174560546875,42.791748046875,179.58251953125
1760967324.1367023,-0.705078125,-0.07666015625,0.72900390625,-2.8076171875,2.5634765625,1.40380859375,-5.196533203125,42.8411865234375,179.615478515625
1760967324.1465008,-0.7001953125,-0.07568359375,0.69921875,-3.72314453125,2.74658203125,2.3193359375,-5.2239990234375,42.890625,179.6539306640625
1760967324.1580343,-0.7001953125,-0.07568359375,0.69921875,-3.72314453125,2.74658203125,2.3193359375,-5.2459716796875,42.9345703125,179.6978759765625
