timestamp,acc_x,acc_y,acc_z,gyro_x,gyro_y,gyro_z,angle_x,angle_y,angle_z
1758786492.434798,-0.52001953125,0.03466796875,0.79248046875,6.591796875,18.12744140625,-3.60107421875,-0.4779052734375,36.58447265625,87.6763916015625
1758786492.4440532,-0.50830078125,-0.0048828125,0.8125,4.69970703125,18.12744140625,-2.99072265625,-0.450439453125,36.7437744140625,87.64892578125
1758786492.4533453,-0.50830078125,-0.0048828125,0.8125,4.69970703125,18.12744140625,-2.99072265625,-0.4229736328125,36.903076171875,87.615966796875
1758786492.4638824,-0.54638671875,-0.03515625,0.8388671875,2.3193359375,17.02880859375,-2.9296875,-0.41748046875,37.0513916015625,87.5885009765625
1758786492.47657,-0.54638671875,-0.03515625,0.8388671875,2.3193359375,17.02880859375,-2.9296875,-0.41748046875,37.1942138671875,87.56103515625
1758786492.4894376,-0.576171875,-0.00048828125,0.86083984375,2.50244140625,15.5029296875,-3.84521484375,-0.41748046875,37.3260498046875,87.5225830078125
1758786492.501142,-0.576171875,-0.00048828125,0.86083984375,2.50244140625,15.5029296875,-3.84521484375,-0.4229736328125,37.452392578125,87.484130859375
1758786492.5115242,-0.57421875,0.04443359375,0.81591796875,0.732421875,13.97705078125,-4.08935546875,-0.4449462890625,37.5677490234375,87.440185546875
1758786492.520651,-0.57421875,0.04443359375,0.81591796875,0.732421875,13.97705078125,-4.08935546875,-0.4669189453125,37.68310546875,87.396240234375
1758786492.529674,-0.57470703125,0.02294921875,0.79736328125,-2.25830078125,13.97705078125,-2.8076171875,-0.50537109375,37.7984619140625,87.36328125
1758786492.537569,-0.57470703125,0.02294921875,0.79736328125,-2.25830078125,13.97705078125,-2.8076171875,-0.5438232421875,37.913818359375,87.3358154296875
1758786492.543773,-0.59033203125,-0.01611328125,0.78466796875,5.9814453125,13.18359375,-2.44140625,-0.4998779296875,38.023681640625,87.308349609375
1758786492.5511844,-0.59033203125,-0.01611328125,0.78466796875,5.9814453125,13.18359375,-2.44140625,-0.450439453125,38.133544921875,87.286376953125
1758786492.561162,-0.60546875,-0.0615234375,0.7587890625,11.474609375,12.20703125,-3.23486328125,-0.362548828125,38.2379150390625,87.2479248046875
1758786492.5711775,-0.60546875,-0.0615234375,0.7587890625,11.474609375,12.20703125,-3.23486328125,-0.274658203125,38.3367919921875,87.2149658203125
1758786492.581284,-0.615234375,-0.0009765625,0.7490234375,0.6103515625,11.90185546875,-4.21142578125,-0.3021240234375,38.441162109375,87.1710205078125
1758786492.591188,-0.615234375,-0.0009765625,0.7490234375,0.6103515625,11.90185546875,-4.21142578125,-0.32958984375,38.5455322265625,87.1270751953125
1758786492.6015503,-0.63232421875,0.07470703125,0.7626953125,-4.82177734375,10.92529296875,-4.2724609375,-0.4119873046875,38.638916015625,87.07763671875
1758786492.6112382,-0.63232421875,0.07470703125,0.7626953125,-4.82177734375,10.92529296875,-4.2724609375,-0.4888916015625,38.73779296875,87.0281982421875
1758786492.6212385,-0.6337890625,0.01220703125,0.77880859375,-1.220703125,9.82666015625,-2.685546875,-0.516357421875,38.8201904296875,86.9952392578125
1758786492.6312253,-0.6337890625,0.01220703125,0.77880859375,-1.220703125,9.82666015625,-2.685546875,-0.5438232421875,38.9080810546875,86.9677734375
1758786492.641243,-0.66064453125,-0.04443359375,0.79443359375,-1.5869140625,8.85009765625,-2.197265625,-0.5712890625,38.990478515625,86.9403076171875
1758786492.6512642,-0.66064453125,-0.04443359375,0.79443359375,-1.5869140625,8.85009765625,-2.197265625,-0.604248046875,39.0673828125,86.9183349609375
1758786492.661295,-0.70947265625,-0.0498046875,0.8037109375,-1.89208984375,6.7138671875,-2.74658203125,-0.6427001953125,39.1278076171875,86.890869140625
1758786492.6712825,-0.70947265625,-0.0498046875,0.8037109375,-1.89208984375,6.7138671875,-2.74658203125,-0.6866455078125,39.188232421875,86.85791015625
1758786492.6813018,-0.681640625,0.00390625,0.80908203125,-10.1318359375,4.0283203125,-2.62451171875,-0.8074951171875,39.2266845703125,86.8304443359375
1758786492.6912823,-0.681640625,0.00390625,0.80908203125,-10.1318359375,4.0283203125,-2.62451171875,-0.9283447265625,39.2596435546875,86.802978515625
1758786492.7013102,-0.58984375,0.01416015625,0.75,-10.31494140625,2.25830078125,-1.52587890625,-1.0382080078125,39.2816162109375,86.7919921875
1758786492.7113194,-0.58984375,0.01416015625,0.75,-10.31494140625,2.25830078125,-1.52587890625,-1.153564453125,39.298095703125,86.7755126953125
1758786492.7213345,-0.525390625,-0.0302734375,0.7099609375,-1.8310546875,1.708984375,-0.9765625,-1.175537109375,39.30908203125,86.7645263671875
1758786492.7313392,-0.525390625,-0.0302734375,0.7099609375,-1.8310546875,1.708984375,-0.9765625,-1.197509765625,39.320068359375,86.759033203125
1758786492.741362,-0.5224609375,-0.03369140625,0.75,-3.662109375,1.0986328125,-0.42724609375,-1.2359619140625,39.3255615234375,86.759033203125
1758786492.7513702,-0.5224609375,-0.03369140625,0.75,-3.662109375,1.0986328125,-0.42724609375,-1.2744140625,39.3255615234375,86.759033203125
1758786492.7614045,-0.52880859375,0.01806640625,0.8125,-16.6015625,-0.48828125,0.54931640625,-1.42822265625,39.30908203125,86.77001953125
1758786492.7714016,-0.52880859375,0.01806640625,0.8125,-16.6015625,-0.48828125,0.54931640625,-1.5875244140625,39.2926025390625,86.781005859375
1758786492.781728,-0.52099609375,0.009765625,0.83251953125,-13.24462890625,-2.9296875,1.220703125,-1.6973876953125,39.2431640625,86.802978515625
1758786492.7914295,-0.52099609375,0.009765625,0.83251953125,-13.24462890625,-2.9296875,1.220703125,-1.812744140625,39.19921875,86.824951171875
1758786492.80151,-0.5322265625,-0.04541015625,0.8330078125,-7.26318359375,-3.72314453125,2.38037109375,-1.856689453125,39.1387939453125,86.85791015625
1758786492.8114462,-0.5322265625,-0.04541015625,0.8330078125,-7.26318359375,-3.72314453125,2.38037109375,-1.900634765625,39.078369140625,86.8963623046875
1758786492.8214843,-0.53125,-0.02734375,0.830078125,-11.1083984375,-4.33349609375,2.5634765625,-1.9830322265625,39.012451171875,86.934814453125
1758786492.8314633,-0.53125,-0.02734375,0.830078125,-11.1083984375,-4.33349609375,2.5634765625,-2.0654296875,38.946533203125,86.9732666015625
1758786492.841554,-0.49755859375,-0.01806640625,0.85986328125,-12.63427734375,-4.21142578125,2.685546875,-2.164306640625,38.880615234375,87.01171875
1758786492.8514998,-0.49755859375,-0.01806640625,0.85986328125,-12.63427734375,-4.21142578125,2.685546875,-2.2576904296875,38.8092041015625,87.0556640625
1758786492.8616152,-0.47802734375,-0.03662109375,0.8583984375,-9.09423828125,-4.0283203125,2.685546875,-2.318115234375,38.73779296875,87.0941162109375
1758786492.8716764,-0.47802734375,-0.03662109375,0.8583984375,-9.09423828125,-4.0283203125,2.685546875,-2.3785400390625,38.6663818359375,87.132568359375
1758786492.881658,-0.48779296875,-0.04638671875,0.86181640625,0.8544921875,-3.72314453125,1.46484375,-2.3565673828125,38.594970703125,87.154541015625
1758786492.8915284,-0.48779296875,-0.04638671875,0.86181640625,0.8544921875,-3.72314453125,1.46484375,-2.3291015625,38.5235595703125,87.1820068359375
1758786492.901711,-0.5078125,-0.0576171875,0.822265625,9.33837890625,-3.60107421875,1.220703125,-2.21923828125,38.4466552734375,87.2039794921875
1758786492.9115517,-0.5078125,-0.0576171875,0.822265625,9.33837890625,-3.60107421875,1.220703125,-2.1148681640625,38.375244140625,87.2259521484375
1758786492.921663,-0.57666015625,-0.01220703125,0.94482421875,3.60107421875,-3.60107421875,-0.30517578125,-2.0819091796875,38.3038330078125,87.2259521484375
1758786492.9315794,-0.57666015625,-0.01220703125,0.94482421875,3.60107421875,-3.60107421875,-0.30517578125,-2.04345703125,38.2269287109375,87.2314453125
1758786492.9415953,-0.70703125,0.00537109375,1.02490234375,0.79345703125,-6.103515625,-0.1220703125,-2.032470703125,38.133544921875,87.2369384765625
1758786492.9517217,-0.70703125,0.00537109375,1.02490234375,0.79345703125,-6.103515625,-0.1220703125,-2.021484375,38.0401611328125,87.2479248046875
1758786492.9617445,-0.71533203125,-0.01025390625,1.037109375,4.82177734375,-9.3994140625,-0.1220703125,-1.966552734375,37.913818359375,87.25341796875
1758786492.971953,-0.71533203125,-0.01025390625,1.037109375,4.82177734375,-9.3994140625,-0.1220703125,-1.91162109375,37.79296875,87.2589111328125
1758786492.9817104,-0.59326171875,-0.02734375,0.9169921875,5.7373046875,-11.474609375,-0.3662109375,-1.8511962890625,37.650146484375,87.264404296875
1758786492.9920087,-0.59326171875,-0.02734375,0.9169921875,5.7373046875,-11.474609375,-0.3662109375,-1.790771484375,37.50732421875,87.2698974609375
1758786493.001715,-0.4853515625,-0.0029296875,0.79296875,-0.30517578125,-12.02392578125,-0.18310546875,-1.7852783203125,37.3590087890625,87.275390625
1758786493.0120728,-0.4853515625,-0.0029296875,0.79296875,-0.30517578125,-12.02392578125,-0.18310546875,-1.7852783203125,37.210693359375,87.286376953125
1758786493.0219662,-0.41796875,-0.00341796875,0.63134765625,4.150390625,-9.82666015625,-0.67138671875,-1.7413330078125,37.08984375,87.286376953125
1758786493.0321405,-0.41796875,-0.00341796875,0.63134765625,4.150390625,-9.82666015625,-0.67138671875,-1.6973876953125,36.9635009765625,87.286376953125
1758786493.042006,-0.3740234375,0.00634765625,0.59228515625,7.568359375,-6.16455078125,-1.40380859375,-1.6259765625,36.8756103515625,87.275390625
1758786493.0519974,-0.3740234375,0.00634765625,0.59228515625,7.568359375,-6.16455078125,-1.40380859375,-1.5545654296875,36.793212890625,87.264404296875
1758786493.0620425,-0.47607421875,-0.0048828125,0.64208984375,-0.3662109375,-2.0751953125,-0.9765625,-1.56005859375,36.749267578125,87.25341796875
1758786493.0722606,-0.47607421875,-0.0048828125,0.64208984375,-0.3662109375,-2.0751953125,-0.9765625,-1.5655517578125,36.705322265625,87.2479248046875
1758786493.0819144,-0.6103515625,0.02490234375,0.87890625,-2.25830078125,-2.3193359375,0.06103515625,-1.58203125,36.6668701171875,87.25341796875
1758786493.0921588,-0.6103515625,0.02490234375,0.87890625,-2.25830078125,-2.3193359375,0.06103515625,-1.593017578125,36.6229248046875,87.25341796875
1758786493.1027977,-0.6240234375,0.02294921875,0.96435546875,4.8828125,-2.25830078125,1.46484375,-1.527099609375,36.58447265625,87.275390625
1758786493.1121836,-0.6240234375,0.02294921875,0.96435546875,4.8828125,-2.25830078125,1.46484375,-1.4556884765625,36.5460205078125,87.29736328125
1758786493.1218674,-0.57958984375,0.01025390625,0.87939453125,-6.28662109375,-3.662109375,2.25830078125,-1.4886474609375,36.4910888671875,87.330322265625
1758786493.132229,-0.57958984375,0.01025390625,0.87939453125,-6.28662109375,-3.662109375,2.25830078125,-1.527099609375,36.4361572265625,87.3577880859375
1758786493.1427293,-0.5126953125,-0.07470703125,0.80126953125,-21.30126953125,-3.90625,2.50244140625,-1.7083740234375,36.3812255859375,87.396240234375
1758786493.152161,-0.5126953125,-0.07470703125,0.80126953125,-21.30126953125,-3.90625,2.50244140625,-1.8951416015625,36.32080078125,87.42919921875
1758786493.1620271,-0.47216796875,-0.0908203125,0.748046875,-9.09423828125,-1.953125,2.38037109375,-1.966552734375,36.287841796875,87.4676513671875
1758786493.1723995,-0.47216796875,-0.0908203125,0.748046875,-9.09423828125,-1.953125,2.38037109375,-2.0379638671875,36.2493896484375,87.506103515625
1758786493.1827486,-0.49365234375,-0.06298828125,0.71484375,-1.03759765625,-0.91552734375,2.0751953125,-2.032470703125,36.221923828125,87.5390625
1758786493.1922498,-0.49365234375,-0.06298828125,0.71484375,-1.03759765625,-0.91552734375,2.0751953125,-2.0269775390625,36.1944580078125,87.572021484375
1758786493.2021165,-0.5380859375,0.00927734375,0.72802734375,9.8876953125,-0.06103515625,3.35693359375,-1.9061279296875,36.1834716796875,87.6214599609375
1758786493.212978,-0.5380859375,0.00927734375,0.72802734375,9.8876953125,-0.06103515625,3.35693359375,-1.77978515625,36.1669921875,87.6708984375
1758786493.2222192,-0.6396484375,0.033203125,0.89404296875,1.77001953125,-2.9296875,4.150390625,-1.7303466796875,36.1285400390625,87.725830078125
1758786493.2323859,-0.6396484375,0.033203125,0.89404296875,1.77001953125,-2.9296875,4.150390625,-1.680908203125,36.090087890625,87.7862548828125
1758786493.2421277,-0.72314453125,0.16455078125,1.02392578125,-4.94384765625,-5.79833984375,7.50732421875,-1.6644287109375,36.024169921875,87.879638671875
1758786493.2527442,-0.72314453125,0.16455078125,1.02392578125,-4.94384765625,-5.79833984375,7.50732421875,-1.6424560546875,35.958251953125,87.9730224609375
1758786493.262116,-0.701171875,0.1220703125,0.9033203125,-21.240234375,-9.033203125,8.1787109375,-1.768798828125,35.8648681640625,88.06640625
1758786493.272363,-0.701171875,0.1220703125,0.9033203125,-21.240234375,-9.033203125,8.1787109375,-1.8951416015625,35.771484375,88.165283203125
1758786493.2828252,-0.630859375,-0.07177734375,0.8349609375,-56.09130859375,-9.765625,8.48388671875,-2.3675537109375,35.672607421875,88.26416015625
1758786493.2923825,-0.630859375,-0.07177734375,0.8349609375,-56.09130859375,-9.765625,8.48388671875,-2.8399658203125,35.5792236328125,88.3685302734375
1758786493.3022537,-0.6748046875,-0.13037109375,0.88232421875,-39.97802734375,-10.009765625,7.75146484375,-3.1585693359375,35.48583984375,88.4674072265625
1758786493.3130395,-0.6748046875,-0.13037109375,0.88232421875,-39.97802734375,-10.009765625,7.75146484375,-3.482666015625,35.3924560546875,88.5662841796875
1758786493.3222928,-0.6748046875,-0.13037109375,0.88232421875,-15.0146484375,-11.16943359375,6.53076171875,-3.570556640625,35.2880859375,88.6541748046875
1758786493.3324094,-0.68115234375,-0.154296875,0.9765625,-15.0146484375,-11.16943359375,6.53076171875,-3.658447265625,35.1837158203125,88.74755859375
1758786493.3422074,-0.556640625,-0.07421875,0.87109375,-8.1787109375,-11.65771484375,4.8828125,-3.6968994140625,35.0738525390625,88.8189697265625
1758786493.3529904,-0.556640625,-0.07421875,0.87109375,-8.1787109375,-11.65771484375,4.8828125,-3.7298583984375,34.95849609375,88.890380859375
1758786493.3621871,-0.40869140625,-0.04345703125,0.748046875,4.94384765625,-10.43701171875,4.7607421875,-3.636474609375,34.859619140625,88.9617919921875
1758786493.3725586,-0.38818359375,-0.02294921875,0.646484375,12.51220703125,-8.6669921875,3.7841796875,-3.515625,34.7607421875,89.0277099609375
1758786493.3829026,-0.38818359375,-0.02294921875,0.646484375,12.51220703125,-8.6669921875,3.7841796875,-3.3563232421875,34.6728515625,89.0826416015625
1758786493.3925285,-0.40869140625,0.01953125,0.71240234375,5.9814453125,-5.859375,4.45556640625,-3.22998046875,34.595947265625,89.14306640625
1758786493.402432,-0.40869140625,0.01953125,0.71240234375,5.9814453125,-5.859375,4.45556640625,-3.131103515625,34.5355224609375,89.2034912109375
1758786493.4133048,-0.43896484375,0.044921875,0.77685546875,6.34765625,-3.47900390625,5.2490234375,-3.0267333984375,34.486083984375,89.2694091796875
1758786493.4224267,-0.43896484375,0.044921875,0.77685546875,6.34765625,-3.47900390625,5.2490234375,-2.9168701171875,34.442138671875,89.3353271484375
1758786493.4327447,-0.52001953125,-0.0595703125,0.904296875,17.822265625,-2.86865234375,3.23486328125,-2.757568359375,34.398193359375,89.3902587890625
1758786493.442389,-0.52001953125,-0.0595703125,0.904296875,17.822265625,-2.86865234375,3.23486328125,-2.548828125,34.3597412109375,89.4342041015625
1758786493.4531898,-0.59423828125,-0.17236328125,0.9375,13.18359375,-1.64794921875,1.5869140625,-2.373046875,34.3267822265625,89.47265625
1758786493.4622931,-0.59423828125,-0.17236328125,0.9375,13.18359375,-1.64794921875,1.5869140625,-2.230224609375,34.2938232421875,89.5001220703125
1758786493.4734766,-0.68359375,-0.10595703125,0.8974609375,22.76611328125,-3.84521484375,-1.40380859375,-2.0599365234375,34.25537109375,89.5166015625
1758786493.4826028,-0.68359375,-0.10595703125,0.8974609375,22.76611328125,-3.84521484375,-1.40380859375,-1.8511962890625,34.2059326171875,89.5111083984375
1758786493.4924862,-0.81591796875,-0.05126953125,1.14892578125,11.71875,-7.38525390625,-1.8310546875,-1.702880859375,34.1455078125,89.5111083984375
1758786493.5025468,-0.81591796875,-0.05126953125,1.14892578125,11.71875,-7.38525390625,-1.8310546875,-1.6094970703125,34.068603515625,89.5111083984375
1758786493.5130115,-0.8466796875,0.07568359375,1.146484375,-4.2724609375,-8.544921875,-0.8544921875,-1.593017578125,33.9862060546875,89.5111083984375
1758786493.522334,-0.8466796875,0.07568359375,1.146484375,-4.2724609375,-8.544921875,-0.8544921875,-1.64794921875,33.8983154296875,89.5166015625
1758786493.5325603,-0.67333984375,0.126953125,0.80322265625,-14.892578125,-9.033203125,1.220703125,-1.7413330078125,33.81591796875,89.527587890625
1758786493.5427482,-0.67333984375,0.126953125,0.80322265625,-14.892578125,-9.033203125,1.220703125,-1.8731689453125,33.7335205078125,89.549560546875
1758786493.552518,-0.58349609375,0.0185546875,0.693359375,-1.64794921875,-6.65283203125,1.28173828125,-1.93359375,33.6676025390625,89.571533203125
1758786493.5623808,-0.58349609375,0.0185546875,0.693359375,-1.64794921875,-6.65283203125,1.28173828125,-1.93359375,33.6126708984375,89.593505859375
1758786493.5727596,-0.58837890625,-0.12255859375,0.67626953125,25.5126953125,-4.57763671875,0.3662109375,-1.7962646484375,33.57421875,89.6099853515625
1758786493.5830145,-0.58837890625,-0.12255859375,0.67626953125,25.5126953125,-4.57763671875,0.3662109375,-1.5325927734375,33.5467529296875,89.6209716796875
1758786493.5925508,-0.56201171875,-0.15185546875,0.71728515625,31.982421875,-2.9296875,-0.244140625,-1.2469482421875,33.5302734375,89.6319580078125
1758786493.6028962,-0.56201171875,-0.15185546875,0.71728515625,31.982421875,-2.9296875,-0.244140625,-0.9393310546875,33.519287109375,89.6484375
1758786493.613012,-0.51025390625,-0.0732421875,0.66015625,27.099609375,-2.62451171875,0.18310546875,-0.6591796875,33.5137939453125,89.6649169921875
1758786493.6224375,-0.51025390625,-0.0732421875,0.66015625,27.099609375,-2.62451171875,0.18310546875,-0.406494140625,33.50830078125,89.6923828125
1758786493.6325858,-0.47509765625,0.00927734375,0.56005859375,22.52197265625,-0.79345703125,0.54931640625,-0.17578125,33.50830078125,89.7198486328125
1758786493.6431463,-0.47509765625,0.00927734375,0.56005859375,22.52197265625,-0.79345703125,0.54931640625,0.0274658203125,33.5247802734375,89.7528076171875
1758786493.652587,-0.45947265625,0.04150390625,0.52392578125,10.55908203125,1.708984375,0.6103515625,0.17578125,33.55224609375,89.7802734375
1758786493.662583,-0.45947265625,0.04150390625,0.52392578125,10.55908203125,1.708984375,0.6103515625,0.2691650390625,33.59619140625,89.8077392578125
1758786493.6730704,-0.44873046875,0.0380859375,0.54248046875,-2.74658203125,6.34765625,0.732421875,0.296630859375,33.662109375,89.835205078125
1758786493.6827204,-0.44873046875,0.0380859375,0.54248046875,-2.74658203125,6.34765625,0.732421875,0.263671875,33.7554931640625,89.8626708984375
1758786493.692557,-0.5185546875,0.05712890625,0.55224609375,-1.52587890625,11.23046875,1.46484375,0.24169921875,33.870849609375,89.8956298828125
1758786493.7039137,-0.5185546875,0.05712890625,0.55224609375,-1.52587890625,11.23046875,1.46484375,0.230712890625,34.0081787109375,89.9285888671875
1758786493.7127295,-0.671875,0.0615234375,0.73876953125,-8.1787109375,13.0615234375,1.708984375,0.1922607421875,34.1619873046875,89.9560546875
1758786493.7226315,-0.671875,0.0615234375,0.73876953125,-8.1787109375,13.0615234375,1.708984375,0.1263427734375,34.3267822265625,89.989013671875
1758786493.7328534,-0.998046875,0.0380859375,1.435546875,-54.13818359375,6.591796875,0.732421875,-0.164794921875,34.453125,90.010986328125
1758786493.7431989,-0.998046875,0.0380859375,1.435546875,-54.13818359375,6.591796875,0.732421875,-0.692138671875,34.5465087890625,90.02197265625
1758786493.7527237,-0.77392578125,-0.0146484375,1.32080078125,-33.87451171875,3.60107421875,3.7841796875,-1.1041259765625,34.617919921875,90.054931640625
1758786493.7627,-0.77392578125,-0.0146484375,1.32080078125,-33.87451171875,3.60107421875,3.7841796875,-1.40625,34.6673583984375,90.1043701171875
1758786493.772969,-0.6474609375,-0.14501953125,0.69091796875,19.287109375,-1.64794921875,1.708984375,-1.4501953125,34.6893310546875,90.142822265625
1758786493.782975,-0.6474609375,-0.14501953125,0.69091796875,19.287109375,-1.64794921875,1.708984375,-1.241455078125,34.6893310546875,90.1702880859375
1758786493.7925723,-0.623046875,-0.171875,0.7353515625,39.00146484375,-0.79345703125,0.0,-0.94482421875,34.6893310546875,90.19775390625
1758786493.8030126,-0.623046875,-0.171875,0.7353515625,39.00146484375,-0.79345703125,0.0,-0.5657958984375,34.7003173828125,90.2142333984375
1758786493.8129854,-0.591796875,-0.09619140625,0.66650390625,40.52734375,0.1220703125,-3.35693359375,-0.19775390625,34.716796875,90.2197265625
1758786493.82287,-0.591796875,-0.09619140625,0.66650390625,40.52734375,0.1220703125,-3.35693359375,0.15380859375,34.73876953125,90.2032470703125
1758786493.8326218,-0.591796875,-0.09619140625,0.66650390625,18.310546875,0.6103515625,-2.99072265625,0.4010009765625,34.7607421875,90.1922607421875
1758786493.842959,-0.54638671875,0.0439453125,0.66748046875,18.310546875,0.6103515625,-2.99072265625,0.5438232421875,34.7882080078125,90.1812744140625
1758786493.8536692,-0.54052734375,0.09130859375,0.71533203125,8.4228515625,2.62451171875,-4.08935546875,0.6317138671875,34.82666015625,90.1593017578125
1758786493.862868,-0.54052734375,0.09130859375,0.71533203125,8.4228515625,2.62451171875,-4.08935546875,0.6756591796875,34.8760986328125,90.1263427734375
1758786493.8733268,-0.5849609375,0.076171875,0.6689453125,1.52587890625,1.89208984375,-2.8076171875,0.6866455078125,34.9200439453125,90.1043701171875
1758786493.8832707,-0.5849609375,0.076171875,0.6689453125,1.52587890625,1.89208984375,-2.8076171875,0.68115234375,34.9639892578125,90.0823974609375
1758786493.892785,-0.638671875,0.1103515625,0.8212890625,-11.3525390625,0.8544921875,-2.01416015625,0.6097412109375,34.9969482421875,90.06591796875
1758786493.903085,-0.638671875,0.1103515625,0.8212890625,-11.3525390625,0.8544921875,-2.01416015625,0.4888916015625,35.0299072265625,90.0439453125
1758786493.9136963,-0.62548828125,0.0810546875,0.77880859375,-16.6015625,0.244140625,-2.13623046875,0.340576171875,35.057373046875,90.02197265625
1758786493.9229925,-0.62548828125,0.0810546875,0.77880859375,-16.6015625,0.244140625,-2.13623046875,0.1702880859375,35.079345703125,90.0
1758786493.9329395,-0.63916015625,0.037109375,0.75830078125,-18.4326171875,0.0,-1.40380859375,0.0,35.101318359375,89.97802734375
1758786493.944098,-0.63916015625,0.037109375,0.75830078125,-18.4326171875,0.0,-1.40380859375,-0.17578125,35.123291015625,89.9560546875
1758786493.9528284,-0.7509765625,0.03955078125,0.84423828125,-23.5595703125,-0.67138671875,-2.01416015625,-0.3790283203125,35.145263671875,89.93408203125
1758786493.9630773,-0.7509765625,0.03955078125,0.84423828125,-23.5595703125,-0.67138671875,-2.01416015625,-0.6097412109375,35.1617431640625,89.9066162109375
1758786493.9848218,-0.78271484375,-0.00634765625,0.99755859375,-40.771484375,-2.01416015625,-2.3193359375,-0.9283447265625,35.1727294921875,89.8736572265625
1758786493.991715,-0.78271484375,-0.00634765625,0.99755859375,-40.771484375,-2.01416015625,-2.3193359375,-1.329345703125,35.17822265625,89.8406982421875
1758786493.9982655,-0.74072265625,-0.0986328125,0.7998046875,-13.73291015625,-2.50244140625,-2.01416015625,-1.5985107421875,35.17822265625,89.8077392578125
1758786494.0058389,-0.74072265625,-0.0986328125,0.7998046875,-13.73291015625,-2.50244140625,-2.01416015625,-1.73583984375,35.17822265625,89.7857666015625
1758786494.0137591,-0.65771484375,-0.10302734375,0.68896484375,15.80810546875,-1.46484375,-3.35693359375,-1.7303466796875,35.189208984375,89.7528076171875
1758786494.0230005,-0.65771484375,-0.10302734375,0.68896484375,15.80810546875,-1.46484375,-3.35693359375,-1.593017578125,35.2056884765625,89.7198486328125
1758786494.0331998,-0.65771484375,-0.10302734375,0.68896484375,21.240234375,0.9765625,-4.82177734375,-1.4337158203125,35.233154296875,89.6759033203125
1758786494.0431478,-0.6474609375,-0.05126953125,0.68115234375,21.240234375,0.9765625,-4.82177734375,-1.2579345703125,35.277099609375,89.62646484375
1758786494.0532982,-0.66015625,0.01708984375,0.7197265625,17.333984375,2.44140625,-5.126953125,-1.1041259765625,35.3265380859375,89.571533203125
1758786494.0638006,-0.66015625,0.01708984375,0.7197265625,17.333984375,2.44140625,-5.126953125,-0.966796875,35.3814697265625,89.5166015625
1758786494.0735857,-0.599609375,0.02197265625,0.7587890625,7.87353515625,4.82177734375,-5.7373046875,-0.8843994140625,35.452880859375,89.4561767578125
1758786494.0830529,-0.599609375,0.02197265625,0.7587890625,7.87353515625,4.82177734375,-5.7373046875,-0.845947265625,35.5352783203125,89.3902587890625
1758786494.0930243,-0.52392578125,0.01220703125,0.7099609375,-8.48388671875,9.46044921875,-7.01904296875,-0.8953857421875,35.6341552734375,89.3133544921875
1758786494.1040878,-0.52392578125,0.01220703125,0.7099609375,-8.48388671875,9.46044921875,-7.01904296875,-1.0272216796875,35.7550048828125,89.23095703125
1758786494.1133213,-0.45556640625,0.01953125,0.71533203125,-6.28662109375,15.93017578125,-9.1552734375,-1.153564453125,35.9033203125,89.1265869140625
1758786494.1231692,-0.45556640625,0.01953125,0.71533203125,-6.28662109375,15.93017578125,-9.1552734375,-1.2799072265625,36.0845947265625,89.01123046875
1758786494.1335342,-0.40771484375,-0.01416015625,0.7421875,1.3427734375,19.83642578125,-10.1318359375,-1.373291015625,36.2713623046875,88.8848876953125
1758786494.1441166,-0.40771484375,-0.01416015625,0.7421875,1.3427734375,19.83642578125,-10.1318359375,-1.42822265625,36.474609375,88.7530517578125
1758786494.1530383,-0.38623046875,-0.03662109375,0.7998046875,3.2958984375,21.54541015625,-10.1318359375,-1.4776611328125,36.683349609375,88.6212158203125
1758786494.163226,-0.38623046875,-0.03662109375,0.7998046875,3.2958984375,21.54541015625,-10.1318359375,-1.51611328125,36.8865966796875,88.4893798828125
1758786494.1739223,-0.3740234375,-0.060546875,0.80859375,17.4560546875,21.97265625,-9.82666015625,-1.4886474609375,37.08984375,88.363037109375
1758786494.18319,-0.3740234375,-0.060546875,0.80859375,17.4560546875,21.97265625,-9.82666015625,-1.3897705078125,37.28759765625,88.2366943359375
1758786494.1931834,-0.4208984375,-0.0625,0.82373046875,16.4794921875,20.69091796875,-9.033203125,-1.29638671875,37.474365234375,88.1158447265625
1758786494.2041903,-0.4208984375,-0.0625,0.82373046875,16.4794921875,20.69091796875,-9.033203125,-1.20849609375,37.6446533203125,88.00048828125
1758786494.213134,-0.48583984375,-0.0693359375,0.8076171875,-1.15966796875,20.20263671875,-7.01904296875,-1.2030029296875,37.81494140625,87.901611328125
1758786494.2232096,-0.48583984375,-0.0693359375,0.8076171875,-1.15966796875,20.20263671875,-7.01904296875,-1.2799072265625,37.979736328125,87.813720703125
1758786494.233809,-0.541015625,-0.048828125,0.890625,0.79345703125,15.7470703125,-5.79833984375,-1.34033203125,38.12255859375,87.7313232421875
1758786494.2436452,-0.541015625,-0.048828125,0.890625,0.79345703125,15.7470703125,-5.79833984375,-1.3897705078125,38.2379150390625,87.659912109375
1758786494.253257,-0.53076171875,-0.04052734375,0.7666015625,10.92529296875,15.13671875,-6.16455078125,-1.3897705078125,38.353271484375,87.5830078125
1758786494.2632492,-0.53076171875,-0.04052734375,0.7666015625,10.92529296875,15.13671875,-6.16455078125,-1.34033203125,38.463134765625,87.506103515625
1758786494.2740886,-0.5400390625,0.00390625,0.66455078125,-6.8359375,13.36669921875,-6.2255859375,-1.3787841796875,38.5675048828125,87.42919921875
1758786494.2832592,-0.5400390625,0.00390625,0.66455078125,-6.8359375,13.36669921875,-6.2255859375,-1.505126953125,38.6663818359375,87.3468017578125
1758786494.2941163,-0.6748046875,0.0322265625,0.873046875,3.11279296875,10.7421875,-4.2724609375,-1.571044921875,38.7542724609375,87.275390625
1758786494.3043013,-0.6748046875,0.0322265625,0.873046875,3.11279296875,10.7421875,-4.2724609375,-1.5765380859375,38.8311767578125,87.220458984375
1758786494.313388,-0.75390625,0.00927734375,1.09912109375,21.97265625,6.53076171875,-4.2724609375,-1.4886474609375,38.8916015625,87.1600341796875
1758786494.323684,-0.75390625,0.00927734375,1.09912109375,21.97265625,6.53076171875,-4.2724609375,-1.3018798828125,38.924560546875,87.1051025390625
1758786494.334157,-0.83984375,0.0732421875,1.1083984375,0.9765625,2.74658203125,-2.8076171875,-1.2139892578125,38.946533203125,87.0556640625
1758786494.3436706,-0.83984375,0.0732421875,1.1083984375,0.9765625,2.74658203125,-2.8076171875,-1.219482421875,38.946533203125,87.01171875
1758786494.3533523,-0.77099609375,0.06640625,0.95654296875,-25.2685546875,0.18310546875,-3.5400390625,-1.3568115234375,38.935546875,86.9677734375
1758786494.3641927,-0.77099609375,0.06640625,0.95654296875,-25.2685546875,0.18310546875,-3.5400390625,-1.6259765625,38.9190673828125,86.912841796875
1758786494.3735015,-0.822265625,0.05126953125,0.86572265625,-46.20361328125,-1.89208984375,-3.41796875,-1.9940185546875,38.8916015625,86.85791015625
1758786494.3836842,-0.822265625,0.05126953125,0.86572265625,-46.20361328125,-1.89208984375,-3.41796875,-2.4609375,38.858642578125,86.802978515625
1758786494.3937743,-0.79541015625,0.00244140625,0.9052734375,-45.59326171875,-5.31005859375,-0.79345703125,-2.911376953125,38.814697265625,86.759033203125
1758786494.4039319,-0.79541015625,0.00244140625,0.9052734375,-45.59326171875,-5.31005859375,-0.79345703125,-3.3453369140625,38.7542724609375,86.737060546875
1758786494.4134452,-0.63037109375,-0.1669921875,0.6572265625,-25.634765625,-4.150390625,0.54931640625,-3.570556640625,38.7103271484375,86.7315673828125
1758786494.4237921,-0.63037109375,-0.1669921875,0.6572265625,-25.634765625,-4.150390625,0.54931640625,-3.80126953125,38.6663818359375,86.7315673828125
1758786494.4338167,-0.6201171875,-0.138671875,0.4619140625,8.4228515625,-3.11279296875,-0.1220703125,-3.7078857421875,38.6444091796875,86.7205810546875
1758786494.443787,-0.6201171875,-0.138671875,0.4619140625,8.4228515625,-3.11279296875,-0.1220703125,-3.614501953125,38.6224365234375,86.7095947265625
1758786494.4534786,-0.70361328125,-0.13818359375,0.62451171875,13.0615234375,-2.50244140625,-1.953125,-3.4991455078125,38.6114501953125,86.6766357421875
1758786494.464573,-0.70361328125,-0.13818359375,0.62451171875,13.0615234375,-2.50244140625,-1.953125,-3.3837890625,38.60595703125,86.6436767578125
1758786494.4738448,-0.7099609375,-0.0888671875,0.853515625,-3.23486328125,-2.5634765625,-1.0986328125,-3.4332275390625,38.6004638671875,86.627197265625
1758786494.4838266,-0.7099609375,-0.0888671875,0.853515625,-3.23486328125,-2.5634765625,-1.0986328125,-3.4771728515625,38.5894775390625,86.605224609375
1758786494.4907029,-0.7099609375,-0.0888671875,0.853515625,-3.23486328125,-2.5634765625,-1.0986328125,120.443115234375,0.439453125,0.0
1758786494.493972,-0.64111328125,-0.03466796875,0.82177734375,2.74658203125,-4.45556640625,-0.8544921875,-3.460693359375,38.56201171875,86.5887451171875
1758786494.5041366,-0.64111328125,-0.03466796875,0.82177734375,2.74658203125,-4.45556640625,-0.8544921875,-3.4442138671875,38.529052734375,86.572265625
1758786494.5135555,-0.52294921875,-0.05078125,0.73291015625,10.19287109375,-4.0283203125,-1.0986328125,-3.350830078125,38.5015869140625,86.5557861328125
1758786494.5238423,-0.52294921875,-0.05078125,0.73291015625,10.19287109375,-4.0283203125,-1.0986328125,-3.262939453125,38.47412109375,86.5338134765625
1758786494.5340679,-0.5078125,0.0107421875,0.68798828125,-6.65283203125,-3.72314453125,-1.5869140625,-3.3453369140625,38.441162109375,86.50634765625
1758786494.5441794,-0.5078125,0.0107421875,0.68798828125,-6.65283203125,-3.72314453125,-1.5869140625,-3.4222412109375,38.408203125,86.4788818359375
1758786494.5536013,-0.4697265625,0.00390625,0.65380859375,-8.11767578125,-1.5869140625,-1.52587890625,-3.5101318359375,38.397216796875,86.451416015625
1758786494.563991,-0.4697265625,0.00390625,0.65380859375,-8.11767578125,-1.5869140625,-1.52587890625,-3.5980224609375,38.38623046875,86.41845703125
1758786494.5739617,-0.46875,-0.03271484375,0.669921875,4.69970703125,-0.79345703125,-2.3193359375,-3.5650634765625,38.375244140625,86.37451171875
1758786494.5839663,-0.46875,-0.03271484375,0.669921875,4.69970703125,-0.79345703125,-2.3193359375,-3.5321044921875,38.3642578125,86.3360595703125
1758786494.5936801,-0.51171875,-0.095703125,0.7353515625,18.06640625,0.1220703125,-3.72314453125,-3.3782958984375,38.3642578125,86.275634765625
1758786494.6053324,-0.51171875,-0.095703125,0.7353515625,18.06640625,0.1220703125,-3.72314453125,-3.2244873046875,38.3587646484375,86.220703125
1758786494.6145415,-0.55029296875,-0.123046875,0.78466796875,24.35302734375,-0.48828125,-4.94384765625,-3.0267333984375,38.34228515625,86.1492919921875
1758786494.6239474,-0.55029296875,-0.123046875,0.78466796875,24.35302734375,-0.48828125,-4.94384765625,-2.83447265625,38.331298828125,86.0833740234375
1758786494.633931,-0.60791015625,-0.08984375,0.78369140625,19.775390625,-0.54931640625,-6.28662109375,-2.6971435546875,38.3148193359375,86.0009765625
1758786494.6442897,-0.60791015625,-0.08984375,0.78369140625,19.775390625,-0.54931640625,-6.28662109375,-2.5653076171875,38.29833984375,85.9130859375
1758786494.65374,-0.60986328125,-0.0595703125,0.7392578125,8.544921875,-1.28173828125,-6.8359375,-2.548828125,38.2763671875,85.8251953125
1758786494.6640644,-0.60986328125,-0.0595703125,0.7392578125,8.544921875,-1.28173828125,-6.8359375,-2.5323486328125,38.25439453125,85.7373046875
1758786494.674401,-0.63623046875,-0.0537109375,0.81884765625,13.48876953125,-2.3193359375,-7.62939453125,-2.4664306640625,38.2269287109375,85.6329345703125
1758786494.6843822,-0.63623046875,-0.0537109375,0.81884765625,13.48876953125,-2.3193359375,-7.62939453125,-2.406005859375,38.1939697265625,85.5340576171875
1758786494.6937845,-0.60888671875,-0.07421875,0.73046875,13.61083984375,-2.74658203125,-6.53076171875,-2.3345947265625,38.1610107421875,85.45166015625
1758786494.7042365,-0.60888671875,-0.07421875,0.73046875,13.61083984375,-2.74658203125,-6.53076171875,-2.2686767578125,38.133544921875,85.36376953125
1758786494.7140665,-0.5166015625,-0.07421875,0.75439453125,22.0947265625,-3.35693359375,-7.50732421875,-2.120361328125,38.0950927734375,85.264892578125
1758786494.7241518,-0.5166015625,-0.07421875,0.75439453125,22.0947265625,-3.35693359375,-7.50732421875,-1.9775390625,38.0511474609375,85.1715087890625
1758786494.7339692,-0.5126953125,-0.05224609375,0.61474609375,33.63037109375,-1.46484375,-8.11767578125,-1.7193603515625,38.03466796875,85.0616455078125
1758786494.7446237,-0.5126953125,-0.05224609375,0.61474609375,33.63037109375,-1.46484375,-8.11767578125,-1.47216796875,38.0126953125,84.957275390625
1758786494.7538588,-0.5859375,-0.03515625,0.63427734375,38.63525390625,-1.28173828125,-9.27734375,-1.175537109375,38.001708984375,84.83642578125
1758786494.764208,-0.5859375,-0.03515625,0.63427734375,38.63525390625,-1.28173828125,-9.27734375,-0.8843994140625,37.99072265625,84.7100830078125
1758786494.7743275,-0.7978515625,0.04736328125,0.97509765625,17.15087890625,-3.35693359375,-7.99560546875,-0.7965087890625,37.957763671875,84.605712890625
1758786494.7842326,-0.7978515625,0.04736328125,0.97509765625,17.15087890625,-3.35693359375,-7.99560546875,-0.6976318359375,37.9302978515625,84.495849609375
1758786494.7938948,-0.89111328125,0.03759765625,1.14501953125,7.38525390625,-8.36181640625,-7.6904296875,-0.6976318359375,37.847900390625,84.385986328125
1758786494.8043003,-0.89111328125,0.03759765625,1.14501953125,7.38525390625,-8.36181640625,-7.6904296875,-0.6866455078125,37.77099609375,84.276123046875
1758786494.8146315,-0.8779296875,-0.0703125,1.08837890625,1.15966796875,-12.939453125,-5.92041015625,-0.72509765625,37.6446533203125,84.1937255859375
1758786494.8242416,-0.8779296875,-0.0703125,1.08837890625,1.15966796875,-12.939453125,-5.92041015625,-0.76904296875,37.5238037109375,84.1058349609375
1758786494.834117,-0.7001953125,-0.02685546875,0.66552734375,-0.6103515625,-12.0849609375,-5.31005859375,-0.8184814453125,37.408447265625,84.0289306640625
1758786494.8449705,-0.7001953125,-0.02685546875,0.66552734375,-0.6103515625,-12.0849609375,-5.31005859375,-0.8734130859375,37.3040771484375,83.946533203125
1758786494.8542557,-0.62158203125,-0.03955078125,0.494140625,18.61572265625,-5.92041015625,-6.103515625,-0.7415771484375,37.265625,83.858642578125
1758786494.864264,-0.62158203125,-0.03955078125,0.494140625,18.61572265625,-5.92041015625,-6.103515625,-0.6097412109375,37.2271728515625,83.7652587890625
1758786494.874077,-0.65625,-0.01025390625,0.58056640625,14.58740234375,1.77001953125,-5.43212890625,-0.516357421875,37.276611328125,83.682861328125
1758786494.8848715,-0.65625,-0.01025390625,0.58056640625,14.58740234375,1.77001953125,-5.43212890625,-0.4229736328125,37.320556640625,83.594970703125
1758786494.894026,-0.6943359375,0.0771484375,0.64208984375,-6.591796875,7.568359375,-5.9814453125,-0.538330078125,37.430419921875,83.49609375
1758786494.9044273,-0.6943359375,0.0771484375,0.64208984375,-6.591796875,7.568359375,-5.9814453125,-0.6536865234375,37.540283203125,83.3917236328125
1758786494.9145741,-0.6962890625,0.09912109375,0.7783203125,8.72802734375,9.521484375,-5.4931640625,-0.604248046875,37.672119140625,83.2928466796875
1758786494.9244068,-0.6962890625,0.09912109375,0.7783203125,8.72802734375,9.521484375,-5.4931640625,-0.54931640625,37.7984619140625,83.1884765625
1758786494.9340804,-0.64501953125,0.02197265625,0.77294921875,7.14111328125,10.3759765625,-5.2490234375,-0.5108642578125,37.9302978515625,83.089599609375
1758786494.9444723,-0.64501953125,0.02197265625,0.77294921875,7.14111328125,10.3759765625,-5.2490234375,-0.4669189453125,38.0621337890625,82.99072265625
1758786494.954603,-0.59814453125,-0.0234375,0.85546875,-1.40380859375,9.82666015625,-4.39453125,-0.5108642578125,38.1829833984375,82.90283203125
1758786494.9644072,-0.59814453125,-0.0234375,0.85546875,-1.40380859375,9.82666015625,-4.39453125,-0.54931640625,38.29833984375,82.8204345703125
1758786494.9741447,-0.5654296875,-0.107421875,0.85546875,17.578125,7.99560546875,-3.47900390625,-0.4010009765625,38.3917236328125,82.7545166015625
1758786494.9847186,-0.5654296875,-0.107421875,0.85546875,17.578125,7.99560546875,-3.47900390625,-0.2581787109375,38.4796142578125,82.6885986328125
1758786494.9943047,-0.5693359375,-0.10400390625,0.83203125,3.47900390625,5.67626953125,-2.86865234375,-0.252685546875,38.5400390625,82.6336669921875
1758786495.0044396,-0.5693359375,-0.10400390625,0.83203125,3.47900390625,5.67626953125,-2.86865234375,-0.252685546875,38.6004638671875,82.584228515625
1758786495.0146508,-0.58837890625,-0.0224609375,0.87109375,3.23486328125,3.90625,-2.9296875,-0.2581787109375,38.6334228515625,82.5347900390625
1758786495.025105,-0.58837890625,-0.0224609375,0.87109375,3.23486328125,3.90625,-2.9296875,-0.2581787109375,38.671875,82.4853515625
1758786495.0342748,-0.58837890625,-0.0224609375,0.87109375,12.26806640625,2.38037109375,-2.86865234375,-0.1702880859375,38.682861328125,82.4359130859375
1758786495.0445144,-0.5029296875,-0.0205078125,0.8291015625,12.26806640625,2.38037109375,-2.86865234375,-0.0823974609375,38.6993408203125,82.3919677734375
1758786495.055216,-0.43603515625,-0.013671875,0.75537109375,18.37158203125,3.47900390625,-2.50244140625,0.0604248046875,38.7158203125,82.3480224609375
1758786495.0646768,-0.43603515625,-0.013671875,0.75537109375,18.37158203125,3.47900390625,-2.50244140625,0.2142333984375,38.7322998046875,82.3040771484375
1758786495.0741832,-0.515625,0.025390625,0.73388671875,16.9677734375,4.5166015625,-2.99072265625,0.3460693359375,38.759765625,82.254638671875
1758786495.0845523,-0.515625,0.025390625,0.73388671875,16.9677734375,4.5166015625,-2.99072265625,0.4833984375,38.7872314453125,82.2052001953125
1758786495.0949259,-0.78271484375,0.06982421875,0.98388671875,8.544921875,2.74658203125,-2.62451171875,0.538330078125,38.792724609375,82.1612548828125
1758786495.104596,-0.78271484375,0.06982421875,0.98388671875,8.544921875,2.74658203125,-2.62451171875,0.5987548828125,38.8037109375,82.11181640625
1758786495.1147437,-1.06396484375,0.04345703125,1.34423828125,-16.357421875,-3.41796875,-3.173828125,0.406494140625,38.759765625,82.056884765625
1758786495.124632,-1.06396484375,0.04345703125,1.34423828125,-16.357421875,-3.41796875,-3.173828125,0.2197265625,38.7103271484375,81.9964599609375
1758786495.134286,-0.75048828125,0.02978515625,1.04248046875,-19.47021484375,-7.2021484375,-2.50244140625,0.0054931640625,38.6279296875,81.947021484375
1758786495.144654,-0.75048828125,0.02978515625,1.04248046875,-19.47021484375,-7.2021484375,-2.50244140625,-0.19775390625,38.5455322265625,81.8975830078125
1758786495.1549597,-0.51318359375,0.01025390625,0.61474609375,-9.033203125,-9.09423828125,-3.90625,-0.3131103515625,38.441162109375,81.8316650390625
1758786495.1646397,-0.51318359375,0.01025390625,0.61474609375,-9.033203125,-9.09423828125,-3.90625,-0.428466796875,38.34228515625,81.7657470703125
1758786495.1743665,-0.34912109375,0.01025390625,0.47900390625,-3.47900390625,-4.150390625,-5.06591796875,-0.494384765625,38.2928466796875,81.683349609375
1758786495.185407,-0.34912109375,0.01025390625,0.47900390625,-3.47900390625,-4.150390625,-5.06591796875,-0.560302734375,38.243408203125,81.6009521484375
1758786495.194497,-0.3583984375,0.0,0.4755859375,-7.14111328125,-0.18310546875,-6.7138671875,-0.6756591796875,38.232421875,81.49658203125
1758786495.20514,-0.3583984375,0.0,0.4755859375,-7.14111328125,-0.18310546875,-6.7138671875,-0.791015625,38.221435546875,81.397705078125
1758786495.2144494,-0.455078125,-0.01708984375,0.6591796875,-15.19775390625,2.197265625,-6.9580078125,-0.98876953125,38.232421875,81.2933349609375
1758786495.2251928,-0.455078125,-0.01708984375,0.6591796875,-15.19775390625,2.197265625,-6.9580078125,-1.1865234375,38.243408203125,81.1834716796875
1758786495.2344363,-0.49169921875,0.04541015625,0.82763671875,-22.94921875,2.13623046875,-6.4697265625,-1.4556884765625,38.2489013671875,81.0845947265625
1758786495.2447724,-0.49169921875,0.04541015625,0.82763671875,-22.94921875,2.13623046875,-6.4697265625,-1.724853515625,38.25439453125,80.9857177734375
1758786495.254731,-0.43115234375,-0.01318359375,0.857421875,-15.625,1.3427734375,-6.04248046875,-1.91162109375,38.243408203125,80.892333984375
1758786495.2650278,-0.43115234375,-0.01318359375,0.857421875,-15.625,1.3427734375,-6.04248046875,-2.098388671875,38.2269287109375,80.804443359375
1758786495.2745292,-0.50048828125,-0.0830078125,0.7392578125,20.81298828125,0.6103515625,-5.859375,-1.9281005859375,38.2049560546875,80.716552734375
1758786495.284787,-0.50048828125,-0.0830078125,0.7392578125,20.81298828125,0.6103515625,-5.859375,-1.7578125,38.1829833984375,80.628662109375
1758786495.295092,-0.6787109375,-0.0859375,0.8349609375,17.7001953125,-0.42724609375,-8.544921875,-1.6424560546875,38.1500244140625,80.5133056640625
1758786495.3047373,-0.6787109375,-0.0859375,0.8349609375,17.7001953125,-0.42724609375,-8.544921875,-1.5325927734375,38.12255859375,80.3924560546875
1758786495.3146398,-0.98291015625,0.01708984375,1.23291015625,-21.1181640625,-6.8359375,-7.6904296875,-1.8017578125,38.0401611328125,80.2880859375
1758786495.3250175,-0.98291015625,0.01708984375,1.23291015625,-21.1181640625,-6.8359375,-7.6904296875,-2.0654296875,37.9522705078125,80.17822265625
1758786495.3347154,-1.06787109375,-0.10107421875,1.2412109375,-11.16943359375,-12.5732421875,-9.6435546875,-2.2467041015625,37.81494140625,80.0518798828125
1758786495.3447695,-1.06787109375,-0.10107421875,1.2412109375,-11.16943359375,-12.5732421875,-9.6435546875,-2.427978515625,37.68310546875,79.9200439453125
1758786495.3546543,-0.81298828125,-0.15869140625,0.93994140625,0.244140625,-18.12744140625,-5.79833984375,-2.4609375,37.496337890625,79.8486328125
1758786495.3652,-0.81298828125,-0.15869140625,0.93994140625,0.244140625,-18.12744140625,-5.79833984375,-2.5048828125,37.3150634765625,79.771728515625
1758786495.3746529,-0.5341796875,-0.04052734375,0.70703125,15.869140625,-17.51708984375,-5.67626953125,-2.3895263671875,37.144775390625,79.7003173828125
1758786495.384785,-0.5341796875,-0.04052734375,0.70703125,15.869140625,-17.51708984375,-5.67626953125,-2.274169921875,36.968994140625,79.6234130859375
1758786495.3952951,-0.48193359375,0.001953125,0.5947265625,30.09033203125,-14.22119140625,-7.32421875,-2.0269775390625,36.8316650390625,79.530029296875
1758786495.4048169,-0.48193359375,0.001953125,0.5947265625,30.09033203125,-14.22119140625,-7.32421875,-1.7852783203125,36.6943359375,79.43115234375
1758786495.4146314,-0.4697265625,-0.0009765625,0.67236328125,24.35302734375,-10.80322265625,-7.8125,-1.60400390625,36.5899658203125,79.3267822265625
1758786495.4251223,-0.45556640625,-0.02734375,0.677734375,5.37109375,-8.97216796875,-7.75146484375,-1.51611328125,36.49658203125,79.222412109375
1758786495.4347894,-0.45556640625,-0.02734375,0.677734375,5.37109375,-8.97216796875,-7.75146484375,-1.527099609375,36.40869140625,79.12353515625
1758786495.4447877,-0.46728515625,-0.07763671875,0.77001953125,8.6669921875,-7.4462890625,-6.77490234375,-1.5106201171875,36.3262939453125,79.0301513671875
1758786495.4550128,-0.46728515625,-0.07763671875,0.77001953125,8.6669921875,-7.4462890625,-6.77490234375,-1.483154296875,36.2493896484375,78.9422607421875
1758786495.4652753,-0.49072265625,-0.068359375,0.748046875,10.07080078125,-7.14111328125,-7.080078125,-1.4501953125,36.1724853515625,78.85986328125
1758786495.474723,-0.49072265625,-0.068359375,0.748046875,10.07080078125,-7.14111328125,-7.080078125,-1.4117431640625,36.10107421875,78.77197265625
1758786495.4848099,-0.4599609375,0.01708984375,0.87109375,-4.57763671875,-6.40869140625,-7.26318359375,-1.4447021484375,36.024169921875,78.6895751953125
1758786495.4953647,-0.4599609375,0.01708984375,0.87109375,-4.57763671875,-6.40869140625,-7.26318359375,-1.549072265625,35.9527587890625,78.6016845703125
1758786495.5052483,-0.4228515625,0.0439453125,0.75537109375,-5.92041015625,-2.74658203125,-7.080078125,-1.658935546875,35.892333984375,78.519287109375
1758786495.5153642,-0.4228515625,0.0439453125,0.75537109375,-5.92041015625,-2.74658203125,-7.080078125,-1.768798828125,35.848388671875,78.431396484375
1758786495.5249214,-0.4638671875,-0.03515625,0.6982421875,-12.14599609375,0.9765625,-6.65283203125,-1.9061279296875,35.8209228515625,78.3489990234375
1758786495.53481,-0.4638671875,-0.03515625,0.6982421875,-12.14599609375,0.9765625,-6.65283203125,-2.076416015625,35.8154296875,78.2666015625
1758786495.544814,-0.56689453125,-0.04638671875,0.8701171875,-12.5732421875,2.8076171875,-6.8359375,-2.2467041015625,35.8154296875,78.189697265625
1758786495.5551808,-0.56689453125,-0.04638671875,0.8701171875,-12.5732421875,2.8076171875,-6.8359375,-2.4169921875,35.826416015625,78.1072998046875
1758786495.5648527,-0.66015625,-0.04931640625,0.884765625,4.0283203125,4.8828125,-7.14111328125,-2.5103759765625,35.8428955078125,78.0194091796875
1758786495.5748525,-0.66015625,-0.04931640625,0.884765625,4.0283203125,4.8828125,-7.14111328125,-2.5213623046875,35.8758544921875,77.93701171875
1758786495.585088,-0.67041015625,-0.04638671875,0.79541015625,0.06103515625,8.36181640625,-8.11767578125,-2.5543212890625,35.9307861328125,77.8436279296875
1758786495.5955298,-0.67041015625,-0.04638671875,0.79541015625,0.06103515625,8.36181640625,-8.11767578125,-2.61474609375,36.002197265625,77.7447509765625
1758786495.6048963,-0.77294921875,-0.02099609375,0.73388671875,-13.61083984375,13.427734375,-8.544921875,-2.74658203125,36.10107421875,77.6348876953125
1758786495.6149528,-0.77294921875,-0.02099609375,0.73388671875,-13.61083984375,13.427734375,-8.544921875,-2.9443359375,36.2384033203125,77.5250244140625
1758786495.6255326,-0.84228515625,-0.01123046875,0.81396484375,-18.98193359375,16.7236328125,-7.50732421875,-3.1695556640625,36.3922119140625,77.4151611328125
1758786495.635173,-0.84228515625,-0.01123046875,0.81396484375,-18.98193359375,16.7236328125,-7.50732421875,-3.4112548828125,36.5625,77.3052978515625
1758786495.6448815,-0.82568359375,0.02880859375,0.89208984375,-12.39013671875,16.4794921875,-6.16455078125,-3.6199951171875,36.7437744140625,77.2064208984375
1758786495.6551363,-0.82568359375,0.02880859375,0.89208984375,-12.39013671875,16.4794921875,-6.16455078125,-3.7847900390625,36.9195556640625,77.113037109375
1758786495.6652691,-0.7470703125,0.01318359375,0.86865234375,-4.82177734375,13.7939453125,-5.2490234375,-3.9056396484375,37.0843505859375,77.0196533203125
1758786495.6750197,-0.7470703125,0.01318359375,0.86865234375,-4.82177734375,13.7939453125,-5.2490234375,-3.9825439453125,37.2381591796875,76.937255859375
1758786495.6850076,-0.7109375,-0.02490234375,0.77978515625,-9.1552734375,7.26318359375,-4.150390625,-4.075927734375,37.353515625,76.8658447265625
1758786495.6955523,-0.7109375,-0.02490234375,0.77978515625,-9.1552734375,7.26318359375,-4.150390625,-4.1802978515625,37.44140625,76.7999267578125
1758786495.7050471,-0.67138671875,-0.07568359375,0.78955078125,-7.14111328125,0.9765625,-2.74658203125,-4.273681640625,37.496337890625,76.7449951171875
1758786495.715036,-0.67138671875,-0.07568359375,0.78955078125,-7.14111328125,0.9765625,-2.74658203125,-4.3505859375,37.5238037109375,76.70654296875
1758786495.725037,-0.64208984375,-0.14501953125,0.78515625,-1.3427734375,-3.662109375,-1.77001953125,-4.39453125,37.5238037109375,76.6790771484375
1758786495.7361634,-0.64208984375,-0.14501953125,0.78515625,-1.3427734375,-3.662109375,-1.77001953125,-4.4110107421875,37.50732421875,76.66259765625
1758786495.7450788,-0.572265625,-0.12060546875,0.7333984375,-6.103515625,-6.04248046875,-0.3662109375,-4.449462890625,37.474365234375,76.6571044921875
1758786495.7551506,-0.572265625,-0.12060546875,0.7333984375,-6.103515625,-6.04248046875,-0.3662109375,-4.50439453125,37.4249267578125,76.66259765625
1758786495.7656622,-0.53564453125,-0.099609375,0.6025390625,-13.36669921875,-4.150390625,-0.48828125,-4.603271484375,37.3919677734375,76.673583984375
1758786495.7751367,-0.53564453125,-0.099609375,0.6025390625,-13.36669921875,-4.150390625,-0.48828125,-4.7406005859375,37.364501953125,76.6790771484375
1758786495.7852132,-0.50537109375,-0.05078125,0.599609375,-16.29638671875,-0.9765625,-1.03759765625,-4.8944091796875,37.353515625,76.6790771484375
1758786495.7963197,-0.50537109375,-0.05078125,0.599609375,-16.29638671875,-0.9765625,-1.03759765625,-5.064697265625,37.3590087890625,76.6790771484375
1758786495.8053782,-0.52001953125,-0.00830078125,0.57275390625,-8.9111328125,3.60107421875,-2.0751953125,-5.2020263671875,37.386474609375,76.6680908203125
1758786495.815204,-0.52001953125,-0.00830078125,0.57275390625,-8.9111328125,3.60107421875,-2.0751953125,-5.306396484375,37.44140625,76.6461181640625
1758786495.8251987,-0.5380859375,0.0009765625,0.6962890625,0.30517578125,5.7373046875,-2.0751953125,-5.361328125,37.5018310546875,76.6241455078125
1758786495.8362346,-0.5380859375,0.0009765625,0.6962890625,0.30517578125,5.7373046875,-2.0751953125,-5.372314453125,37.5732421875,76.5966796875
1758786495.845176,-0.576171875,-0.0205078125,0.841796875,4.08935546875,6.2255859375,-2.685546875,-5.361328125,37.63916015625,76.5692138671875
1758786495.8551753,-0.576171875,-0.0205078125,0.841796875,4.08935546875,6.2255859375,-2.685546875,-5.3338623046875,37.7105712890625,76.5362548828125
1758786495.8658757,-0.60107421875,-0.07958984375,0.88671875,1.5869140625,4.08935546875,-3.72314453125,-5.3228759765625,37.7655029296875,76.5032958984375
1758786495.8754122,-0.60107421875,-0.07958984375,0.88671875,1.5869140625,4.08935546875,-3.72314453125,-5.328369140625,37.803955078125,76.4593505859375
1758786495.885325,-0.58154296875,-0.142578125,0.841796875,-4.7607421875,1.8310546875,-4.39453125,-5.3668212890625,37.825927734375,76.4208984375
1758786495.8953283,-0.58154296875,-0.142578125,0.841796875,-4.7607421875,1.8310546875,-4.39453125,-5.4437255859375,37.8424072265625,76.376953125
1758786495.9058955,-0.53955078125,-0.13720703125,0.853515625,3.72314453125,0.244140625,-5.2490234375,-5.482177734375,37.8424072265625,76.3330078125
1758786495.915436,-0.53955078125,-0.13720703125,0.853515625,3.72314453125,0.244140625,-5.2490234375,-5.482177734375,37.8314208984375,76.2890625
1758786495.9256277,-0.51708984375,-0.11279296875,0.7841796875,15.869140625,0.30517578125,-6.04248046875,-5.4327392578125,37.81494140625,76.2396240234375
1758786495.9355261,-0.51708984375,-0.11279296875,0.7841796875,15.869140625,0.30517578125,-6.04248046875,-5.3228759765625,37.803955078125,76.1846923828125
1758786495.945414,-0.53759765625,-0.07666015625,0.716796875,17.578125,0.732421875,-7.99560546875,-5.2130126953125,37.7874755859375,76.1187744140625
1758786495.955372,-0.53759765625,-0.07666015625,0.716796875,17.578125,0.732421875,-7.99560546875,-5.108642578125,37.7764892578125,76.0418701171875
1758786495.965995,-0.5830078125,-0.08349609375,0.70849609375,22.64404296875,1.77001953125,-8.85009765625,-4.976806640625,37.77099609375,75.9649658203125
1758786495.9754367,-0.5830078125,-0.08349609375,0.70849609375,22.64404296875,1.77001953125,-8.85009765625,-4.8284912109375,37.77099609375,75.8770751953125
1758786495.985411,-0.6376953125,-0.09033203125,0.7451171875,22.3388671875,0.91552734375,-9.6435546875,-4.6856689453125,37.7655029296875,75.78369140625
1758786495.9964237,-0.6376953125,-0.09033203125,0.7451171875,22.3388671875,0.91552734375,-9.6435546875,-4.54833984375,37.7655029296875,75.6903076171875
1758786496.0054018,-0.650390625,-0.13916015625,0.78125,17.76123046875,0.732421875,-10.68115234375,-4.4384765625,37.760009765625,75.5859375
1758786496.0154445,-0.650390625,-0.13916015625,0.78125,17.76123046875,0.732421875,-10.68115234375,-4.3560791015625,37.7545166015625,75.4815673828125
1758786496.025996,-0.66357421875,-0.138671875,0.880859375,23.92578125,-0.91552734375,-11.3525390625,-4.251708984375,37.7435302734375,75.3717041015625
1758786496.0355375,-0.66357421875,-0.138671875,0.880859375,23.92578125,-0.91552734375,-11.3525390625,-4.119873046875,37.72705078125,75.2618408203125
1758786496.0453732,-0.65869140625,-0.025390625,0.85986328125,27.16064453125,-2.99072265625,-10.8642578125,-3.966064453125,37.694091796875,75.157470703125
1758786496.055483,-0.65869140625,-0.025390625,0.85986328125,27.16064453125,-2.99072265625,-10.8642578125,-3.7957763671875,37.6556396484375,75.0531005859375
1758786496.0661094,-0.60205078125,0.06005859375,0.78759765625,18.37158203125,-3.11279296875,-10.31494140625,-3.6639404296875,37.6171875,74.9542236328125
1758786496.0754676,-0.60205078125,0.06005859375,0.78759765625,18.37158203125,-3.11279296875,-10.31494140625,-3.5650634765625,37.5787353515625,74.8553466796875
1758786496.0855007,-0.611328125,0.017578125,0.6943359375,7.4462890625,-3.23486328125,-10.25390625,-3.515625,37.540283203125,74.7509765625
1758786496.0963333,-0.611328125,0.017578125,0.6943359375,7.4462890625,-3.23486328125,-10.25390625,-3.5211181640625,37.50732421875,74.652099609375
1758786496.1060855,-0.6357421875,-0.044921875,0.75439453125,1.3427734375,-3.2958984375,-9.521484375,-3.5540771484375,37.4688720703125,74.55322265625
1758786496.115495,-0.6357421875,-0.044921875,0.75439453125,1.3427734375,-3.2958984375,-9.521484375,-3.6090087890625,37.4359130859375,74.4598388671875
1758786496.1259096,-0.64208984375,-0.14208984375,0.78076171875,0.1220703125,-3.0517578125,-10.7421875,-3.6749267578125,37.408447265625,74.35546875
1758786496.1360018,-0.64208984375,-0.14208984375,0.78076171875,0.1220703125,-3.0517578125,-10.7421875,-3.75732421875,37.37548828125,74.2510986328125
1758786496.1455328,-0.60693359375,-0.1806640625,0.802734375,12.0849609375,-5.18798828125,-11.8408203125,-3.790283203125,37.3370361328125,74.1357421875
1758786496.1564379,-0.60693359375,-0.1806640625,0.802734375,12.0849609375,-5.18798828125,-11.8408203125,-3.768310546875,37.2821044921875,74.0203857421875
1758786496.166564,-0.5185546875,-0.13671875,0.65478515625,27.2216796875,-3.90625,-12.6953125,-3.680419921875,37.232666015625,73.905029296875
1758786496.175902,-0.5185546875,-0.13671875,0.65478515625,27.2216796875,-3.90625,-12.6953125,-3.5211181640625,37.1942138671875,73.7786865234375
1758786496.1855752,-0.50048828125,-0.06396484375,0.60888671875,24.0478515625,-3.5400390625,-13.36669921875,-3.3837890625,37.15576171875,73.6468505859375
1758786496.1964939,-0.50048828125,-0.06396484375,0.60888671875,24.0478515625,-3.5400390625,-13.36669921875,-3.2684326171875,37.1173095703125,73.5150146484375
1758786496.2056503,-0.57861328125,0.00927734375,0.7802734375,18.798828125,-2.99072265625,-13.24462890625,-3.175048828125,37.0843505859375,73.3831787109375
1758786496.2159307,-0.57861328125,0.00927734375,0.7802734375,18.798828125,-2.99072265625,-13.24462890625,-3.09814453125,37.0513916015625,73.245849609375
1758786496.225625,-0.65625,-0.00244140625,0.92724609375,5.79833984375,-2.86865234375,-13.427734375,-3.0926513671875,37.0184326171875,73.1085205078125
1758786496.2364526,-0.65625,-0.00244140625,0.92724609375,5.79833984375,-2.86865234375,-13.427734375,-3.14208984375,36.990966796875,72.97119140625
1758786496.2456508,-0.642578125,-0.06201171875,0.83544921875,-0.18310546875,-3.41796875,-13.18359375,-3.218994140625,36.9525146484375,72.8338623046875
1758786496.255983,-0.642578125,-0.06201171875,0.83544921875,-0.18310546875,-3.41796875,-13.18359375,-3.3233642578125,36.9140625,72.696533203125
1758786496.2660217,-0.6357421875,-0.1015625,0.85205078125,-12.5732421875,-2.685546875,-13.3056640625,-3.49365234375,36.881103515625,72.5592041015625
1758786496.2762182,-0.6357421875,-0.1015625,0.85205078125,-12.5732421875,-2.685546875,-13.3056640625,-3.724365234375,36.84814453125,72.4163818359375
1758786496.285716,-0.64599609375,-0.11572265625,0.7490234375,14.2822265625,-1.77001953125,-13.73291015625,-3.8177490234375,36.8206787109375,72.2735595703125
1758786496.2960865,-0.64599609375,-0.11572265625,0.7490234375,14.2822265625,-1.77001953125,-13.73291015625,-3.790283203125,36.7987060546875,72.125244140625
1758786496.3064282,-0.619140625,-0.1318359375,0.69970703125,58.10546875,0.79345703125,-13.3056640625,-3.53759765625,36.793212890625,71.982421875
1758786496.316088,-0.619140625,-0.1318359375,0.69970703125,58.10546875,0.79345703125,-13.3056640625,-3.076171875,36.7987060546875,71.839599609375
1758786496.326454,-0.630859375,-0.0498046875,0.68603515625,50.29296875,4.7607421875,-14.22119140625,-2.65869140625,36.8316650390625,71.6912841796875
1758786496.3361468,-0.630859375,-0.0498046875,0.68603515625,50.29296875,4.7607421875,-14.22119140625,-2.28515625,36.881103515625,71.531982421875
1758786496.3457468,-0.73876953125,0.05029296875,0.78125,13.12255859375,7.2021484375,-13.00048828125,-2.0928955078125,36.9525146484375,71.3836669921875
1758786496.3563595,-0.73876953125,0.05029296875,0.78125,13.12255859375,7.2021484375,-13.00048828125,-2.0819091796875,37.034912109375,71.2353515625
1758786496.366241,-0.72509765625,0.02490234375,0.89453125,1.46484375,9.58251953125,-13.12255859375,-2.120361328125,37.1337890625,71.08154296875
1758786496.3761606,-0.72509765625,0.02490234375,0.89453125,1.46484375,9.58251953125,-13.12255859375,-2.2137451171875,37.2381591796875,70.927734375
1758786496.3858497,-0.64697265625,-0.0263671875,0.857421875,3.0517578125,10.498046875,-11.71875,-2.296142578125,37.3480224609375,70.77392578125
1758786496.3967998,-0.64697265625,-0.0263671875,0.857421875,3.0517578125,10.498046875,-11.71875,-2.362060546875,37.46337890625,70.6365966796875
1758786496.4072597,-0.61865234375,-0.10888671875,0.74072265625,4.57763671875,11.29150390625,-12.26806640625,-2.4224853515625,37.5787353515625,70.48828125
1758786496.4162254,-0.61865234375,-0.10888671875,0.74072265625,4.57763671875,11.29150390625,-12.26806640625,-2.4774169921875,37.694091796875,70.3399658203125
1758786496.4258957,-0.7001953125,-0.146484375,0.7080078125,11.77978515625,10.498046875,-12.87841796875,-2.5048828125,37.8094482421875,70.191650390625
1758786496.436676,-0.7001953125,-0.146484375,0.7080078125,11.77978515625,10.498046875,-12.87841796875,-2.5048828125,37.9193115234375,70.0323486328125
1758786496.4458997,-0.86328125,-0.12255859375,0.7626953125,28.62548828125,7.75146484375,-12.3291015625,-2.4169921875,38.0181884765625,69.884033203125
1758786496.456206,-0.86328125,-0.12255859375,0.7626953125,28.62548828125,7.75146484375,-12.3291015625,-2.252197265625,38.111572265625,69.730224609375
1758786496.4668334,-0.99951171875,-0.04736328125,0.90576171875,37.353515625,2.0751953125,-12.26806640625,-1.9940185546875,38.1500244140625,69.5819091796875
1758786496.4762394,-0.99951171875,-0.04736328125,0.90576171875,37.353515625,2.0751953125,-12.26806640625,-1.73583984375,38.1939697265625,69.43359375
1758786496.485906,-0.91064453125,0.02587890625,1.01025390625,13.36669921875,-2.62451171875,-9.94873046875,-1.6973876953125,38.1939697265625,69.312744140625
1758786496.4963713,-0.91064453125,0.02587890625,1.01025390625,13.36669921875,-2.62451171875,-9.94873046875,-1.6534423828125,38.1939697265625,69.1864013671875
1758786496.5066874,-0.66015625,0.0546875,0.6708984375,-21.17919921875,-2.99072265625,-8.544921875,-1.9390869140625,38.1884765625,69.08203125
1758786496.5162933,-0.66015625,0.0546875,0.6708984375,-21.17919921875,-2.99072265625,-8.544921875,-2.21923828125,38.1884765625,68.97216796875
1758786496.5259717,-0.5673828125,0.0087890625,0.50244140625,-22.8271484375,-1.52587890625,-7.50732421875,-2.5048828125,38.199462890625,68.873291015625
1758786496.536496,-0.5673828125,0.0087890625,0.50244140625,-22.8271484375,-1.52587890625,-7.50732421875,-2.79052734375,38.2159423828125,68.7689208984375
1758786496.546085,-0.62255859375,-0.06005859375,0.6005859375,-8.30078125,1.46484375,-6.591796875,-2.9168701171875,38.2598876953125,68.675537109375
1758786496.556251,-0.62255859375,-0.06005859375,0.6005859375,-8.30078125,1.46484375,-6.591796875,-3.0487060546875,38.3038330078125,68.5821533203125
1758786496.5662558,-0.734375,-0.0947265625,0.68994140625,-5.859375,2.62451171875,-6.2255859375,-3.1585693359375,38.3642578125,68.4942626953125
1758786496.5766163,-0.734375,-0.0947265625,0.68994140625,-5.859375,2.62451171875,-6.2255859375,-3.2684326171875,38.4246826171875,68.40087890625
1758786496.5860617,-0.7421875,-0.08349609375,0.8251953125,0.0,0.79345703125,-5.31005859375,-3.3123779296875,38.463134765625,68.3184814453125
1758786496.596393,-0.7421875,-0.08349609375,0.8251953125,0.0,0.79345703125,-5.31005859375,-3.3563232421875,38.5015869140625,68.2415771484375
1758786496.6066604,-0.6865234375,-0.08251953125,0.7783203125,9.27734375,0.3662109375,-3.35693359375,-3.2904052734375,38.5345458984375,68.192138671875
1758786496.6164079,-0.6865234375,-0.08251953125,0.7783203125,9.27734375,0.3662109375,-3.35693359375,-3.22998046875,38.5675048828125,68.13720703125
1758786496.6261406,-0.56884765625,-0.01513671875,0.8486328125,-2.01416015625,-0.54931640625,-1.46484375,-3.2684326171875,38.5894775390625,68.1097412109375
1758786496.636543,-0.56884765625,-0.01513671875,0.8486328125,-2.01416015625,-0.54931640625,-1.46484375,-3.3013916015625,38.6004638671875,68.0877685546875
1758786496.6467075,-0.45556640625,0.01513671875,0.740234375,-14.70947265625,1.77001953125,0.1220703125,-3.44970703125,38.6334228515625,68.082275390625
1758786496.6564012,-0.45556640625,0.01513671875,0.740234375,-14.70947265625,1.77001953125,0.1220703125,-3.592529296875,38.660888671875,68.082275390625
1758786496.6661491,-0.3798828125,0.0166015625,0.64453125,-16.54052734375,3.41796875,0.8544921875,-3.746337890625,38.704833984375,68.0877685546875
1758786496.6768086,-0.3798828125,0.0166015625,0.64453125,-16.54052734375,3.41796875,0.8544921875,-3.8946533203125,38.73779296875,68.0987548828125
1758786496.6867504,-0.35107421875,-0.0146484375,0.6103515625,-12.939453125,6.16455078125,1.0986328125,-4.010009765625,38.7982177734375,68.104248046875
1758786496.6964917,-0.35107421875,-0.0146484375,0.6103515625,-12.939453125,6.16455078125,1.0986328125,-4.119873046875,38.8531494140625,68.115234375
1758786496.7063174,-0.3525390625,-0.02099609375,0.66650390625,-13.5498046875,7.8125,1.0986328125,-4.2352294921875,38.9190673828125,68.126220703125
1758786496.7166188,-0.3525390625,-0.02099609375,0.66650390625,-13.5498046875,7.8125,1.0986328125,-4.3560791015625,38.9794921875,68.13720703125
1758786496.726206,-0.4111328125,-0.02099609375,0.77294921875,-10.80322265625,8.11767578125,3.11279296875,-4.427490234375,39.0399169921875,68.1756591796875
1758786496.737355,-0.4111328125,-0.02099609375,0.77294921875,-10.80322265625,8.11767578125,3.11279296875,-4.4989013671875,39.100341796875,68.214111328125
1758786496.7464201,-0.50927734375,-0.01513671875,0.90869140625,-17.27294921875,6.103515625,4.82177734375,-4.6197509765625,39.13330078125,68.280029296875
1758786496.7564483,-0.50927734375,-0.01513671875,0.90869140625,-17.27294921875,6.103515625,4.82177734375,-4.735107421875,39.166259765625,68.345947265625
1758786496.7663803,-0.6513671875,0.00830078125,1.09716796875,-24.4140625,2.3193359375,6.53076171875,-4.9053955078125,39.1552734375,68.433837890625
1758786496.7767396,-0.6513671875,0.00830078125,1.09716796875,-24.4140625,2.3193359375,6.53076171875,-5.07568359375,39.144287109375,68.5272216796875
1758786496.7863228,-0.82373046875,-0.07177734375,1.1953125,-6.77490234375,-3.35693359375,5.06591796875,-5.07568359375,39.078369140625,68.6041259765625
1758786496.7966259,-0.82373046875,-0.07177734375,1.1953125,-6.77490234375,-3.35693359375,5.06591796875,-5.07568359375,39.0179443359375,68.6810302734375
1758786496.806591,-0.859375,-0.26025390625,1.1513671875,1.28173828125,-7.87353515625,0.48828125,-5.042724609375,38.9080810546875,68.7030029296875
1758786496.816657,-0.859375,-0.26025390625,1.1513671875,1.28173828125,-7.87353515625,0.48828125,-5.009765625,38.7982177734375,68.7249755859375
1758786496.826341,-0.68896484375,-0.2001953125,0.900390625,-4.08935546875,-9.033203125,-1.708984375,-5.0592041015625,38.6773681640625,68.719482421875
1758786496.836917,-0.68896484375,-0.2001953125,0.900390625,-4.08935546875,-9.033203125,-1.708984375,-5.108642578125,38.56201171875,68.719482421875
1758786496.8464003,-0.556640625,-0.00146484375,0.74072265625,-9.58251953125,-7.2021484375,-4.45556640625,-5.2349853515625,38.463134765625,68.675537109375
1758786496.8565743,-0.556640625,-0.00146484375,0.74072265625,-9.58251953125,-7.2021484375,-4.45556640625,-5.361328125,38.3642578125,68.6370849609375
1758786496.866772,-0.45947265625,0.03369140625,0.64892578125,-0.30517578125,-4.57763671875,-5.4931640625,-5.3997802734375,38.29833984375,68.57666015625
1758786496.8768435,-0.45947265625,0.03369140625,0.64892578125,-0.30517578125,-4.57763671875,-5.4931640625,-5.4327392578125,38.2269287109375,68.5162353515625
1758786496.8863811,-0.4228515625,0.00537109375,0.623046875,5.18798828125,-2.50244140625,-6.8359375,-5.416259765625,38.1719970703125,68.433837890625
1758786496.896715,-0.4228515625,0.00537109375,0.623046875,5.18798828125,-2.50244140625,-6.8359375,-5.4052734375,38.12255859375,68.3514404296875
1758786496.9069822,-0.44287109375,-0.0234375,0.6513671875,6.77490234375,-1.15966796875,-8.23974609375,-5.3887939453125,38.0841064453125,68.2525634765625
1758786496.9167922,-0.44287109375,-0.0234375,0.6513671875,6.77490234375,-1.15966796875,-8.23974609375,-5.3668212890625,38.045654296875,68.148193359375
1758786496.926495,-0.45068359375,-0.017578125,0.67236328125,-3.41796875,-0.1220703125,-7.38525390625,-5.4437255859375,38.0181884765625,68.0548095703125
1758786496.937125,-0.45068359375,-0.017578125,0.67236328125,-3.41796875,-0.1220703125,-7.38525390625,-5.5206298828125,37.99072265625,67.96142578125
1758786496.946535,-0.4609375,-0.02294921875,0.75927734375,-1.8310546875,0.48828125,-6.77490234375,-5.5755615234375,37.96875,67.87353515625
1758786496.9566772,-0.4609375,-0.02294921875,0.75927734375,-1.8310546875,0.48828125,-6.77490234375,-5.625,37.9412841796875,67.7911376953125
1758786496.9665797,-0.47998046875,-0.1337890625,0.74365234375,13.7939453125,1.46484375,-6.77490234375,-5.526123046875,37.9248046875,67.7032470703125
1758786496.9770844,-0.47998046875,-0.1337890625,0.74365234375,13.7939453125,1.46484375,-6.77490234375,-5.4327392578125,37.9083251953125,67.620849609375
1758786496.9865196,-0.58544921875,-0.142578125,0.83154296875,5.92041015625,1.8310546875,-8.30078125,-5.4327392578125,37.891845703125,67.5164794921875
1758786496.9968462,-0.58544921875,-0.142578125,0.83154296875,5.92041015625,1.8310546875,-8.30078125,-5.438232421875,37.880859375,67.412109375
1758786497.0095143,-0.7119140625,-0.080078125,1.07080078125,-10.31494140625,0.732421875,-9.521484375,-5.6085205078125,37.8533935546875,67.291259765625
1758786497.01692,-0.7119140625,-0.080078125,1.07080078125,-10.31494140625,0.732421875,-9.521484375,-5.7843017578125,37.8314208984375,67.1759033203125
1758786497.0265853,-0.783203125,-0.02734375,0.9384765625,-14.892578125,-0.42724609375,-9.1552734375,-5.9930419921875,37.79296875,67.060546875
1758786497.036893,-0.783203125,-0.02734375,0.9384765625,-14.892578125,-0.42724609375,-9.1552734375,-6.2017822265625,37.7655029296875,66.939697265625
1758786497.047089,-0.71435546875,-0.12109375,0.96142578125,1.52587890625,-3.662109375,-9.82666015625,-6.251220703125,37.705078125,66.81884765625
1758786497.0567718,-0.71435546875,-0.12109375,0.96142578125,1.52587890625,-3.662109375,-9.82666015625,-6.295166015625,37.6446533203125,66.697998046875
1758786497.0665624,-0.7236328125,-0.185546875,0.92919921875,-4.150390625,-2.25830078125,-9.21630859375,-6.3995361328125,37.6007080078125,66.5771484375
1758786497.0772133,-0.7236328125,-0.185546875,0.92919921875,-4.150390625,-2.25830078125,-9.21630859375,-6.5093994140625,37.5567626953125,66.4617919921875
1758786497.0872602,-0.62158203125,-0.1455078125,0.71435546875,14.16015625,-1.3427734375,-12.02392578125,-6.4599609375,37.518310546875,66.3079833984375
1758786497.0969262,-0.62158203125,-0.1455078125,0.71435546875,14.16015625,-1.3427734375,-12.02392578125,-6.4105224609375,37.4853515625,66.1541748046875
1758786497.1066642,-0.55126953125,-0.0888671875,0.7001953125,35.33935546875,-0.18310546875,-12.02392578125,-6.15234375,37.4688720703125,66.0003662109375
1758786497.1170473,-0.55126953125,-0.0888671875,0.7001953125,35.33935546875,-0.18310546875,-12.02392578125,-5.8941650390625,37.4468994140625,65.841064453125
1758786497.1266317,-0.52783203125,-0.08837890625,0.64208984375,27.64892578125,3.35693359375,-14.09912109375,-5.7403564453125,37.46337890625,65.654296875
1758786497.1379209,-0.52783203125,-0.08837890625,0.64208984375,27.64892578125,3.35693359375,-14.09912109375,-5.5810546875,37.4853515625,65.4620361328125
1758786497.1468277,-0.56640625,-0.09130859375,0.55517578125,4.69970703125,7.87353515625,-14.404296875,-5.657958984375,37.55126953125,65.2642822265625
1758786497.1569083,-0.56640625,-0.09130859375,0.55517578125,4.69970703125,7.87353515625,-14.404296875,-5.7403564453125,37.6171875,65.06103515625
1758786497.1666627,-0.6005859375,-0.041015625,0.60400390625,2.0751953125,12.26806640625,-14.70947265625,-5.8502197265625,37.7325439453125,64.8468017578125
1758786497.1772614,-0.6005859375,-0.041015625,0.60400390625,2.0751953125,12.26806640625,-14.70947265625,-5.9600830078125,37.847900390625,64.632568359375
1758786497.1866558,-0.625,0.0,0.66943359375,10.80322265625,16.357421875,-15.13671875,-5.9820556640625,38.0072021484375,64.40185546875
1758786497.1970382,-0.625,0.0,0.66943359375,10.80322265625,16.357421875,-15.13671875,-6.0040283203125,38.16650390625,64.171142578125
1758786497.2072523,-0.58349609375,-0.1181640625,0.62255859375,20.56884765625,18.9208984375,-17.02880859375,-5.9490966796875,38.3477783203125,63.907470703125
1758786497.2170634,-0.58349609375,-0.1181640625,0.62255859375,20.56884765625,18.9208984375,-17.02880859375,-5.8941650390625,38.529052734375,63.6492919921875
1758786497.2267568,-0.5625,-0.14697265625,0.56103515625,27.52685546875,19.1650390625,-18.1884765625,-5.7843017578125,38.7158203125,63.3746337890625
1758786497.2373154,-0.5625,-0.14697265625,0.56103515625,27.52685546875,19.1650390625,-18.1884765625,-5.6854248046875,38.902587890625,63.094482421875
1758786497.2476919,-0.54296875,-0.10546875,0.5087890625,34.60693359375,19.4091796875,-18.00537109375,-5.5096435546875,39.0948486328125,62.81982421875
1758786497.256953,-0.54296875,-0.10546875,0.5087890625,34.60693359375,19.4091796875,-18.00537109375,-5.3448486328125,39.287109375,62.545166015625
1758786497.2668073,-0.53271484375,-0.0849609375,0.5576171875,42.29736328125,19.1650390625,-17.88330078125,-5.09765625,39.4793701171875,62.2705078125
1758786497.2771602,-0.53271484375,-0.0849609375,0.5576171875,42.29736328125,19.1650390625,-17.88330078125,-4.85595703125,39.671630859375,61.995849609375
1758786497.2868042,-0.66357421875,-0.05078125,0.71484375,21.66748046875,19.47021484375,-15.31982421875,-4.801025390625,39.869384765625,61.754150390625
1758786497.297103,-0.66357421875,-0.05078125,0.71484375,21.66748046875,19.47021484375,-15.31982421875,-4.7406005859375,40.0616455078125,61.512451171875
1758786497.3086164,-0.81640625,0.11328125,0.9765625,-17.88330078125,15.13671875,-10.986328125,-5.03173828125,40.2154541015625,61.3311767578125
1758786497.3174188,-0.81640625,0.11328125,0.9765625,-17.88330078125,15.13671875,-10.986328125,-5.306396484375,40.3692626953125,61.1444091796875
1758786497.3268747,-1.0537109375,0.08642578125,0.97705078125,-47.4853515625,11.53564453125,-7.01904296875,-5.833740234375,40.484619140625,61.0125732421875
1758786497.3371751,-1.0537109375,0.08642578125,0.97705078125,-47.4853515625,11.53564453125,-7.01904296875,-6.3555908203125,40.6109619140625,60.8807373046875
1758786497.3475654,-1.22705078125,-0.15087890625,1.10205078125,-56.0302734375,2.38037109375,-6.40869140625,-6.943359375,40.6439208984375,60.7598876953125
1758786497.3569536,-1.22705078125,-0.15087890625,1.10205078125,-56.0302734375,2.38037109375,-6.40869140625,-7.53662109375,40.682373046875,60.64453125
1758786497.3669136,-1.10400390625,-0.38134765625,1.12939453125,-36.1328125,-3.41796875,-6.53076171875,-7.93212890625,40.660400390625,60.5291748046875
1758786497.3772566,-1.10400390625,-0.38134765625,1.12939453125,-36.1328125,-3.41796875,-6.53076171875,-8.3331298828125,40.638427734375,60.4193115234375
1758786497.3873496,-0.8486328125,-0.3154296875,0.63623046875,-11.474609375,-3.173828125,-5.67626953125,-8.4869384765625,40.6219482421875,60.3204345703125
1758786497.397054,-0.8486328125,-0.3154296875,0.63623046875,-11.474609375,-3.173828125,-5.67626953125,-8.6517333984375,40.6109619140625,60.216064453125
1758786497.4069178,-0.7509765625,-0.15478515625,0.4189453125,18.798828125,-3.662109375,-6.591796875,-8.5198974609375,40.5999755859375,60.1007080078125
1758786497.417473,-0.7509765625,-0.15478515625,0.4189453125,18.798828125,-3.662109375,-6.591796875,-8.3990478515625,40.594482421875,59.9798583984375
1758786497.4269266,-0.7490234375,-0.11572265625,0.5302734375,22.64404296875,0.48828125,-6.9580078125,-8.23974609375,40.6329345703125,59.842529296875
1758786497.4370255,-0.7490234375,-0.11572265625,0.5302734375,22.64404296875,0.48828125,-6.9580078125,-8.0914306640625,40.6768798828125,59.7052001953125
1758786497.4470294,-0.68994140625,-0.06591796875,0.623046875,11.8408203125,1.03759765625,-6.77490234375,-8.0419921875,40.726318359375,59.5623779296875
1758786497.457464,-0.68994140625,-0.06591796875,0.623046875,11.8408203125,1.03759765625,-6.77490234375,-7.9925537109375,40.770263671875,59.425048828125
1758786497.4670336,-0.619140625,-0.05126953125,0.6962890625,-2.197265625,1.8310546875,-4.08935546875,-8.0584716796875,40.8306884765625,59.3206787109375
1758786497.4770715,-0.619140625,-0.05126953125,0.6962890625,-2.197265625,1.8310546875,-4.08935546875,-8.118896484375,40.880126953125,59.2218017578125
1758786497.4870641,-0.5703125,-0.0390625,0.7109375,-20.8740234375,0.9765625,-1.5869140625,-8.3441162109375,40.924072265625,59.161376953125
1758786497.4976242,-0.5703125,-0.0390625,0.7109375,-20.8740234375,0.9765625,-1.5869140625,-8.5638427734375,40.9625244140625,59.095458984375
1758786497.5070572,-0.548828125,-0.08740234375,0.7197265625,-35.94970703125,-0.30517578125,-0.48828125,-8.9208984375,40.9844970703125,59.0570068359375
1758786497.5170815,-0.552734375,-0.16455078125,0.74072265625,-29.35791015625,-1.15966796875,-0.732421875,-9.2449951171875,40.9954833984375,59.0185546875
1758786497.5274847,-0.552734375,-0.16455078125,0.74072265625,-29.35791015625,-1.15966796875,-0.732421875,-9.5361328125,41.0009765625,58.9801025390625
1758786497.5370271,-0.5654296875,-0.20556640625,0.767578125,-19.10400390625,-1.220703125,-1.5869140625,-9.7833251953125,40.9954833984375,58.941650390625
1758786497.5472994,-0.5654296875,-0.20556640625,0.767578125,-19.10400390625,-1.220703125,-1.5869140625,-9.9810791015625,40.989990234375,58.897705078125
1758786497.557233,-0.62353515625,-0.12255859375,0.8681640625,-10.009765625,-2.44140625,-1.953125,-10.140380859375,40.9735107421875,58.8592529296875
1758786497.5670428,-0.62353515625,-0.12255859375,0.8681640625,-10.009765625,-2.44140625,-1.953125,-10.250244140625,40.946044921875,58.82080078125
1758786497.5771427,-0.619140625,-0.1279296875,0.908203125,1.89208984375,-3.72314453125,-1.8310546875,-10.2996826171875,40.9075927734375,58.787841796875
1758786497.5881453,-0.619140625,-0.1279296875,0.908203125,1.89208984375,-3.72314453125,-1.8310546875,-10.283203125,40.8636474609375,58.7603759765625
1758786497.5972762,-0.54443359375,-0.06201171875,0.83203125,-7.14111328125,-4.21142578125,-3.11279296875,-10.316162109375,40.8087158203125,58.7274169921875
1758786497.6071315,-0.54443359375,-0.06201171875,0.83203125,-7.14111328125,-4.21142578125,-3.11279296875,-10.3985595703125,40.748291015625,58.6834716796875
1758786497.617152,-0.51416015625,-0.03369140625,0.74755859375,-17.39501953125,-3.60107421875,-3.47900390625,-10.5303955078125,40.6878662109375,58.6395263671875
1758786497.627668,-0.51416015625,-0.03369140625,0.74755859375,-17.39501953125,-3.60107421875,-3.47900390625,-10.711669921875,40.62744140625,58.5955810546875
1758786497.6371534,-0.55029296875,-0.08056640625,0.68505859375,-7.01904296875,-3.35693359375,-4.94384765625,-10.8380126953125,40.5670166015625,58.5406494140625
1758786497.6472185,-0.55029296875,-0.08056640625,0.68505859375,-7.01904296875,-3.35693359375,-4.94384765625,-10.9259033203125,40.506591796875,58.4747314453125
1758786497.657367,-0.6025390625,-0.19580078125,0.7548828125,0.67138671875,-3.7841796875,-5.67626953125,-10.975341796875,40.4461669921875,58.4033203125
1758786497.6671894,-0.6025390625,-0.19580078125,0.7548828125,0.67138671875,-3.7841796875,-5.67626953125,-10.9918212890625,40.3802490234375,58.3319091796875
1758786497.6771643,-0.681640625,-0.1923828125,0.8564453125,8.11767578125,-5.4931640625,-7.01904296875,-10.9808349609375,40.308837890625,58.24951171875
1758786497.6876278,-0.681640625,-0.1923828125,0.8564453125,8.11767578125,-5.4931640625,-7.01904296875,-10.9368896484375,40.2264404296875,58.16162109375
1758786497.6977513,-0.68603515625,-0.224609375,0.876953125,14.404296875,-8.6669921875,-9.27734375,-10.8709716796875,40.1275634765625,58.0682373046875
1758786497.7072399,-0.68603515625,-0.224609375,0.876953125,14.404296875,-8.6669921875,-9.27734375,-10.78857421875,40.01220703125,57.9583740234375
1758786497.7172432,-0.603515625,-0.2099609375,0.8916015625,20.1416015625,-10.8642578125,-10.7421875,-10.6787109375,39.88037109375,57.843017578125
1758786497.728284,-0.603515625,-0.2099609375,0.8916015625,20.1416015625,-10.8642578125,-10.7421875,-10.5523681640625,39.737548828125,57.7276611328125
1758786497.7372825,-0.55615234375,-0.13671875,0.8369140625,26.18408203125,-11.8408203125,-11.65771484375,-10.3985595703125,39.5892333984375,57.601318359375
1758786497.7473361,-0.55615234375,-0.13671875,0.8369140625,26.18408203125,-11.8408203125,-11.65771484375,-10.21728515625,39.4354248046875,57.4749755859375
1758786497.7577553,-0.52734375,-0.0498046875,0.79931640625,13.18359375,-10.92529296875,-12.939453125,-10.107421875,39.2816162109375,57.337646484375
1758786497.7673953,-0.52734375,-0.0498046875,0.79931640625,13.18359375,-10.92529296875,-12.939453125,-10.0579833984375,39.13330078125,57.19482421875
1758786497.777348,-0.49755859375,-0.07177734375,0.79150390625,10.498046875,-10.498046875,-15.13671875,-10.0360107421875,38.9794921875,57.0355224609375
1758786497.7882864,-0.49755859375,-0.07177734375,0.79150390625,10.498046875,-10.498046875,-15.13671875,-10.030517578125,38.8311767578125,56.865234375
1758786497.7975566,-0.40771484375,-0.12890625,0.77490234375,9.521484375,-7.38525390625,-15.625,-10.030517578125,38.69384765625,56.689453125
1758786497.8074005,-0.40771484375,-0.12890625,0.77490234375,9.521484375,-7.38525390625,-15.625,-10.04150390625,38.5675048828125,56.5081787109375
1758786497.8178759,-0.3505859375,-0.12255859375,0.68017578125,-3.47900390625,-3.60107421875,-17.08984375,-10.1239013671875,38.4521484375,56.3104248046875
1758786497.8276353,-0.3505859375,-0.12255859375,0.68017578125,-3.47900390625,-3.60107421875,-17.08984375,-10.2777099609375,38.3587646484375,56.107177734375
1758786497.8373084,-0.39794921875,-0.17138671875,0.712890625,7.01904296875,-0.79345703125,-17.9443359375,-10.382080078125,38.2708740234375,55.8984375
1758786497.847421,-0.39794921875,-0.17138671875,0.712890625,7.01904296875,-0.79345703125,-17.9443359375,-10.447998046875,38.1939697265625,55.6732177734375
1758786497.8578448,-0.466796875,-0.29931640625,0.7666015625,42.6025390625,1.64794921875,-21.78955078125,-10.34912109375,38.1280517578125,55.4315185546875
1758786497.867429,-0.466796875,-0.29931640625,0.7666015625,42.6025390625,1.64794921875,-21.78955078125,-10.1019287109375,38.067626953125,55.1568603515625
1758786497.8774748,-0.53466796875,-0.28076171875,0.775390625,48.9501953125,2.44140625,-23.5595703125,-9.832763671875,38.0072021484375,54.876708984375
1758786497.8877401,-0.53466796875,-0.28076171875,0.775390625,48.9501953125,2.44140625,-23.5595703125,-9.5526123046875,37.957763671875,54.580078125
1758786497.8981612,-0.6533203125,-0.19287109375,1.11083984375,65.97900390625,0.0,-25.5126953125,-9.1900634765625,37.891845703125,54.2779541015625
1758786497.907454,-0.6533203125,-0.19287109375,1.11083984375,65.97900390625,0.0,-25.5126953125,-8.7506103515625,37.81494140625,53.96484375
1758786497.9176812,-0.6953125,-0.23681640625,1.0107421875,51.81884765625,-0.8544921875,-25.57373046875,-8.382568359375,37.7325439453125,53.6572265625
1758786497.9284225,-0.6953125,-0.23681640625,1.0107421875,51.81884765625,-0.8544921875,-25.57373046875,-8.0914306640625,37.6556396484375,53.3441162109375
1758786497.937433,-0.77783203125,-0.10986328125,0.8564453125,14.2822265625,-1.0986328125,-24.4140625,-7.97607421875,37.5787353515625,53.0419921875
1758786497.9477143,-0.77783203125,-0.10986328125,0.8564453125,14.2822265625,-1.0986328125,-24.4140625,-8.0419921875,37.50732421875,52.7398681640625
1758786497.9574723,-0.91650390625,-0.15283203125,0.8876953125,10.7421875,-3.662109375,-24.84130859375,-8.1243896484375,37.430419921875,52.4322509765625
1758786497.9675243,-0.91650390625,-0.15283203125,0.8876953125,10.7421875,-3.662109375,-24.84130859375,-8.2232666015625,37.3480224609375,52.119140625
1758786497.978573,-0.87158203125,-0.17724609375,0.97900390625,11.29150390625,-2.62451171875,-22.216796875,-8.3056640625,37.2821044921875,51.8170166015625
1758786497.9877,-0.87158203125,-0.17724609375,0.97900390625,11.29150390625,-2.62451171875,-22.216796875,-8.37158203125,37.2216796875,51.52587890625
1758786497.9975832,-0.72802734375,-0.142578125,0.76416015625,17.39501953125,-3.60107421875,-21.66748046875,-8.4100341796875,37.1612548828125,51.240234375
1758786498.0075884,-0.72802734375,-0.142578125,0.76416015625,17.39501953125,-3.60107421875,-21.66748046875,-8.4100341796875,37.100830078125,50.95458984375
1758786498.0179353,-0.5673828125,-0.10546875,0.6640625,26.91650390625,-1.64794921875,-20.263671875,-8.3551025390625,37.056884765625,50.6744384765625
1758786498.027633,-0.5673828125,-0.10546875,0.6640625,26.91650390625,-1.64794921875,-20.263671875,-8.250732421875,37.0184326171875,50.3997802734375
1758786498.037621,-0.5673828125,-0.10546875,0.6640625,33.203125,-0.67138671875,-18.85986328125,-8.10791015625,36.990966796875,50.130615234375
1758786498.0486953,-0.50439453125,-0.09423828125,0.5615234375,33.203125,-0.67138671875,-18.85986328125,-7.93212890625,36.9744873046875,49.866943359375
1758786498.057687,-0.4755859375,-0.109375,0.5498046875,29.35791015625,1.5869140625,-18.00537109375,-7.7728271484375,36.9635009765625,49.603271484375
1758786498.0676455,-0.4755859375,-0.109375,0.5498046875,29.35791015625,1.5869140625,-18.00537109375,-7.635498046875,36.968994140625,49.3450927734375
1758786498.0782297,-0.56103515625,-0.10546875,0.67626953125,17.333984375,2.13623046875,-16.17431640625,-7.547607421875,36.97998046875,49.097900390625
1758786498.0876544,-0.56103515625,-0.10546875,0.67626953125,17.333984375,2.13623046875,-16.17431640625,-7.5146484375,36.9964599609375,48.8616943359375
1758786498.0977116,-0.60546875,-0.13525390625,0.7587890625,22.94921875,1.3427734375,-14.95361328125,-7.4432373046875,37.0074462890625,48.6309814453125
1758786498.1083775,-0.60546875,-0.13525390625,0.7587890625,22.94921875,1.3427734375,-14.95361328125,-7.3443603515625,37.012939453125,48.4112548828125
1758786498.1182287,-0.6474609375,-0.2568359375,0.82177734375,32.65380859375,-0.732421875,-13.5498046875,-7.196044921875,37.012939453125,48.197021484375
1758786498.1277251,-0.6474609375,-0.2568359375,0.82177734375,32.65380859375,-0.732421875,-13.5498046875,-6.9927978515625,37.001953125,47.999267578125
1758786498.13775,-0.65087890625,-0.19775390625,0.876953125,41.8701171875,-3.41796875,-13.12255859375,-6.74560546875,36.9744873046875,47.8070068359375
1758786498.1486368,-0.65087890625,-0.19775390625,0.876953125,41.8701171875,-3.41796875,-13.12255859375,-6.4544677734375,36.93603515625,47.6202392578125
1758786498.1577132,-0.6396484375,-0.12841796875,0.853515625,41.68701171875,-4.39453125,-12.939453125,-6.163330078125,36.89208984375,47.4334716796875
1758786498.167779,-0.6396484375,-0.12841796875,0.853515625,41.68701171875,-4.39453125,-12.939453125,-5.8721923828125,36.8426513671875,47.252197265625
1758786498.178363,-0.5947265625,-0.1826171875,0.72216796875,20.99609375,-5.2490234375,-12.6953125,-5.6854248046875,36.7877197265625,47.076416015625
1758786498.1877954,-0.5947265625,-0.1826171875,0.72216796875,20.99609375,-5.2490234375,-12.6953125,-5.60302734375,36.7327880859375,46.8951416015625
1758786498.198361,-0.6806640625,-0.16552734375,0.705078125,0.54931640625,-3.96728515625,-12.5732421875,-5.6195068359375,36.683349609375,46.7138671875
1758786498.2084913,-0.6806640625,-0.16552734375,0.705078125,0.54931640625,-3.96728515625,-12.5732421875,-5.7403564453125,36.6448974609375,46.5325927734375
1758786498.217939,-0.8486328125,-0.07861328125,0.7353515625,8.4228515625,-4.8828125,-12.51220703125,-5.82275390625,36.6064453125,46.3458251953125
1758786498.2277837,-0.8486328125,-0.07861328125,0.7353515625,8.4228515625,-4.8828125,-12.51220703125,-5.855712890625,36.5679931640625,46.153564453125
1758786498.2378948,-0.7841796875,-0.080078125,0.83251953125,2.44140625,-6.04248046875,-12.3291015625,-5.9161376953125,36.529541015625,45.9613037109375
1758786498.2486446,-0.7841796875,-0.080078125,0.83251953125,2.44140625,-6.04248046875,-12.3291015625,-5.99853515625,36.485595703125,45.76904296875
1758786498.2578232,-0.55322265625,-0.04833984375,0.82958984375,-10.43701171875,-6.591796875,-11.04736328125,-6.141357421875,36.441650390625,45.582275390625
1758786498.2682016,-0.55322265625,-0.04833984375,0.82958984375,-10.43701171875,-6.591796875,-11.04736328125,-6.3336181640625,36.38671875,45.406494140625
1758786498.2784534,-0.36962890625,-0.04345703125,0.57177734375,-0.6103515625,-2.9296875,-10.498046875,-6.4764404296875,36.353759765625,45.24169921875
1758786498.288227,-0.36962890625,-0.04345703125,0.57177734375,-0.6103515625,-2.9296875,-10.498046875,-6.5643310546875,36.331787109375,45.0714111328125
1758786498.2979214,-0.32421875,-0.08349609375,0.4619140625,7.8125,1.220703125,-10.55908203125,-6.6082763671875,36.3262939453125,44.901123046875
1758786498.3082438,-0.32421875,-0.08349609375,0.4619140625,7.8125,1.220703125,-10.55908203125,-6.6192626953125,36.3427734375,44.7308349609375
1758786498.3182828,-0.38916015625,-0.10205078125,0.52587890625,10.498046875,5.18798828125,-11.04736328125,-6.6192626953125,36.375732421875,44.5550537109375
1758786498.3282254,-0.38916015625,-0.10205078125,0.52587890625,10.498046875,5.18798828125,-11.04736328125,-6.6082763671875,36.4251708984375,44.373779296875
1758786498.3382258,-0.49560546875,-0.091796875,0.75,22.64404296875,7.38525390625,-11.23046875,-6.5423583984375,36.485595703125,44.1925048828125
1758786498.3482835,-0.49560546875,-0.091796875,0.75,22.64404296875,7.38525390625,-11.23046875,-6.416015625,36.551513671875,44.01123046875
1758786498.357924,-0.54833984375,-0.07470703125,0.9521484375,32.77587890625,5.92041015625,-11.29150390625,-6.240234375,36.6119384765625,43.8299560546875
1758786498.368267,-0.54833984375,-0.07470703125,0.9521484375,32.77587890625,5.92041015625,-11.29150390625,-6.009521484375,36.6558837890625,43.65966796875
1758786498.3781428,-0.57861328125,-0.1064453125,0.96875,-3.96728515625,4.82177734375,-12.3291015625,-5.965576171875,36.6888427734375,43.48388671875
1758786498.3883305,-0.57861328125,-0.1064453125,0.96875,-3.96728515625,4.82177734375,-12.3291015625,-6.1083984375,36.7108154296875,43.30810546875
1758786498.3980122,-0.68310546875,-0.029296875,1.01513671875,-51.7578125,1.77001953125,-13.61083984375,-6.4874267578125,36.71630859375,43.1268310546875
1758786498.4087048,-0.68310546875,-0.029296875,1.01513671875,-51.7578125,1.77001953125,-13.61083984375,-7.108154296875,36.705322265625,42.9345703125
1758786498.4180892,-1.0390625,0.091796875,1.40380859375,-86.181640625,-6.28662109375,-12.51220703125,-7.877197265625,36.6558837890625,42.7642822265625
1758786498.4283824,-1.0390625,0.091796875,1.40380859375,-86.181640625,-6.28662109375,-12.51220703125,-8.800048828125,36.5625,42.5994873046875
1758786498.4386518,-0.7890625,-0.1982421875,1.00244140625,-25.32958984375,-6.28662109375,-10.80322265625,-9.3988037109375,36.474609375,42.4456787109375
1758786498.4485886,-0.7890625,-0.1982421875,1.00244140625,-25.32958984375,-6.28662109375,-10.80322265625,-9.68994140625,36.38671875,42.3028564453125
1758786498.4580703,-0.72900390625,-0.32080078125,0.7138671875,44.921875,-11.16943359375,-14.46533203125,-9.64599609375,36.27685546875,42.1380615234375
1758786498.4684289,-0.72900390625,-0.32080078125,0.7138671875,44.921875,-11.16943359375,-14.46533203125,-9.2724609375,36.14501953125,41.9512939453125
1758786498.4785552,-0.66357421875,-0.3740234375,0.72802734375,52.24609375,-8.60595703125,-14.7705078125,-8.876953125,36.0296630859375,41.7535400390625
1758786498.4883916,-0.66357421875,-0.3740234375,0.72802734375,52.24609375,-8.60595703125,-14.7705078125,-8.4539794921875,35.9307861328125,41.5447998046875
1758786498.498065,-0.603515625,-0.15185546875,0.69970703125,41.07666015625,-7.32421875,-18.12744140625,-8.1134033203125,35.8428955078125,41.319580078125
1758786498.50906,-0.603515625,-0.15185546875,0.69970703125,41.07666015625,-7.32421875,-18.12744140625,-7.84423828125,35.7550048828125,41.0614013671875
1758786498.5182755,-0.525390625,-0.0791015625,0.654296875,45.22705078125,-6.40869140625,-18.37158203125,-7.55859375,35.6781005859375,40.8087158203125
1758786498.5284808,-0.525390625,-0.0791015625,0.654296875,45.22705078125,-6.40869140625,-18.37158203125,-7.2509765625,35.606689453125,40.5450439453125
1758786498.538253,-0.44677734375,-0.09716796875,0.68017578125,45.83740234375,-5.79833984375,-20.6298828125,-6.9488525390625,35.540771484375,40.2703857421875
1758786498.5486665,-0.44677734375,-0.09716796875,0.68017578125,45.83740234375,-5.79833984375,-20.6298828125,-6.6522216796875,35.474853515625,39.9847412109375
1758786498.558199,-0.39697265625,-0.11669921875,0.6650390625,34.36279296875,-4.33349609375,-20.44677734375,-6.4105224609375,35.408935546875,39.6990966796875
1758786498.5685563,-0.39697265625,-0.11669921875,0.6650390625,34.36279296875,-4.33349609375,-20.44677734375,-6.229248046875,35.35400390625,39.4189453125
1758786498.5788658,-0.39697265625,-0.11669921875,0.6650390625,24.23095703125,-3.173828125,-21.6064453125,-6.163330078125,35.3045654296875,39.122314453125
1758786498.5884979,-0.451171875,-0.07861328125,0.6806640625,24.23095703125,-3.173828125,-21.6064453125,-6.0919189453125,35.2606201171875,38.82568359375
1758786498.5981877,-0.5126953125,-0.13818359375,0.81884765625,32.65380859375,-3.35693359375,-22.76611328125,-5.943603515625,35.2056884765625,38.51806640625
1758786498.6087599,-0.5126953125,-0.13818359375,0.81884765625,32.65380859375,-3.35693359375,-22.76611328125,-5.7952880859375,35.1507568359375,38.2159423828125
1758786498.6186264,-0.533203125,-0.16455078125,0.814453125,44.3115234375,-2.01416015625,-23.74267578125,-5.5426025390625,35.1068115234375,37.8973388671875
1758786498.6285217,-0.533203125,-0.16455078125,0.814453125,44.3115234375,-2.01416015625,-23.74267578125,-5.2899169921875,35.0628662109375,37.584228515625
1758786498.6383595,-0.5302734375,-0.1396484375,0.79443359375,29.052734375,-1.0986328125,-25.08544921875,-5.2020263671875,35.0299072265625,37.2491455078125
1758786498.6491623,-0.5302734375,-0.1396484375,0.79443359375,29.052734375,-1.0986328125,-25.08544921875,-5.1141357421875,34.991455078125,36.9195556640625
1758786498.6582782,-0.546875,-0.083984375,0.8486328125,10.80322265625,0.48828125,-25.45166015625,-5.2130126953125,34.969482421875,36.58447265625
1758786498.668632,-0.546875,-0.083984375,0.8486328125,10.80322265625,0.48828125,-25.45166015625,-5.306396484375,34.947509765625,36.2493896484375
1758786498.678706,-0.62939453125,-0.05322265625,0.90771484375,13.61083984375,2.685546875,-26.42822265625,-5.3778076171875,34.947509765625,35.9033203125
1758786498.6888568,-0.62939453125,-0.05322265625,0.90771484375,13.61083984375,2.685546875,-26.42822265625,-5.438232421875,34.947509765625,35.5517578125
1758786498.6983426,-0.66796875,-0.046875,0.92236328125,10.6201171875,3.47900390625,-26.9775390625,-5.537109375,34.9530029296875,35.1947021484375
1758786498.7086816,-0.66796875,-0.046875,0.92236328125,10.6201171875,3.47900390625,-26.9775390625,-5.6304931640625,34.95849609375,34.837646484375
1758786498.7186408,-0.6826171875,-0.05908203125,0.8701171875,4.08935546875,4.8828125,-26.42822265625,-5.77880859375,34.98046875,34.486083984375
1758786498.7286885,-0.6826171875,-0.05908203125,0.8701171875,4.08935546875,4.8828125,-26.42822265625,-5.9326171875,35.00244140625,34.1290283203125
1758786498.738702,-0.6669921875,-0.07861328125,0.75,6.9580078125,8.85009765625,-25.5126953125,-6.0479736328125,35.068359375,33.7774658203125
1758786498.748817,-0.6669921875,-0.07861328125,0.75,6.9580078125,8.85009765625,-25.5126953125,-6.163330078125,35.13427734375,33.42041015625
1758786498.758357,-0.68798828125,-0.11376953125,0.705078125,17.333984375,13.48876953125,-26.123046875,-6.185302734375,35.255126953125,33.0523681640625
1758786498.7687051,-0.68798828125,-0.11376953125,0.705078125,17.333984375,13.48876953125,-26.123046875,-6.207275390625,35.3704833984375,32.67333984375
1758786498.7789967,-0.6484375,-0.11181640625,0.74365234375,22.39990234375,17.08984375,-27.89306640625,-6.1962890625,35.52978515625,32.266845703125
1758786498.7887828,-0.6484375,-0.11181640625,0.74365234375,22.39990234375,17.08984375,-27.89306640625,-6.185302734375,35.68359375,31.8658447265625
1758786498.798551,-0.58349609375,-0.10009765625,0.70166015625,17.578125,20.751953125,-28.86962890625,-6.240234375,35.8758544921875,31.4373779296875
1758786498.8093276,-0.58349609375,-0.10009765625,0.70166015625,17.578125,20.751953125,-28.86962890625,-6.2896728515625,36.0626220703125,31.014404296875
1758786498.8184233,-0.544921875,-0.05615234375,0.72509765625,26.85546875,19.53125,-29.47998046875,-6.2567138671875,36.2384033203125,30.5859375
1758786498.828863,-0.544921875,-0.05615234375,0.72509765625,26.85546875,19.53125,-29.47998046875,-6.2237548828125,36.4141845703125,30.1629638671875
1758786498.8392653,-0.53173828125,-0.05126953125,0.78125,33.99658203125,17.39501953125,-27.4658203125,-6.097412109375,36.5679931640625,29.7674560546875
1758786498.8488562,-0.53173828125,-0.05126953125,0.78125,33.99658203125,17.39501953125,-27.4658203125,-5.9765625,36.71630859375,29.3719482421875
1758786498.8584757,-0.5703125,-0.02392578125,0.76904296875,15.869140625,14.70947265625,-24.0478515625,-6.009521484375,36.8426513671875,29.0313720703125
1758786498.8689044,-0.5703125,-0.02392578125,0.76904296875,15.869140625,14.70947265625,-24.0478515625,-6.0369873046875,36.9635009765625,28.685302734375
1758786498.8791625,-0.591796875,-0.0673828125,0.82177734375,-14.404296875,10.80322265625,-19.59228515625,-6.3336181640625,37.0513916015625,28.4051513671875
1758786498.888805,-0.591796875,-0.0673828125,0.82177734375,-14.404296875,10.80322265625,-19.59228515625,-6.624755859375,37.1337890625,28.125
1758786498.898554,-0.63330078125,-0.12841796875,0.77294921875,-20.32470703125,8.9111328125,-15.869140625,-6.9488525390625,37.2052001953125,27.8887939453125
1758786498.9089768,-0.63330078125,-0.12841796875,0.77294921875,-20.32470703125,8.9111328125,-15.869140625,-7.2674560546875,37.276611328125,27.6580810546875
1758786498.918596,-0.62841796875,-0.13037109375,0.71630859375,3.23486328125,6.28662109375,-13.5498046875,-7.3388671875,37.320556640625,27.454833984375
1758786498.9289365,-0.62841796875,-0.13037109375,0.71630859375,3.23486328125,6.28662109375,-13.5498046875,-7.4102783203125,37.3699951171875,27.24609375
1758786498.9392211,-0.6259765625,-0.21923828125,0.64306640625,3.0517578125,6.89697265625,-13.00048828125,-7.4871826171875,37.4249267578125,27.0428466796875
1758786498.9489028,-0.6259765625,-0.21923828125,0.64306640625,3.0517578125,6.89697265625,-13.00048828125,-7.569580078125,37.4853515625,26.839599609375
1758786498.9585788,-0.6904296875,-0.1650390625,0.6201171875,-13.00048828125,7.4462890625,-12.3291015625,-7.8057861328125,37.5567626953125,26.6363525390625
1758786498.9692326,-0.6904296875,-0.1650390625,0.6201171875,-13.00048828125,7.4462890625,-12.3291015625,-8.0474853515625,37.628173828125,26.422119140625
1758786498.9788465,-0.77001953125,-0.13427734375,0.771484375,7.6904296875,5.4931640625,-12.5732421875,-8.0804443359375,37.68310546875,26.21337890625
1758786498.9889414,-0.77001953125,-0.13427734375,0.771484375,7.6904296875,5.4931640625,-12.5732421875,-8.1134033203125,37.7435302734375,25.9991455078125
1758786498.9987135,-0.77001953125,-0.10400390625,0.94873046875,13.61083984375,4.33349609375,-10.009765625,-8.06396484375,37.79296875,25.81787109375
1758786499.0091689,-0.77001953125,-0.10400390625,0.94873046875,13.61083984375,4.33349609375,-10.009765625,-8.0145263671875,37.8424072265625,25.64208984375
1758786499.018698,-0.68505859375,-0.1005859375,0.93798828125,-0.9765625,2.01416015625,-11.04736328125,-8.1134033203125,37.85888671875,25.4608154296875
1758786499.0290744,-0.68505859375,-0.1005859375,0.93798828125,-0.9765625,2.01416015625,-11.04736328125,-8.2122802734375,37.8753662109375,25.2850341796875
1758786499.0395966,-0.68505859375,-0.1005859375,0.93798828125,-7.080078125,2.197265625,-11.23046875,-8.37158203125,37.891845703125,25.1092529296875
1758786499.0490792,-0.57666015625,-0.10595703125,0.76416015625,-7.080078125,2.197265625,-11.23046875,-8.5308837890625,37.90283203125,24.9334716796875
1758786499.0587745,-0.54248046875,-0.1025390625,0.66455078125,-10.55908203125,2.9296875,-12.20703125,-8.7286376953125,37.9248046875,24.7467041015625
1758786499.0691342,-0.54248046875,-0.1025390625,0.66455078125,-10.55908203125,2.9296875,-12.20703125,-8.931884765625,37.9412841796875,24.5599365234375
1758786499.0792933,-0.5576171875,-0.07958984375,0.56494140625,-19.47021484375,4.57763671875,-10.986328125,-9.2120361328125,37.979736328125,24.3841552734375
1758786499.0890906,-0.5576171875,-0.07958984375,0.56494140625,-19.47021484375,4.57763671875,-10.986328125,-9.4866943359375,38.0181884765625,24.202880859375
1758786499.0988984,-0.56494140625,-0.1435546875,0.71337890625,-13.3056640625,2.38037109375,-11.474609375,-9.7064208984375,38.03466796875,24.0216064453125
1758786499.1094043,-0.56494140625,-0.1435546875,0.71337890625,-13.3056640625,2.38037109375,-11.474609375,-9.9261474609375,38.045654296875,23.8458251953125
1758786499.1188014,-0.68798828125,-0.1337890625,0.83447265625,-31.3720703125,1.8310546875,-8.056640625,-10.294189453125,38.056640625,23.70849609375
1758786499.129398,-0.68798828125,-0.1337890625,0.83447265625,-31.3720703125,1.8310546875,-8.056640625,-10.6622314453125,38.067626953125,23.57666015625
1758786499.1393692,-0.744140625,-0.04150390625,1.0341796875,-43.45703125,-3.84521484375,-7.99560546875,-11.1346435546875,38.023681640625,23.4613037109375
1758786499.1491814,-0.744140625,-0.04150390625,1.0341796875,-43.45703125,-3.84521484375,-7.99560546875,-11.6015625,37.9742431640625,23.3514404296875
1758786499.1588426,-0.63818359375,-0.09326171875,0.876953125,-39.6728515625,-6.77490234375,-7.26318359375,-12.0135498046875,37.8973388671875,23.2635498046875
1758786499.1697593,-0.63818359375,-0.09326171875,0.876953125,-39.6728515625,-6.77490234375,-7.26318359375,-12.425537109375,37.81494140625,23.1756591796875
1758786499.1788683,-0.53857421875,-0.2177734375,0.7822265625,-35.58349609375,-6.89697265625,-6.2255859375,-12.7880859375,37.738037109375,23.104248046875
1758786499.1892323,-0.53857421875,-0.2177734375,0.7822265625,-35.58349609375,-6.89697265625,-6.2255859375,-13.150634765625,37.650146484375,23.038330078125
1758786499.1995559,-0.65625,-0.2275390625,0.89013671875,-19.6533203125,-7.38525390625,-7.87353515625,-13.3648681640625,37.562255859375,22.9449462890625
1758786499.2092707,-0.65625,-0.2275390625,0.89013671875,-19.6533203125,-7.38525390625,-7.87353515625,-13.5845947265625,37.4688720703125,22.8570556640625
1758786499.2189238,-0.521484375,-0.1943359375,0.9228515625,-6.8359375,-7.4462890625,-9.033203125,-13.6834716796875,37.3699951171875,22.7581787109375
1758786499.229952,-0.521484375,-0.1943359375,0.9228515625,-6.8359375,-7.4462890625,-9.033203125,-13.7823486328125,37.265625,22.664794921875
1758786499.2391858,-0.37548828125,-0.14599609375,0.63330078125,-4.0283203125,-5.2490234375,-10.7421875,-13.875732421875,37.177734375,22.5439453125
1758786499.2492793,-0.37548828125,-0.14599609375,0.63330078125,-4.0283203125,-5.2490234375,-10.7421875,-13.963623046875,37.0843505859375,22.423095703125
1758786499.2591875,-0.3994140625,-0.12890625,0.552734375,-1.64794921875,-3.96728515625,-10.8642578125,-14.029541015625,37.0074462890625,22.30224609375
1758786499.2695115,-0.3994140625,-0.12890625,0.552734375,-1.64794921875,-3.96728515625,-10.8642578125,-14.1009521484375,36.9305419921875,22.1759033203125
1758786499.279041,-0.421875,-0.10498046875,0.57177734375,-4.0283203125,-1.64794921875,-10.3759765625,-14.1943359375,36.8756103515625,22.049560546875
1758786499.289388,-0.421875,-0.10498046875,0.57177734375,-4.0283203125,-1.64794921875,-10.3759765625,-14.2877197265625,36.8206787109375,21.9232177734375
1758786499.2996428,-0.4921875,-0.17138671875,0.85986328125,-5.859375,-4.5166015625,-12.63427734375,-14.4085693359375,36.7327880859375,21.7803955078125
1758786499.3093286,-0.4921875,-0.17138671875,0.85986328125,-5.859375,-4.5166015625,-12.63427734375,-14.5294189453125,36.639404296875,21.64306640625
1758786499.31905,-0.6220703125,-0.32568359375,1.228515625,18.37158203125,-8.4228515625,-13.73291015625,-14.4085693359375,36.5020751953125,21.5057373046875
1758786499.3300786,-0.6220703125,-0.32568359375,1.228515625,18.37158203125,-8.4228515625,-13.73291015625,-14.293212890625,36.36474609375,21.368408203125
1758786499.33922,-0.5615234375,-0.33154296875,1.0771484375,31.8603515625,-12.8173828125,-15.9912109375,-14.051513671875,36.1669921875,21.2255859375
1758786499.3493235,-0.5615234375,-0.33154296875,1.0771484375,31.8603515625,-12.8173828125,-15.9912109375,-13.82080078125,35.9747314453125,21.082763671875
1758786499.35904,-0.51025390625,-0.14306640625,0.96142578125,40.1611328125,-16.54052734375,-17.02880859375,-13.5076904296875,35.7440185546875,20.9344482421875
1758786499.3697522,-0.51025390625,-0.14306640625,0.96142578125,40.1611328125,-16.54052734375,-17.02880859375,-13.1890869140625,35.5078125,20.7916259765625
1758786499.3790243,-0.55517578125,-0.177734375,1.07373046875,41.259765625,-18.1884765625,-19.34814453125,-12.8759765625,35.255126953125,20.621337890625
1758786499.389368,-0.55517578125,-0.177734375,1.07373046875,41.259765625,-18.1884765625,-19.34814453125,-12.5628662109375,35.00244140625,20.45654296875
1758786499.3995464,-0.43603515625,-0.2392578125,0.92236328125,46.08154296875,-17.63916015625,-21.91162109375,-12.216796875,34.749755859375,20.2532958984375
1758786499.4093363,-0.43603515625,-0.2392578125,0.92236328125,46.08154296875,-17.63916015625,-21.91162109375,-11.8817138671875,34.4970703125,20.0555419921875
1758786499.4191551,-0.35595703125,-0.2509765625,0.642578125,59.08203125,-15.7470703125,-23.37646484375,-11.4312744140625,34.2608642578125,19.830322265625
1758786499.4297051,-0.35595703125,-0.2509765625,0.642578125,59.08203125,-15.7470703125,-23.37646484375,-10.986328125,34.024658203125,19.599609375
1758786499.439308,-0.365234375,-0.20068359375,0.55859375,61.95068359375,-11.29150390625,-24.7802734375,-10.535888671875,33.837890625,19.3414306640625
1758786499.4493334,-0.365234375,-0.20068359375,0.55859375,61.95068359375,-11.29150390625,-24.7802734375,-10.0909423828125,33.651123046875,19.0777587890625
1758786499.4592466,-0.45263671875,-0.16015625,0.64794921875,32.28759765625,-5.55419921875,-25.32958984375,-9.95361328125,33.5247802734375,18.7921142578125
1758786499.469758,-0.45263671875,-0.16015625,0.64794921875,32.28759765625,-5.55419921875,-25.32958984375,-9.8162841796875,33.4039306640625,18.5064697265625
1758786499.4791937,-0.63525390625,-0.1494140625,0.77392578125,-0.06103515625,-0.6103515625,-25.69580078125,-10.008544921875,33.3380126953125,18.1988525390625
1758786499.4893515,-0.63525390625,-0.1494140625,0.77392578125,-0.06103515625,-0.6103515625,-25.69580078125,-10.1953125,33.277587890625,17.8857421875
1758786499.4995267,-0.87841796875,-0.17724609375,1.09814453125,1.220703125,-1.15966796875,-26.67236328125,-10.37109375,33.211669921875,17.55615234375
1758786499.5093582,-0.87841796875,-0.17724609375,1.09814453125,1.220703125,-1.15966796875,-26.67236328125,-10.5413818359375,33.1512451171875,17.2210693359375
1758786499.5195117,-0.7890625,-0.29833984375,1.26025390625,40.10009765625,-1.89208984375,-26.67236328125,-10.3271484375,33.0853271484375,16.8914794921875
1758786499.5295682,-0.7890625,-0.29833984375,1.26025390625,40.10009765625,-1.89208984375,-26.67236328125,-10.107421875,33.0194091796875,16.5618896484375
1758786499.5392928,-0.5908203125,-0.25439453125,0.73828125,56.7626953125,-0.54931640625,-26.30615234375,-9.7283935546875,32.969970703125,16.2322998046875
1758786499.549456,-0.5908203125,-0.25439453125,0.73828125,56.7626953125,-0.54931640625,-26.30615234375,-9.3548583984375,32.9205322265625,15.8917236328125
1758786499.5594769,-0.51953125,-0.15283203125,0.62744140625,43.701171875,-0.79345703125,-26.3671875,-9.1131591796875,32.882080078125,15.5511474609375
1758786499.569352,-0.51953125,-0.15283203125,0.62744140625,43.701171875,-0.79345703125,-26.3671875,-8.8714599609375,32.838134765625,15.2105712890625
1758786499.5793483,-0.51953125,-0.15283203125,0.62744140625,24.96337890625,1.40380859375,-24.4140625,-8.8055419921875,32.8271484375,14.886474609375
1758786499.5899613,-0.4931640625,-0.11962890625,0.75732421875,24.96337890625,1.40380859375,-24.4140625,-8.734130859375,32.8106689453125,14.56787109375
1758786499.599617,-0.52978515625,-0.14111328125,0.6787109375,22.27783203125,0.67138671875,-22.0947265625,-8.67919921875,32.794189453125,14.271240234375
1758786499.6093547,-0.52978515625,-0.14111328125,0.6787109375,22.27783203125,0.67138671875,-22.0947265625,-8.624267578125,32.7777099609375,13.974609375
1758786499.6205888,-0.56494140625,-0.21923828125,0.72314453125,27.587890625,0.0,-20.8740234375,-8.50341796875,32.76123046875,13.68896484375
1758786499.6295707,-0.5625,-0.23486328125,0.75732421875,27.099609375,-0.18310546875,-19.6533203125,-8.3880615234375,32.7447509765625,13.414306640625
1758786499.6393638,-0.5625,-0.23486328125,0.75732421875,27.099609375,-0.18310546875,-19.6533203125,-8.272705078125,32.728271484375,13.1396484375
1758786499.6496742,-0.55615234375,-0.17333984375,0.71484375,28.01513671875,1.8310546875,-18.4326171875,-8.15185546875,32.728271484375,12.8759765625
1758786499.659696,-0.55615234375,-0.17333984375,0.71484375,28.01513671875,1.8310546875,-18.4326171875,-8.0255126953125,32.7337646484375,12.6068115234375
1758786499.6694381,-0.544921875,-0.1279296875,0.67529296875,20.81298828125,5.126953125,-17.822265625,-7.93212890625,32.76123046875,12.3431396484375
1758786499.6794398,-0.544921875,-0.1279296875,0.67529296875,20.81298828125,5.126953125,-17.822265625,-7.877197265625,32.8106689453125,12.0794677734375
1758786499.69009,-0.55908203125,-0.1064453125,0.67041015625,14.2822265625,7.01904296875,-16.17431640625,-7.84423828125,32.8656005859375,11.8212890625
1758786499.6995318,-0.55908203125,-0.1064453125,0.67041015625,14.2822265625,7.01904296875,-16.17431640625,-7.8387451171875,32.93701171875,11.568603515625
1758786499.7094839,-0.55322265625,-0.09033203125,0.72900390625,22.64404296875,8.4228515625,-15.07568359375,-7.789306640625,33.013916015625,11.3214111328125
1758786499.7204866,-0.55322265625,-0.09033203125,0.72900390625,22.64404296875,8.4228515625,-15.07568359375,-7.6904296875,33.101806640625,11.085205078125
1758786499.7294836,-0.58544921875,-0.13134765625,0.68603515625,21.17919921875,9.765625,-13.12255859375,-7.591552734375,33.1951904296875,10.8544921875
1758786499.7394984,-0.58544921875,-0.13134765625,0.68603515625,21.17919921875,9.765625,-13.12255859375,-7.4981689453125,33.299560546875,10.634765625
1758786499.7500746,-0.67724609375,-0.154296875,0.7333984375,-2.74658203125,8.85009765625,-12.51220703125,-7.5201416015625,33.3984375,10.4205322265625
1758786499.7594688,-0.67724609375,-0.154296875,0.7333984375,-2.74658203125,8.85009765625,-12.51220703125,-7.657470703125,33.497314453125,10.206298828125
1758786499.7695572,-0.7705078125,-0.16650390625,0.80029296875,-14.83154296875,7.87353515625,-11.65771484375,-7.8497314453125,33.59619140625,9.9920654296875
1758786499.7804966,-0.7705078125,-0.16650390625,0.80029296875,-14.83154296875,7.87353515625,-11.65771484375,-8.096923828125,33.6895751953125,9.7833251953125
1758786499.789718,-0.8330078125,-0.1875,1.00244140625,4.21142578125,4.69970703125,-9.94873046875,-8.2452392578125,33.77197265625,9.5855712890625
1758786499.7995725,-0.8330078125,-0.1875,1.00244140625,4.21142578125,4.69970703125,-9.94873046875,-8.2891845703125,33.837890625,9.404296875
1758786499.809626,-0.90234375,-0.19580078125,1.0859375,22.88818359375,0.30517578125,-9.6435546875,-8.2342529296875,33.8818359375,9.2230224609375
1758786499.820208,-0.90234375,-0.19580078125,1.0859375,22.88818359375,0.30517578125,-9.6435546875,-8.0859375,33.90380859375,9.052734375
1758786499.8296175,-0.78759765625,-0.134765625,0.9814453125,37.41455078125,-2.25830078125,-9.3994140625,-7.8607177734375,33.914794921875,8.887939453125
1758786499.839674,-0.78759765625,-0.134765625,0.9814453125,37.41455078125,-2.25830078125,-9.3994140625,-7.5640869140625,33.914794921875,8.7286376953125
1758786499.850056,-0.59326171875,-0.03369140625,0.65771484375,31.3720703125,-1.64794921875,-9.6435546875,-7.294921875,33.914794921875,8.5638427734375
1758786499.8606992,-0.59326171875,-0.03369140625,0.65771484375,31.3720703125,-1.64794921875,-9.6435546875,-7.05322265625,33.9202880859375,8.3990478515625
1758786499.8696404,-0.59375,0.00537109375,0.462890625,0.54931640625,2.38037109375,-9.8876953125,-6.9708251953125,33.94775390625,8.228759765625
1758786499.8802545,-0.59375,0.00537109375,0.462890625,0.54931640625,2.38037109375,-9.8876953125,-7.0367431640625,33.9971923828125,8.052978515625
1758786499.8928902,-0.6376953125,-0.0107421875,0.5478515625,-7.4462890625,4.21142578125,-10.7421875,-7.1466064453125,34.0631103515625,7.8662109375
1758786499.900313,-0.6376953125,-0.0107421875,0.5478515625,-7.4462890625,4.21142578125,-10.7421875,-7.2894287109375,34.1400146484375,7.66845703125
1758786499.9097223,-0.681640625,-0.0859375,0.70166015625,-1.77001953125,5.67626953125,-11.23046875,-7.4102783203125,34.2279052734375,7.470703125
1758786499.9209182,-0.681640625,-0.0859375,0.70166015625,-1.77001953125,5.67626953125,-11.23046875,-7.4981689453125,34.3157958984375,7.261962890625
1758786499.9297664,-0.623046875,-0.1142578125,0.82421875,3.96728515625,3.7841796875,-11.71875,-7.5640869140625,34.398193359375,7.0587158203125
1758786499.9398007,-0.623046875,-0.1142578125,0.82421875,3.96728515625,3.7841796875,-11.71875,-7.6025390625,34.4696044921875,6.85546875
1758786499.9499943,-0.60107421875,-0.13916015625,0.8671875,5.859375,3.90625,-12.14599609375,-7.6300048828125,34.530029296875,6.65771484375
1758786499.961228,-0.60107421875,-0.13916015625,0.8671875,5.859375,3.90625,-12.14599609375,-7.657470703125,34.5904541015625,6.4599609375
1758786499.969771,-0.60205078125,-0.1083984375,0.84814453125,1.40380859375,3.35693359375,-13.12255859375,-7.7069091796875,34.6453857421875,6.2567138671875
1758786499.9803407,-0.60205078125,-0.1083984375,0.84814453125,1.40380859375,3.35693359375,-13.12255859375,-7.7838134765625,34.6893310546875,6.053466796875
1758786499.992846,-0.6083984375,-0.08349609375,0.80859375,9.21630859375,3.35693359375,-14.2822265625,-7.822265625,34.727783203125,5.8447265625
1758786499.9998548,-0.6083984375,-0.08349609375,0.80859375,9.21630859375,3.35693359375,-14.2822265625,-7.8277587890625,34.771728515625,5.635986328125
1758786500.0097823,-0.580078125,-0.083984375,0.80908203125,6.28662109375,2.50244140625,-15.380859375,-7.8497314453125,34.7991943359375,5.416259765625
1758786500.0198715,-0.580078125,-0.083984375,0.80908203125,6.28662109375,2.50244140625,-15.380859375,-7.8936767578125,34.82666015625,5.2020263671875
1758786500.0303516,-0.53271484375,-0.07568359375,0.88037109375,-1.5869140625,2.44140625,-15.0146484375,-7.9705810546875,34.8486328125,4.98779296875
1758786500.0398948,-0.53271484375,-0.07568359375,0.88037109375,-1.5869140625,2.44140625,-15.0146484375,-8.0804443359375,34.8651123046875,4.779052734375
1758786500.0499501,-0.48876953125,-0.095703125,0.8671875,-9.21630859375,0.54931640625,-14.2822265625,-8.228759765625,34.87060546875,4.5867919921875
1758786500.060062,-0.48876953125,-0.095703125,0.8671875,-9.21630859375,0.54931640625,-14.2822265625,-8.4100341796875,34.8651123046875,4.4000244140625
1758786500.0698807,-0.4033203125,-0.12060546875,0.875,-15.9912109375,-0.18310546875,-13.0615234375,-8.6187744140625,34.8486328125,4.229736328125
1758786500.0799987,-0.4033203125,-0.12060546875,0.875,-15.9912109375,-0.18310546875,-13.0615234375,-8.85498046875,34.8211669921875,4.0704345703125
1758786500.0899065,-0.4033203125,-0.12060546875,0.875,-20.69091796875,-0.1220703125,-12.39013671875,-9.1131591796875,34.793701171875,3.922119140625
1758786500.1008878,-0.40966796875,-0.13916015625,0.861328125,-20.69091796875,-0.1220703125,-12.39013671875,-9.3878173828125,34.7552490234375,3.779296875
1758786500.1099963,-0.45263671875,-0.15087890625,0.80078125,-20.32470703125,1.28173828125,-12.51220703125,-9.66796875,34.727783203125,3.6419677734375
1758786500.1200457,-0.45263671875,-0.15087890625,0.80078125,-20.32470703125,1.28173828125,-12.51220703125,-9.942626953125,34.7003173828125,3.4991455078125
1758786500.1305833,-0.49072265625,-0.1474609375,0.84619140625,-3.35693359375,3.662109375,-13.427734375,-10.140380859375,34.683837890625,3.350830078125
1758786500.140034,-0.49072265625,-0.1474609375,0.84619140625,-3.35693359375,3.662109375,-13.427734375,-10.2557373046875,34.6728515625,3.197021484375
1758786500.1499999,-0.50244140625,-0.15283203125,0.88232421875,19.47021484375,6.103515625,-14.404296875,-10.26123046875,34.6783447265625,3.0377197265625
1758786500.1601331,-0.50244140625,-0.15283203125,0.88232421875,19.47021484375,6.103515625,-14.404296875,-10.162353515625,34.6893310546875,2.867431640625
1758786500.170042,-0.5888671875,-0.1328125,0.95654296875,6.591796875,7.9345703125,-14.6484375,-10.12939453125,34.705810546875,2.6971435546875
1758786500.180039,-0.5888671875,-0.1328125,0.95654296875,6.591796875,7.9345703125,-14.6484375,-10.162353515625,34.73876953125,2.5213623046875
1758786500.1905577,-0.70654296875,-0.0703125,0.9853515625,-15.44189453125,8.30078125,-13.61083984375,-10.2996826171875,34.771728515625,2.35107421875
1758786500.2001278,-0.70654296875,-0.0703125,0.9853515625,-15.44189453125,8.30078125,-13.61083984375,-10.5413818359375,34.8101806640625,2.186279296875
1758786500.210051,-0.6923828125,-0.107421875,0.93359375,-11.90185546875,9.94873046875,-13.3056640625,-10.7611083984375,34.859619140625,2.021484375
1758786500.220694,-0.6923828125,-0.107421875,0.93359375,-11.90185546875,9.94873046875,-13.3056640625,-10.96435546875,34.91455078125,1.8511962890625
1758786500.2307096,-0.626953125,-0.16162109375,0.8232421875,-5.7373046875,13.18359375,-14.0380859375,-11.14013671875,34.991455078125,1.6754150390625
1758786500.2401109,-0.626953125,-0.16162109375,0.8232421875,-5.7373046875,13.18359375,-14.0380859375,-11.2884521484375,35.0848388671875,1.4886474609375
1758786500.250187,-0.501953125,-0.173828125,0.7314453125,-1.15966796875,16.9677734375,-14.404296875,-11.4202880859375,35.1947021484375,1.2908935546875
1758786500.261072,-0.501953125,-0.173828125,0.7314453125,-1.15966796875,16.9677734375,-14.404296875,-11.5411376953125,35.321044921875,1.087646484375
1758786500.2701437,-0.36767578125,-0.1953125,0.7373046875,14.7705078125,15.9912109375,-15.68603515625,-11.5850830078125,35.44189453125,0.8734130859375
1758786500.2802007,-0.36767578125,-0.1953125,0.7373046875,14.7705078125,15.9912109375,-15.68603515625,-11.5576171875,35.5517578125,0.6591796875
1758786500.2907686,-0.36328125,-0.20166015625,0.84716796875,27.7099609375,13.5498046875,-15.2587890625,-11.4642333984375,35.6451416015625,0.4559326171875
1758786500.3006032,-0.36328125,-0.20166015625,0.84716796875,27.7099609375,13.5498046875,-15.2587890625,-11.304931640625,35.716552734375,0.2581787109375
1758786500.3101149,-0.46337890625,-0.15673828125,0.8984375,17.9443359375,6.40869140625,-13.7939453125,-11.1895751953125,35.7550048828125,0.0823974609375
1758786500.321031,-0.46337890625,-0.15673828125,0.8984375,17.9443359375,6.40869140625,-13.7939453125,-11.107177734375,35.760498046875,-0.06591796875
1758786500.3301785,-0.49658203125,-0.123046875,0.939453125,20.81298828125,0.54931640625,-10.986328125,-11.0028076171875,35.7330322265625,-0.1922607421875
1758786500.3406193,-0.49658203125,-0.123046875,0.939453125,20.81298828125,0.54931640625,-10.986328125,-10.865478515625,35.68359375,-0.2911376953125
1758786500.3508494,-0.48046875,-0.18603515625,0.8798828125,-2.44140625,-2.50244140625,-9.09423828125,-10.83251953125,35.61767578125,-0.3790283203125
1758786500.360444,-0.48046875,-0.18603515625,0.8798828125,-2.44140625,-2.50244140625,-9.09423828125,-10.909423828125,35.540771484375,-0.450439453125
1758786500.370265,-0.49072265625,-0.13330078125,0.8525390625,-17.88330078125,-2.01416015625,-8.056640625,-11.063232421875,35.4638671875,-0.5108642578125
1758786500.381012,-0.49072265625,-0.13330078125,0.8525390625,-17.88330078125,-2.01416015625,-8.056640625,-11.2884521484375,35.3924560546875,-0.5712890625
