timestamp,acc_x,acc_y,acc_z,gyro_x,gyro_y,gyro_z,angle_x,angle_y,angle_z
1758181139.5635707,0.73095703125,-0.04638671875,0.67724609375,1.220703125,1.953125,0.42724609375,-3.394775390625,-47.0269775390625,-177.099609375
1758181139.5731375,0.72900390625,-0.03662109375,0.67578125,1.46484375,1.953125,0.30517578125,-3.3837890625,-47.010498046875,-177.099609375
1758181139.5891304,0.72900390625,-0.03662109375,0.67578125,1.46484375,1.953125,0.30517578125,-3.372802734375,-46.988525390625,-177.1051025390625
1758181139.5978963,0.73486328125,-0.02783203125,0.6826171875,0.244140625,2.0751953125,0.30517578125,-3.372802734375,-46.9720458984375,-177.1051025390625
1758181139.6057382,0.73486328125,-0.02783203125,0.6826171875,0.244140625,2.0751953125,0.30517578125,-3.3673095703125,-46.9500732421875,-177.1051025390625
1758181139.6136284,0.73193359375,-0.0390625,0.6865234375,0.18310546875,2.197265625,0.42724609375,-3.3673095703125,-46.9281005859375,-177.1051025390625
1758181139.6220732,0.73193359375,-0.0390625,0.6865234375,0.18310546875,2.197265625,0.42724609375,-3.372802734375,-46.9061279296875,-177.1051025390625
1758181139.6323035,0.7294921875,-0.05078125,0.6728515625,1.40380859375,2.0751953125,0.30517578125,-3.3563232421875,-46.8896484375,-177.099609375
1758181139.642104,0.7294921875,-0.05078125,0.6728515625,1.40380859375,2.0751953125,0.30517578125,-3.3453369140625,-46.86767578125,-177.099609375
1758181139.6523383,0.7294921875,-0.03759765625,0.677734375,1.0986328125,1.77001953125,0.0,-3.3343505859375,-46.8511962890625,-177.1051025390625
1758181139.662368,0.73095703125,-0.02587890625,0.6865234375,-0.06103515625,1.52587890625,0.06103515625,-3.328857421875,-46.834716796875,-177.1051025390625
1758181139.6723669,0.73095703125,-0.02587890625,0.6865234375,-0.06103515625,1.52587890625,0.06103515625,-3.328857421875,-46.82373046875,-177.110595703125
1758181139.6829498,0.7294921875,-0.03662109375,0.67919921875,-0.3662109375,1.3427734375,0.244140625,-3.328857421875,-46.812744140625,-177.110595703125
1758181139.692513,0.7294921875,-0.03662109375,0.67919921875,-0.3662109375,1.3427734375,0.244140625,-3.3343505859375,-46.7962646484375,-177.110595703125
1758181139.7028184,0.72607421875,-0.04931640625,0.6767578125,0.30517578125,1.15966796875,0.244140625,-3.3343505859375,-46.7852783203125,-177.110595703125
1758181139.7122037,0.72607421875,-0.04931640625,0.6767578125,0.30517578125,1.15966796875,0.244140625,-3.3343505859375,-46.7742919921875,-177.1051025390625
1758181139.7223997,0.7275390625,-0.0439453125,0.67919921875,0.54931640625,0.9765625,0.244140625,-3.328857421875,-46.768798828125,-177.1051025390625
1758181139.7324064,0.7275390625,-0.0439453125,0.67919921875,0.54931640625,0.9765625,0.244140625,-3.328857421875,-46.7578125,-177.1051025390625
1758181139.7420363,0.72802734375,-0.03564453125,0.68310546875,0.3662109375,0.79345703125,0.3662109375,-3.3233642578125,-46.7523193359375,-177.099609375
1758181139.7519262,0.72802734375,-0.03564453125,0.68310546875,0.3662109375,0.79345703125,0.3662109375,-3.3233642578125,-46.746826171875,-177.0941162109375
1758181139.7619646,0.72607421875,-0.03662109375,0.68115234375,-0.79345703125,0.54931640625,0.67138671875,-3.3343505859375,-46.7413330078125,-177.088623046875
1758181139.7719643,0.72607421875,-0.03662109375,0.68115234375,-0.79345703125,0.54931640625,0.67138671875,-3.3453369140625,-46.73583984375,-177.0831298828125
1758181139.7819793,0.72509765625,-0.03857421875,0.67724609375,-1.708984375,0.48828125,0.732421875,-3.3673095703125,-46.7303466796875,-177.07763671875
1758181139.7920008,0.72509765625,-0.03857421875,0.67724609375,-1.708984375,0.48828125,0.732421875,-3.3892822265625,-46.724853515625,-177.066650390625
1758181139.8019955,0.72802734375,-0.03955078125,0.6796875,-1.03759765625,0.30517578125,0.6103515625,-3.4112548828125,-46.724853515625,-177.0611572265625
1758181139.8120332,0.72802734375,-0.03955078125,0.6796875,-1.03759765625,0.30517578125,0.6103515625,-3.427734375,-46.7193603515625,-177.0556640625
1758181139.8220208,0.734375,-0.0400390625,0.68798828125,-1.15966796875,0.06103515625,0.54931640625,-3.4442138671875,-46.7193603515625,-177.0501708984375
1758181139.832034,0.734375,-0.0400390625,0.68798828125,-1.15966796875,0.06103515625,0.54931640625,-3.460693359375,-46.7193603515625,-177.044677734375
1758181139.842045,0.7314453125,-0.0439453125,0.68603515625,-0.30517578125,0.0,0.48828125,-3.4716796875,-46.7193603515625,-177.0391845703125
1758181139.8520586,0.7314453125,-0.0439453125,0.68603515625,-0.30517578125,0.0,0.48828125,-3.4771728515625,-46.7193603515625,-177.0391845703125
1758181139.8620753,0.7314453125,-0.044921875,0.68359375,0.3662109375,-0.18310546875,0.42724609375,-3.482666015625,-46.7193603515625,-177.03369140625
1758181139.8720996,0.7314453125,-0.044921875,0.68359375,0.3662109375,-0.18310546875,0.42724609375,-3.482666015625,-46.724853515625,-177.03369140625
1758181139.8820987,0.7255859375,-0.03857421875,0.68310546875,-0.91552734375,-0.06103515625,0.54931640625,-3.4881591796875,-46.724853515625,-177.03369140625
1758181139.8921103,0.7255859375,-0.03857421875,0.68310546875,-0.91552734375,-0.06103515625,0.54931640625,-3.504638671875,-46.724853515625,-177.0281982421875
1758181139.9021323,0.72216796875,-0.03564453125,0.67529296875,-0.91552734375,-0.06103515625,0.48828125,-3.515625,-46.7303466796875,-177.0281982421875
1758181139.9121547,0.72216796875,-0.03564453125,0.67529296875,-0.91552734375,-0.06103515625,0.48828125,-3.5321044921875,-46.7303466796875,-177.022705078125
1758181139.9221573,0.72705078125,-0.0400390625,0.68310546875,-0.91552734375,0.0,0.54931640625,-3.5430908203125,-46.7303466796875,-177.0172119140625
1758181139.9321592,0.72705078125,-0.0400390625,0.68310546875,-0.91552734375,0.0,0.54931640625,-3.5595703125,-46.7303466796875,-177.0062255859375
1758181139.9421744,0.72998046875,-0.04736328125,0.68798828125,-1.220703125,0.1220703125,0.6103515625,-3.5760498046875,-46.7303466796875,-177.000732421875
1758181139.9521933,0.72998046875,-0.04736328125,0.68798828125,-1.220703125,0.1220703125,0.6103515625,-3.592529296875,-46.7303466796875,-176.9952392578125
1758181139.9622357,0.7294921875,-0.04638671875,0.68359375,-0.18310546875,0.30517578125,0.54931640625,-3.603515625,-46.724853515625,-176.9842529296875
1758181139.9722373,0.7294921875,-0.04638671875,0.68359375,-0.18310546875,0.30517578125,0.54931640625,-3.6090087890625,-46.724853515625,-176.978759765625
1758181139.9822385,0.72802734375,-0.04345703125,0.6845703125,0.244140625,0.42724609375,0.54931640625,-3.614501953125,-46.7193603515625,-176.9677734375
1758181139.9922328,0.72802734375,-0.04345703125,0.6845703125,0.244140625,0.42724609375,0.54931640625,-3.6199951171875,-46.7138671875,-176.9622802734375
1758181140.0022624,0.73046875,-0.03662109375,0.68408203125,-0.6103515625,0.3662109375,0.3662109375,-3.62548828125,-46.7138671875,-176.956787109375
1758181140.0123158,0.73046875,-0.03662109375,0.68408203125,-0.6103515625,0.3662109375,0.3662109375,-3.6309814453125,-46.7083740234375,-176.9512939453125
1758181140.0222833,0.73095703125,-0.03759765625,0.69091796875,-1.3427734375,0.54931640625,0.3662109375,-3.6419677734375,-46.702880859375,-176.9512939453125
1758181140.032303,0.73095703125,-0.03759765625,0.69091796875,-1.3427734375,0.54931640625,0.3662109375,-3.658447265625,-46.6973876953125,-176.94580078125
1758181140.042311,0.73095703125,-0.03759765625,0.69091796875,-0.48828125,0.79345703125,0.244140625,-3.66943359375,-46.69189453125,-176.94580078125
1758181140.0523317,0.7314453125,-0.0458984375,0.68603515625,-0.48828125,0.79345703125,0.244140625,-3.6749267578125,-46.6864013671875,-176.94580078125
1758181140.0623968,0.7275390625,-0.0517578125,0.6865234375,0.54931640625,0.9765625,0.1220703125,-3.6749267578125,-46.6754150390625,-176.94580078125
1758181140.0723732,0.7275390625,-0.0517578125,0.6865234375,0.54931640625,0.9765625,0.1220703125,-3.66943359375,-46.6644287109375,-176.94580078125
1758181140.0823598,0.72705078125,-0.04345703125,0.681640625,0.732421875,1.0986328125,0.0,-3.6639404296875,-46.6534423828125,-176.94580078125
1758181140.0923934,0.72705078125,-0.04345703125,0.681640625,0.732421875,1.0986328125,0.0,-3.6529541015625,-46.64794921875,-176.9512939453125
1758181140.102391,0.72705078125,-0.0380859375,0.6875,0.48828125,1.220703125,0.0,-3.6474609375,-46.636962890625,-176.9512939453125
1758181140.1125288,0.72705078125,-0.0380859375,0.6875,0.48828125,1.220703125,0.0,-3.6419677734375,-46.6204833984375,-176.956787109375
1758181140.122422,0.7294921875,-0.04052734375,0.68798828125,0.3662109375,1.28173828125,0.0,-3.636474609375,-46.6094970703125,-176.956787109375
1758181140.1325178,0.7294921875,-0.04052734375,0.68798828125,0.3662109375,1.28173828125,0.0,-3.6309814453125,-46.5985107421875,-176.9622802734375
1758181140.1424763,0.72412109375,-0.0458984375,0.68310546875,0.48828125,1.3427734375,0.0,-3.62548828125,-46.5875244140625,-176.9622802734375
1758181140.1524968,0.72412109375,-0.0458984375,0.68310546875,0.48828125,1.3427734375,0.0,-3.6199951171875,-46.571044921875,-176.9677734375
1758181140.162584,0.7236328125,-0.0439453125,0.67919921875,0.91552734375,1.220703125,-0.18310546875,-3.6090087890625,-46.56005859375,-176.9677734375
1758181140.173253,0.7236328125,-0.0439453125,0.67919921875,0.91552734375,1.220703125,-0.18310546875,-3.5980224609375,-46.549072265625,-176.9732666015625
1758181140.182867,0.72900390625,-0.0400390625,0.6875,1.03759765625,1.03759765625,-0.244140625,-3.5870361328125,-46.5380859375,-176.978759765625
1758181140.1930041,0.72900390625,-0.0400390625,0.6875,1.03759765625,1.03759765625,-0.244140625,-3.570556640625,-46.5325927734375,-176.9842529296875
1758181140.2027383,0.73193359375,-0.0400390625,0.69140625,0.0,0.8544921875,-0.1220703125,-3.5650634765625,-46.5216064453125,-176.98974609375
1758181140.2159746,0.73193359375,-0.0400390625,0.69140625,0.0,0.8544921875,-0.1220703125,-3.5595703125,-46.51611328125,-176.9952392578125
1758181140.224151,0.72412109375,-0.0439453125,0.6884765625,0.0,0.79345703125,0.0,-3.5595703125,-46.505126953125,-177.000732421875
1758181140.2326303,0.72412109375,-0.0439453125,0.6884765625,0.0,0.79345703125,0.0,-3.5595703125,-46.4996337890625,-177.000732421875
1758181140.242669,0.72119140625,-0.046875,0.67626953125,1.03759765625,0.732421875,0.0,-3.5540771484375,-46.494140625,-177.000732421875
1758181140.2528312,0.72119140625,-0.046875,0.67626953125,1.03759765625,0.732421875,0.0,-3.5430908203125,-46.4886474609375,-177.000732421875
1758181140.2631187,0.72021484375,-0.04248046875,0.6845703125,0.54931640625,0.67138671875,-0.06103515625,-3.53759765625,-46.4776611328125,-177.000732421875
1758181140.272782,0.72021484375,-0.04248046875,0.6845703125,0.54931640625,0.67138671875,-0.06103515625,-3.526611328125,-46.47216796875,-177.000732421875
1758181140.28276,0.7294921875,-0.03369140625,0.6884765625,0.06103515625,0.6103515625,-0.1220703125,-3.526611328125,-46.4666748046875,-177.0062255859375
1758181140.2927768,0.7294921875,-0.03369140625,0.6884765625,0.06103515625,0.6103515625,-0.1220703125,-3.5211181640625,-46.461181640625,-177.0062255859375
1758181140.3059838,0.73046875,-0.0361328125,0.6923828125,-0.42724609375,0.3662109375,-0.18310546875,-3.5211181640625,-46.461181640625,-177.0062255859375
1758181140.312979,0.73046875,-0.0361328125,0.6923828125,-0.42724609375,0.3662109375,-0.18310546875,-3.5211181640625,-46.4556884765625,-177.01171875
1758181140.322887,0.72119140625,-0.04541015625,0.68359375,-0.732421875,0.18310546875,-0.18310546875,-3.526611328125,-46.4556884765625,-177.01171875
1758181140.3391407,0.72119140625,-0.04541015625,0.68359375,-0.732421875,0.18310546875,-0.18310546875,-3.5321044921875,-46.4556884765625,-177.0172119140625
1758181140.3457541,0.716796875,-0.044921875,0.67578125,0.0,0.18310546875,-0.3662109375,-3.5321044921875,-46.4501953125,-177.022705078125
1758181140.352823,0.716796875,-0.044921875,0.67578125,0.0,0.18310546875,-0.3662109375,-3.526611328125,-46.4501953125,-177.0281982421875
1758181140.3701832,0.73486328125,-0.03564453125,0.69140625,0.8544921875,0.0,-0.67138671875,-3.515625,-46.4501953125,-177.03369140625
1758181140.3768504,0.73486328125,-0.03564453125,0.69140625,0.8544921875,0.0,-0.67138671875,-3.4991455078125,-46.4556884765625,-177.044677734375
1758181140.3829117,0.734375,-0.04150390625,0.705078125,-0.18310546875,-0.1220703125,-0.42724609375,-3.4881591796875,-46.4556884765625,-177.0556640625
1758181140.3929467,0.734375,-0.04150390625,0.705078125,-0.18310546875,-0.1220703125,-0.42724609375,-3.4881591796875,-46.4556884765625,-177.0611572265625
1758181140.403198,0.74267578125,-0.0478515625,0.68994140625,0.3662109375,-0.48828125,-0.48828125,-3.482666015625,-46.461181640625,-177.066650390625
1758181140.4129472,0.74267578125,-0.0478515625,0.68994140625,0.3662109375,-0.48828125,-0.48828125,-3.4716796875,-46.4666748046875,-177.0721435546875
1758181140.4234307,0.7451171875,-0.04296875,0.70703125,0.42724609375,-1.03759765625,-0.54931640625,-3.4661865234375,-46.4776611328125,-177.0831298828125
1758181140.4336138,0.7451171875,-0.04296875,0.70703125,0.42724609375,-1.03759765625,-0.54931640625,-3.4552001953125,-46.4886474609375,-177.088623046875
1758181140.4429598,0.74853515625,-0.03857421875,0.7041015625,0.54931640625,-1.708984375,-0.42724609375,-3.4442138671875,-46.4996337890625,-177.0941162109375
1758181140.4534414,0.74853515625,-0.03857421875,0.7041015625,0.54931640625,-1.708984375,-0.42724609375,-3.438720703125,-46.51611328125,-177.099609375
1758181140.4632027,0.74072265625,-0.04248046875,0.697265625,-0.3662109375,-2.38037109375,-0.18310546875,-3.4332275390625,-46.5380859375,-177.1051025390625
1758181140.4730644,0.74072265625,-0.04248046875,0.697265625,-0.3662109375,-2.38037109375,-0.18310546875,-3.438720703125,-46.5655517578125,-177.1051025390625
1758181140.4837148,0.72900390625,-0.04296875,0.68310546875,-0.1220703125,-2.8076171875,-0.1220703125,-3.438720703125,-46.5875244140625,-177.1051025390625
1758181140.4931903,0.72900390625,-0.04296875,0.68310546875,-0.1220703125,-2.8076171875,-0.1220703125,-3.4442138671875,-46.6204833984375,-177.110595703125
1758181140.5030851,0.728515625,-0.0400390625,0.68115234375,0.732421875,-2.99072265625,-0.244140625,-3.438720703125,-46.64794921875,-177.110595703125
1758181140.5136158,0.728515625,-0.0400390625,0.68115234375,0.732421875,-2.99072265625,-0.244140625,-3.4332275390625,-46.6754150390625,-177.110595703125
1758181140.5247884,0.72900390625,-0.03759765625,0.685546875,0.244140625,-3.0517578125,-0.06103515625,-3.427734375,-46.7083740234375,-177.1160888671875
1758181140.5331085,0.72900390625,-0.03759765625,0.685546875,0.244140625,-3.0517578125,-0.06103515625,-3.427734375,-46.73583984375,-177.1160888671875
1758181140.54354,0.72607421875,-0.04541015625,0.68798828125,-0.54931640625,-2.9296875,0.1220703125,-3.427734375,-46.768798828125,-177.110595703125
1758181140.5531847,0.72607421875,-0.04541015625,0.68798828125,-0.54931640625,-2.9296875,0.1220703125,-3.438720703125,-46.7962646484375,-177.1051025390625
1758181140.5631757,0.72216796875,-0.0400390625,0.67578125,0.79345703125,-2.8076171875,0.06103515625,-3.438720703125,-46.82373046875,-177.1051025390625
1758181140.573258,0.72216796875,-0.0400390625,0.67578125,0.79345703125,-2.8076171875,0.06103515625,-3.4332275390625,-46.8511962890625,-177.099609375
1758181140.5832179,0.71875,-0.04052734375,0.6689453125,1.40380859375,-2.3193359375,0.1220703125,-3.427734375,-46.8731689453125,-177.0941162109375
1758181140.593607,0.71875,-0.04052734375,0.6689453125,1.40380859375,-2.3193359375,0.1220703125,-3.416748046875,-46.8951416015625,-177.088623046875
1758181140.6034281,0.7138671875,-0.0390625,0.671875,0.3662109375,-1.953125,0.18310546875,-3.4112548828125,-46.9171142578125,-177.088623046875
1758181140.613267,0.7138671875,-0.0390625,0.671875,0.3662109375,-1.953125,0.18310546875,-3.4112548828125,-46.93359375,-177.0831298828125
1758181140.6234844,0.7041015625,-0.03857421875,0.65966796875,0.244140625,-1.52587890625,0.244140625,-3.4112548828125,-46.9500732421875,-177.07763671875
1758181140.6335256,0.7041015625,-0.03857421875,0.65966796875,0.244140625,-1.52587890625,0.244140625,-3.4112548828125,-46.966552734375,-177.07763671875
1758181140.643268,0.712890625,-0.0400390625,0.669921875,0.30517578125,-0.9765625,0.18310546875,-3.4112548828125,-46.9775390625,-177.0721435546875
1758181140.653288,0.712890625,-0.0400390625,0.669921875,0.30517578125,-0.9765625,0.18310546875,-3.4112548828125,-46.9830322265625,-177.066650390625
1758181140.6638162,0.71435546875,-0.03759765625,0.658203125,-0.1220703125,-0.3662109375,0.06103515625,-3.4112548828125,-46.988525390625,-177.066650390625
1758181140.6733902,0.71435546875,-0.03759765625,0.658203125,-0.1220703125,-0.3662109375,0.06103515625,-3.416748046875,-46.988525390625,-177.066650390625
1758181140.6833794,0.73779296875,-0.037109375,0.6904296875,-0.6103515625,0.0,0.30517578125,-3.4222412109375,-46.988525390625,-177.066650390625
1758181140.6937194,0.73779296875,-0.037109375,0.6904296875,-0.6103515625,0.0,0.30517578125,-3.4332275390625,-46.988525390625,-177.0611572265625
1758181140.7034826,0.740234375,-0.0478515625,0.693359375,-0.79345703125,0.18310546875,0.54931640625,-3.4442138671875,-46.9830322265625,-177.0556640625
1758181140.7134364,0.740234375,-0.0478515625,0.693359375,-0.79345703125,0.18310546875,0.54931640625,-3.460693359375,-46.9830322265625,-177.044677734375
1758181140.7233572,0.736328125,-0.04833984375,0.681640625,1.03759765625,0.42724609375,0.3662109375,-3.4552001953125,-46.9775390625,-177.0391845703125
1758181140.7336912,0.736328125,-0.04833984375,0.681640625,1.03759765625,0.42724609375,0.3662109375,-3.4442138671875,-46.9720458984375,-177.03369140625
1758181140.7434404,0.74072265625,-0.037109375,0.68798828125,1.64794921875,0.54931640625,0.1220703125,-3.4332275390625,-46.966552734375,-177.03369140625
1758181140.7535257,0.74072265625,-0.037109375,0.68798828125,1.64794921875,0.54931640625,0.1220703125,-3.416748046875,-46.9610595703125,-177.03369140625
1758181140.7638,0.74560546875,-0.03125,0.68798828125,1.5869140625,0.6103515625,0.06103515625,-3.4002685546875,-46.95556640625,-177.03369140625
1758181140.77366,0.74560546875,-0.03125,0.68798828125,1.5869140625,0.6103515625,0.06103515625,-3.3837890625,-46.9500732421875,-177.0391845703125
1758181140.7834551,0.75830078125,-0.03857421875,0.71826171875,0.54931640625,0.3662109375,0.1220703125,-3.3782958984375,-46.944580078125,-177.0391845703125
1758181140.7941198,0.75830078125,-0.03857421875,0.71826171875,0.54931640625,0.3662109375,0.1220703125,-3.372802734375,-46.9390869140625,-177.0391845703125
1758181140.803686,0.75,-0.04248046875,0.6806640625,1.28173828125,0.18310546875,0.0,-3.36181640625,-46.9390869140625,-177.044677734375
1758181140.8137708,0.75,-0.04248046875,0.6806640625,1.28173828125,0.18310546875,0.0,-3.350830078125,-46.9390869140625,-177.044677734375
1758181140.8235056,0.7548828125,-0.04150390625,0.71484375,2.86865234375,-0.1220703125,-0.244140625,-3.31787109375,-46.9390869140625,-177.0556640625
1758181140.834009,0.7548828125,-0.04150390625,0.71484375,2.86865234375,-0.1220703125,-0.244140625,-3.284912109375,-46.9390869140625,-177.0556640625
1758181140.8435452,0.751953125,-0.03955078125,0.6806640625,2.3193359375,-0.54931640625,-0.30517578125,-3.2574462890625,-46.944580078125,-177.0611572265625
1758181140.8535867,0.751953125,-0.03955078125,0.6806640625,2.3193359375,-0.54931640625,-0.30517578125,-3.2354736328125,-46.95556640625,-177.066650390625
1758181140.8640337,0.7353515625,-0.03564453125,0.69384765625,1.5869140625,-0.732421875,-0.48828125,-3.2135009765625,-46.9610595703125,-177.07763671875
1758181140.8736355,0.7353515625,-0.03564453125,0.69384765625,1.5869140625,-0.732421875,-0.48828125,-3.1915283203125,-46.966552734375,-177.0831298828125
1758181140.883988,0.728515625,-0.03466796875,0.67236328125,3.0517578125,-0.732421875,-0.6103515625,-3.1585693359375,-46.9775390625,-177.0941162109375
1758181140.8939462,0.728515625,-0.03466796875,0.67236328125,3.0517578125,-0.732421875,-0.6103515625,-3.1201171875,-46.9830322265625,-177.1051025390625
1758181140.9037035,0.72607421875,-0.03759765625,0.67919921875,2.86865234375,-0.732421875,-0.67138671875,-3.087158203125,-46.9940185546875,-177.1160888671875
1758181140.9136376,0.72607421875,-0.03759765625,0.67919921875,2.86865234375,-0.732421875,-0.67138671875,-3.05419921875,-46.99951171875,-177.1270751953125
1758181140.9236367,0.724609375,-0.03369140625,0.6728515625,1.89208984375,-0.8544921875,-0.54931640625,-3.0267333984375,-47.010498046875,-177.132568359375
1758181140.933932,0.724609375,-0.03369140625,0.6728515625,1.89208984375,-0.8544921875,-0.54931640625,-3.0047607421875,-47.021484375,-177.1435546875
1758181140.9436865,0.72314453125,-0.0341796875,0.66796875,2.50244140625,-0.91552734375,-0.6103515625,-2.977294921875,-47.0269775390625,-177.154541015625
1758181140.9537768,0.72314453125,-0.0341796875,0.66796875,2.50244140625,-0.91552734375,-0.6103515625,-2.9443359375,-47.0379638671875,-177.16552734375
1758181140.9640074,0.728515625,-0.0341796875,0.67626953125,2.9296875,-1.0986328125,-0.54931640625,-2.911376953125,-47.0489501953125,-177.176513671875
1758181140.9737544,0.728515625,-0.0341796875,0.67626953125,2.9296875,-1.0986328125,-0.54931640625,-2.87841796875,-47.0599365234375,-177.1875
1758181140.9837747,0.72900390625,-0.03271484375,0.673828125,1.0986328125,-1.3427734375,-0.30517578125,-2.867431640625,-47.076416015625,-177.198486328125
1758181140.994131,0.72900390625,-0.03271484375,0.673828125,1.0986328125,-1.3427734375,-0.30517578125,-2.8509521484375,-47.08740234375,-177.2039794921875
1758181141.0038457,0.7275390625,-0.03125,0.6748046875,0.0,-1.64794921875,0.0,-2.8564453125,-47.1038818359375,-177.20947265625
1758181141.0138078,0.7275390625,-0.03125,0.6748046875,0.0,-1.64794921875,0.0,-2.8564453125,-47.120361328125,-177.20947265625
1758181141.0264292,0.72998046875,-0.03369140625,0.66943359375,0.0,-1.708984375,0.0,-2.8564453125,-47.1368408203125,-177.2149658203125
1758181141.035912,0.72998046875,-0.03369140625,0.66943359375,0.0,-1.708984375,0.0,-2.8564453125,-47.1533203125,-177.220458984375
1758181141.0439038,0.72998046875,-0.03369140625,0.66943359375,0.91552734375,-1.8310546875,0.06103515625,-2.8509521484375,-47.17529296875,-177.2259521484375
1758181141.0539382,0.73486328125,-0.03564453125,0.68115234375,0.91552734375,-1.8310546875,0.06103515625,-2.845458984375,-47.1917724609375,-177.2259521484375
1758181141.0642552,0.7421875,-0.0380859375,0.681640625,0.9765625,-1.89208984375,0.3662109375,-2.8399658203125,-47.208251953125,-177.2259521484375
1758181141.0739605,0.7421875,-0.0380859375,0.681640625,0.9765625,-1.89208984375,0.3662109375,-2.83447265625,-47.230224609375,-177.2259521484375
1758181141.0842483,0.740234375,-0.037109375,0.685546875,0.9765625,-2.01416015625,0.48828125,-2.83447265625,-47.2467041015625,-177.220458984375
1758181141.0944033,0.740234375,-0.037109375,0.685546875,0.9765625,-2.01416015625,0.48828125,-2.8289794921875,-47.2686767578125,-177.220458984375
1758181141.1039913,0.73583984375,-0.03271484375,0.67333984375,1.46484375,-1.953125,0.42724609375,-2.823486328125,-47.28515625,-177.2149658203125
1758181141.113983,0.73583984375,-0.03271484375,0.67333984375,1.46484375,-1.953125,0.42724609375,-2.8125,-47.30712890625,-177.2149658203125
1758181141.1239116,0.74365234375,-0.02587890625,0.681640625,2.685546875,-2.01416015625,0.18310546875,-2.79052734375,-47.3236083984375,-177.2149658203125
1758181141.1342444,0.74365234375,-0.02587890625,0.681640625,2.685546875,-2.01416015625,0.18310546875,-2.7685546875,-47.3455810546875,-177.2149658203125
1758181141.1440284,0.751953125,-0.02587890625,0.6845703125,1.89208984375,-2.25830078125,0.1220703125,-2.7520751953125,-47.3675537109375,-177.220458984375
1758181141.1540663,0.751953125,-0.02587890625,0.6845703125,1.89208984375,-2.25830078125,0.1220703125,-2.735595703125,-47.3895263671875,-177.2259521484375
1758181141.1645935,0.75341796875,-0.03271484375,0.68994140625,1.77001953125,-2.62451171875,0.1220703125,-2.7191162109375,-47.4169921875,-177.2314453125
1758181141.174017,0.75341796875,-0.03271484375,0.68994140625,1.77001953125,-2.62451171875,0.1220703125,-2.70263671875,-47.43896484375,-177.2314453125
1758181141.184426,0.73876953125,-0.041015625,0.67041015625,3.23486328125,-2.8076171875,0.06103515625,-2.6751708984375,-47.4664306640625,-177.2369384765625
1758181141.195595,0.73876953125,-0.041015625,0.67041015625,3.23486328125,-2.8076171875,0.06103515625,-2.647705078125,-47.493896484375,-177.242431640625
1758181141.2042582,0.73583984375,-0.03369140625,0.66845703125,5.55419921875,-2.8076171875,-0.3662109375,-2.5872802734375,-47.52685546875,-177.25341796875
1758181141.2142074,0.73583984375,-0.03369140625,0.66845703125,5.55419921875,-2.8076171875,-0.3662109375,-2.5323486328125,-47.5543212890625,-177.264404296875
1758181141.2241235,0.7451171875,-0.00244140625,0.68359375,4.08935546875,-2.86865234375,-0.54931640625,-2.4884033203125,-47.581787109375,-177.275390625
1758181141.2343793,0.7451171875,-0.00244140625,0.68359375,4.08935546875,-2.86865234375,-0.54931640625,-2.4444580078125,-47.6092529296875,-177.2918701171875
1758181141.244259,0.748046875,-0.017578125,0.6767578125,1.708984375,-2.74658203125,-0.54931640625,-2.4224853515625,-47.63671875,-177.308349609375
1758181141.25416,0.748046875,-0.017578125,0.6767578125,1.708984375,-2.74658203125,-0.54931640625,-2.39501953125,-47.6641845703125,-177.3193359375
1758181141.2647414,0.73876953125,-0.03662109375,0.6748046875,1.15966796875,-2.685546875,-0.67138671875,-2.3785400390625,-47.691650390625,-177.3358154296875
1758181141.2742288,0.73876953125,-0.03662109375,0.6748046875,1.15966796875,-2.685546875,-0.67138671875,-2.362060546875,-47.713623046875,-177.3468017578125
1758181141.2845852,0.73779296875,-0.03271484375,0.66748046875,2.50244140625,-2.50244140625,-1.03759765625,-2.3236083984375,-47.7410888671875,-177.3687744140625
1758181141.2949145,0.73779296875,-0.03271484375,0.66748046875,2.50244140625,-2.50244140625,-1.03759765625,-2.2906494140625,-47.7630615234375,-177.3907470703125
1758181141.3044345,0.7431640625,-0.02099609375,0.671875,3.96728515625,-2.3193359375,-1.15966796875,-2.2412109375,-47.7850341796875,-177.4127197265625
1758181141.3141837,0.7431640625,-0.02099609375,0.671875,3.96728515625,-2.3193359375,-1.15966796875,-2.1917724609375,-47.8125,-177.4346923828125
1758181141.324204,0.75048828125,-0.01904296875,0.6767578125,2.86865234375,-2.25830078125,-0.91552734375,-2.1533203125,-47.83447265625,-177.4566650390625
1758181141.3345172,0.75048828125,-0.01904296875,0.6767578125,2.86865234375,-2.25830078125,-0.91552734375,-2.1148681640625,-47.8564453125,-177.47314453125
1758181141.3442507,0.74951171875,-0.02783203125,0.6787109375,1.953125,-2.25830078125,-0.48828125,-2.0928955078125,-47.87841796875,-177.484130859375
1758181141.3546844,0.74951171875,-0.02783203125,0.6787109375,1.953125,-2.25830078125,-0.48828125,-2.0709228515625,-47.900390625,-177.5006103515625
1758181141.3645606,0.751953125,-0.0283203125,0.67529296875,1.5869140625,-2.3193359375,-0.3662109375,-2.0489501953125,-47.92236328125,-177.5115966796875
1758181141.3742278,0.751953125,-0.0283203125,0.67529296875,1.5869140625,-2.3193359375,-0.3662109375,-2.032470703125,-47.9443359375,-177.5225830078125
1758181141.3843343,0.75927734375,-0.021484375,0.67919921875,2.3193359375,-2.44140625,-0.18310546875,-2.010498046875,-47.96630859375,-177.528076171875
1758181141.3947093,0.75927734375,-0.021484375,0.67919921875,2.3193359375,-2.44140625,-0.18310546875,-1.988525390625,-47.98828125,-177.5390625
1758181141.4043722,0.759765625,-0.013671875,0.6708984375,2.0751953125,-2.62451171875,0.30517578125,-1.9720458984375,-48.0157470703125,-177.5445556640625
1758181141.4144957,0.759765625,-0.013671875,0.6708984375,2.0751953125,-2.62451171875,0.30517578125,-1.95556640625,-48.043212890625,-177.5445556640625
1758181141.4266548,0.74462890625,-0.025390625,0.67529296875,1.5869140625,-2.99072265625,0.18310546875,-1.944580078125,-48.0706787109375,-177.550048828125
1758181141.434754,0.74462890625,-0.025390625,0.67529296875,1.5869140625,-2.99072265625,0.18310546875,-1.9281005859375,-48.09814453125,-177.5555419921875
1758181141.4444096,0.7509765625,-0.021484375,0.66015625,0.0,-3.11279296875,0.06103515625,-1.93359375,-48.131103515625,-177.56103515625
1758181141.4543781,0.7509765625,-0.021484375,0.66015625,0.0,-3.11279296875,0.06103515625,-1.93359375,-48.1585693359375,-177.5665283203125
1758181141.4647985,0.74951171875,-0.017578125,0.67626953125,-0.48828125,-3.0517578125,0.1220703125,-1.944580078125,-48.1915283203125,-177.572021484375
1758181141.4743826,0.74951171875,-0.017578125,0.67626953125,-0.48828125,-3.0517578125,0.1220703125,-1.9500732421875,-48.218994140625,-177.5775146484375
1758181141.4846778,0.75390625,-0.0244140625,0.66845703125,0.732421875,-3.0517578125,0.1220703125,-1.944580078125,-48.2464599609375,-177.5885009765625
1758181141.4948924,0.75390625,-0.0244140625,0.66845703125,0.732421875,-3.0517578125,0.1220703125,-1.9390869140625,-48.2794189453125,-177.593994140625
1758181141.5044298,0.75146484375,-0.02587890625,0.66064453125,0.9765625,-3.23486328125,0.0,-1.93359375,-48.3123779296875,-177.60498046875
1758181141.514471,0.75146484375,-0.02587890625,0.66064453125,0.9765625,-3.23486328125,0.0,-1.922607421875,-48.33984375,-177.615966796875
1758181141.5245032,0.755859375,-0.0078125,0.66796875,0.18310546875,-3.662109375,-0.30517578125,-1.9171142578125,-48.3782958984375,-177.626953125
1758181141.5347228,0.755859375,-0.0078125,0.66796875,0.18310546875,-3.662109375,-0.30517578125,-1.91162109375,-48.4112548828125,-177.6434326171875
1758181141.5445402,0.763671875,-0.00341796875,0.67578125,-2.50244140625,-3.84521484375,-0.244140625,-1.93359375,-48.44970703125,-177.659912109375
1758181141.5544834,0.763671875,-0.00341796875,0.67578125,-2.50244140625,-3.84521484375,-0.244140625,-1.95556640625,-48.4881591796875,-177.6708984375
1758181141.5650601,0.76708984375,-0.0185546875,0.66748046875,-3.5400390625,-4.08935546875,-0.244140625,-1.988525390625,-48.526611328125,-177.6873779296875
1758181141.5745194,0.76708984375,-0.0185546875,0.66748046875,-3.5400390625,-4.08935546875,-0.244140625,-2.021484375,-48.570556640625,-177.6983642578125
1758181141.5847895,0.75537109375,-0.03466796875,0.65576171875,-1.0986328125,-4.150390625,-0.6103515625,-2.021484375,-48.6090087890625,-177.7203369140625
1758181141.5953293,0.75537109375,-0.03466796875,0.65576171875,-1.0986328125,-4.150390625,-0.6103515625,-2.0269775390625,-48.6529541015625,-177.7423095703125
1758181141.6045887,0.75341796875,-0.0302734375,0.65869140625,1.0986328125,-4.2724609375,-1.03759765625,-2.0050048828125,-48.69140625,-177.769775390625
1758181141.6146402,0.75341796875,-0.0302734375,0.65869140625,1.0986328125,-4.2724609375,-1.03759765625,-1.9830322265625,-48.7353515625,-177.7972412109375
1758181141.624604,0.75048828125,-0.021484375,0.65380859375,1.3427734375,-4.150390625,-1.220703125,-1.95556640625,-48.7738037109375,-177.82470703125
1758181141.634868,0.75048828125,-0.021484375,0.65380859375,1.3427734375,-4.150390625,-1.220703125,-1.93359375,-48.8177490234375,-177.857666015625
1758181141.6446385,0.75390625,-0.009765625,0.65380859375,0.67138671875,-4.150390625,-1.3427734375,-1.91162109375,-48.856201171875,-177.890625
1758181141.6546617,0.75439453125,0.00048828125,0.66015625,-0.8544921875,-4.0283203125,-0.8544921875,-1.900634765625,-48.900146484375,-177.9180908203125
1758181141.6650147,0.75439453125,0.00048828125,0.66015625,-0.8544921875,-4.0283203125,-0.8544921875,-1.8951416015625,-48.9385986328125,-177.945556640625
1758181141.674675,0.7578125,-0.02197265625,0.65771484375,-1.3427734375,-4.08935546875,-0.6103515625,-1.900634765625,-48.97705078125,-177.9730224609375
1758181141.6847074,0.7578125,-0.02197265625,0.65771484375,-1.3427734375,-4.08935546875,-0.6103515625,-1.9061279296875,-49.0155029296875,-177.9949951171875
1758181141.695087,0.75,-0.0439453125,0.64013671875,-1.64794921875,-4.08935546875,-0.6103515625,-1.91162109375,-49.053955078125,-178.0224609375
1758181141.7047672,0.75,-0.0439453125,0.64013671875,-1.64794921875,-4.08935546875,-0.6103515625,-1.922607421875,-49.097900390625,-178.04443359375
1758181141.714777,0.75390625,-0.037109375,0.6474609375,0.8544921875,-4.08935546875,-0.67138671875,-1.922607421875,-49.1363525390625,-178.0718994140625
1758181141.724745,0.75390625,-0.037109375,0.6474609375,0.8544921875,-4.08935546875,-0.67138671875,-1.9061279296875,-49.1748046875,-178.0938720703125
1758181141.735112,0.76318359375,-0.02099609375,0.65576171875,3.11279296875,-4.150390625,-0.732421875,-1.8841552734375,-49.21875,-178.1158447265625
1758181141.7447398,0.76318359375,-0.02099609375,0.65576171875,3.11279296875,-4.150390625,-0.732421875,-1.845703125,-49.2572021484375,-178.143310546875
1758181141.754932,0.7822265625,-0.0166015625,0.66015625,3.72314453125,-4.33349609375,-0.6103515625,-1.8072509765625,-49.295654296875,-178.165283203125
1758181141.765115,0.7822265625,-0.0166015625,0.66015625,3.72314453125,-4.33349609375,-0.6103515625,-1.7633056640625,-49.339599609375,-178.187255859375
1758181141.7747664,0.77978515625,-0.0166015625,0.66162109375,3.173828125,-4.57763671875,-0.67138671875,-1.724853515625,-49.383544921875,-178.209228515625
1758181141.78476,0.77978515625,-0.0166015625,0.66162109375,3.173828125,-4.57763671875,-0.67138671875,-1.69189453125,-49.427490234375,-178.231201171875
1758181141.7952204,0.77978515625,-0.0166015625,0.66162109375,2.50244140625,-4.8828125,-0.9765625,-1.6534423828125,-49.4769287109375,-178.2586669921875
1758181141.804877,0.76806640625,-0.01123046875,0.64697265625,2.50244140625,-4.8828125,-0.9765625,-1.6204833984375,-49.5208740234375,-178.2861328125
1758181141.8148677,0.76513671875,-0.009765625,0.64404296875,3.0517578125,-5.06591796875,-1.28173828125,-1.58203125,-49.5703125,-178.319091796875
1758181141.8248668,0.76513671875,-0.009765625,0.64404296875,3.0517578125,-5.06591796875,-1.28173828125,-1.5380859375,-49.625244140625,-178.3575439453125
1758181141.8352475,0.77099609375,-0.01513671875,0.6455078125,3.72314453125,-5.31005859375,-1.40380859375,-1.494140625,-49.6746826171875,-178.39599609375
1758181141.8448973,0.77099609375,-0.01513671875,0.6455078125,3.72314453125,-5.31005859375,-1.40380859375,-1.439208984375,-49.72412109375,-178.4344482421875
1758181141.8551104,0.77197265625,-0.0205078125,0.642578125,4.08935546875,-5.55419921875,-1.3427734375,-1.38427734375,-49.779052734375,-178.4783935546875
1758181141.8654518,0.77197265625,-0.0205078125,0.642578125,4.08935546875,-5.55419921875,-1.3427734375,-1.3348388671875,-49.833984375,-178.516845703125
1758181141.8748987,0.76220703125,-0.0185546875,0.64111328125,2.99072265625,-5.859375,-1.28173828125,-1.285400390625,-49.888916015625,-178.5552978515625
1758181141.8851268,0.76220703125,-0.0185546875,0.64111328125,2.99072265625,-5.859375,-1.28173828125,-1.241455078125,-49.9493408203125,-178.59375
1758181141.89528,0.7470703125,-0.005859375,0.62158203125,2.8076171875,-5.92041015625,-1.3427734375,-1.2030029296875,-50.0042724609375,-178.6376953125
1758181141.905013,0.7470703125,-0.005859375,0.62158203125,2.8076171875,-5.92041015625,-1.3427734375,-1.1590576171875,-50.064697265625,-178.6761474609375
1758181141.9149818,0.7548828125,-0.00341796875,0.62158203125,3.662109375,-5.7373046875,-1.52587890625,-1.1151123046875,-50.11962890625,-178.7200927734375
1758181141.9249966,0.7548828125,-0.00341796875,0.62158203125,3.662109375,-5.7373046875,-1.52587890625,-1.0601806640625,-50.1800537109375,-178.7640380859375
1758181141.9352648,0.767578125,-0.00341796875,0.6318359375,1.64794921875,-5.4931640625,-1.46484375,-1.021728515625,-50.2349853515625,-178.8079833984375
1758181141.945015,0.767578125,-0.00341796875,0.6318359375,1.64794921875,-5.4931640625,-1.46484375,-0.98876953125,-50.284423828125,-178.8519287109375
1758181141.9550238,0.7705078125,-0.00537109375,0.64208984375,-0.9765625,-5.31005859375,-1.0986328125,-0.9722900390625,-50.33935546875,-178.8958740234375
1758181141.9653263,0.7705078125,-0.00537109375,0.64208984375,-0.9765625,-5.31005859375,-1.0986328125,-0.966796875,-50.3887939453125,-178.934326171875
1758181141.9750106,0.76171875,-0.005859375,0.6279296875,-3.11279296875,-5.18798828125,-0.91552734375,-0.977783203125,-50.4437255859375,-178.9727783203125
1758181141.9850173,0.76171875,-0.005859375,0.6279296875,-3.11279296875,-5.18798828125,-0.91552734375,-0.999755859375,-50.4931640625,-179.0057373046875
1758181141.9953547,0.76708984375,-0.0078125,0.6220703125,-2.62451171875,-4.82177734375,-0.8544921875,-1.0162353515625,-50.537109375,-179.044189453125
1758181142.0051253,0.76708984375,-0.0078125,0.6220703125,-2.62451171875,-4.82177734375,-0.8544921875,-1.03271484375,-50.5865478515625,-179.0771484375
1758181142.0151677,0.77490234375,-0.01513671875,0.62841796875,-1.3427734375,-4.5166015625,-0.91552734375,-1.0382080078125,-50.6304931640625,-179.1156005859375
1758181142.025192,0.77490234375,-0.01513671875,0.62841796875,-1.3427734375,-4.5166015625,-0.91552734375,-1.043701171875,-50.6744384765625,-179.154052734375
1758181142.0353773,0.78857421875,-0.017578125,0.63818359375,-0.30517578125,-4.33349609375,-1.03759765625,-1.0382080078125,-50.7183837890625,-179.18701171875
1758181142.045263,0.78857421875,-0.017578125,0.63818359375,-0.30517578125,-4.33349609375,-1.03759765625,-1.03271484375,-50.7623291015625,-179.2254638671875
1758181142.0552123,0.783203125,-0.01513671875,0.63232421875,-0.18310546875,-4.21142578125,-1.03759765625,-1.021728515625,-50.80078125,-179.263916015625
1758181142.0659842,0.783203125,-0.01513671875,0.63232421875,-0.18310546875,-4.21142578125,-1.03759765625,-1.0107421875,-50.8447265625,-179.3023681640625
1758181142.0751598,0.77783203125,-0.00439453125,0.630859375,-0.244140625,-4.0283203125,-1.15966796875,-0.999755859375,-50.8831787109375,-179.3463134765625
1758181142.0853193,0.77783203125,-0.00439453125,0.630859375,-0.244140625,-4.0283203125,-1.15966796875,-0.98876953125,-50.921630859375,-179.384765625
1758181142.0953681,0.78125,0.001953125,0.62841796875,0.54931640625,-3.60107421875,-1.46484375,-0.9722900390625,-50.9600830078125,-179.4287109375
1758181142.1052783,0.78125,0.001953125,0.62841796875,0.54931640625,-3.60107421875,-1.46484375,-0.9503173828125,-50.9930419921875,-179.47265625
1758181142.115285,0.79638671875,-0.00341796875,0.64013671875,1.03759765625,-3.35693359375,-1.64794921875,-0.9228515625,-51.0260009765625,-179.5220947265625
1758181142.1254108,0.79638671875,-0.00341796875,0.64013671875,1.03759765625,-3.35693359375,-1.64794921875,-0.889892578125,-51.0589599609375,-179.571533203125
1758181142.1353357,0.80224609375,-0.009765625,0.64501953125,0.6103515625,-3.173828125,-1.77001953125,-0.8624267578125,-51.0919189453125,-179.6209716796875
1758181142.145369,0.80224609375,-0.009765625,0.64501953125,0.6103515625,-3.173828125,-1.77001953125,-0.8349609375,-51.119384765625,-179.6759033203125
1758181142.1552544,0.794921875,-0.0107421875,0.63330078125,0.54931640625,-3.0517578125,-2.0751953125,-0.802001953125,-51.15234375,-179.7308349609375
1758181142.1655927,0.794921875,-0.0107421875,0.63330078125,0.54931640625,-3.0517578125,-2.0751953125,-0.7745361328125,-51.1798095703125,-179.791259765625
1758181142.17531,0.79345703125,0.0009765625,0.63330078125,0.9765625,-2.8076171875,-2.685546875,-0.736083984375,-51.2127685546875,-179.8516845703125
1758181142.185551,0.79345703125,0.0009765625,0.63330078125,0.9765625,-2.8076171875,-2.685546875,-0.692138671875,-51.240234375,-179.923095703125
1758181142.195451,0.80029296875,0.0048828125,0.642578125,0.30517578125,-2.50244140625,-2.8076171875,-0.6536865234375,-51.26220703125,-179.9945068359375
1758181142.2054315,0.80029296875,0.0048828125,0.642578125,0.30517578125,-2.50244140625,-2.8076171875,-0.6097412109375,-51.2896728515625,179.9285888671875
1758181142.2154186,0.7998046875,-0.00537109375,0.638671875,0.6103515625,-2.3193359375,-2.8076171875,-0.5712890625,-51.3116455078125,179.857177734375
1758181142.2255008,0.7998046875,-0.00537109375,0.638671875,0.6103515625,-2.3193359375,-2.8076171875,-0.5328369140625,-51.3336181640625,179.7802734375
1758181142.2356315,0.794921875,-0.009765625,0.626953125,0.30517578125,-2.25830078125,-2.99072265625,-0.4888916015625,-51.3555908203125,179.7088623046875
1758181142.245444,0.794921875,-0.009765625,0.626953125,0.30517578125,-2.25830078125,-2.99072265625,-0.450439453125,-51.3775634765625,179.6319580078125
1758181142.255472,0.78271484375,-0.0029296875,0.611328125,0.732421875,-2.197265625,-3.23486328125,-0.406494140625,-51.3995361328125,179.549560546875
1758181142.2657127,0.78271484375,-0.0029296875,0.611328125,0.732421875,-2.197265625,-3.23486328125,-0.3570556640625,-51.4215087890625,179.4671630859375
1758181142.2754576,0.76611328125,0.00634765625,0.6162109375,0.79345703125,-1.8310546875,-3.41796875,-0.3076171875,-51.4434814453125,179.384765625
1758181142.2855144,0.76611328125,0.00634765625,0.6162109375,0.79345703125,-1.8310546875,-3.41796875,-0.2581787109375,-51.4599609375,179.3023681640625
1758181142.2955241,0.76220703125,0.00244140625,0.59521484375,1.03759765625,-1.64794921875,-3.5400390625,-0.208740234375,-51.4764404296875,179.2144775390625
1758181142.305551,0.76220703125,0.00244140625,0.59521484375,1.03759765625,-1.64794921875,-3.5400390625,-0.15380859375,-51.492919921875,179.132080078125
1758181142.3156252,0.75537109375,-0.0078125,0.60693359375,1.5869140625,-1.40380859375,-3.2958984375,-0.098876953125,-51.5093994140625,179.044189453125
1758181142.3261895,0.75537109375,-0.0078125,0.60693359375,1.5869140625,-1.40380859375,-3.2958984375,-0.0384521484375,-51.5203857421875,178.9617919921875
1758181142.3357127,0.75390625,-0.0048828125,0.587890625,1.03759765625,-1.0986328125,-3.23486328125,0.0054931640625,-51.536865234375,178.8848876953125
1758181142.3456392,0.75390625,-0.0048828125,0.587890625,1.03759765625,-1.0986328125,-3.23486328125,0.054931640625,-51.5423583984375,178.802490234375
1758181142.355552,0.74853515625,0.00732421875,0.59326171875,1.3427734375,-0.54931640625,-3.173828125,0.1043701171875,-51.5533447265625,178.7200927734375
1758181142.370819,0.74853515625,0.00732421875,0.59326171875,1.3427734375,-0.54931640625,-3.173828125,0.15380859375,-51.558837890625,178.6431884765625
1758181142.3768961,0.75537109375,0.01123046875,0.5986328125,0.9765625,0.0,-2.99072265625,0.2032470703125,-51.558837890625,178.5662841796875
1758181142.3868976,0.75537109375,0.01123046875,0.5986328125,0.9765625,0.0,-2.99072265625,0.252685546875,-51.558837890625,178.4893798828125
1758181142.3966932,0.76953125,0.0,0.60400390625,2.0751953125,0.42724609375,-2.5634765625,0.3021240234375,-51.558837890625,178.4124755859375
1758181142.406032,0.76953125,0.0,0.60400390625,2.0751953125,0.42724609375,-2.5634765625,0.3515625,-51.5533447265625,178.3465576171875
1758181142.415699,0.77294921875,-0.00732421875,0.60791015625,1.64794921875,0.54931640625,-2.197265625,0.3955078125,-51.5478515625,178.2806396484375
1758181142.4262283,0.77294921875,-0.00732421875,0.60791015625,1.64794921875,0.54931640625,-2.197265625,0.439453125,-51.5423583984375,178.2147216796875
1758181142.4358065,0.77734375,0.0048828125,0.60888671875,1.3427734375,0.48828125,-1.953125,0.4779052734375,-51.5423583984375,178.154296875
1758181142.4460855,0.77734375,0.0048828125,0.60888671875,1.3427734375,0.48828125,-1.953125,0.5108642578125,-51.536865234375,178.08837890625
1758181142.4557278,0.783203125,0.01806640625,0.62158203125,0.0,0.48828125,-1.64794921875,0.538330078125,-51.5313720703125,178.033447265625
1758181142.466087,0.783203125,0.01806640625,0.62158203125,0.0,0.48828125,-1.64794921875,0.5548095703125,-51.52587890625,177.9730224609375
1758181142.4757469,0.78662109375,0.0107421875,0.6142578125,-0.18310546875,0.42724609375,-1.40380859375,0.5712890625,-51.52587890625,177.9180908203125
1758181142.4857728,0.78662109375,0.0107421875,0.6142578125,-0.18310546875,0.42724609375,-1.40380859375,0.5877685546875,-51.5203857421875,177.8631591796875
1758181142.4961846,0.7861328125,-0.00146484375,0.6171875,1.220703125,0.1220703125,-1.28173828125,0.6097412109375,-51.5203857421875,177.8082275390625
1758181142.5060892,0.7861328125,-0.00146484375,0.6171875,1.220703125,0.1220703125,-1.28173828125,0.63720703125,-51.5203857421875,177.7532958984375
1758181142.5158272,0.78759765625,0.0068359375,0.61328125,0.48828125,-0.30517578125,-1.52587890625,0.6591796875,-51.5203857421875,177.703857421875
1758181142.5257907,0.78759765625,0.0068359375,0.61328125,0.48828125,-0.30517578125,-1.52587890625,0.68115234375,-51.52587890625,177.6434326171875
1758181142.536177,0.79443359375,0.02294921875,0.62451171875,-0.79345703125,-0.732421875,-1.52587890625,0.6976318359375,-51.5313720703125,177.5885009765625
1758181142.545807,0.79443359375,0.02294921875,0.62451171875,-0.79345703125,-0.732421875,-1.52587890625,0.7086181640625,-51.5423583984375,177.5335693359375
1758181142.5559103,0.79443359375,0.02294921875,0.62451171875,-1.40380859375,-0.91552734375,-1.28173828125,0.714111328125,-51.5533447265625,177.4786376953125
1758181142.5660527,0.798828125,0.01513671875,0.63232421875,-1.40380859375,-0.91552734375,-1.28173828125,0.7196044921875,-51.558837890625,177.4237060546875
1758181142.5758948,0.80029296875,0.00390625,0.62646484375,-2.0751953125,-1.15966796875,-1.0986328125,0.7196044921875,-51.5753173828125,177.3687744140625
1758181142.5862641,0.80029296875,0.00390625,0.62646484375,-2.0751953125,-1.15966796875,-1.0986328125,0.7086181640625,-51.5863037109375,177.3193359375
1758181142.5960796,0.79296875,0.00439453125,0.62841796875,-2.38037109375,-1.40380859375,-1.0986328125,0.703125,-51.5972900390625,177.2698974609375
1758181142.6059191,0.79296875,0.00439453125,0.62841796875,-2.38037109375,-1.40380859375,-1.0986328125,0.692138671875,-51.61376953125,177.2149658203125
1758181142.6159387,0.79638671875,0.0107421875,0.61962890625,-1.5869140625,-1.64794921875,-1.15966796875,0.6866455078125,-51.6302490234375,177.16552734375
1758181142.625928,0.79638671875,0.0107421875,0.61962890625,-1.5869140625,-1.64794921875,-1.15966796875,0.6866455078125,-51.646728515625,177.1160888671875
1758181142.6364627,0.80126953125,0.0087890625,0.62109375,-0.67138671875,-1.77001953125,-1.03759765625,0.692138671875,-51.668701171875,177.0611572265625
1758181142.6459532,0.80126953125,0.0087890625,0.62109375,-0.67138671875,-1.77001953125,-1.03759765625,0.6976318359375,-51.6851806640625,177.01171875
1758181142.6560068,0.7900390625,0.00341796875,0.62060546875,-0.3662109375,-1.89208984375,-1.03759765625,0.7086181640625,-51.7071533203125,176.956787109375
1758181142.6660876,0.7900390625,0.00341796875,0.62060546875,-0.3662109375,-1.89208984375,-1.03759765625,0.714111328125,-51.7236328125,176.9073486328125
1758181142.6759975,0.7919921875,0.01025390625,0.61376953125,-0.244140625,-2.13623046875,-1.220703125,0.7305908203125,-51.74560546875,176.85791015625
1758181142.6860087,0.7919921875,0.01025390625,0.61376953125,-0.244140625,-2.13623046875,-1.220703125,0.7415771484375,-51.767578125,176.802978515625
1758181142.696131,0.79150390625,0.01513671875,0.61962890625,-0.8544921875,-2.13623046875,-1.3427734375,0.7525634765625,-51.78955078125,176.748046875
1758181142.7060728,0.79150390625,0.01513671875,0.61962890625,-0.8544921875,-2.13623046875,-1.3427734375,0.7635498046875,-51.8115234375,176.6876220703125
1758181142.7160869,0.79443359375,0.01513671875,0.61865234375,-1.15966796875,-1.953125,-1.28173828125,0.76904296875,-51.83349609375,176.6326904296875
1758181142.726357,0.79443359375,0.01513671875,0.61865234375,-1.15966796875,-1.953125,-1.28173828125,0.7745361328125,-51.85546875,176.5777587890625
1758181142.7361643,0.798828125,0.005859375,0.6181640625,-0.06103515625,-1.8310546875,-1.220703125,0.791015625,-51.8719482421875,176.5228271484375
1758181142.746146,0.798828125,0.005859375,0.6181640625,-0.06103515625,-1.8310546875,-1.220703125,0.802001953125,-51.8939208984375,176.4678955078125
1758181142.7560985,0.79833984375,0.00830078125,0.619140625,-0.1220703125,-1.708984375,-1.28173828125,0.8184814453125,-51.910400390625,176.4129638671875
1758181142.7661865,0.79833984375,0.00830078125,0.619140625,-0.1220703125,-1.708984375,-1.28173828125,0.8349609375,-51.9268798828125,176.3580322265625
1758181142.7761316,0.79345703125,0.00732421875,0.619140625,0.0,-1.52587890625,-1.3427734375,0.8514404296875,-51.943359375,176.3031005859375
1758181142.7861526,0.79345703125,0.00732421875,0.619140625,0.0,-1.52587890625,-1.3427734375,0.867919921875,-51.9598388671875,176.2481689453125
1758181142.7961898,0.79345703125,0.00732421875,0.619140625,0.1220703125,-1.220703125,-1.46484375,0.889892578125,-51.9708251953125,176.1932373046875
1758181142.806117,0.7900390625,0.0146484375,0.61181640625,0.1220703125,-1.220703125,-1.46484375,0.911865234375,-51.9818115234375,176.1328125
1758181142.816326,0.7939453125,0.0166015625,0.61181640625,1.0986328125,-0.9765625,-1.5869140625,0.9393310546875,-51.9927978515625,176.0723876953125
1758181142.8264966,0.7939453125,0.0166015625,0.61181640625,1.0986328125,-0.9765625,-1.5869140625,0.9722900390625,-52.0037841796875,176.011962890625
1758181142.836275,0.796875,0.013671875,0.61572265625,1.220703125,-0.79345703125,-1.52587890625,1.0052490234375,-52.0147705078125,175.95703125
1758181142.846319,0.796875,0.013671875,0.61572265625,1.220703125,-0.79345703125,-1.52587890625,1.0382080078125,-52.020263671875,175.8966064453125
1758181142.8562462,0.77734375,0.00537109375,0.61181640625,1.220703125,-0.732421875,-1.3427734375,1.065673828125,-52.03125,175.84716796875
1758181142.8666708,0.77734375,0.00537109375,0.61181640625,1.220703125,-0.732421875,-1.3427734375,1.0986328125,-52.0367431640625,175.792236328125
1758181142.8763893,0.77294921875,0.0078125,0.5849609375,2.01416015625,-0.54931640625,-1.40380859375,1.131591796875,-52.042236328125,175.7427978515625
1758181142.8865387,0.77294921875,0.0078125,0.5849609375,2.01416015625,-0.54931640625,-1.40380859375,1.1700439453125,-52.0477294921875,175.6878662109375
1758181142.89645,0.771484375,0.0166015625,0.59814453125,2.25830078125,-0.42724609375,-1.40380859375,1.20849609375,-52.05322265625,175.6329345703125
1758181142.9063497,0.771484375,0.0166015625,0.59814453125,2.25830078125,-0.42724609375,-1.40380859375,1.2469482421875,-52.0587158203125,175.5780029296875
1758181142.916494,0.7744140625,0.0224609375,0.60498046875,0.91552734375,-0.18310546875,-1.0986328125,1.2689208984375,-52.0587158203125,175.528564453125
1758181142.9267263,0.7744140625,0.0224609375,0.60498046875,0.91552734375,-0.18310546875,-1.0986328125,1.29638671875,-52.064208984375,175.4791259765625
1758181142.9364357,0.77294921875,0.017578125,0.6005859375,-0.54931640625,0.1220703125,-0.67138671875,1.29638671875,-52.064208984375,175.440673828125
1758181142.9463537,0.77294921875,0.017578125,0.6005859375,-0.54931640625,0.1220703125,-0.67138671875,1.3018798828125,-52.064208984375,175.4022216796875
1758181142.9563775,0.7666015625,0.01171875,0.59765625,-0.48828125,0.54931640625,-0.54931640625,1.3018798828125,-52.0587158203125,175.36376953125
1758181142.9668827,0.7666015625,0.01171875,0.59765625,-0.48828125,0.54931640625,-0.54931640625,1.3018798828125,-52.05322265625,175.3253173828125
1758181142.9763887,0.76416015625,0.009765625,0.5888671875,1.64794921875,0.91552734375,-0.48828125,1.329345703125,-52.042236328125,175.286865234375
1758181142.986412,0.76416015625,0.009765625,0.5888671875,1.64794921875,0.91552734375,-0.48828125,1.3458251953125,-52.0367431640625,175.2484130859375
1758181142.9965599,0.765625,0.00927734375,0.5927734375,3.11279296875,1.3427734375,-0.3662109375,1.38427734375,-52.020263671875,175.2154541015625
1758181143.0064297,0.765625,0.00927734375,0.5927734375,3.11279296875,1.3427734375,-0.3662109375,1.417236328125,-52.00927734375,175.1824951171875
1758181143.0165408,0.76611328125,0.0185546875,0.5966796875,2.38037109375,1.5869140625,-0.30517578125,1.4447021484375,-51.9927978515625,175.1495361328125
1758181143.0268264,0.76611328125,0.0185546875,0.5966796875,2.38037109375,1.5869140625,-0.30517578125,1.4666748046875,-51.9818115234375,175.1165771484375
1758181143.036632,0.7705078125,0.025390625,0.6015625,1.953125,1.77001953125,-0.1220703125,1.4886474609375,-51.96533203125,175.0836181640625
1758181143.0465388,0.7705078125,0.025390625,0.6015625,1.953125,1.77001953125,-0.1220703125,1.5106201171875,-51.9488525390625,175.0506591796875
1758181143.0565073,0.7646484375,0.02001953125,0.59375,1.708984375,1.953125,0.06103515625,1.5216064453125,-51.9268798828125,175.023193359375
1758181143.0669646,0.7646484375,0.02001953125,0.59375,1.708984375,1.953125,0.06103515625,1.5380859375,-51.910400390625,174.9957275390625
1758181143.076572,0.7763671875,0.01806640625,0.60205078125,1.46484375,2.01416015625,0.1220703125,1.5545654296875,-51.8939208984375,174.96826171875
1758181143.0867817,0.7763671875,0.01806640625,0.60205078125,1.46484375,2.01416015625,0.1220703125,1.5655517578125,-51.8719482421875,174.9407958984375
1758181143.096711,0.78369140625,0.0185546875,0.611328125,0.06103515625,1.953125,0.30517578125,1.56005859375,-51.85546875,174.913330078125
1758181143.1065397,0.78369140625,0.0185546875,0.611328125,0.06103515625,1.953125,0.30517578125,1.5545654296875,-51.8389892578125,174.891357421875
1758181143.116695,0.80322265625,0.021484375,0.61767578125,0.06103515625,1.64794921875,0.42724609375,1.5545654296875,-51.822509765625,174.869384765625
1758181143.1268585,0.80322265625,0.021484375,0.61767578125,0.06103515625,1.64794921875,0.42724609375,1.549072265625,-51.8115234375,174.847412109375
1758181143.1370778,0.8046875,0.01708984375,0.6318359375,0.0,1.3427734375,0.732421875,1.5380859375,-51.800537109375,174.8309326171875
1758181143.1466734,0.8046875,0.01708984375,0.6318359375,0.0,1.3427734375,0.732421875,1.527099609375,-51.78955078125,174.814453125
1758181143.156627,0.80029296875,0.01416015625,0.61376953125,0.3662109375,0.9765625,0.79345703125,1.5216064453125,-51.778564453125,174.7979736328125
1758181143.1671398,0.80029296875,0.01416015625,0.61376953125,0.3662109375,0.9765625,0.79345703125,1.51611328125,-51.7730712890625,174.781494140625
1758181143.1766846,0.8125,0.01708984375,0.638671875,-0.1220703125,0.42724609375,0.67138671875,1.505126953125,-51.7730712890625,174.7650146484375
1758181143.186696,0.8125,0.01708984375,0.638671875,-0.1220703125,0.42724609375,0.67138671875,1.4996337890625,-51.767578125,174.7430419921875
1758181143.1970615,0.810546875,0.025390625,0.62255859375,-0.79345703125,0.0,0.6103515625,1.483154296875,-51.7730712890625,174.7210693359375
1758181143.2067509,0.810546875,0.025390625,0.62255859375,-0.79345703125,0.0,0.6103515625,1.4666748046875,-51.7730712890625,174.6990966796875
1758181143.216853,0.8203125,0.02294921875,0.638671875,-0.1220703125,-0.3662109375,0.42724609375,1.461181640625,-51.7840576171875,174.6771240234375
1758181143.2267098,0.8203125,0.02294921875,0.638671875,-0.1220703125,-0.3662109375,0.42724609375,1.461181640625,-51.78955078125,174.6551513671875
1758181143.2371519,0.82421875,0.02099609375,0.638671875,-0.9765625,-0.8544921875,0.1220703125,1.4501953125,-51.800537109375,174.6221923828125
1758181143.2467804,0.82421875,0.02099609375,0.638671875,-0.9765625,-0.8544921875,0.1220703125,1.439208984375,-51.8115234375,174.5947265625
1758181143.2568243,0.81689453125,0.01708984375,0.6357421875,-0.3662109375,-1.3427734375,-0.1220703125,1.439208984375,-51.822509765625,174.561767578125
1758181143.267088,0.81689453125,0.01708984375,0.6357421875,-0.3662109375,-1.3427734375,-0.1220703125,1.439208984375,-51.8389892578125,174.52880859375
1758181143.2768233,0.80859375,0.01806640625,0.62646484375,0.18310546875,-1.64794921875,-0.54931640625,1.4501953125,-51.8609619140625,174.4903564453125
1758181143.2867954,0.80859375,0.01806640625,0.62646484375,0.18310546875,-1.64794921875,-0.54931640625,1.461181640625,-51.87744140625,174.451904296875
1758181143.296849,0.7998046875,0.021484375,0.62060546875,0.732421875,-1.8310546875,-0.8544921875,1.483154296875,-51.8939208984375,174.407958984375
1758181143.3072612,0.7998046875,0.021484375,0.62060546875,0.732421875,-1.8310546875,-0.8544921875,1.505126953125,-51.9158935546875,174.364013671875
1758181143.3168628,0.7958984375,0.0234375,0.6181640625,1.03759765625,-2.01416015625,-0.9765625,1.527099609375,-51.9378662109375,174.320068359375
1758181143.326877,0.7958984375,0.0234375,0.6181640625,1.03759765625,-2.01416015625,-0.9765625,1.5545654296875,-51.9598388671875,174.276123046875
1758181143.3378346,0.7822265625,0.0146484375,0.615234375,0.30517578125,-1.8310546875,-0.732421875,1.571044921875,-51.976318359375,174.2376708984375
1758181143.3469129,0.7822265625,0.0146484375,0.615234375,0.30517578125,-1.8310546875,-0.732421875,1.58203125,-51.998291015625,174.1937255859375
1758181143.3573072,0.7734375,0.0146484375,0.5927734375,1.28173828125,-1.64794921875,-0.91552734375,1.6094970703125,-52.0147705078125,174.1552734375
1758181143.3673902,0.7734375,0.0146484375,0.5927734375,1.28173828125,-1.64794921875,-0.91552734375,1.6314697265625,-52.03125,174.111328125
1758181143.376976,0.77587890625,0.02734375,0.60693359375,0.8544921875,-1.40380859375,-1.03759765625,1.658935546875,-52.042236328125,174.0673828125
1758181143.3869154,0.77587890625,0.02734375,0.60693359375,0.8544921875,-1.40380859375,-1.03759765625,1.680908203125,-52.0587158203125,174.0234375
1758181143.3971572,0.77685546875,0.02685546875,0.60107421875,-0.3662109375,-1.220703125,-0.79345703125,1.6864013671875,-52.0697021484375,173.9849853515625
1758181143.4069421,0.77685546875,0.02685546875,0.60107421875,-0.3662109375,-1.220703125,-0.79345703125,1.6973876953125,-52.086181640625,173.946533203125
1758181143.4170272,0.7734375,0.01611328125,0.6015625,-0.18310546875,-0.91552734375,-0.732421875,1.7083740234375,-52.0916748046875,173.9080810546875
1758181143.427399,0.7734375,0.01611328125,0.6015625,-0.18310546875,-0.91552734375,-0.732421875,1.7138671875,-52.1026611328125,173.86962890625
1758181143.4371188,0.7802734375,0.0126953125,0.60205078125,1.64794921875,-0.67138671875,-0.732421875,1.7413330078125,-52.108154296875,173.836669921875
1758181143.4470541,0.7802734375,0.0126953125,0.60205078125,1.64794921875,-0.67138671875,-0.732421875,1.768798828125,-52.1136474609375,173.7982177734375
1758181143.457051,0.77880859375,0.01904296875,0.60302734375,1.40380859375,-0.48828125,-0.67138671875,1.790771484375,-52.119140625,173.759765625
1758181143.4675612,0.77880859375,0.01904296875,0.60302734375,1.40380859375,-0.48828125,-0.67138671875,1.812744140625,-52.1246337890625,173.726806640625
1758181143.477096,0.78125,0.02880859375,0.603515625,0.42724609375,-0.244140625,-0.67138671875,1.8292236328125,-52.130126953125,173.6883544921875
1758181143.4871202,0.78125,0.02880859375,0.603515625,0.42724609375,-0.244140625,-0.67138671875,1.8402099609375,-52.130126953125,173.6553955078125
1758181143.4972374,0.7890625,0.02978515625,0.611328125,0.42724609375,-0.06103515625,-0.79345703125,1.856689453125,-52.130126953125,173.616943359375
1758181143.5070827,0.7890625,0.02978515625,0.611328125,0.42724609375,-0.06103515625,-0.79345703125,1.8731689453125,-52.1356201171875,173.5784912109375
1758181143.5171351,0.7978515625,0.02392578125,0.61376953125,0.244140625,-0.06103515625,-0.91552734375,1.8896484375,-52.1356201171875,173.5400390625
1758181143.5274968,0.7978515625,0.02392578125,0.61376953125,0.244140625,-0.06103515625,-0.91552734375,1.9061279296875,-52.1356201171875,173.5015869140625
1758181143.5372438,0.80322265625,0.0224609375,0.62353515625,-0.91552734375,-0.06103515625,-0.79345703125,1.9061279296875,-52.1356201171875,173.463134765625
1758181143.5472002,0.80322265625,0.0224609375,0.62353515625,-0.91552734375,-0.06103515625,-0.79345703125,1.9061279296875,-52.1356201171875,173.4246826171875
1758181143.5571873,0.79345703125,0.0205078125,0.60986328125,-1.28173828125,-0.06103515625,-0.8544921875,1.9061279296875,-52.1356201171875,173.38623046875
1758181143.567702,0.79345703125,0.0205078125,0.60986328125,-1.28173828125,-0.06103515625,-0.8544921875,1.9061279296875,-52.14111328125,173.3477783203125
1758181143.5772314,0.78662109375,0.02294921875,0.6123046875,-0.48828125,0.18310546875,-1.03759765625,1.9171142578125,-52.1356201171875,173.3038330078125
1758181143.5872426,0.78662109375,0.02294921875,0.6123046875,-0.48828125,0.18310546875,-1.03759765625,1.9281005859375,-52.1356201171875,173.2598876953125
1758181143.597335,0.79150390625,0.02734375,0.60791015625,0.3662109375,0.42724609375,-1.3427734375,1.9500732421875,-52.130126953125,173.2159423828125
1758181143.6072044,0.79150390625,0.02734375,0.60791015625,0.3662109375,0.42724609375,-1.3427734375,1.9720458984375,-52.130126953125,173.16650390625
1758181143.6172793,0.79833984375,0.02587890625,0.6181640625,0.18310546875,0.54931640625,-1.28173828125,1.988525390625,-52.1246337890625,173.12255859375
1758181143.6272204,0.79833984375,0.02587890625,0.6181640625,0.18310546875,0.54931640625,-1.28173828125,2.010498046875,-52.119140625,173.07861328125
1758181143.637602,0.80029296875,0.0166015625,0.6220703125,-0.244140625,0.732421875,-0.8544921875,2.0159912109375,-52.1136474609375,173.0401611328125
1758181143.6473536,0.791015625,0.01171875,0.61181640625,1.15966796875,0.6103515625,-0.67138671875,2.032470703125,-52.1026611328125,173.0072021484375
1758181143.6576195,0.791015625,0.01171875,0.61181640625,1.15966796875,0.6103515625,-0.67138671875,2.0489501953125,-52.09716796875,172.9742431640625
1758181143.6679122,0.78369140625,0.0234375,0.60205078125,0.9765625,0.3662109375,-0.67138671875,2.0709228515625,-52.09716796875,172.9412841796875
1758181143.6773884,0.78369140625,0.0234375,0.60205078125,0.9765625,0.3662109375,-0.67138671875,2.08740234375,-52.0916748046875,172.913818359375
1758181143.687494,0.779296875,0.03759765625,0.59912109375,-0.732421875,0.06103515625,-0.67138671875,2.098388671875,-52.0916748046875,172.880859375
1758181143.6975617,0.779296875,0.03759765625,0.59912109375,-0.732421875,0.06103515625,-0.67138671875,2.098388671875,-52.0916748046875,172.847900390625
1758181143.707359,0.78466796875,0.0341796875,0.6064453125,-1.03759765625,-0.06103515625,-0.732421875,2.098388671875,-52.0916748046875,172.81494140625
1758181143.7174873,0.78466796875,0.0341796875,0.6064453125,-1.03759765625,-0.06103515625,-0.732421875,2.098388671875,-52.09716796875,172.781982421875
1758181143.7274249,0.794921875,0.021484375,0.609375,-1.220703125,-0.30517578125,-0.67138671875,2.098388671875,-52.09716796875,172.7435302734375
1758181143.7377532,0.794921875,0.021484375,0.609375,-1.220703125,-0.30517578125,-0.67138671875,2.098388671875,-52.1026611328125,172.705078125
1758181143.7474473,0.7939453125,0.0126953125,0.6162109375,-0.67138671875,-0.54931640625,-0.48828125,2.098388671875,-52.108154296875,172.672119140625
1758181143.757753,0.7939453125,0.0126953125,0.6162109375,-0.67138671875,-0.54931640625,-0.48828125,2.098388671875,-52.1136474609375,172.63916015625
1758181143.7676616,0.7880859375,0.0205078125,0.6044921875,-0.3662109375,-0.732421875,-0.6103515625,2.098388671875,-52.119140625,172.606201171875
1758181143.7774634,0.7880859375,0.0205078125,0.6044921875,-0.3662109375,-0.732421875,-0.6103515625,2.1038818359375,-52.130126953125,172.5677490234375
1758181143.7875638,0.7880859375,0.0302734375,0.60986328125,-0.732421875,-0.732421875,-0.48828125,2.109375,-52.1356201171875,172.5347900390625
1758181143.7977731,0.7880859375,0.0302734375,0.60986328125,-0.732421875,-0.732421875,-0.48828125,2.109375,-52.1466064453125,172.5018310546875
1758181143.8075225,0.79296875,0.02880859375,0.61376953125,-0.6103515625,-0.8544921875,-0.3662109375,2.109375,-52.1575927734375,172.474365234375
1758181143.8177214,0.79296875,0.02880859375,0.61376953125,-0.6103515625,-0.8544921875,-0.3662109375,2.109375,-52.1630859375,172.44140625
1758181143.8274977,0.794921875,0.02099609375,0.6083984375,-0.30517578125,-1.03759765625,-0.42724609375,2.109375,-52.174072265625,172.4139404296875
1758181143.8377862,0.794921875,0.02099609375,0.6083984375,-0.30517578125,-1.03759765625,-0.42724609375,2.1148681640625,-52.18505859375,172.3809814453125
1758181143.8475242,0.78857421875,0.021484375,0.60888671875,-0.54931640625,-1.03759765625,-0.6103515625,2.1148681640625,-52.196044921875,172.3480224609375
1758181143.8577785,0.78857421875,0.021484375,0.60888671875,-0.54931640625,-1.03759765625,-0.6103515625,2.120361328125,-52.20703125,172.3150634765625
1758181143.8681746,0.7802734375,0.0224609375,0.5966796875,0.1220703125,-1.15966796875,-0.9765625,2.13134765625,-52.218017578125,172.276611328125
1758181143.8776023,0.7802734375,0.0224609375,0.5966796875,0.1220703125,-1.15966796875,-0.9765625,2.142333984375,-52.22900390625,172.2381591796875
1758181143.8876739,0.78759765625,0.04248046875,0.59326171875,0.0,-1.220703125,-1.40380859375,2.1588134765625,-52.2454833984375,172.1942138671875
1758181143.8978777,0.78759765625,0.04248046875,0.59326171875,0.0,-1.220703125,-1.40380859375,2.1807861328125,-52.2564697265625,172.144775390625
1758181143.9076893,0.79248046875,0.0390625,0.61767578125,-0.54931640625,-1.3427734375,-1.5869140625,2.2027587890625,-52.2674560546875,172.0953369140625
1758181143.917681,0.79248046875,0.0390625,0.61767578125,-0.54931640625,-1.3427734375,-1.5869140625,2.21923828125,-52.283935546875,172.0404052734375
1758181143.9276192,0.80126953125,0.02099609375,0.61376953125,-2.25830078125,-1.46484375,-1.3427734375,2.230224609375,-52.3004150390625,171.990966796875
1758181143.9379463,0.80126953125,0.02099609375,0.61376953125,-2.25830078125,-1.46484375,-1.3427734375,2.2247314453125,-52.3114013671875,171.947021484375
1758181143.9476798,0.7998046875,0.01416015625,0.60986328125,-1.0986328125,-1.708984375,-1.46484375,2.230224609375,-52.327880859375,171.8975830078125
1758181143.9583158,0.7998046875,0.01416015625,0.60986328125,-1.0986328125,-1.708984375,-1.46484375,2.2412109375,-52.3443603515625,171.84814453125
1758181143.9681664,0.80615234375,0.025390625,0.61376953125,-0.42724609375,-1.89208984375,-1.52587890625,2.252197265625,-52.3663330078125,171.7987060546875
1758181143.9777,0.80615234375,0.025390625,0.61376953125,-0.42724609375,-1.89208984375,-1.52587890625,2.2686767578125,-52.3828125,171.7547607421875
1758181143.987778,0.80712890625,0.033203125,0.61767578125,-1.15966796875,-2.0751953125,-1.28173828125,2.2796630859375,-52.40478515625,171.705322265625
1758181143.9979637,0.80712890625,0.033203125,0.61767578125,-1.15966796875,-2.0751953125,-1.28173828125,2.2906494140625,-52.4212646484375,171.661376953125
1758181144.0077522,0.79931640625,0.03076171875,0.6123046875,-1.953125,-2.0751953125,-1.0986328125,2.2906494140625,-52.4432373046875,171.617431640625
1758181144.0178475,0.79931640625,0.03076171875,0.6123046875,-1.953125,-2.0751953125,-1.0986328125,2.2906494140625,-52.4652099609375,171.573486328125
1758181144.0277672,0.7919921875,0.02197265625,0.60205078125,-1.220703125,-1.89208984375,-1.15966796875,2.2906494140625,-52.4871826171875,171.529541015625
1758181144.038056,0.7919921875,0.02197265625,0.60205078125,-1.220703125,-1.89208984375,-1.15966796875,2.296142578125,-52.503662109375,171.4910888671875
1758181144.0477803,0.7919921875,0.02197265625,0.607421875,-2.01416015625,-1.708984375,-1.28173828125,2.296142578125,-52.5201416015625,171.4471435546875
1758181144.0580294,0.7919921875,0.02197265625,0.607421875,-2.01416015625,-1.708984375,-1.28173828125,2.296142578125,-52.53662109375,171.40869140625
1758181144.0682538,0.78857421875,0.02685546875,0.59521484375,-2.13623046875,-1.5869140625,-1.3427734375,2.296142578125,-52.5531005859375,171.36474609375
1758181144.0778217,0.78857421875,0.02685546875,0.59521484375,-2.13623046875,-1.5869140625,-1.3427734375,2.2906494140625,-52.569580078125,171.3262939453125
1758181144.0878472,0.787109375,0.03173828125,0.6025390625,-1.77001953125,-1.46484375,-1.40380859375,2.2906494140625,-52.5860595703125,171.2823486328125
1758181144.0980332,0.787109375,0.03173828125,0.6025390625,-1.77001953125,-1.46484375,-1.40380859375,2.296142578125,-52.5970458984375,171.2384033203125
1758181144.1078951,0.79248046875,0.0283203125,0.60791015625,-2.01416015625,-1.0986328125,-1.28173828125,2.296142578125,-52.613525390625,171.1944580078125
1758181144.1181054,0.79248046875,0.0283203125,0.60791015625,-2.01416015625,-1.0986328125,-1.28173828125,2.296142578125,-52.6190185546875,171.1505126953125
1758181144.1279132,0.79931640625,0.02587890625,0.60693359375,-2.5634765625,-0.91552734375,-1.15966796875,2.2906494140625,-52.6300048828125,171.1065673828125
1758181144.1381993,0.79931640625,0.02587890625,0.60693359375,-2.5634765625,-0.91552734375,-1.15966796875,2.2796630859375,-52.6409912109375,171.068115234375
1758181144.1479342,0.79541015625,0.0166015625,0.6083984375,-2.74658203125,-0.67138671875,-0.79345703125,2.2686767578125,-52.646484375,171.0296630859375
1758181144.1583955,0.79541015625,0.0166015625,0.6083984375,-2.74658203125,-0.67138671875,-0.79345703125,2.252197265625,-52.6519775390625,170.9967041015625
1758181144.1683886,0.7900390625,0.01318359375,0.59326171875,-0.79345703125,-0.3662109375,-0.8544921875,2.2467041015625,-52.657470703125,170.9637451171875
1758181144.177979,0.7900390625,0.01318359375,0.59326171875,-0.79345703125,-0.3662109375,-0.8544921875,2.252197265625,-52.6629638671875,170.92529296875
1758181144.1879218,0.7890625,0.02294921875,0.59619140625,1.220703125,-0.06103515625,-1.15966796875,2.26318359375,-52.6629638671875,170.892333984375
1758181144.1981022,0.7890625,0.02294921875,0.59619140625,1.220703125,-0.06103515625,-1.15966796875,2.2906494140625,-52.6629638671875,170.8538818359375
1758181144.2080169,0.79443359375,0.0400390625,0.603515625,0.79345703125,0.06103515625,-1.40380859375,2.318115234375,-52.6629638671875,170.8154296875
1758181144.2180471,0.79443359375,0.0400390625,0.603515625,0.79345703125,0.06103515625,-1.40380859375,2.3455810546875,-52.6629638671875,170.771484375
1758181144.2280567,0.79931640625,0.03564453125,0.61328125,-1.0986328125,0.18310546875,-1.0986328125,2.362060546875,-52.6629638671875,170.7275390625
1758181144.2385223,0.79931640625,0.03564453125,0.61328125,-1.0986328125,0.18310546875,-1.0986328125,2.362060546875,-52.657470703125,170.6890869140625
1758181144.248066,0.79443359375,0.01806640625,0.60302734375,-0.8544921875,0.42724609375,-1.0986328125,2.373046875,-52.657470703125,170.6451416015625
1758181144.258039,0.79443359375,0.01806640625,0.60302734375,-0.8544921875,0.42724609375,-1.0986328125,2.3785400390625,-52.6519775390625,170.606689453125
1758181144.2683887,0.80029296875,0.01806640625,0.603515625,0.79345703125,0.732421875,-1.46484375,2.39501953125,-52.646484375,170.5682373046875
1758181144.2780716,0.80029296875,0.01806640625,0.603515625,0.79345703125,0.732421875,-1.46484375,2.4224853515625,-52.635498046875,170.518798828125
1758181144.2881346,0.80517578125,0.0302734375,0.60986328125,1.15966796875,0.91552734375,-1.46484375,2.449951171875,-52.6300048828125,170.4803466796875
1758181144.2982802,0.80517578125,0.0302734375,0.60986328125,1.15966796875,0.91552734375,-1.46484375,2.4774169921875,-52.6190185546875,170.4364013671875
1758181144.308175,0.8076171875,0.03466796875,0.61376953125,0.48828125,0.8544921875,-1.03759765625,2.4993896484375,-52.613525390625,170.39794921875
1758181144.3182037,0.8076171875,0.03466796875,0.61376953125,0.48828125,0.8544921875,-1.03759765625,2.5213623046875,-52.6025390625,170.364990234375
1758181144.32813,0.80029296875,0.033203125,0.611328125,-1.15966796875,0.732421875,-1.03759765625,2.52685546875,-52.5970458984375,170.3265380859375
1758181144.3385775,0.80029296875,0.033203125,0.611328125,-1.15966796875,0.732421875,-1.03759765625,2.5323486328125,-52.591552734375,170.2935791015625
1758181144.3482106,0.7998046875,0.03466796875,0.607421875,-1.52587890625,0.732421875,-1.3427734375,2.5323486328125,-52.58056640625,170.255126953125
1758181144.3581944,0.7998046875,0.03466796875,0.607421875,-1.52587890625,0.732421875,-1.3427734375,2.537841796875,-52.5750732421875,170.211181640625
1758181144.3685064,0.79052734375,0.02783203125,0.6025390625,-0.79345703125,0.67138671875,-1.46484375,2.5433349609375,-52.569580078125,170.167236328125
1758181144.378202,0.79052734375,0.02783203125,0.6025390625,-0.79345703125,0.67138671875,-1.46484375,2.5543212890625,-52.5640869140625,170.123291015625
1758181144.3884747,0.7822265625,0.02392578125,0.5849609375,1.28173828125,0.67138671875,-1.8310546875,2.581787109375,-52.5531005859375,170.079345703125
1758181144.3982744,0.7822265625,0.02392578125,0.5849609375,1.28173828125,0.67138671875,-1.8310546875,2.6202392578125,-52.547607421875,170.0299072265625
1758181144.4082336,0.767578125,0.02490234375,0.58984375,3.47900390625,0.79345703125,-2.01416015625,2.6641845703125,-52.5421142578125,169.98046875
1758181144.4185116,0.767578125,0.02490234375,0.58984375,3.47900390625,0.79345703125,-2.01416015625,2.724609375,-52.53662109375,169.9310302734375
1758181144.428258,0.77734375,0.03515625,0.5859375,3.96728515625,0.6103515625,-1.89208984375,2.79052734375,-52.5311279296875,169.8870849609375
1758181144.4386442,0.77734375,0.03515625,0.5859375,3.96728515625,0.6103515625,-1.89208984375,2.8509521484375,-52.525634765625,169.837646484375
1758181144.4483476,0.7841796875,0.03759765625,0.59619140625,1.40380859375,0.30517578125,-1.52587890625,2.900390625,-52.5201416015625,169.793701171875
1758181144.4582765,0.7841796875,0.03759765625,0.59619140625,1.40380859375,0.30517578125,-1.52587890625,2.933349609375,-52.5146484375,169.7552490234375
1758181144.4688282,0.79443359375,0.03759765625,0.6064453125,-1.28173828125,0.06103515625,-1.0986328125,2.9498291015625,-52.5146484375,169.716796875
1758181144.4783742,0.79443359375,0.03759765625,0.6064453125,-1.28173828125,0.06103515625,-1.0986328125,2.9498291015625,-52.5146484375,169.6783447265625
1758181144.4883368,0.78564453125,0.025390625,0.603515625,-0.67138671875,0.0,-0.67138671875,2.955322265625,-52.5146484375,169.6453857421875
1758181144.4983954,0.78564453125,0.025390625,0.603515625,-0.67138671875,0.0,-0.67138671875,2.955322265625,-52.5146484375,169.6234130859375
1758181144.5083792,0.78125,0.0234375,0.58447265625,0.18310546875,-0.244140625,-0.6103515625,2.9608154296875,-52.5201416015625,169.595947265625
1758181144.5184665,0.78125,0.0234375,0.58447265625,0.18310546875,-0.244140625,-0.6103515625,2.9718017578125,-52.5201416015625,169.5684814453125
1758181144.5284288,0.7890625,0.03857421875,0.60400390625,-1.03759765625,-0.42724609375,-0.67138671875,2.977294921875,-52.525634765625,169.541015625
1758181144.53877,0.7890625,0.03857421875,0.60400390625,-1.03759765625,-0.42724609375,-0.67138671875,2.9718017578125,-52.5311279296875,169.5135498046875
1758181144.5486128,0.78564453125,0.04541015625,0.60107421875,-2.62451171875,-0.42724609375,-0.54931640625,2.9608154296875,-52.53662109375,169.4805908203125
1758181144.5584514,0.78564453125,0.04541015625,0.60107421875,-2.62451171875,-0.42724609375,-0.54931640625,2.9443359375,-52.5421142578125,169.453125
1758181144.5688002,0.79150390625,0.0341796875,0.603515625,-2.50244140625,-0.18310546875,-0.3662109375,2.9278564453125,-52.547607421875,169.43115234375
1758181144.5786252,0.79150390625,0.0341796875,0.603515625,-2.50244140625,-0.18310546875,-0.3662109375,2.911376953125,-52.547607421875,169.4036865234375
1758181144.5886328,0.79296875,0.0224609375,0.60791015625,-2.38037109375,0.0,-0.3662109375,2.889404296875,-52.547607421875,169.3817138671875
1758181144.5990067,0.79296875,0.0224609375,0.60791015625,-2.38037109375,0.0,-0.3662109375,2.8729248046875,-52.547607421875,169.354248046875
1758181144.6086104,0.7861328125,0.0234375,0.59521484375,-0.79345703125,0.06103515625,-0.732421875,2.867431640625,-52.547607421875,169.3267822265625
1758181144.6186144,0.7861328125,0.0234375,0.59521484375,-0.79345703125,0.06103515625,-0.732421875,2.867431640625,-52.547607421875,169.29931640625
1758181144.6285849,0.7900390625,0.0400390625,0.59521484375,0.54931640625,0.06103515625,-1.3427734375,2.87841796875,-52.547607421875,169.266357421875
1758181144.6388853,0.7900390625,0.0400390625,0.59521484375,0.54931640625,0.06103515625,-1.3427734375,2.9058837890625,-52.547607421875,169.2279052734375
1758181144.6486323,0.8037109375,0.0498046875,0.61572265625,-0.30517578125,0.0,-1.5869140625,2.92236328125,-52.547607421875,169.1839599609375
1758181144.6586,0.8037109375,0.0498046875,0.61572265625,-0.30517578125,0.0,-1.5869140625,2.9443359375,-52.547607421875,169.1400146484375
1758181144.6692069,0.8134765625,0.03955078125,0.6162109375,-1.40380859375,-0.06103515625,-1.46484375,2.9498291015625,-52.547607421875,169.0960693359375
1758181144.6786213,0.8134765625,0.03955078125,0.6162109375,-1.40380859375,-0.06103515625,-1.46484375,2.9608154296875,-52.5531005859375,169.0521240234375
1758181144.688655,0.818359375,0.02001953125,0.626953125,-0.9765625,-0.244140625,-1.28173828125,2.96630859375,-52.5531005859375,169.0081787109375
1758181144.6991003,0.818359375,0.02001953125,0.626953125,-0.9765625,-0.244140625,-1.28173828125,2.977294921875,-52.5531005859375,168.9697265625
1758181144.7086928,0.81884765625,0.0224609375,0.61083984375,-0.48828125,-0.42724609375,-1.28173828125,2.98828125,-52.55859375,168.9312744140625
1758181144.71879,0.81884765625,0.0224609375,0.61083984375,-0.48828125,-0.42724609375,-1.28173828125,2.999267578125,-52.5640869140625,168.892822265625
1758181144.728795,0.82275390625,0.03515625,0.62939453125,0.0,-0.48828125,-1.03759765625,3.01025390625,-52.569580078125,168.85986328125
1758181144.7390265,0.82275390625,0.03515625,0.62939453125,0.0,-0.48828125,-1.03759765625,3.0267333984375,-52.5750732421875,168.826904296875
1758181144.7487986,0.82177734375,0.03564453125,0.6220703125,-0.30517578125,-0.6103515625,-0.54931640625,3.0322265625,-52.58056640625,168.7994384765625
1758181144.7587378,0.82177734375,0.03564453125,0.6220703125,-0.30517578125,-0.6103515625,-0.54931640625,3.0322265625,-52.591552734375,168.77197265625
1758181144.7693238,0.82080078125,0.02783203125,0.62158203125,-0.244140625,-0.79345703125,-0.18310546875,3.0322265625,-52.5970458984375,168.75
1758181144.7787256,0.82080078125,0.02783203125,0.62158203125,-0.244140625,-0.79345703125,-0.18310546875,3.0322265625,-52.6080322265625,168.7335205078125
1758181144.7889352,0.8154296875,0.02587890625,0.6171875,0.0,-0.91552734375,0.0,3.0322265625,-52.6190185546875,168.717041015625
1758181144.7991989,0.8154296875,0.02587890625,0.6171875,0.0,-0.91552734375,0.0,3.0322265625,-52.6300048828125,168.7005615234375
1758181144.8088267,0.80859375,0.033203125,0.61279296875,0.0,-1.0986328125,0.18310546875,3.0322265625,-52.6409912109375,168.6895751953125
1758181144.8188689,0.80859375,0.033203125,0.61279296875,0.0,-1.0986328125,0.18310546875,3.0267333984375,-52.6519775390625,168.6785888671875
1758181144.8289087,0.798828125,0.03662109375,0.609375,-1.03759765625,-1.03759765625,0.3662109375,3.01025390625,-52.6629638671875,168.673095703125
1758181144.8392296,0.798828125,0.03662109375,0.609375,-1.03759765625,-1.03759765625,0.3662109375,2.999267578125,-52.6739501953125,168.6676025390625
1758181144.8489072,0.79541015625,0.03173828125,0.60107421875,0.0,-0.8544921875,0.3662109375,2.9937744140625,-52.6849365234375,168.6566162109375
1758181144.858855,0.79541015625,0.03173828125,0.60107421875,0.0,-0.8544921875,0.3662109375,2.98828125,-52.6904296875,168.651123046875
1758181144.869929,0.80322265625,0.03076171875,0.60546875,0.79345703125,-0.67138671875,0.30517578125,2.9937744140625,-52.701416015625,168.64013671875
1758181144.8788872,0.80322265625,0.03076171875,0.60546875,0.79345703125,-0.67138671875,0.30517578125,2.999267578125,-52.7069091796875,168.6346435546875
1758181144.8891912,0.80126953125,0.03125,0.60986328125,1.03759765625,-0.42724609375,0.54931640625,2.999267578125,-52.71240234375,168.629150390625
1758181144.8995306,0.80126953125,0.03125,0.60986328125,1.03759765625,-0.42724609375,0.54931640625,3.0047607421875,-52.7178955078125,168.6236572265625
1758181144.9090247,0.7978515625,0.029296875,0.6064453125,1.52587890625,-0.3662109375,0.8544921875,3.01025390625,-52.723388671875,168.6236572265625
1758181144.9189973,0.7978515625,0.029296875,0.6064453125,1.52587890625,-0.3662109375,0.8544921875,3.01025390625,-52.723388671875,168.6236572265625
1758181144.9290245,0.787109375,0.0302734375,0.5966796875,0.42724609375,-0.30517578125,0.9765625,3.0047607421875,-52.7288818359375,168.6236572265625
1758181144.9392,0.787109375,0.0302734375,0.5966796875,0.42724609375,-0.30517578125,0.9765625,2.9937744140625,-52.734375,168.629150390625
1758181144.9490368,0.78271484375,0.03857421875,0.59375,0.6103515625,-0.1220703125,0.79345703125,2.98828125,-52.734375,168.6236572265625
1758181144.959403,0.78271484375,0.03857421875,0.59375,0.6103515625,-0.1220703125,0.79345703125,2.98828125,-52.7398681640625,168.6236572265625
1758181144.9693694,0.7763671875,0.0341796875,0.5908203125,2.0751953125,0.30517578125,0.8544921875,2.9937744140625,-52.734375,168.6236572265625
1758181144.97906,0.7763671875,0.0341796875,0.5908203125,2.0751953125,0.30517578125,0.8544921875,3.0047607421875,-52.734375,168.6181640625
1758181144.9891086,0.7724609375,0.02490234375,0.58544921875,3.662109375,0.67138671875,0.9765625,3.0322265625,-52.7288818359375,168.6236572265625
1758181144.9996023,0.7724609375,0.02490234375,0.58544921875,3.662109375,0.67138671875,0.9765625,3.05419921875,-52.723388671875,168.6236572265625
1758181145.009195,0.76953125,0.0263671875,0.58447265625,3.84521484375,0.8544921875,0.91552734375,3.076171875,-52.71240234375,168.6236572265625
1758181145.0191662,0.76953125,0.0263671875,0.58447265625,3.84521484375,0.8544921875,0.91552734375,3.1036376953125,-52.7069091796875,168.6236572265625
1758181145.0307329,0.77587890625,0.046875,0.58740234375,1.77001953125,0.91552734375,0.79345703125,3.109130859375,-52.6959228515625,168.6236572265625
1758181145.0396805,0.77587890625,0.046875,0.58740234375,1.77001953125,0.91552734375,0.79345703125,3.1146240234375,-52.6904296875,168.6181640625
1758181145.0494986,0.7890625,0.05224609375,0.59765625,0.244140625,1.03759765625,1.15966796875,3.1036376953125,-52.679443359375,168.6236572265625
1758181145.0594165,0.7890625,0.05224609375,0.59765625,0.244140625,1.03759765625,1.15966796875,3.0926513671875,-52.66845703125,168.629150390625
1758181145.0697649,0.79541015625,0.0244140625,0.60986328125,-0.30517578125,1.0986328125,1.953125,3.065185546875,-52.6629638671875,168.6456298828125
1758181145.0792181,0.79541015625,0.0244140625,0.60986328125,-0.30517578125,1.0986328125,1.953125,3.0377197265625,-52.6519775390625,168.662109375
1758181145.0894787,0.8017578125,0.0185546875,0.5966796875,-0.54931640625,0.91552734375,1.89208984375,3.01025390625,-52.646484375,168.6785888671875
1758181145.0995367,0.8017578125,0.0185546875,0.5966796875,-0.54931640625,0.91552734375,1.89208984375,2.977294921875,-52.635498046875,168.695068359375
1758181145.109803,0.80810546875,0.03857421875,0.6171875,-0.8544921875,0.9765625,2.01416015625,2.9443359375,-52.6300048828125,168.717041015625
1758181145.1192722,0.80810546875,0.03857421875,0.6171875,-0.8544921875,0.9765625,2.01416015625,2.911376953125,-52.62451171875,168.7335205078125
1758181145.1296577,0.82080078125,0.0380859375,0.619140625,-0.3662109375,0.91552734375,2.685546875,2.8729248046875,-52.613525390625,168.7664794921875
1758181145.1398466,0.82080078125,0.0380859375,0.619140625,-0.3662109375,0.91552734375,2.685546875,2.83447265625,-52.6080322265625,168.7994384765625
1758181145.1497118,0.81396484375,0.015625,0.6240234375,-0.91552734375,0.8544921875,3.23486328125,2.7850341796875,-52.6025390625,168.837890625
1758181145.1594043,0.81396484375,0.015625,0.6240234375,-0.91552734375,0.8544921875,3.23486328125,2.7301025390625,-52.5970458984375,168.8818359375
1758181145.1695716,0.806640625,0.013671875,0.607421875,-0.42724609375,0.732421875,2.8076171875,2.691650390625,-52.591552734375,168.914794921875
1758181145.17933,0.806640625,0.013671875,0.607421875,-0.42724609375,0.732421875,2.8076171875,2.647705078125,-52.5860595703125,168.94775390625
1758181145.189327,0.802734375,0.04150390625,0.60595703125,0.91552734375,0.8544921875,2.50244140625,2.625732421875,-52.58056640625,168.9752197265625
1758181145.199941,0.802734375,0.04150390625,0.60595703125,0.91552734375,0.8544921875,2.50244140625,2.603759765625,-52.5750732421875,169.002685546875
1758181145.2094758,0.80908203125,0.0458984375,0.62158203125,0.18310546875,0.79345703125,2.3193359375,2.5762939453125,-52.569580078125,169.0301513671875
1758181145.2194355,0.80908203125,0.0458984375,0.62158203125,0.18310546875,0.79345703125,2.3193359375,2.548828125,-52.5640869140625,169.0521240234375
1758181145.229473,0.7998046875,0.029296875,0.6103515625,-0.30517578125,0.79345703125,2.25830078125,2.5213623046875,-52.55859375,169.0740966796875
1758181145.239726,0.7998046875,0.029296875,0.6103515625,-0.30517578125,0.79345703125,2.25830078125,2.4884033203125,-52.5531005859375,169.1015625
1758181145.2494156,0.7890625,0.0205078125,0.6005859375,1.15966796875,0.79345703125,1.64794921875,2.48291015625,-52.547607421875,169.112548828125
1758181145.2594528,0.7890625,0.0205078125,0.6005859375,1.15966796875,0.79345703125,1.64794921875,2.471923828125,-52.5421142578125,169.12353515625
1758181145.269749,0.79248046875,0.03076171875,0.6015625,2.13623046875,1.03759765625,1.28173828125,2.48291015625,-52.5311279296875,169.134521484375
1758181145.2794669,0.79248046875,0.03076171875,0.6015625,2.13623046875,1.03759765625,1.28173828125,2.4884033203125,-52.5201416015625,169.1400146484375
1758181145.2898204,0.80029296875,0.0302734375,0.61767578125,1.64794921875,1.220703125,1.52587890625,2.48291015625,-52.5146484375,169.1510009765625
1758181145.299741,0.80029296875,0.0302734375,0.61767578125,1.64794921875,1.220703125,1.52587890625,2.48291015625,-52.503662109375,169.16748046875
1758181145.309592,0.7998046875,0.01513671875,0.61474609375,2.197265625,1.5869140625,1.89208984375,2.48291015625,-52.4871826171875,169.1839599609375
1758181145.3195388,0.7998046875,0.01513671875,0.61474609375,2.197265625,1.5869140625,1.89208984375,2.4774169921875,-52.470703125,169.2059326171875
1758181145.3296387,0.7900390625,0.0078125,0.599609375,4.39453125,1.8310546875,1.77001953125,2.4993896484375,-52.4542236328125,169.2279052734375
1758181145.3396862,0.7900390625,0.0078125,0.599609375,4.39453125,1.8310546875,1.77001953125,2.515869140625,-52.4432373046875,169.2498779296875
1758181145.3497002,0.7880859375,0.037109375,0.59716796875,4.45556640625,1.708984375,1.708984375,2.537841796875,-52.4267578125,169.266357421875
1758181145.3595595,0.7880859375,0.037109375,0.59716796875,4.45556640625,1.708984375,1.708984375,2.5543212890625,-52.4102783203125,169.288330078125
1758181145.3698618,0.798828125,0.04736328125,0.61572265625,1.77001953125,1.40380859375,1.77001953125,2.548828125,-52.3992919921875,169.3048095703125
1758181145.3796504,0.798828125,0.04736328125,0.61572265625,1.77001953125,1.40380859375,1.77001953125,2.548828125,-52.3883056640625,169.3267822265625
1758181145.3896945,0.80029296875,0.03662109375,0.615234375,0.18310546875,1.3427734375,2.0751953125,2.5213623046875,-52.3773193359375,169.34326171875
1758181145.399829,0.80029296875,0.03662109375,0.615234375,0.18310546875,1.3427734375,2.0751953125,2.4993896484375,-52.3663330078125,169.365234375
1758181145.4097836,0.79541015625,0.01513671875,0.607421875,1.40380859375,1.15966796875,2.197265625,2.4884033203125,-52.3553466796875,169.3927001953125
1758181145.419688,0.79541015625,0.01513671875,0.607421875,1.40380859375,1.15966796875,2.197265625,2.471923828125,-52.3443603515625,169.4146728515625
1758181145.4297507,0.7939453125,0.02001953125,0.6044921875,1.708984375,0.91552734375,2.13623046875,2.4609375,-52.3388671875,169.4366455078125
1758181145.4398384,0.7939453125,0.02001953125,0.6044921875,1.708984375,0.91552734375,2.13623046875,2.449951171875,-52.3333740234375,169.4586181640625
1758181145.4496772,0.80126953125,0.03173828125,0.61767578125,0.54931640625,0.6103515625,1.953125,2.4334716796875,-52.327880859375,169.4805908203125
1758181145.4596663,0.80126953125,0.03173828125,0.61767578125,0.54931640625,0.6103515625,1.953125,2.4114990234375,-52.327880859375,169.5025634765625
1758181145.4700751,0.79052734375,0.03369140625,0.60498046875,-0.42724609375,0.42724609375,1.8310546875,2.384033203125,-52.3223876953125,169.51904296875
1758181145.4797328,0.79052734375,0.03369140625,0.60498046875,-0.42724609375,0.42724609375,1.8310546875,2.362060546875,-52.3223876953125,169.5355224609375
1758181145.4900758,0.78662109375,0.03271484375,0.60888671875,-0.1220703125,0.48828125,1.46484375,2.340087890625,-52.31689453125,169.552001953125
1758181145.4998302,0.78662109375,0.03271484375,0.60888671875,-0.1220703125,0.48828125,1.46484375,2.3236083984375,-52.31689453125,169.56298828125
1758181145.5097895,0.7958984375,0.0400390625,0.61181640625,0.1220703125,0.48828125,1.3427734375,2.3126220703125,-52.3114013671875,169.5794677734375
1758181145.5197825,0.7958984375,0.0400390625,0.61181640625,0.1220703125,0.48828125,1.3427734375,2.296142578125,-52.305908203125,169.5904541015625
1758181145.5299125,0.79345703125,0.0283203125,0.61669921875,-0.732421875,0.48828125,1.52587890625,2.274169921875,-52.305908203125,169.60693359375
1758181145.539967,0.79345703125,0.0283203125,0.61669921875,-0.732421875,0.48828125,1.52587890625,2.252197265625,-52.3004150390625,169.6234130859375
1758181145.5498264,0.78564453125,0.0146484375,0.607421875,-1.0986328125,0.42724609375,1.3427734375,2.2247314453125,-52.3004150390625,169.639892578125
1758181145.5598226,0.78564453125,0.0146484375,0.607421875,-1.0986328125,0.42724609375,1.3427734375,2.2027587890625,-52.294921875,169.65087890625
1758181145.5701585,0.787109375,0.0234375,0.595703125,0.06103515625,0.3662109375,0.8544921875,2.1917724609375,-52.2894287109375,169.6563720703125
1758181145.5799859,0.787109375,0.0234375,0.595703125,0.06103515625,0.3662109375,0.8544921875,2.186279296875,-52.2894287109375,169.6673583984375
1758181145.589882,0.796875,0.03857421875,0.61962890625,-0.79345703125,0.244140625,0.8544921875,2.1697998046875,-52.2894287109375,169.6728515625
1758181145.5999582,0.796875,0.03857421875,0.61962890625,-0.79345703125,0.244140625,0.8544921875,2.1533203125,-52.2894287109375,169.6783447265625
1758181145.6099555,0.80615234375,0.02880859375,0.619140625,-1.5869140625,0.18310546875,1.28173828125,2.120361328125,-52.283935546875,169.69482421875
1758181145.6200979,0.80615234375,0.02880859375,0.619140625,-1.5869140625,0.18310546875,1.28173828125,2.0928955078125,-52.283935546875,169.705810546875
1758181145.6345305,0.7998046875,0.0068359375,0.61669921875,-0.54931640625,0.0,1.40380859375,2.0709228515625,-52.2894287109375,169.7222900390625
1758181145.6410973,0.7998046875,0.0068359375,0.61669921875,-0.54931640625,0.0,1.40380859375,2.0489501953125,-52.2894287109375,169.73876953125
1758181145.6500204,0.7939453125,0.01171875,0.607421875,0.30517578125,-0.06103515625,1.28173828125,2.0379638671875,-52.2894287109375,169.749755859375
1758181145.6602793,0.78759765625,0.033203125,0.60888671875,0.0,-0.1220703125,0.9765625,2.0269775390625,-52.294921875,169.7662353515625
1758181145.6705074,0.78759765625,0.033203125,0.60888671875,0.0,-0.1220703125,0.9765625,2.0159912109375,-52.294921875,169.771728515625
1758181145.68001,0.783203125,0.03662109375,0.6064453125,-0.3662109375,0.0,0.79345703125,2.0050048828125,-52.294921875,169.7772216796875
1758181145.690099,0.783203125,0.03662109375,0.6064453125,-0.3662109375,0.0,0.79345703125,1.9940185546875,-52.294921875,169.78271484375
1758181145.7000666,0.78466796875,0.0234375,0.603515625,-0.18310546875,0.1220703125,0.6103515625,1.9830322265625,-52.294921875,169.78271484375
1758181145.710255,0.78466796875,0.0234375,0.603515625,-0.18310546875,0.1220703125,0.6103515625,1.9775390625,-52.294921875,169.7882080078125
1758181145.7200458,0.78857421875,0.02099609375,0.615234375,-0.79345703125,0.42724609375,0.3662109375,1.9720458984375,-52.294921875,169.78271484375
1758181145.7303956,0.78857421875,0.02099609375,0.615234375,-0.79345703125,0.42724609375,0.3662109375,1.9610595703125,-52.2894287109375,169.78271484375
1758181145.7402277,0.798828125,0.029296875,0.61181640625,-0.30517578125,0.6103515625,0.30517578125,1.9500732421875,-52.283935546875,169.78271484375
1758181145.7503219,0.798828125,0.029296875,0.61181640625,-0.30517578125,0.6103515625,0.30517578125,1.9500732421875,-52.2784423828125,169.78271484375
1758181145.7600837,0.80322265625,0.01806640625,0.62646484375,-2.01416015625,1.03759765625,0.79345703125,1.93359375,-52.27294921875,169.78271484375
1758181145.770481,0.80322265625,0.01806640625,0.62646484375,-2.01416015625,1.03759765625,0.79345703125,1.9061279296875,-52.261962890625,169.7882080078125
1758181145.7801242,0.79345703125,0.00732421875,0.6123046875,0.42724609375,1.28173828125,0.732421875,1.8896484375,-52.2509765625,169.7991943359375
1758181145.790152,0.79345703125,0.00732421875,0.6123046875,0.42724609375,1.28173828125,0.732421875,1.8841552734375,-52.239990234375,169.8046875
1758181145.800193,0.79345703125,0.00732421875,0.6123046875,3.0517578125,1.5869140625,0.48828125,1.8951416015625,-52.2235107421875,169.8101806640625
1758181145.810343,0.79345703125,0.00732421875,0.6123046875,3.0517578125,1.5869140625,0.48828125,1.9171142578125,-52.20703125,169.8211669921875
1758181145.8201385,0.77978515625,0.02783203125,0.60107421875,2.62451171875,1.46484375,0.0,1.9390869140625,-52.196044921875,169.8211669921875
1758181145.8306246,0.77978515625,0.02783203125,0.60107421875,2.62451171875,1.46484375,0.0,1.966552734375,-52.1795654296875,169.8211669921875
1758181145.8404477,0.78759765625,0.04638671875,0.611328125,1.0986328125,1.3427734375,0.06103515625,1.9830322265625,-52.1685791015625,169.8211669921875
1758181145.8502448,0.78759765625,0.04638671875,0.611328125,1.0986328125,1.3427734375,0.06103515625,1.9940185546875,-52.1575927734375,169.815673828125
1758181145.8604846,0.77587890625,0.037109375,0.60009765625,-0.1220703125,1.220703125,0.18310546875,1.99951171875,-52.14111328125,169.815673828125
1758181145.8704605,0.77587890625,0.037109375,0.60009765625,-0.1220703125,1.220703125,0.18310546875,1.99951171875,-52.130126953125,169.815673828125
1758181145.880242,0.7744140625,0.01904296875,0.6083984375,-0.18310546875,1.03759765625,-0.06103515625,1.99951171875,-52.119140625,169.8101806640625
1758181145.8907795,0.7744140625,0.01904296875,0.6083984375,-0.18310546875,1.03759765625,-0.06103515625,1.99951171875,-52.1136474609375,169.8046875
1758181145.900404,0.7744140625,0.01708984375,0.583984375,-0.244140625,0.91552734375,-0.30517578125,1.99951171875,-52.1026611328125,169.7991943359375
1758181145.9106934,0.7744140625,0.01708984375,0.583984375,-0.244140625,0.91552734375,-0.30517578125,2.0050048828125,-52.0916748046875,169.7882080078125
1758181145.9204528,0.77587890625,0.0234375,0.60595703125,0.244140625,0.91552734375,-0.3662109375,2.010498046875,-52.086181640625,169.78271484375
1758181145.9305792,0.77587890625,0.0234375,0.60595703125,0.244140625,0.91552734375,-0.3662109375,2.021484375,-52.0806884765625,169.771728515625
1758181145.940625,0.78564453125,0.02490234375,0.59619140625,1.15966796875,0.67138671875,0.0,2.032470703125,-52.0697021484375,169.7607421875
1758181145.9502914,0.78564453125,0.02490234375,0.59619140625,1.15966796875,0.67138671875,0.0,2.04345703125,-52.064208984375,169.7607421875
1758181145.9611216,0.7880859375,0.021484375,0.6240234375,-0.732421875,0.3662109375,0.30517578125,2.04345703125,-52.064208984375,169.7552490234375
1758181145.9706192,0.7880859375,0.021484375,0.6240234375,-0.732421875,0.3662109375,0.30517578125,2.032470703125,-52.0587158203125,169.7552490234375
1758181145.9804523,0.78515625,0.0234375,0.60107421875,-2.01416015625,0.18310546875,0.6103515625,2.0159912109375,-52.0587158203125,169.7607421875
1758181145.9906504,0.78515625,0.0234375,0.60107421875,-2.01416015625,0.18310546875,0.6103515625,1.988525390625,-52.0587158203125,169.771728515625
1758181146.001053,0.78662109375,0.01708984375,0.615234375,-0.79345703125,0.0,0.8544921875,1.966552734375,-52.0587158203125,169.7772216796875
1758181146.0108361,0.78662109375,0.01708984375,0.615234375,-0.79345703125,0.0,0.8544921875,1.9500732421875,-52.0587158203125,169.7882080078125
1758181146.0208402,0.78662109375,0.01318359375,0.60693359375,0.30517578125,-0.1220703125,0.79345703125,1.9390869140625,-52.064208984375,169.7991943359375
1758181146.0307317,0.78662109375,0.01318359375,0.60693359375,0.30517578125,-0.1220703125,0.79345703125,1.9281005859375,-52.064208984375,169.8101806640625
1758181146.0413475,0.791015625,0.021484375,0.60693359375,-0.06103515625,-0.42724609375,0.79345703125,1.922607421875,-52.0697021484375,169.8211669921875
1758181146.0505116,0.791015625,0.021484375,0.60693359375,-0.06103515625,-0.42724609375,0.79345703125,1.91162109375,-52.0751953125,169.8321533203125
1758181146.0615149,0.8046875,0.02685546875,0.6279296875,-1.15966796875,-0.8544921875,1.03759765625,1.8951416015625,-52.0806884765625,169.8431396484375
1758181146.070843,0.8046875,0.02685546875,0.6279296875,-1.15966796875,-0.8544921875,1.03759765625,1.8731689453125,-52.0916748046875,169.859619140625
1758181146.0808938,0.802734375,0.02197265625,0.611328125,-2.25830078125,-1.52587890625,1.40380859375,1.8402099609375,-52.108154296875,169.8760986328125
1758181146.090512,0.802734375,0.02197265625,0.611328125,-2.25830078125,-1.52587890625,1.40380859375,1.8017578125,-52.1246337890625,169.892578125
1758181146.1012692,0.80126953125,0.01806640625,0.61669921875,-2.5634765625,-2.0751953125,1.52587890625,1.7633056640625,-52.14111328125,169.9090576171875
1758181146.1110697,0.80126953125,0.01806640625,0.61669921875,-2.5634765625,-2.0751953125,1.52587890625,1.7193603515625,-52.1630859375,169.925537109375
1758181146.1209102,0.8037109375,0.0205078125,0.6181640625,-4.2724609375,-2.44140625,1.52587890625,1.6644287109375,-52.1905517578125,169.9420166015625
1758181146.1306548,0.8037109375,0.0205078125,0.6181640625,-4.2724609375,-2.44140625,1.52587890625,1.6094970703125,-52.2125244140625,169.95849609375
1758181146.1414378,0.80615234375,0.013671875,0.62841796875,-4.08935546875,-2.50244140625,1.46484375,1.549072265625,-52.239990234375,169.9749755859375
1758181146.150656,0.80615234375,0.013671875,0.62841796875,-4.08935546875,-2.50244140625,1.46484375,1.494140625,-52.2674560546875,169.991455078125
1758181146.161243,0.79931640625,0.0048828125,0.6162109375,-3.0517578125,-2.38037109375,1.28173828125,1.4447021484375,-52.2894287109375,170.0079345703125
1758181146.171275,0.79931640625,0.0048828125,0.6162109375,-3.0517578125,-2.38037109375,1.28173828125,1.395263671875,-52.31689453125,170.0244140625
1758181146.1810448,0.80078125,0.009765625,0.6064453125,-0.48828125,-2.25830078125,0.79345703125,1.3677978515625,-52.3388671875,170.0408935546875
1758181146.190751,0.80078125,0.009765625,0.6064453125,-0.48828125,-2.25830078125,0.79345703125,1.3568115234375,-52.36083984375,170.04638671875
1758181146.2013268,0.806640625,0.021484375,0.6240234375,-0.42724609375,-2.13623046875,0.48828125,1.3458251953125,-52.3828125,170.0518798828125
1758181146.2111225,0.806640625,0.021484375,0.6240234375,-0.42724609375,-2.13623046875,0.48828125,1.3348388671875,-52.40478515625,170.057373046875
1758181146.2211006,0.8076171875,0.0205078125,0.62890625,-2.01416015625,-1.953125,0.54931640625,1.318359375,-52.4267578125,170.0628662109375
1758181146.231284,0.8076171875,0.0205078125,0.62890625,-2.01416015625,-1.953125,0.54931640625,1.2908935546875,-52.4432373046875,170.0738525390625
1758181146.24116,0.8037109375,0.01123046875,0.6103515625,-1.89208984375,-1.708984375,0.30517578125,1.2689208984375,-52.459716796875,170.079345703125
1758181146.250772,0.8037109375,0.01123046875,0.6103515625,-1.89208984375,-1.708984375,0.30517578125,1.2469482421875,-52.4761962890625,170.079345703125
1758181146.2618537,0.79931640625,0.01171875,0.61474609375,-1.03759765625,-1.40380859375,0.0,1.2359619140625,-52.49267578125,170.0848388671875
1758181146.2714455,0.79931640625,0.01171875,0.61474609375,-1.03759765625,-1.40380859375,0.0,1.2249755859375,-52.503662109375,170.079345703125
1758181146.2811708,0.79833984375,0.01513671875,0.61572265625,-1.15966796875,-0.9765625,-0.18310546875,1.219482421875,-52.5201416015625,170.079345703125
1758181146.290857,0.79833984375,0.01513671875,0.61572265625,-1.15966796875,-0.9765625,-0.18310546875,1.20849609375,-52.525634765625,170.079345703125
1758181146.3014553,0.79833984375,0.01513671875,0.61572265625,0.244140625,-0.42724609375,-0.3662109375,1.20849609375,-52.5311279296875,170.0738525390625
1758181146.3112235,0.79150390625,0.0107421875,0.609375,0.244140625,-0.42724609375,-0.3662109375,1.219482421875,-52.53662109375,170.068359375
1758181146.3212068,0.78515625,0.0107421875,0.60302734375,0.1220703125,0.0,-0.54931640625,1.2249755859375,-52.53662109375,170.057373046875
1758181146.331138,0.78515625,0.0107421875,0.60302734375,0.1220703125,0.0,-0.54931640625,1.2359619140625,-52.53662109375,170.0518798828125
1758181146.341361,0.77734375,0.0185546875,0.59716796875,-0.18310546875,0.18310546875,-0.6103515625,1.241455078125,-52.53662109375,170.0408935546875
1758181146.3508875,0.77734375,0.0185546875,0.59716796875,-0.18310546875,0.18310546875,-0.6103515625,1.25244140625,-52.5311279296875,170.035400390625
1758181146.361197,0.7763671875,0.01806640625,0.59912109375,-0.732421875,0.732421875,-0.67138671875,1.2579345703125,-52.525634765625,170.0244140625
1758181146.3715136,0.7763671875,0.01806640625,0.59912109375,-0.732421875,0.732421875,-0.67138671875,1.2579345703125,-52.5201416015625,170.013427734375
1758181146.3812156,0.77099609375,0.01171875,0.59619140625,-0.42724609375,1.28173828125,-0.67138671875,1.263427734375,-52.5091552734375,170.00244140625
1758181146.39116,0.77099609375,0.01171875,0.59619140625,-0.42724609375,1.28173828125,-0.67138671875,1.263427734375,-52.49267578125,169.991455078125
1758181146.4012055,0.76806640625,0.0107421875,0.5927734375,0.30517578125,1.8310546875,-0.9765625,1.2744140625,-52.4761962890625,169.9749755859375
1758181146.4110036,0.76806640625,0.0107421875,0.5927734375,0.30517578125,1.8310546875,-0.9765625,1.2908935546875,-52.459716796875,169.9639892578125
1758181146.4210303,0.7734375,0.0166015625,0.58837890625,2.3193359375,2.38037109375,-1.3427734375,1.318359375,-52.437744140625,169.947509765625
1758181146.4312592,0.7734375,0.0166015625,0.58837890625,2.3193359375,2.38037109375,-1.3427734375,1.3568115234375,-52.4102783203125,169.9310302734375
1758181146.4413497,0.78076171875,0.01806640625,0.607421875,3.173828125,2.99072265625,-1.5869140625,1.40625,-52.3883056640625,169.9090576171875
1758181146.4509945,0.78076171875,0.01806640625,0.607421875,3.173828125,2.99072265625,-1.5869140625,1.4556884765625,-52.3553466796875,169.881591796875
1758181146.4635174,0.79296875,0.01904296875,0.60986328125,3.0517578125,3.23486328125,-1.5869140625,1.505126953125,-52.3223876953125,169.859619140625
1758181146.4722373,0.79296875,0.01904296875,0.60986328125,3.0517578125,3.23486328125,-1.5869140625,1.5545654296875,-52.294921875,169.8321533203125
1758181146.48121,0.79052734375,0.01416015625,0.6162109375,1.953125,3.2958984375,-1.40380859375,1.5985107421875,-52.261962890625,169.8101806640625
1758181146.4912062,0.79052734375,0.01416015625,0.6162109375,1.953125,3.2958984375,-1.40380859375,1.636962890625,-52.22900390625,169.7882080078125
1758181146.506829,0.78369140625,0.015625,0.60009765625,1.0986328125,3.23486328125,-1.3427734375,1.6644287109375,-52.196044921875,169.7662353515625
1758181146.5135202,0.78369140625,0.015625,0.60009765625,1.0986328125,3.23486328125,-1.3427734375,1.69189453125,-52.1630859375,169.7442626953125
1758181146.5212328,0.7861328125,0.0244140625,0.607421875,0.732421875,3.2958984375,-1.5869140625,1.7138671875,-52.130126953125,169.7222900390625
1758181146.5378413,0.7861328125,0.0244140625,0.607421875,0.732421875,3.2958984375,-1.5869140625,1.7413330078125,-52.09716796875,169.7003173828125
1758181146.5445008,0.8017578125,0.0263671875,0.619140625,1.64794921875,3.173828125,-1.5869140625,1.7742919921875,-52.0697021484375,169.6728515625
1758181146.5514843,0.8017578125,0.0263671875,0.619140625,1.64794921875,3.173828125,-1.5869140625,1.8072509765625,-52.0367431640625,169.6453857421875
1758181146.561201,0.81201171875,0.01953125,0.6357421875,0.0,2.99072265625,-1.15966796875,1.8292236328125,-52.00927734375,169.62890625
1758181146.5753033,0.81201171875,0.01953125,0.6357421875,0.0,2.99072265625,-1.15966796875,1.845703125,-51.9818115234375,169.60693359375
1758181146.58252,0.81298828125,0.01025390625,0.6328125,-1.8310546875,2.8076171875,-0.54931640625,1.845703125,-51.954345703125,169.595947265625
1758181146.5911596,0.81298828125,0.01025390625,0.6328125,-1.8310546875,2.8076171875,-0.54931640625,1.8292236328125,-51.9268798828125,169.5904541015625
1758181146.601636,0.8076171875,0.0087890625,0.63037109375,-0.54931640625,2.8076171875,-0.3662109375,1.82373046875,-51.8994140625,169.5794677734375
1758181146.611966,0.8076171875,0.0087890625,0.63037109375,-0.54931640625,2.8076171875,-0.3662109375,1.8182373046875,-51.8719482421875,169.5794677734375
1758181146.6213934,0.8017578125,0.01904296875,0.626953125,0.732421875,2.8076171875,-0.42724609375,1.82373046875,-51.8499755859375,169.573974609375
1758181146.631664,0.8017578125,0.01904296875,0.626953125,0.732421875,2.8076171875,-0.42724609375,1.8292236328125,-51.822509765625,169.5684814453125
1758181146.6422164,0.7890625,0.0283203125,0.62353515625,-0.30517578125,2.74658203125,-0.42724609375,1.834716796875,-51.7950439453125,169.5684814453125
1758181146.6512907,0.7890625,0.0283203125,0.62353515625,-0.30517578125,2.74658203125,-0.42724609375,1.834716796875,-51.767578125,169.56298828125
1758181146.6614628,0.77783203125,0.0234375,0.61328125,-0.30517578125,2.5634765625,-0.3662109375,1.834716796875,-51.74560546875,169.5574951171875
1758181146.674057,0.77783203125,0.0234375,0.61328125,-0.30517578125,2.5634765625,-0.3662109375,1.834716796875,-51.7236328125,169.5574951171875
1758181146.6817007,0.77685546875,0.02587890625,0.6064453125,-0.67138671875,2.38037109375,-0.9765625,1.8402099609375,-51.70166015625,169.541015625
1758181146.6914291,0.77685546875,0.02587890625,0.6064453125,-0.67138671875,2.38037109375,-0.9765625,1.845703125,-51.6796875,169.5245361328125
1758181146.701868,0.77294921875,0.037109375,0.61328125,-2.01416015625,2.0751953125,-1.46484375,1.845703125,-51.65771484375,169.5025634765625
1758181146.71154,0.77294921875,0.037109375,0.61328125,-2.01416015625,2.0751953125,-1.46484375,1.8402099609375,-51.6412353515625,169.4805908203125
1758181146.7217124,0.7783203125,0.0322265625,0.6171875,-3.90625,2.01416015625,-1.40380859375,1.82373046875,-51.6192626953125,169.4586181640625
1758181146.7317388,0.7783203125,0.0322265625,0.6171875,-3.90625,2.01416015625,-1.40380859375,1.8017578125,-51.602783203125,169.4366455078125
1758181146.7417521,0.77392578125,0.00927734375,0.62255859375,-4.150390625,2.5634765625,-1.15966796875,1.77978515625,-51.5753173828125,169.420166015625
1758181146.7514548,0.77392578125,0.00927734375,0.62255859375,-4.150390625,2.5634765625,-1.15966796875,1.7523193359375,-51.5533447265625,169.4036865234375
1758181146.761777,0.7705078125,-0.00341796875,0.6064453125,0.54931640625,3.11279296875,-1.28173828125,1.7742919921875,-51.5203857421875,169.38720703125
1758181146.7721844,0.7705078125,-0.00341796875,0.6064453125,0.54931640625,3.11279296875,-1.28173828125,1.790771484375,-51.492919921875,169.3707275390625
1758181146.7818,0.77099609375,0.005859375,0.611328125,3.84521484375,3.60107421875,-1.220703125,1.845703125,-51.4544677734375,169.354248046875
1758181146.791585,0.77099609375,0.005859375,0.611328125,3.84521484375,3.60107421875,-1.220703125,1.8951416015625,-51.4215087890625,169.34326171875
1758181146.8019865,0.77099609375,0.005859375,0.611328125,3.662109375,3.90625,-0.9765625,1.9390869140625,-51.383056640625,169.332275390625
1758181146.811763,0.77099609375,0.005859375,0.611328125,3.662109375,3.90625,-0.9765625,1.9830322265625,-51.3446044921875,169.3212890625
1758181146.8224208,0.77783203125,0.02880859375,0.62060546875,3.2958984375,3.72314453125,-0.8544921875,2.021484375,-51.3116455078125,169.3157958984375
1758181146.8318532,0.77783203125,0.02880859375,0.62060546875,3.2958984375,3.72314453125,-0.8544921875,2.0599365234375,-51.273193359375,169.310302734375
1758181146.8419034,0.77783203125,0.03271484375,0.62109375,1.5869140625,3.35693359375,-0.67138671875,2.0819091796875,-51.2457275390625,169.3048095703125
1758181146.851709,0.77783203125,0.03271484375,0.62109375,1.5869140625,3.35693359375,-0.67138671875,2.1038818359375,-51.2127685546875,169.29931640625
1758181146.8619187,0.775390625,0.02099609375,0.62109375,0.42724609375,2.99072265625,-0.18310546875,2.109375,-51.185302734375,169.29931640625
1758181146.8723648,0.775390625,0.02099609375,0.62109375,0.42724609375,2.99072265625,-0.18310546875,2.1148681640625,-51.1578369140625,169.3048095703125
1758181146.881973,0.77587890625,0.0126953125,0.6171875,0.9765625,2.38037109375,-0.06103515625,2.120361328125,-51.1358642578125,169.310302734375
1758181146.8921177,0.77587890625,0.0126953125,0.6171875,0.9765625,2.38037109375,-0.06103515625,2.1258544921875,-51.1138916015625,169.310302734375
1758181146.9030044,0.77734375,0.025390625,0.62109375,0.91552734375,1.89208984375,-0.244140625,2.1368408203125,-51.097412109375,169.310302734375
1758181146.9117494,0.77734375,0.025390625,0.62109375,0.91552734375,1.89208984375,-0.244140625,2.1478271484375,-51.0809326171875,169.310302734375
1758181146.9223466,0.78076171875,0.03759765625,0.63232421875,-0.6103515625,1.52587890625,-0.1220703125,2.142333984375,-51.064453125,169.3048095703125
1758181146.932012,0.78076171875,0.03759765625,0.63232421875,-0.6103515625,1.52587890625,-0.1220703125,2.1368408203125,-51.053466796875,169.3048095703125
1758181146.9426007,0.7783203125,0.0244140625,0.63232421875,-2.5634765625,1.40380859375,0.1220703125,2.109375,-51.04248046875,169.310302734375
1758181146.9517493,0.7783203125,0.0244140625,0.63232421875,-2.5634765625,1.40380859375,0.1220703125,2.0819091796875,-51.0260009765625,169.3157958984375
1758181146.9620674,0.77001953125,0.0146484375,0.6162109375,-0.91552734375,1.52587890625,0.06103515625,2.0709228515625,-51.0150146484375,169.3157958984375
1758181146.9724395,0.77001953125,0.0146484375,0.6162109375,-0.91552734375,1.52587890625,0.06103515625,2.0599365234375,-50.99853515625,169.3212890625
1758181146.9820795,0.7763671875,0.01611328125,0.63232421875,1.953125,1.953125,-0.48828125,2.08740234375,-50.9820556640625,169.3157958984375
1758181146.9919944,0.7763671875,0.01611328125,0.63232421875,1.953125,1.953125,-0.48828125,2.109375,-50.965576171875,169.310302734375
1758181147.0024981,0.78564453125,0.03369140625,0.63818359375,2.197265625,2.3193359375,-0.79345703125,2.1368408203125,-50.943603515625,169.29931640625
1758181147.0121493,0.78564453125,0.03369140625,0.63818359375,2.197265625,2.3193359375,-0.79345703125,2.1697998046875,-50.921630859375,169.288330078125
1758181147.0221453,0.7880859375,0.03173828125,0.650390625,1.15966796875,2.685546875,-0.48828125,2.186279296875,-50.8941650390625,169.288330078125
1758181147.032199,0.7880859375,0.03173828125,0.650390625,1.15966796875,2.685546875,-0.48828125,2.2027587890625,-50.86669921875,169.2828369140625
1758181147.042211,0.78564453125,0.0126953125,0.63330078125,2.13623046875,2.8076171875,-0.30517578125,2.2247314453125,-50.8392333984375,169.2828369140625
1758181147.0519235,0.78564453125,0.0126953125,0.63330078125,2.13623046875,2.8076171875,-0.30517578125,2.2467041015625,-50.811767578125,169.2828369140625
1758181147.0621738,0.77880859375,0.01123046875,0.63134765625,3.23486328125,2.685546875,-0.42724609375,2.28515625,-50.789794921875,169.2828369140625
1758181147.0727055,0.77880859375,0.01123046875,0.63134765625,3.23486328125,2.685546875,-0.42724609375,2.318115234375,-50.7623291015625,169.2828369140625
1758181147.082227,0.77783203125,0.02880859375,0.634765625,2.01416015625,2.38037109375,-0.6103515625,2.340087890625,-50.7403564453125,169.2828369140625
1758181147.0922458,0.77783203125,0.02880859375,0.634765625,2.01416015625,2.38037109375,-0.6103515625,2.3675537109375,-50.7183837890625,169.2828369140625
1758181147.102573,0.77685546875,0.04248046875,0.6298828125,1.708984375,1.953125,-0.732421875,2.3895263671875,-50.701904296875,169.27734375
1758181147.112067,0.77685546875,0.04248046875,0.6298828125,1.708984375,1.953125,-0.732421875,2.4114990234375,-50.679931640625,169.2718505859375
1758181147.122373,0.78857421875,0.03515625,0.63525390625,1.8310546875,1.220703125,-0.79345703125,2.43896484375,-50.6689453125,169.266357421875
1758181147.1322205,0.78857421875,0.03515625,0.63525390625,1.8310546875,1.220703125,-0.79345703125,2.4664306640625,-50.657958984375,169.25537109375
1758181147.1423602,0.79541015625,0.02978515625,0.64990234375,-0.1220703125,0.244140625,-0.8544921875,2.4774169921875,-50.657958984375,169.244384765625
1758181147.1519938,0.79541015625,0.02978515625,0.64990234375,-0.1220703125,0.244140625,-0.8544921875,2.4884033203125,-50.657958984375,169.2333984375
1758181147.1623242,0.79833984375,0.03076171875,0.642578125,-0.54931640625,-0.79345703125,-1.0986328125,2.493896484375,-50.6689453125,169.2169189453125
1758181147.1726565,0.79833984375,0.03076171875,0.642578125,-0.54931640625,-0.79345703125,-1.0986328125,2.5048828125,-50.6744384765625,169.2059326171875
1758181147.1823382,0.79638671875,0.02197265625,0.64501953125,-0.3662109375,-1.89208984375,-0.91552734375,2.5103759765625,-50.6964111328125,169.189453125
1758181147.1923711,0.79638671875,0.02197265625,0.64501953125,-0.3662109375,-1.89208984375,-0.91552734375,2.5213623046875,-50.7183837890625,169.178466796875
1758181147.2027316,0.7890625,0.0205078125,0.63671875,-0.732421875,-2.74658203125,-0.79345703125,2.5213623046875,-50.745849609375,169.1619873046875
1758181147.2122295,0.7890625,0.0205078125,0.63671875,-0.732421875,-2.74658203125,-0.79345703125,2.52685546875,-50.7733154296875,169.1510009765625
1758181147.222474,0.78759765625,0.03369140625,0.63720703125,-1.64794921875,-3.35693359375,-0.6103515625,2.515869140625,-50.8062744140625,169.1400146484375
1758181147.2323751,0.78759765625,0.03369140625,0.63720703125,-1.64794921875,-3.35693359375,-0.6103515625,2.5103759765625,-50.8447265625,169.1290283203125
1758181147.242407,0.7900390625,0.04638671875,0.64697265625,-3.23486328125,-3.72314453125,0.0,2.48291015625,-50.8831787109375,169.1290283203125
1758181147.2521229,0.7900390625,0.04638671875,0.64697265625,-3.23486328125,-3.72314453125,0.0,2.449951171875,-50.9161376953125,169.1290283203125
1758181147.262461,0.78466796875,0.0302734375,0.638671875,-3.35693359375,-3.72314453125,0.79345703125,2.4114990234375,-50.95458984375,169.1400146484375
1758181147.2732852,0.78466796875,0.0302734375,0.638671875,-3.35693359375,-3.72314453125,0.79345703125,2.373046875,-50.9930419921875,169.156494140625
1758181147.2824998,0.77099609375,0.01220703125,0.62451171875,-2.13623046875,-3.5400390625,1.220703125,2.340087890625,-51.0260009765625,169.178466796875
1758181147.292496,0.77099609375,0.01220703125,0.62451171875,-2.13623046875,-3.5400390625,1.220703125,2.30712890625,-51.064453125,169.200439453125
1758181147.3032146,0.77099609375,0.01220703125,0.62451171875,-0.244140625,-3.35693359375,1.03759765625,2.296142578125,-51.097412109375,169.222412109375
1758181147.312311,0.76171875,0.01611328125,0.61865234375,-0.244140625,-3.35693359375,1.03759765625,2.2796630859375,-51.13037109375,169.244384765625
1758181147.3225791,0.75927734375,0.02880859375,0.6162109375,-0.91552734375,-3.11279296875,0.79345703125,2.26318359375,-51.1578369140625,169.266357421875
1758181147.3325148,0.75927734375,0.02880859375,0.6162109375,-0.91552734375,-3.11279296875,0.79345703125,2.2467041015625,-51.185302734375,169.288330078125
1758181147.342597,0.771484375,0.03125,0.61962890625,-1.0986328125,-2.74658203125,0.79345703125,2.230224609375,-51.2127685546875,169.310302734375
1758181147.352336,0.771484375,0.03125,0.61962890625,-1.0986328125,-2.74658203125,0.79345703125,2.208251953125,-51.240234375,169.3267822265625
1758181147.3625088,0.7705078125,0.01953125,0.6240234375,-0.732421875,-2.25830078125,0.54931640625,2.197265625,-51.26220703125,169.34326171875
1758181147.3733613,0.7705078125,0.01953125,0.6240234375,-0.732421875,-2.25830078125,0.54931640625,2.186279296875,-51.2841796875,169.3597412109375
1758181147.3826532,0.77587890625,0.0224609375,0.61767578125,0.48828125,-1.89208984375,0.1220703125,2.1917724609375,-51.3006591796875,169.3707275390625
1758181147.392462,0.77587890625,0.0224609375,0.61767578125,0.48828125,-1.89208984375,0.1220703125,2.197265625,-51.317138671875,169.3817138671875
1758181147.403255,0.77880859375,0.0263671875,0.625,1.52587890625,-1.64794921875,0.0,2.2137451171875,-51.3336181640625,169.38720703125
1758181147.4123912,0.77880859375,0.0263671875,0.625,1.52587890625,-1.64794921875,0.0,2.230224609375,-51.3446044921875,169.398193359375
1758181147.4227931,0.7744140625,0.03076171875,0.6181640625,1.28173828125,-1.52587890625,-0.42724609375,2.2467041015625,-51.361083984375,169.398193359375
1758181147.4332433,0.7744140625,0.03076171875,0.6181640625,1.28173828125,-1.52587890625,-0.42724609375,2.2686767578125,-51.3720703125,169.398193359375
1758181147.4428926,0.78173828125,0.0380859375,0.62548828125,0.42724609375,-1.52587890625,-1.15966796875,2.2906494140625,-51.3885498046875,169.38720703125
1758181147.4524012,0.78173828125,0.0380859375,0.62548828125,0.42724609375,-1.52587890625,-1.15966796875,2.30712890625,-51.3995361328125,169.376220703125
1758181147.4626513,0.78564453125,0.03759765625,0.623046875,0.8544921875,-1.52587890625,-1.64794921875,2.340087890625,-51.416015625,169.354248046875
1758181147.4736762,0.78564453125,0.03759765625,0.623046875,0.8544921875,-1.52587890625,-1.64794921875,2.373046875,-51.427001953125,169.3267822265625
1758181147.482692,0.7998046875,0.0263671875,0.64111328125,-0.18310546875,-1.40380859375,-1.5869140625,2.39501953125,-51.43798828125,169.3048095703125
1758181147.493144,0.7998046875,0.0263671875,0.64111328125,-0.18310546875,-1.40380859375,-1.5869140625,2.4169921875,-51.448974609375,169.2828369140625
1758181147.5033064,0.80712890625,0.02685546875,0.6416015625,-0.6103515625,-1.40380859375,-1.46484375,2.427978515625,-51.4654541015625,169.266357421875
1758181147.513135,0.80712890625,0.02685546875,0.6416015625,-0.6103515625,-1.40380859375,-1.46484375,2.4444580078125,-51.4764404296875,169.2498779296875
1758181147.5227258,0.810546875,0.017578125,0.64794921875,0.732421875,-1.3427734375,-1.3427734375,2.471923828125,-51.4874267578125,169.2333984375
1758181147.533713,0.810546875,0.017578125,0.64794921875,0.732421875,-1.3427734375,-1.3427734375,2.493896484375,-51.4984130859375,169.2169189453125
1758181147.542664,0.806640625,0.017578125,0.63671875,1.0986328125,-1.220703125,-1.15966796875,2.5213623046875,-51.5093994140625,169.21142578125
1758181147.552583,0.806640625,0.017578125,0.63671875,1.0986328125,-1.220703125,-1.15966796875,2.5433349609375,-51.5203857421875,169.200439453125
1758181147.5626965,0.79150390625,0.01904296875,0.63330078125,2.5634765625,-1.03759765625,-0.9765625,2.581787109375,-51.5313720703125,169.1949462890625
1758181147.5737457,0.79150390625,0.01904296875,0.63330078125,2.5634765625,-1.03759765625,-0.9765625,2.61474609375,-51.536865234375,169.189453125
1758181147.5827115,0.7900390625,0.02197265625,0.62841796875,3.60107421875,-1.15966796875,-0.67138671875,2.65869140625,-51.5478515625,169.1839599609375
1758181147.5932128,0.7900390625,0.02197265625,0.62841796875,3.60107421875,-1.15966796875,-0.67138671875,2.70263671875,-51.558837890625,169.1839599609375
1758181147.603516,0.80078125,0.03076171875,0.6142578125,4.150390625,-1.3427734375,-0.67138671875,2.74658203125,-51.56982421875,169.178466796875
1758181147.6131058,0.80078125,0.03076171875,0.6142578125,4.150390625,-1.3427734375,-0.67138671875,2.7960205078125,-51.5863037109375,169.1729736328125
