timestamp,acc_x,acc_y,acc_z,gyro_x,gyro_y,gyro_z,angle_x,angle_y,angle_z
1758877864.3944461,-0.6806640625,-0.1572265625,0.72314453125,0.8544921875,-4.69970703125,-0.42724609375,-12.5518798828125,43.5443115234375,85.8197021484375
1758877864.4046757,-0.6748046875,-0.1572265625,0.71875,0.732421875,-4.2724609375,-0.732421875,-12.54638671875,43.5003662109375,85.8197021484375
1758877864.4160254,-0.6748046875,-0.1572265625,0.71875,0.732421875,-4.2724609375,-0.732421875,-12.535400390625,43.4564208984375,85.814208984375
1758877864.4248588,-0.6728515625,-0.1513671875,0.7265625,1.52587890625,-3.84521484375,-1.15966796875,-12.5189208984375,43.41796875,85.80322265625
1758877864.4346657,-0.6728515625,-0.1513671875,0.7265625,1.52587890625,-3.84521484375,-1.15966796875,-12.5079345703125,43.3740234375,85.792236328125
1758877864.4445825,-0.67041015625,-0.14892578125,0.728515625,2.25830078125,-3.41796875,-1.77001953125,-12.491455078125,43.3355712890625,85.7757568359375
1758877864.4545894,-0.67041015625,-0.14892578125,0.728515625,2.25830078125,-3.41796875,-1.77001953125,-12.4749755859375,43.297119140625,85.7537841796875
1758877864.4642146,-0.6689453125,-0.14794921875,0.72607421875,2.99072265625,-3.173828125,-2.44140625,-12.45849609375,43.2586669921875,85.726318359375
1758877864.474215,-0.6689453125,-0.14794921875,0.72607421875,2.99072265625,-3.173828125,-2.44140625,-12.447509765625,43.22021484375,85.693359375
1758877864.4831414,-0.6650390625,-0.1474609375,0.73486328125,3.2958984375,-3.0517578125,-3.0517578125,-12.4310302734375,43.1817626953125,85.6549072265625
1758877864.4930837,-0.6650390625,-0.1474609375,0.73486328125,3.2958984375,-3.0517578125,-3.0517578125,-12.41455078125,43.143310546875,85.616455078125
1758877864.5030937,-0.66015625,-0.14697265625,0.74072265625,1.708984375,-2.74658203125,-3.0517578125,-12.4200439453125,43.1048583984375,85.5780029296875
1758877864.5131824,-0.66015625,-0.14697265625,0.74072265625,1.708984375,-2.74658203125,-3.0517578125,-12.4200439453125,43.0718994140625,85.53955078125
1758877864.5230725,-0.654296875,-0.15234375,0.73876953125,-0.06103515625,-2.3193359375,-2.62451171875,-12.4365234375,43.0389404296875,85.506591796875
1758877864.533383,-0.654296875,-0.15234375,0.73876953125,-0.06103515625,-2.3193359375,-2.62451171875,-12.4530029296875,43.00048828125,85.4681396484375
1758877864.5431297,-0.64208984375,-0.17626953125,0.75146484375,0.48828125,-1.64794921875,-2.01416015625,-12.45849609375,42.978515625,85.440673828125
1758877864.553146,-0.64208984375,-0.17626953125,0.75146484375,0.48828125,-1.64794921875,-2.01416015625,-12.4639892578125,42.945556640625,85.4132080078125
1758877864.563441,-0.625,-0.185546875,0.78271484375,5.126953125,-0.6103515625,-1.5869140625,-12.425537109375,42.9290771484375,85.3912353515625
1758877864.5736046,-0.625,-0.185546875,0.78271484375,5.126953125,-0.6103515625,-1.5869140625,-12.3870849609375,42.9071044921875,85.3692626953125
1758877864.583169,-0.6103515625,-0.171875,0.8017578125,6.591796875,-0.244140625,-0.8544921875,-12.32666015625,42.890625,85.352783203125
1758877864.5931804,-0.6103515625,-0.171875,0.8017578125,6.591796875,-0.244140625,-0.8544921875,-12.271728515625,42.86865234375,85.341796875
1758877864.603173,-0.60595703125,-0.14697265625,0.80908203125,3.662109375,-0.6103515625,0.0,-12.2332763671875,42.8466796875,85.3363037109375
1758877864.6132245,-0.60595703125,-0.14697265625,0.80908203125,3.662109375,-0.6103515625,0.0,-12.1893310546875,42.8192138671875,85.3363037109375
1758877864.6232278,-0.62109375,-0.1396484375,0.80810546875,3.173828125,-1.52587890625,0.42724609375,-12.15087890625,42.7862548828125,85.341796875
1758877864.6332834,-0.62109375,-0.1396484375,0.80810546875,3.173828125,-1.52587890625,0.42724609375,-12.10693359375,42.747802734375,85.3472900390625
1758877864.6432984,-0.64453125,-0.146484375,0.783203125,0.0,-1.8310546875,1.40380859375,-12.0904541015625,42.7093505859375,85.36376953125
1758877864.653265,-0.64453125,-0.146484375,0.783203125,0.0,-1.8310546875,1.40380859375,-12.0684814453125,42.6763916015625,85.3857421875
1758877864.6632798,-0.626953125,-0.14404296875,0.75244140625,-1.953125,-2.0751953125,3.0517578125,-12.052001953125,42.637939453125,85.4241943359375
1758877864.6732948,-0.626953125,-0.14404296875,0.75244140625,-1.953125,-2.0751953125,3.0517578125,-12.0355224609375,42.60498046875,85.4681396484375
1758877864.6833086,-0.6396484375,-0.16845703125,0.76953125,-5.67626953125,-2.01416015625,4.94384765625,-12.0355224609375,42.572021484375,85.5340576171875
1758877864.6933243,-0.6396484375,-0.16845703125,0.76953125,-5.67626953125,-2.01416015625,4.94384765625,-12.041015625,42.5445556640625,85.5999755859375
1758877864.7033467,-0.64453125,-0.16162109375,0.7607421875,-9.70458984375,-2.01416015625,6.8359375,-12.0684814453125,42.51708984375,85.6878662109375
1758877864.7133422,-0.64453125,-0.16162109375,0.7607421875,-9.70458984375,-2.01416015625,6.8359375,-12.1014404296875,42.4896240234375,85.78125
1758877864.7233644,-0.68359375,-0.14501953125,0.72607421875,-11.65771484375,-1.953125,8.4228515625,-12.1343994140625,42.47314453125,85.89111328125
1758877864.7333963,-0.68359375,-0.14501953125,0.72607421875,-11.65771484375,-1.953125,8.4228515625,-12.1673583984375,42.451171875,86.0064697265625
1758877864.7433865,-0.71044921875,-0.14599609375,0.69970703125,-17.333984375,-1.8310546875,10.25390625,-12.23876953125,42.4456787109375,86.1383056640625
1758877864.75342,-0.71044921875,-0.14599609375,0.69970703125,-17.333984375,-1.8310546875,10.25390625,-12.315673828125,42.4346923828125,86.2701416015625
1758877864.7634165,-0.74072265625,-0.1455078125,0.67919921875,-18.24951171875,-2.3193359375,11.23046875,-12.3870849609375,42.42919921875,86.41845703125
1758877864.7734416,-0.74072265625,-0.1455078125,0.67919921875,-18.24951171875,-2.3193359375,11.23046875,-12.45849609375,42.42919921875,86.5667724609375
1758877864.7834485,-0.78076171875,-0.154296875,0.6474609375,-25.2685546875,-2.99072265625,12.939453125,-12.5848388671875,42.42919921875,86.737060546875
1758877864.7934902,-0.78076171875,-0.154296875,0.6474609375,-25.2685546875,-2.99072265625,12.939453125,-12.711181640625,42.42919921875,86.9073486328125
1758877864.8034916,-0.7626953125,-0.1669921875,0.5751953125,-35.7666015625,-3.47900390625,15.44189453125,-12.919921875,42.440185546875,87.1160888671875
1758877864.8135018,-0.7626953125,-0.1669921875,0.5751953125,-35.7666015625,-3.47900390625,15.44189453125,-13.1341552734375,42.4566650390625,87.3248291015625
1758877864.8235219,-0.74072265625,-0.1806640625,0.58447265625,-43.0908203125,-3.7841796875,17.578125,-13.3978271484375,42.47314453125,87.56103515625
1758877864.8335266,-0.74072265625,-0.1806640625,0.58447265625,-43.0908203125,-3.7841796875,17.578125,-13.6614990234375,42.5006103515625,87.802734375
1758877864.8435216,-0.728515625,-0.20849609375,0.6337890625,-38.4521484375,-4.0283203125,18.9208984375,-13.86474609375,42.5225830078125,88.0609130859375
1758877864.8535821,-0.728515625,-0.20849609375,0.6337890625,-38.4521484375,-4.0283203125,18.9208984375,-14.073486328125,42.5555419921875,88.319091796875
1758877864.8635905,-0.705078125,-0.23486328125,0.66845703125,-31.8603515625,-4.7607421875,20.56884765625,-14.1998291015625,42.5775146484375,88.604736328125
1758877864.8736286,-0.705078125,-0.23486328125,0.66845703125,-31.8603515625,-4.7607421875,20.56884765625,-14.3316650390625,42.60498046875,88.890380859375
1758877864.8836234,-0.68701171875,-0.23828125,0.697265625,-33.5693359375,-5.859375,21.97265625,-14.4635009765625,42.6214599609375,89.2034912109375
1758877864.8936968,-0.68701171875,-0.23828125,0.697265625,-33.5693359375,-5.859375,21.97265625,-14.5953369140625,42.637939453125,89.5111083984375
1758877864.9036505,-0.68994140625,-0.19140625,0.734375,-40.34423828125,-5.79833984375,23.13232421875,-14.78759765625,42.6544189453125,89.8406982421875
1758877864.9136767,-0.68994140625,-0.19140625,0.734375,-40.34423828125,-5.79833984375,23.13232421875,-14.974365234375,42.6708984375,90.164794921875
1758877864.9237273,-0.67041015625,-0.1806640625,0.70849609375,-41.68701171875,-5.18798828125,23.98681640625,-15.1666259765625,42.69287109375,90.50537109375
1758877864.93445,-0.67041015625,-0.1806640625,0.70849609375,-41.68701171875,-5.18798828125,23.98681640625,-15.35888671875,42.7203369140625,90.8404541015625
1758877864.943736,-0.6591796875,-0.16845703125,0.70849609375,-42.29736328125,-3.96728515625,23.62060546875,-15.5621337890625,42.7532958984375,91.16455078125
1758877864.9543288,-0.6591796875,-0.16845703125,0.70849609375,-42.29736328125,-3.96728515625,23.62060546875,-15.7598876953125,42.7862548828125,91.494140625
1758877864.963833,-0.63232421875,-0.1572265625,0.748046875,-42.66357421875,-3.35693359375,22.4609375,-15.9686279296875,42.8192138671875,91.8017578125
1758877864.9744751,-0.63232421875,-0.1572265625,0.748046875,-42.66357421875,-3.35693359375,22.4609375,-16.1773681640625,42.8521728515625,92.109375
1758877864.9838264,-0.640625,-0.19580078125,0.7763671875,-35.64453125,-2.5634765625,21.54541015625,-16.32568359375,42.8851318359375,92.406005859375
1758877864.994921,-0.640625,-0.19580078125,0.7763671875,-35.64453125,-2.5634765625,21.54541015625,-16.468505859375,42.9180908203125,92.6971435546875
1758877865.0039568,-0.60498046875,-0.2158203125,0.78076171875,-32.77587890625,-1.953125,20.3857421875,-16.600341796875,42.9510498046875,92.977294921875
1758877865.0141532,-0.60498046875,-0.2158203125,0.78076171875,-32.77587890625,-1.953125,20.3857421875,-16.7266845703125,42.9840087890625,93.251953125
1758877865.0238798,-0.5693359375,-0.1904296875,0.7978515625,-30.517578125,-2.0751953125,19.22607421875,-16.842041015625,43.0059814453125,93.515625
1758877865.0345669,-0.5693359375,-0.1904296875,0.7978515625,-30.517578125,-2.0751953125,19.22607421875,-16.951904296875,43.0279541015625,93.7738037109375
1758877865.04404,-0.55126953125,-0.20361328125,0.8359375,-27.16064453125,-2.0751953125,18.310546875,-17.039794921875,43.0389404296875,94.0264892578125
1758877865.05404,-0.55126953125,-0.20361328125,0.8359375,-27.16064453125,-2.0751953125,18.310546875,-17.1221923828125,43.04443359375,94.273681640625
1758877865.0644927,-0.5595703125,-0.208984375,0.8193359375,-26.4892578125,-1.89208984375,17.2119140625,-17.2100830078125,43.0499267578125,94.5098876953125
1758877865.0741827,-0.5595703125,-0.208984375,0.8193359375,-26.4892578125,-1.89208984375,17.2119140625,-17.2979736328125,43.0499267578125,94.74609375
1758877865.083981,-0.5732421875,-0.20751953125,0.79150390625,-18.12744140625,-1.15966796875,15.380859375,-17.3199462890625,43.055419921875,94.9493408203125
1758877865.0948913,-0.5732421875,-0.20751953125,0.79150390625,-18.12744140625,-1.15966796875,15.380859375,-17.3419189453125,43.055419921875,95.1580810546875
1758877865.1045072,-0.63232421875,-0.19970703125,0.77880859375,-1.8310546875,0.0,13.24462890625,-17.2210693359375,43.0609130859375,95.3338623046875
1758877865.1141238,-0.63232421875,-0.19970703125,0.77880859375,-1.8310546875,0.0,13.24462890625,-17.105712890625,43.0609130859375,95.5096435546875
1758877865.124395,-0.60986328125,-0.19140625,0.79345703125,13.00048828125,1.220703125,11.16943359375,-16.8585205078125,43.0718994140625,95.657958984375
1758877865.1344824,-0.60986328125,-0.19140625,0.79345703125,13.00048828125,1.220703125,11.16943359375,-16.6168212890625,43.0828857421875,95.8062744140625
1758877865.144092,-0.62158203125,-0.2236328125,0.8134765625,20.93505859375,1.0986328125,9.27734375,-16.314697265625,43.0828857421875,95.9271240234375
1758877865.154266,-0.62158203125,-0.2236328125,0.8134765625,20.93505859375,1.0986328125,9.27734375,-16.0125732421875,43.0828857421875,96.053466796875
1758877865.164957,-0.64892578125,-0.2041015625,0.79248046875,22.88818359375,0.8544921875,7.6904296875,-15.7049560546875,43.077392578125,96.1578369140625
1758877865.1742198,-0.64892578125,-0.2041015625,0.79248046875,22.88818359375,0.8544921875,7.6904296875,-15.40283203125,43.0718994140625,96.26220703125
1758877865.1843898,-0.69482421875,-0.1689453125,0.6875,27.83203125,0.54931640625,6.7138671875,-15.062255859375,43.06640625,96.361083984375
1758877865.1948097,-0.7314453125,-0.1923828125,0.65673828125,38.87939453125,0.3662109375,4.7607421875,-14.6722412109375,43.055419921875,96.4434814453125
1758877865.2042184,-0.7314453125,-0.1923828125,0.65673828125,38.87939453125,0.3662109375,4.7607421875,-14.2437744140625,43.0499267578125,96.5203857421875
1758877865.2142847,-0.7421875,-0.23193359375,0.61083984375,32.3486328125,-0.244140625,4.638671875,-13.8482666015625,43.04443359375,96.5972900390625
1758877865.2248514,-0.7421875,-0.23193359375,0.61083984375,32.3486328125,-0.244140625,4.638671875,-13.4912109375,43.0389404296875,96.6796875
1758877865.2354736,-0.72119140625,-0.16259765625,0.576171875,15.80810546875,-1.28173828125,5.126953125,-13.2220458984375,43.033447265625,96.767578125
1758877865.2460344,-0.72119140625,-0.16259765625,0.576171875,15.80810546875,-1.28173828125,5.126953125,-13.02978515625,43.033447265625,96.8609619140625
1758877865.254296,-0.708984375,-0.1318359375,0.61279296875,6.28662109375,-2.3193359375,6.2255859375,-12.8814697265625,43.0279541015625,96.9708251953125
1758877865.265893,-0.708984375,-0.1318359375,0.61279296875,6.28662109375,-2.3193359375,6.2255859375,-12.7716064453125,43.0224609375,97.086181640625
1758877865.2743583,-0.7421875,-0.12353515625,0.64013671875,-3.7841796875,-2.25830078125,7.080078125,-12.7056884765625,43.0224609375,97.20703125
1758877865.2849445,-0.7421875,-0.12353515625,0.64013671875,-3.7841796875,-2.25830078125,7.080078125,-12.689208984375,43.0224609375,97.3388671875
1758877865.2947872,-0.73583984375,-0.11865234375,0.62158203125,-11.23046875,-2.01416015625,7.26318359375,-12.7001953125,43.0279541015625,97.4652099609375
1758877865.3062546,-0.73583984375,-0.11865234375,0.62158203125,-11.23046875,-2.01416015625,7.26318359375,-12.755126953125,43.0389404296875,97.6025390625
1758877865.3145854,-0.72998046875,-0.12646484375,0.6591796875,-9.765625,-1.46484375,7.26318359375,-12.7935791015625,43.055419921875,97.7288818359375
1758877865.3266108,-0.72998046875,-0.12646484375,0.6591796875,-9.765625,-1.46484375,7.26318359375,-12.8265380859375,43.0718994140625,97.8607177734375
1758877865.334895,-0.74609375,-0.1708984375,0.67919921875,-3.5400390625,-0.3662109375,6.4697265625,-12.83203125,43.099365234375,97.987060546875
1758877865.3449018,-0.74609375,-0.1708984375,0.67919921875,-3.5400390625,-0.3662109375,6.4697265625,-12.81005859375,43.1268310546875,98.1024169921875
1758877865.3549743,-0.7138671875,-0.18212890625,0.6669921875,-2.5634765625,0.42724609375,6.65283203125,-12.7880859375,43.1597900390625,98.2177734375
1758877865.3660834,-0.7138671875,-0.18212890625,0.6669921875,-2.5634765625,0.42724609375,6.65283203125,-12.7606201171875,43.1982421875,98.3331298828125
1758877865.3745134,-0.703125,-0.17333984375,0.669921875,-0.48828125,1.03759765625,6.89697265625,-12.72216796875,43.2366943359375,98.448486328125
1758877865.3850675,-0.703125,-0.17333984375,0.669921875,-0.48828125,1.03759765625,6.89697265625,-12.6727294921875,43.2806396484375,98.5693359375
1758877865.3950686,-0.7177734375,-0.17138671875,0.693359375,2.0751953125,1.77001953125,7.2021484375,-12.6123046875,43.3245849609375,98.690185546875
1758877865.4056742,-0.7177734375,-0.17138671875,0.693359375,2.0751953125,1.77001953125,7.2021484375,-12.535400390625,43.3740234375,98.81103515625
1758877865.4145331,-0.71337890625,-0.1630859375,0.69580078125,4.57763671875,2.3193359375,7.14111328125,-12.4530029296875,43.4234619140625,98.931884765625
1758877865.4247088,-0.71337890625,-0.1630859375,0.69580078125,4.57763671875,2.3193359375,7.14111328125,-12.3541259765625,43.472900390625,99.0472412109375
1758877865.4346235,-0.69677734375,-0.1455078125,0.6962890625,4.08935546875,2.99072265625,7.01904296875,-12.2607421875,43.52783203125,99.1680908203125
1758877865.44443,-0.69677734375,-0.1455078125,0.6962890625,4.08935546875,2.99072265625,7.01904296875,-12.1673583984375,43.582763671875,99.283447265625
1758877865.4554064,-0.6953125,-0.1396484375,0.70556640625,4.39453125,3.23486328125,7.4462890625,-12.0684814453125,43.6376953125,99.3988037109375
1758877865.4648426,-0.6953125,-0.1396484375,0.70556640625,4.39453125,3.23486328125,7.4462890625,-11.9696044921875,43.692626953125,99.5196533203125
1758877865.4748611,-0.68115234375,-0.13330078125,0.7138671875,3.47900390625,3.5400390625,8.23974609375,-11.8707275390625,43.7530517578125,99.64599609375
1758877865.4849265,-0.68115234375,-0.13330078125,0.7138671875,3.47900390625,3.5400390625,8.23974609375,-11.7718505859375,43.8079833984375,99.7723388671875
1758877865.495004,-0.6865234375,-0.12548828125,0.70751953125,-0.3662109375,3.23486328125,9.27734375,-11.6839599609375,43.868408203125,99.90966796875
1758877865.5049872,-0.6865234375,-0.12548828125,0.70751953125,-0.3662109375,3.23486328125,9.27734375,-11.612548828125,43.92333984375,100.052490234375
1758877865.5147347,-0.7138671875,-0.126953125,0.7001953125,-8.85009765625,2.99072265625,10.3759765625,-11.5740966796875,43.978271484375,100.206298828125
1758877865.524832,-0.7138671875,-0.126953125,0.7001953125,-8.85009765625,2.99072265625,10.3759765625,-11.5740966796875,44.0277099609375,100.3656005859375
1758877865.535926,-0.7138671875,-0.0908203125,0.708984375,-21.240234375,2.13623046875,10.92529296875,-11.6290283203125,44.0826416015625,100.5303955078125
1758877865.5450377,-0.7138671875,-0.0908203125,0.708984375,-21.240234375,2.13623046875,10.92529296875,-11.7388916015625,44.1265869140625,100.6951904296875
1758877865.555961,-0.7060546875,-0.08447265625,0.72216796875,-33.447265625,2.13623046875,11.65771484375,-11.898193359375,44.176025390625,100.865478515625
1758877865.5654671,-0.7060546875,-0.08447265625,0.72216796875,-33.447265625,2.13623046875,11.65771484375,-12.117919921875,44.2254638671875,101.041259765625
1758877865.5749407,-0.697265625,-0.09130859375,0.71875,-48.583984375,1.8310546875,12.14599609375,-12.403564453125,44.2694091796875,101.2225341796875
1758877865.5846326,-0.697265625,-0.09130859375,0.71875,-48.583984375,1.8310546875,12.14599609375,-12.7606201171875,44.31884765625,101.40380859375
1758877865.5953877,-0.70458984375,-0.0986328125,0.71484375,-61.5234375,1.89208984375,12.5732421875,-13.1781005859375,44.36279296875,101.5850830078125
1758877865.6051471,-0.70458984375,-0.0986328125,0.71484375,-61.5234375,1.89208984375,12.5732421875,-13.6505126953125,44.4122314453125,101.7718505859375
1758877865.615134,-0.6982421875,-0.1181640625,0.71044921875,-67.7490234375,2.0751953125,12.451171875,-14.1558837890625,44.461669921875,101.953125
1758877865.6249094,-0.6982421875,-0.1181640625,0.71044921875,-67.7490234375,2.0751953125,12.451171875,-14.688720703125,44.5166015625,102.12890625
1758877865.6355355,-0.681640625,-0.16748046875,0.70849609375,-69.091796875,2.44140625,11.962890625,-15.22705078125,44.5660400390625,102.3046875
1758877865.644718,-0.681640625,-0.16748046875,0.70849609375,-69.091796875,2.44140625,11.962890625,-15.7763671875,44.6209716796875,102.4749755859375
1758877865.6561906,-0.66748046875,-0.18994140625,0.70703125,-69.3359375,2.8076171875,11.23046875,-16.3311767578125,44.6759033203125,102.6397705078125
1758877865.6649914,-0.66748046875,-0.18994140625,0.70703125,-69.3359375,2.8076171875,11.23046875,-16.885986328125,44.7308349609375,102.799072265625
1758877865.675421,-0.6572265625,-0.20068359375,0.6943359375,-61.82861328125,3.47900390625,10.498046875,-17.413330078125,44.791259765625,102.9473876953125
1758877865.684816,-0.6572265625,-0.20068359375,0.6943359375,-61.82861328125,3.47900390625,10.498046875,-17.9022216796875,44.84619140625,103.0902099609375
1758877865.6966004,-0.63330078125,-0.21484375,0.68359375,-55.35888671875,4.2724609375,9.3994140625,-18.369140625,44.9066162109375,103.2220458984375
1758877865.7054546,-0.63330078125,-0.21484375,0.68359375,-55.35888671875,4.2724609375,9.3994140625,-18.80859375,44.967041015625,103.348388671875
1758877865.7152436,-0.630859375,-0.21826171875,0.70947265625,-54.931640625,4.69970703125,8.9111328125,-19.2535400390625,45.032958984375,103.4637451171875
1758877865.7254927,-0.630859375,-0.21826171875,0.70947265625,-54.931640625,4.69970703125,8.9111328125,-19.6929931640625,45.0933837890625,103.5736083984375
1758877865.7357252,-0.6494140625,-0.2412109375,0.71240234375,-53.466796875,4.8828125,8.6669921875,-20.1324462890625,45.15380859375,103.6834716796875
1758877865.7448514,-0.6494140625,-0.2412109375,0.71240234375,-53.466796875,4.8828125,8.6669921875,-20.5609130859375,45.2142333984375,103.7933349609375
1758877865.7558534,-0.63232421875,-0.2587890625,0.6884765625,-49.37744140625,4.8828125,8.056640625,-20.9783935546875,45.2691650390625,103.8922119140625
1758877865.7656398,-0.63232421875,-0.2587890625,0.6884765625,-49.37744140625,4.8828125,8.056640625,-21.37939453125,45.32958984375,103.9910888671875
1758877865.775806,-0.65234375,-0.26513671875,0.67724609375,-40.6494140625,4.69970703125,7.38525390625,-21.7364501953125,45.384521484375,104.08447265625
1758877865.7849576,-0.65234375,-0.26513671875,0.67724609375,-40.6494140625,4.69970703125,7.38525390625,-22.0550537109375,45.4339599609375,104.17236328125
1758877865.7965336,-0.6689453125,-0.28466796875,0.7158203125,-23.193359375,3.84521484375,6.65283203125,-22.291259765625,45.4779052734375,104.26025390625
1758877865.805958,-0.6689453125,-0.28466796875,0.7158203125,-23.193359375,3.84521484375,6.65283203125,-22.445068359375,45.5218505859375,104.3426513671875
1758877865.8150313,-0.71875,-0.31103515625,0.74853515625,-4.08935546875,2.8076171875,5.67626953125,-22.5054931640625,45.54931640625,104.4195556640625
1758877865.8252444,-0.71875,-0.31103515625,0.74853515625,-4.08935546875,2.8076171875,5.67626953125,-22.47802734375,45.5767822265625,104.4964599609375
1758877865.8350263,-0.67333984375,-0.33251953125,0.67626953125,14.892578125,2.197265625,4.0283203125,-22.3681640625,45.5987548828125,104.5623779296875
1758877865.8450165,-0.67333984375,-0.33251953125,0.67626953125,14.892578125,2.197265625,4.0283203125,-22.17041015625,45.6097412109375,104.622802734375
1758877865.8558743,-0.61181640625,-0.29736328125,0.5927734375,23.3154296875,1.46484375,2.8076171875,-21.9451904296875,45.615234375,104.677734375
1758877865.8656924,-0.61181640625,-0.29736328125,0.5927734375,23.3154296875,1.46484375,2.8076171875,-21.6815185546875,45.6207275390625,104.7271728515625
1758877865.8753242,-0.62890625,-0.27734375,0.58642578125,29.78515625,1.8310546875,1.8310546875,-21.4013671875,45.6207275390625,104.7711181640625
1758877865.885107,-0.62890625,-0.27734375,0.58642578125,29.78515625,1.8310546875,1.8310546875,-21.09375,45.626220703125,104.8095703125
1758877865.895628,-0.6533203125,-0.2451171875,0.576171875,37.78076171875,2.86865234375,0.54931640625,-20.7586669921875,45.6317138671875,104.8370361328125
1758877865.9058862,-0.6533203125,-0.2451171875,0.576171875,37.78076171875,2.86865234375,0.54931640625,-20.3961181640625,45.6427001953125,104.853515625
1758877865.9150994,-0.7373046875,-0.2392578125,0.67578125,51.3916015625,2.99072265625,-1.220703125,-19.97314453125,45.6536865234375,104.8590087890625
1758877865.9252584,-0.7373046875,-0.2392578125,0.67578125,51.3916015625,2.99072265625,-1.220703125,-19.4952392578125,45.6646728515625,104.853515625
1758877865.93572,-0.7294921875,-0.2490234375,0.70751953125,57.55615234375,3.60107421875,-3.47900390625,-18.995361328125,45.6756591796875,104.83154296875
1758877865.9452403,-0.7294921875,-0.2490234375,0.70751953125,57.55615234375,3.60107421875,-3.47900390625,-18.4844970703125,45.6866455078125,104.7930908203125
1758877865.9556973,-0.67236328125,-0.208984375,0.603515625,41.68701171875,3.662109375,-5.06591796875,-18.0560302734375,45.6976318359375,104.74365234375
1758877865.9660635,-0.67236328125,-0.208984375,0.603515625,41.68701171875,3.662109375,-5.06591796875,-17.720947265625,45.703125,104.688720703125
1758877865.9758494,-0.70849609375,-0.15234375,0.5966796875,30.1513671875,4.2724609375,-5.859375,-17.4462890625,45.7196044921875,104.622802734375
1758877865.985195,-0.70849609375,-0.15234375,0.5966796875,30.1513671875,4.2724609375,-5.859375,-17.2320556640625,45.736083984375,104.5513916015625
1758877865.9952302,-0.70849609375,-0.15234375,0.5966796875,24.35302734375,5.79833984375,-6.28662109375,-17.05078125,45.7635498046875,104.4744873046875
1758877866.006911,-0.7626953125,-0.1728515625,0.6552734375,24.35302734375,5.79833984375,-6.28662109375,-16.89697265625,45.7965087890625,104.39208984375
1758877866.0156844,-0.85595703125,-0.18798828125,0.6865234375,5.43212890625,5.9814453125,-8.056640625,-16.8475341796875,45.8294677734375,104.2987060546875
1758877866.0252585,-0.85595703125,-0.18798828125,0.6865234375,5.43212890625,5.9814453125,-8.056640625,-16.89697265625,45.867919921875,104.1943359375
1758877866.0353029,-1.04638671875,-0.12353515625,0.7802734375,-29.60205078125,5.31005859375,-8.9111328125,-17.127685546875,45.9063720703125,104.0789794921875
1758877866.0463097,-1.04638671875,-0.12353515625,0.7802734375,-29.60205078125,5.31005859375,-8.9111328125,-17.523193359375,45.9393310546875,103.963623046875
1758877866.0553982,-0.9619140625,-0.111328125,0.634765625,-27.89306640625,4.69970703125,-9.46044921875,-17.90771484375,45.9722900390625,103.8482666015625
1758877866.0658739,-0.9619140625,-0.111328125,0.634765625,-27.89306640625,4.69970703125,-9.46044921875,-18.28125,46.0107421875,103.7274169921875
1758877866.075638,-0.78759765625,-0.2626953125,0.5380859375,0.9765625,3.0517578125,-10.68115234375,-18.511962890625,46.0382080078125,103.60107421875
1758877866.087125,-0.78759765625,-0.2626953125,0.5380859375,0.9765625,3.0517578125,-10.68115234375,-18.6053466796875,46.0546875,103.4747314453125
1758877866.095406,-0.82763671875,-0.318359375,0.51904296875,22.27783203125,3.23486328125,-11.962890625,-18.6053466796875,46.07666015625,103.3428955078125
1758877866.1059687,-0.82763671875,-0.318359375,0.51904296875,22.27783203125,3.23486328125,-11.962890625,-18.511962890625,46.0986328125,103.2000732421875
1758877866.1160743,-0.83203125,-0.31982421875,0.4521484375,27.34375,4.08935546875,-14.16015625,-18.4185791015625,46.12060546875,103.0462646484375
1758877866.1262894,-0.83203125,-0.31982421875,0.4521484375,27.34375,4.08935546875,-14.16015625,-18.314208984375,46.1480712890625,102.8759765625
1758877866.1365392,-0.78466796875,-0.24658203125,0.4443359375,23.13232421875,5.2490234375,-14.83154296875,-18.248291015625,46.1865234375,102.7001953125
1758877866.1468725,-0.78466796875,-0.24658203125,0.4443359375,23.13232421875,5.2490234375,-14.83154296875,-18.2098388671875,46.2249755859375,102.5189208984375
1758877866.1559951,-0.787109375,-0.20703125,0.5107421875,26.123046875,6.34765625,-13.97705078125,-18.1549072265625,46.2744140625,102.3431396484375
1758877866.1662536,-0.787109375,-0.20703125,0.5107421875,26.123046875,6.34765625,-13.97705078125,-18.08349609375,46.3348388671875,102.1673583984375
1758877866.1757002,-0.7900390625,-0.2158203125,0.57373046875,21.6064453125,6.40869140625,-12.51220703125,-18.028564453125,46.395263671875,102.0025634765625
1758877866.1870954,-0.7900390625,-0.2158203125,0.57373046875,21.6064453125,6.40869140625,-12.51220703125,-17.9901123046875,46.4556884765625,101.84326171875
1758877866.195859,-0.76171875,-0.220703125,0.61865234375,10.80322265625,5.18798828125,-11.23046875,-18.03955078125,46.505126953125,101.7059326171875
1758877866.206201,-0.76171875,-0.220703125,0.61865234375,10.80322265625,5.18798828125,-11.23046875,-18.08349609375,46.5545654296875,101.568603515625
1758877866.2155092,-0.716796875,-0.22216796875,0.646484375,10.43701171875,3.5400390625,-10.25390625,-18.116455078125,46.593017578125,101.44775390625
1758877866.2273815,-0.716796875,-0.22216796875,0.646484375,10.43701171875,3.5400390625,-10.25390625,-18.1494140625,46.6204833984375,101.3214111328125
1758877866.235753,-0.71142578125,-0.2412109375,0.6611328125,14.95361328125,1.52587890625,-8.97216796875,-18.116455078125,46.6314697265625,101.2225341796875
1758877866.2468708,-0.71142578125,-0.2412109375,0.6611328125,14.95361328125,1.52587890625,-8.97216796875,-18.0780029296875,46.6424560546875,101.1181640625
1758877866.255942,-0.69970703125,-0.24072265625,0.6845703125,16.7236328125,-0.06103515625,-8.056640625,-18.0120849609375,46.636962890625,101.0302734375
1758877866.2657616,-0.69970703125,-0.24072265625,0.6845703125,16.7236328125,-0.06103515625,-8.056640625,-17.940673828125,46.6259765625,100.9423828125
1758877866.276137,-0.669921875,-0.24658203125,0.69287109375,19.04296875,-0.91552734375,-7.080078125,-17.8363037109375,46.60400390625,100.8709716796875
1758877866.2864268,-0.669921875,-0.24658203125,0.69287109375,19.04296875,-0.91552734375,-7.080078125,-17.73193359375,46.58203125,100.7940673828125
1758877866.2956543,-0.6708984375,-0.2353515625,0.70654296875,21.05712890625,-2.25830078125,-6.103515625,-17.589111328125,46.549072265625,100.7391357421875
1758877866.305808,-0.6708984375,-0.2353515625,0.70654296875,21.05712890625,-2.25830078125,-6.103515625,-17.4517822265625,46.5106201171875,100.6787109375
1758877866.31622,-0.67578125,-0.21875,0.72705078125,29.60205078125,-1.953125,-5.615234375,-17.2210693359375,46.47216796875,100.623779296875
1758877866.325946,-0.67578125,-0.21875,0.72705078125,29.60205078125,-1.953125,-5.615234375,-16.9903564453125,46.4337158203125,100.5633544921875
1758877866.3357046,-0.65771484375,-0.20947265625,0.71728515625,42.29736328125,-1.0986328125,-5.18798828125,-16.6278076171875,46.40625,100.5084228515625
1758877866.346362,-0.65771484375,-0.20947265625,0.71728515625,42.29736328125,-1.0986328125,-5.18798828125,-16.270751953125,46.373291015625,100.447998046875
1758877866.3558435,-0.65478515625,-0.2314453125,0.72412109375,44.25048828125,0.3662109375,-5.126953125,-15.897216796875,46.351318359375,100.382080078125
1758877866.3658352,-0.65478515625,-0.2314453125,0.72412109375,44.25048828125,0.3662109375,-5.126953125,-15.523681640625,46.329345703125,100.316162109375
1758877866.376272,-0.6650390625,-0.18603515625,0.7451171875,39.73388671875,1.89208984375,-5.18798828125,-15.205078125,46.318359375,100.2447509765625
1758877866.386414,-0.6650390625,-0.18603515625,0.7451171875,39.73388671875,1.89208984375,-5.18798828125,-14.8809814453125,46.307373046875,100.17333984375
1758877866.3957853,-0.67822265625,-0.1298828125,0.7431640625,44.7998046875,3.23486328125,-5.31005859375,-14.512939453125,46.307373046875,100.0909423828125
1758877866.4059584,-0.67822265625,-0.1298828125,0.7431640625,44.7998046875,3.23486328125,-5.31005859375,-14.139404296875,46.307373046875,100.008544921875
1758877866.4162726,-0.73583984375,-0.138671875,0.75341796875,39.1845703125,2.86865234375,-5.06591796875,-13.8153076171875,46.307373046875,99.9261474609375
1758877866.4259524,-0.73583984375,-0.138671875,0.75341796875,39.1845703125,2.86865234375,-5.06591796875,-13.4967041015625,46.3018798828125,99.8492431640625
1758877866.4371085,-0.77880859375,-0.1328125,0.74072265625,25.146484375,1.77001953125,-4.5166015625,-13.2989501953125,46.29638671875,99.7833251953125
1758877866.4483335,-0.77880859375,-0.1328125,0.74072265625,25.146484375,1.77001953125,-4.5166015625,-13.106689453125,46.285400390625,99.7174072265625
1758877866.4559193,-0.7373046875,-0.1240234375,0.67822265625,7.080078125,-1.03759765625,-3.60107421875,-13.07373046875,46.2579345703125,99.66796875
1758877866.4660928,-0.7373046875,-0.1240234375,0.67822265625,7.080078125,-1.03759765625,-3.60107421875,-13.040771484375,46.2249755859375,99.6240234375
1758877866.478297,-0.69873046875,-0.12255859375,0.69140625,-9.765625,-3.11279296875,-2.38037109375,-13.1561279296875,46.1810302734375,99.60205078125
1758877866.48596,-0.69873046875,-0.12255859375,0.69140625,-9.765625,-3.11279296875,-2.38037109375,-13.271484375,46.1370849609375,99.580078125
1758877866.496402,-0.63916015625,-0.1513671875,0.66796875,-9.21630859375,-4.7607421875,-2.01416015625,-13.3648681640625,46.07666015625,99.569091796875
1758877866.5063233,-0.63916015625,-0.1513671875,0.66796875,-9.21630859375,-4.7607421875,-2.01416015625,-13.4637451171875,46.0162353515625,99.55810546875
1758877866.5164642,-0.623046875,-0.1943359375,0.66845703125,-4.39453125,-5.67626953125,-2.50244140625,-13.5186767578125,45.94482421875,99.5416259765625
1758877866.5260427,-0.623046875,-0.1943359375,0.66845703125,-4.39453125,-5.67626953125,-2.50244140625,-13.5736083984375,45.867919921875,99.525146484375
1758877866.5369432,-0.61083984375,-0.203125,0.6767578125,2.197265625,-5.615234375,-2.9296875,-13.568115234375,45.7965087890625,99.503173828125
1758877866.5461318,-0.61083984375,-0.203125,0.6767578125,2.197265625,-5.615234375,-2.9296875,-13.5626220703125,45.7196044921875,99.4866943359375
1758877866.556504,-0.580078125,-0.177734375,0.677734375,9.21630859375,-5.31005859375,-3.60107421875,-13.4967041015625,45.6427001953125,99.4537353515625
1758877866.5661204,-0.580078125,-0.177734375,0.677734375,9.21630859375,-5.31005859375,-3.60107421875,-13.4307861328125,45.5657958984375,99.4207763671875
1758877866.5781147,-0.609375,-0.16357421875,0.7099609375,4.5166015625,-5.18798828125,-3.96728515625,-13.4197998046875,45.4888916015625,99.3878173828125
1758877866.5860853,-0.609375,-0.16357421875,0.7099609375,4.5166015625,-5.18798828125,-3.96728515625,-13.4033203125,45.4119873046875,99.349365234375
1758877866.596549,-0.60693359375,-0.1328125,0.75390625,-2.0751953125,-5.859375,-4.45556640625,-13.458251953125,45.3240966796875,99.305419921875
1758877866.6063821,-0.60693359375,-0.1328125,0.75390625,-2.0751953125,-5.859375,-4.45556640625,-13.5076904296875,45.2362060546875,99.261474609375
1758877866.6166644,-0.6689453125,-0.09619140625,0.7890625,-13.61083984375,-6.2255859375,-4.150390625,-13.6614990234375,45.142822265625,99.2230224609375
1758877866.6261995,-0.6689453125,-0.09619140625,0.7890625,-13.61083984375,-6.2255859375,-4.150390625,-13.8153076171875,45.0494384765625,99.1790771484375
1758877866.6371977,-0.71923828125,-0.1201171875,0.77978515625,-15.625,-7.2021484375,-4.21142578125,-13.9801025390625,44.945068359375,99.140625
1758877866.6462162,-0.71923828125,-0.1201171875,0.77978515625,-15.625,-7.2021484375,-4.21142578125,-14.139404296875,44.84619140625,99.1021728515625
1758877866.6560903,-0.80224609375,-0.20166015625,0.80078125,-6.7138671875,-8.23974609375,-5.18798828125,-14.2218017578125,44.736328125,99.0582275390625
1758877866.6670835,-0.80224609375,-0.20166015625,0.80078125,-6.7138671875,-8.23974609375,-5.18798828125,-14.30419921875,44.62646484375,99.0087890625
1758877866.6763546,-0.76318359375,-0.2177734375,0.6884765625,11.5966796875,-7.9345703125,-6.53076171875,-14.2218017578125,44.5166015625,98.9483642578125
1758877866.6862292,-0.76318359375,-0.2177734375,0.6884765625,11.5966796875,-7.9345703125,-6.53076171875,-14.139404296875,44.417724609375,98.887939453125
1758877866.6966457,-0.7041015625,-0.23583984375,0.54052734375,22.5830078125,-6.2255859375,-8.23974609375,-13.974609375,44.329833984375,98.7945556640625
1758877866.7063031,-0.7041015625,-0.23583984375,0.54052734375,22.5830078125,-6.2255859375,-8.23974609375,-13.8153076171875,44.2474365234375,98.7066650390625
1758877866.716488,-0.7099609375,-0.20263671875,0.505859375,22.76611328125,-3.7841796875,-8.60595703125,-13.6669921875,44.1925048828125,98.61328125
1758877866.726724,-0.7099609375,-0.20263671875,0.505859375,22.76611328125,-3.7841796875,-8.60595703125,-13.524169921875,44.14306640625,98.514404296875
1758877866.7365434,-0.751953125,-0.19384765625,0.5546875,30.21240234375,-1.64794921875,-8.7890625,-13.3154296875,44.12109375,98.4100341796875
1758877866.746312,-0.751953125,-0.19384765625,0.5546875,30.21240234375,-1.64794921875,-8.7890625,-13.106689453125,44.09912109375,98.3111572265625
1758877866.7564268,-0.7470703125,-0.1904296875,0.62939453125,36.1328125,-0.79345703125,-8.72802734375,-12.8485107421875,44.088134765625,98.206787109375
1758877866.7671223,-0.7470703125,-0.1904296875,0.62939453125,36.1328125,-0.79345703125,-8.72802734375,-12.59033203125,44.0771484375,98.1024169921875
1758877866.7763405,-0.7646484375,-0.16064453125,0.66455078125,34.3017578125,0.06103515625,-7.6904296875,-12.3431396484375,44.0826416015625,98.009033203125
1758877866.786395,-0.7646484375,-0.16064453125,0.66455078125,34.3017578125,0.06103515625,-7.6904296875,-12.0904541015625,44.088134765625,97.9156494140625
1758877866.7967386,-0.76220703125,-0.12451171875,0.65283203125,27.9541015625,0.1220703125,-6.77490234375,-11.898193359375,44.0936279296875,97.8387451171875
1758877866.8064039,-0.76220703125,-0.12451171875,0.65283203125,27.9541015625,0.1220703125,-6.77490234375,-11.700439453125,44.09912109375,97.75634765625
1758877866.8166928,-0.755859375,-0.12353515625,0.65087890625,23.98681640625,0.244140625,-6.16455078125,-11.5411376953125,44.110107421875,97.679443359375
1758877866.8265998,-0.755859375,-0.12353515625,0.65087890625,23.98681640625,0.244140625,-6.16455078125,-11.3763427734375,44.1265869140625,97.6080322265625
1758877866.8363965,-0.7421875,-0.12744140625,0.67041015625,20.751953125,-0.06103515625,-5.4931640625,-11.2335205078125,44.1375732421875,97.5421142578125
1758877866.8464544,-0.7421875,-0.12744140625,0.67041015625,20.751953125,-0.06103515625,-5.4931640625,-11.09619140625,44.1485595703125,97.4761962890625
1758877866.8568637,-0.72119140625,-0.14453125,0.6845703125,18.5546875,-0.244140625,-5.615234375,-10.975341796875,44.154052734375,97.40478515625
1758877866.8670287,-0.72119140625,-0.14453125,0.6845703125,18.5546875,-0.244140625,-5.615234375,-10.8544921875,44.1595458984375,97.3388671875
1758877866.8765247,-0.7060546875,-0.15087890625,0.67236328125,21.78955078125,-0.1220703125,-5.2490234375,-10.70068359375,44.1705322265625,97.27294921875
1758877866.8868742,-0.7060546875,-0.15087890625,0.67236328125,21.78955078125,-0.1220703125,-5.2490234375,-10.5523681640625,44.176025390625,97.20703125
1758877866.8969595,-0.6982421875,-0.1630859375,0.68603515625,28.13720703125,0.18310546875,-5.67626953125,-10.338134765625,44.1815185546875,97.1356201171875
1758877866.9068909,-0.6982421875,-0.1630859375,0.68603515625,28.13720703125,0.18310546875,-5.67626953125,-10.12939453125,44.1925048828125,97.064208984375
1758877866.9167736,-0.6796875,-0.146484375,0.70849609375,31.92138671875,0.48828125,-5.79833984375,-9.8876953125,44.197998046875,96.9873046875
1758877866.9274225,-0.6796875,-0.146484375,0.70849609375,31.92138671875,0.48828125,-5.79833984375,-9.6405029296875,44.2034912109375,96.910400390625
1758877866.9363985,-0.68505859375,-0.109375,0.751953125,28.38134765625,0.48828125,-5.31005859375,-9.42626953125,44.208984375,96.8389892578125
1758877866.9467995,-0.68505859375,-0.109375,0.751953125,28.38134765625,0.48828125,-5.31005859375,-9.2120361328125,44.2144775390625,96.767578125
1758877866.9571552,-0.66748046875,-0.04345703125,0.75439453125,9.21630859375,0.1220703125,-3.96728515625,-9.1680908203125,44.2144775390625,96.7181396484375
1758877866.9675655,-0.66748046875,-0.04345703125,0.75439453125,9.21630859375,0.1220703125,-3.96728515625,-9.1241455078125,44.208984375,96.6632080078125
1758877866.9767506,-0.63623046875,-0.02587890625,0.75048828125,-11.04736328125,0.0,-2.5634765625,-9.261474609375,44.208984375,96.624755859375
1758877866.9870102,-0.63623046875,-0.02587890625,0.75048828125,-11.04736328125,0.0,-2.5634765625,-9.393310546875,44.2034912109375,96.5863037109375
1758877866.997069,-0.63623046875,-0.02587890625,0.75048828125,-24.169921875,0.3662109375,-1.15966796875,-9.6405029296875,44.197998046875,96.5643310546875
1758877867.0072098,-0.61962890625,-0.068359375,0.74560546875,-24.169921875,0.3662109375,-1.15966796875,-9.8822021484375,44.1925048828125,96.5423583984375
1758877867.01705,-0.6201171875,-0.12353515625,0.72802734375,-25.146484375,1.52587890625,-0.42724609375,-10.12939453125,44.2034912109375,96.52587890625
1758877867.0275667,-0.6201171875,-0.12353515625,0.72802734375,-25.146484375,1.52587890625,-0.42724609375,-10.3765869140625,44.2034912109375,96.5093994140625
1758877867.0371084,-0.63671875,-0.18896484375,0.712890625,-17.2119140625,2.38037109375,-0.48828125,-10.546875,44.219970703125,96.4874267578125
1758877867.047592,-0.63671875,-0.18896484375,0.712890625,-17.2119140625,2.38037109375,-0.48828125,-10.7171630859375,44.23095703125,96.4654541015625
1758877867.0566642,-0.63623046875,-0.1875,0.74267578125,-9.21630859375,2.44140625,-0.6103515625,-10.8160400390625,44.2364501953125,96.4434814453125
1758877867.0684562,-0.63623046875,-0.1875,0.74267578125,-9.21630859375,2.44140625,-0.6103515625,-10.9149169921875,44.2474365234375,96.4215087890625
1758877867.076878,-0.6416015625,-0.173828125,0.7265625,1.3427734375,3.173828125,-0.244140625,-10.909423828125,44.263916015625,96.405029296875
1758877867.0867953,-0.6416015625,-0.173828125,0.7265625,1.3427734375,3.173828125,-0.244140625,-10.9039306640625,44.27490234375,96.383056640625
1758877867.0972052,-0.7490234375,-0.142578125,0.80615234375,12.87841796875,1.953125,0.30517578125,-10.777587890625,44.2803955078125,96.3775634765625
1758877867.1068397,-0.7490234375,-0.142578125,0.80615234375,12.87841796875,1.953125,0.30517578125,-10.6512451171875,44.285888671875,96.3720703125
1758877867.1171265,-0.91357421875,-0.0947265625,0.890625,12.87841796875,0.0,0.1220703125,-10.5194091796875,44.27490234375,96.3665771484375
1758877867.1267982,-0.91357421875,-0.0947265625,0.890625,12.87841796875,0.0,0.1220703125,-10.3875732421875,44.263916015625,96.361083984375
1758877867.1372106,-0.92431640625,-0.0322265625,0.81103515625,-0.79345703125,-3.47900390625,0.06103515625,-10.382080078125,44.219970703125,96.361083984375
1758877867.1467953,-0.92431640625,-0.0322265625,0.81103515625,-0.79345703125,-3.47900390625,0.06103515625,-10.37109375,44.18701171875,96.361083984375
1758877867.1573398,-0.82568359375,-0.078125,0.56640625,-19.71435546875,-4.69970703125,0.54931640625,-10.5413818359375,44.14306640625,96.3720703125
1758877867.168704,-0.82568359375,-0.078125,0.56640625,-19.71435546875,-4.69970703125,0.54931640625,-10.711669921875,44.1046142578125,96.383056640625
1758877867.1768897,-0.78857421875,-0.13134765625,0.49609375,-31.67724609375,-3.96728515625,0.8544921875,-10.997314453125,44.0826416015625,96.3995361328125
1758877867.1868875,-0.81396484375,-0.14794921875,0.51904296875,-30.76171875,-2.0751953125,0.30517578125,-11.282958984375,44.0771484375,96.4105224609375
1758877867.1968355,-0.81396484375,-0.14794921875,0.51904296875,-30.76171875,-2.0751953125,0.30517578125,-11.5740966796875,44.0826416015625,96.416015625
1758877867.207288,-0.7958984375,-0.150390625,0.52294921875,-20.263671875,-0.67138671875,-0.48828125,-11.8157958984375,44.09912109375,96.4105224609375
1758877867.2173092,-0.7958984375,-0.150390625,0.52294921875,-20.263671875,-0.67138671875,-0.48828125,-12.0135498046875,44.1265869140625,96.405029296875
1758877867.226944,-0.763671875,-0.16357421875,0.548828125,-11.71875,0.42724609375,-1.3427734375,-12.1783447265625,44.1595458984375,96.39404296875
1758877867.237378,-0.763671875,-0.16357421875,0.548828125,-11.71875,0.42724609375,-1.3427734375,-12.3046875,44.197998046875,96.3720703125
1758877867.2469406,-0.744140625,-0.16015625,0.59912109375,-9.70458984375,0.8544921875,-2.0751953125,-12.425537109375,44.241943359375,96.35009765625
1758877867.2569346,-0.744140625,-0.16015625,0.59912109375,-9.70458984375,0.8544921875,-2.0751953125,-12.54638671875,44.2803955078125,96.317138671875
1758877867.2679496,-0.73828125,-0.14501953125,0.65283203125,-10.43701171875,0.54931640625,-2.44140625,-12.667236328125,44.31884765625,96.2896728515625
1758877867.277373,-0.73828125,-0.14501953125,0.65283203125,-10.43701171875,0.54931640625,-2.44140625,-12.7935791015625,44.3572998046875,96.2567138671875
1758877867.2870545,-0.72900390625,-0.146484375,0.6474609375,-10.80322265625,0.18310546875,-2.74658203125,-12.9254150390625,44.3902587890625,96.21826171875
1758877867.2981648,-0.72900390625,-0.146484375,0.6474609375,-10.80322265625,0.18310546875,-2.74658203125,-13.0572509765625,44.417724609375,96.185302734375
1758877867.307431,-0.73095703125,-0.16064453125,0.62841796875,-12.51220703125,0.1220703125,-2.685546875,-13.194580078125,44.4451904296875,96.1468505859375
1758877867.318047,-0.73095703125,-0.16064453125,0.62841796875,-12.51220703125,0.1220703125,-2.685546875,-13.3428955078125,44.4671630859375,96.1083984375
1758877867.3270748,-0.72998046875,-0.17041015625,0.638671875,-12.63427734375,0.18310546875,-2.8076171875,-13.4912109375,44.49462890625,96.0699462890625
1758877867.3404284,-0.72998046875,-0.17041015625,0.638671875,-12.63427734375,0.18310546875,-2.8076171875,-13.6395263671875,44.5166015625,96.031494140625
1758877867.3479338,-0.7265625,-0.18115234375,0.666015625,-10.31494140625,0.8544921875,-2.86865234375,-13.7823486328125,44.5440673828125,95.9930419921875
1758877867.3580813,-0.7265625,-0.18115234375,0.666015625,-10.31494140625,0.8544921875,-2.86865234375,-13.9141845703125,44.571533203125,95.9490966796875
1758877867.3680823,-0.71142578125,-0.1875,0.67333984375,-8.36181640625,1.3427734375,-2.685546875,-14.0350341796875,44.5989990234375,95.9051513671875
1758877867.378012,-0.71142578125,-0.1875,0.67333984375,-8.36181640625,1.3427734375,-2.685546875,-14.1448974609375,44.62646484375,95.8612060546875
1758877867.3872113,-0.70166015625,-0.18701171875,0.6845703125,-6.7138671875,1.77001953125,-2.25830078125,-14.2437744140625,44.6539306640625,95.8172607421875
1758877867.398685,-0.70166015625,-0.18701171875,0.6845703125,-6.7138671875,1.77001953125,-2.25830078125,-14.337158203125,44.681396484375,95.77880859375
1758877867.4073458,-0.6962890625,-0.1875,0.70166015625,-5.615234375,2.197265625,-1.708984375,-14.4195556640625,44.71435546875,95.7403564453125
1758877867.4182389,-0.6962890625,-0.1875,0.70166015625,-5.615234375,2.197265625,-1.708984375,-14.4964599609375,44.747314453125,95.701904296875
1758877867.4282024,-0.6865234375,-0.18359375,0.71435546875,-8.23974609375,2.44140625,-0.79345703125,-14.5843505859375,44.7747802734375,95.6744384765625
1758877867.4379184,-0.6865234375,-0.18359375,0.71435546875,-8.23974609375,2.44140625,-0.79345703125,-14.677734375,44.8077392578125,95.6524658203125
1758877867.4473479,-0.681640625,-0.1796875,0.7197265625,-13.48876953125,2.13623046875,0.06103515625,-14.7930908203125,44.835205078125,95.635986328125
1758877867.4578516,-0.681640625,-0.1796875,0.7197265625,-13.48876953125,2.13623046875,0.06103515625,-14.930419921875,44.857177734375,95.6195068359375
1758877867.467673,-0.677734375,-0.1748046875,0.712890625,-16.11328125,1.52587890625,0.48828125,-15.0787353515625,44.879150390625,95.6085205078125
1758877867.4780178,-0.677734375,-0.1748046875,0.712890625,-16.11328125,1.52587890625,0.48828125,-15.2325439453125,44.8956298828125,95.60302734375
1758877867.487337,-0.67138671875,-0.18505859375,0.71826171875,-14.46533203125,1.03759765625,0.91552734375,-15.3753662109375,44.912109375,95.60302734375
1758877867.4985988,-0.67138671875,-0.18505859375,0.71826171875,-14.46533203125,1.03759765625,0.91552734375,-15.5072021484375,44.923095703125,95.60302734375
1758877867.5072718,-0.6611328125,-0.20458984375,0.73486328125,-14.892578125,0.30517578125,1.220703125,-15.633544921875,44.9285888671875,95.60302734375
1758877867.517246,-0.6611328125,-0.20458984375,0.73486328125,-14.892578125,0.30517578125,1.220703125,-15.765380859375,44.9285888671875,95.614013671875
1758877867.5276313,-0.650390625,-0.19921875,0.75830078125,-16.78466796875,-0.48828125,1.5869140625,-15.9027099609375,44.923095703125,95.625
1758877867.537246,-0.650390625,-0.19921875,0.75830078125,-16.78466796875,-0.48828125,1.5869140625,-16.0455322265625,44.912109375,95.6414794921875
1758877867.547322,-0.650390625,-0.19921875,0.75830078125,-18.85986328125,-2.01416015625,1.64794921875,-16.19384765625,44.89013671875,95.657958984375
1758877867.5572436,-0.62744140625,-0.18798828125,0.78125,-18.85986328125,-2.01416015625,1.64794921875,-16.3531494140625,44.8626708984375,95.6744384765625
1758877867.5678093,-0.607421875,-0.18310546875,0.79296875,-21.17919921875,-4.08935546875,1.5869140625,-16.512451171875,44.8187255859375,95.701904296875
1758877867.5774515,-0.607421875,-0.18310546875,0.79296875,-21.17919921875,-4.08935546875,1.5869140625,-16.6827392578125,44.7637939453125,95.723876953125
1758877867.587349,-0.59228515625,-0.17626953125,0.7939453125,-23.25439453125,-6.4697265625,1.03759765625,-16.864013671875,44.6923828125,95.7513427734375
1758877867.5980308,-0.59228515625,-0.17626953125,0.7939453125,-23.25439453125,-6.4697265625,1.03759765625,-17.0452880859375,44.6099853515625,95.77880859375
1758877867.607418,-0.56494140625,-0.171875,0.80322265625,-24.90234375,-7.99560546875,0.8544921875,-17.237548828125,44.5166015625,95.8062744140625
1758877867.6174698,-0.56494140625,-0.171875,0.80322265625,-24.90234375,-7.99560546875,0.8544921875,-17.435302734375,44.4122314453125,95.8392333984375
1758877867.6279142,-0.5517578125,-0.20361328125,0.82177734375,-31.79931640625,-8.30078125,2.01416015625,-17.655029296875,44.307861328125,95.8721923828125
1758877867.6374547,-0.5517578125,-0.20361328125,0.82177734375,-31.79931640625,-8.30078125,2.01416015625,-17.9022216796875,44.197998046875,95.921630859375
1758877867.647453,-0.56298828125,-0.2607421875,0.83349609375,-30.82275390625,-8.544921875,3.0517578125,-18.138427734375,44.088134765625,95.9765625
1758877867.6575215,-0.56298828125,-0.2607421875,0.83349609375,-30.82275390625,-8.544921875,3.0517578125,-18.369140625,43.9727783203125,96.0369873046875
1758877867.6679308,-0.58642578125,-0.2861328125,0.78955078125,-13.5498046875,-9.33837890625,2.62451171875,-18.511962890625,43.857421875,96.097412109375
1758877867.6777327,-0.58642578125,-0.2861328125,0.78955078125,-13.5498046875,-9.33837890625,2.62451171875,-18.5723876953125,43.736572265625,96.1578369140625
1758877867.6874697,-0.611328125,-0.26513671875,0.7578125,20.8740234375,-9.33837890625,1.3427734375,-18.4735107421875,43.6102294921875,96.207275390625
1758877867.6980755,-0.611328125,-0.26513671875,0.7578125,20.8740234375,-9.33837890625,1.3427734375,-18.2098388671875,43.48388671875,96.251220703125
1758877867.7076044,-0.64111328125,-0.279296875,0.72314453125,41.8701171875,-8.544921875,0.0,-17.852783203125,43.363037109375,96.2841796875
1758877867.7175,-0.64111328125,-0.279296875,0.72314453125,41.8701171875,-8.544921875,0.0,-17.4078369140625,43.2421875,96.3116455078125
1758877867.7283797,-0.630859375,-0.23095703125,0.70263671875,36.43798828125,-6.89697265625,-0.67138671875,-16.995849609375,43.13232421875,96.3226318359375
1758877867.7375507,-0.630859375,-0.23095703125,0.70263671875,36.43798828125,-6.89697265625,-0.67138671875,-16.622314453125,43.033447265625,96.3336181640625
1758877867.7480173,-0.591796875,-0.1884765625,0.6962890625,21.728515625,-4.82177734375,-0.54931640625,-16.32568359375,42.945556640625,96.339111328125
1758877867.7577302,-0.591796875,-0.1884765625,0.6962890625,21.728515625,-4.82177734375,-0.54931640625,-16.1114501953125,42.86865234375,96.339111328125
1758877867.7688935,-0.5751953125,-0.14501953125,0.62841796875,8.97216796875,-2.197265625,0.0,-15.9521484375,42.8082275390625,96.3446044921875
1758877867.7777574,-0.5751953125,-0.14501953125,0.62841796875,8.97216796875,-2.197265625,0.0,-15.8642578125,42.7587890625,96.3446044921875
1758877867.7883697,-0.5546875,-0.15673828125,0.57080078125,-3.90625,0.0,0.0,-15.8367919921875,42.725830078125,96.339111328125
1758877867.798196,-0.5546875,-0.15673828125,0.57080078125,-3.90625,0.0,0.0,-15.8807373046875,42.703857421875,96.328125
1758877867.808075,-0.6357421875,-0.18603515625,0.67431640625,-6.591796875,0.9765625,0.42724609375,-15.93017578125,42.69287109375,96.3226318359375
1758877867.8178174,-0.6357421875,-0.18603515625,0.67431640625,-6.591796875,0.9765625,0.42724609375,-15.99609375,42.681884765625,96.3226318359375
1758877867.8292127,-0.76025390625,-0.2490234375,0.8046875,9.94873046875,0.91552734375,0.6103515625,-15.9796142578125,42.6763916015625,96.317138671875
1758877867.8377626,-0.76025390625,-0.2490234375,0.8046875,9.94873046875,0.91552734375,0.6103515625,-15.875244140625,42.6763916015625,96.317138671875
1758877867.8482962,-0.81298828125,-0.30029296875,0.79345703125,21.54541015625,-1.220703125,-0.54931640625,-15.721435546875,42.659912109375,96.317138671875
1758877867.8578897,-0.81298828125,-0.30029296875,0.79345703125,21.54541015625,-1.220703125,-0.54931640625,-15.5181884765625,42.637939453125,96.3116455078125
1758877867.868961,-0.70654296875,-0.2275390625,0.6455078125,22.88818359375,-2.86865234375,-1.64794921875,-15.3094482421875,42.60498046875,96.30615234375
1758877867.8779383,-0.70654296875,-0.2275390625,0.6455078125,22.88818359375,-2.86865234375,-1.64794921875,-15.1007080078125,42.5665283203125,96.295166015625
1758877867.888309,-0.6728515625,-0.18212890625,0.5498046875,26.30615234375,-3.0517578125,-2.3193359375,-14.8809814453125,42.5335693359375,96.2786865234375
1758877867.8982563,-0.6728515625,-0.18212890625,0.5498046875,26.30615234375,-3.0517578125,-2.3193359375,-14.6502685546875,42.5006103515625,96.26220703125
1758877867.9082954,-0.74169921875,-0.2099609375,0.64404296875,35.15625,-3.90625,-3.90625,-14.381103515625,42.462158203125,96.240234375
1758877867.9179316,-0.74169921875,-0.2099609375,0.64404296875,35.15625,-3.90625,-3.90625,-14.0789794921875,42.4237060546875,96.207275390625
1758877867.9288929,-0.92724609375,-0.17578125,0.923828125,20.8740234375,-7.26318359375,-4.638671875,-13.8427734375,42.3687744140625,96.17431640625
1758877867.9404273,-0.92724609375,-0.17578125,0.923828125,20.8740234375,-7.26318359375,-4.638671875,-13.677978515625,42.29736328125,96.141357421875
1758877867.9480488,-0.7939453125,-0.0556640625,0.70068359375,-2.9296875,-8.23974609375,-5.2490234375,-13.6285400390625,42.2259521484375,96.1083984375
1758877867.9579177,-0.7939453125,-0.0556640625,0.70068359375,-2.9296875,-8.23974609375,-5.2490234375,-13.6944580078125,42.1490478515625,96.0699462890625
1758877867.9683313,-0.69091796875,-0.11962890625,0.55810546875,2.38037109375,-9.3994140625,-5.55419921875,-13.7274169921875,42.066650390625,96.0260009765625
1758877867.9780488,-0.69091796875,-0.11962890625,0.55810546875,2.38037109375,-9.3994140625,-5.55419921875,-13.73291015625,41.9842529296875,95.9820556640625
1758877867.9877996,-0.7529296875,-0.2431640625,0.61962890625,5.2490234375,-7.8125,-6.8359375,-13.73291015625,41.912841796875,95.9326171875
1758877867.9984481,-0.7529296875,-0.2431640625,0.61962890625,5.2490234375,-7.8125,-6.8359375,-13.7274169921875,41.846923828125,95.8721923828125
1758877868.007849,-0.80712890625,-0.19091796875,0.630859375,-0.8544921875,-7.32421875,-9.033203125,-13.765869140625,41.781005859375,95.7952880859375
1758877868.0180392,-0.80712890625,-0.19091796875,0.630859375,-0.8544921875,-7.32421875,-9.033203125,-13.8482666015625,41.7205810546875,95.7073974609375
1758877868.028381,-0.79638671875,-0.11669921875,0.62548828125,1.40380859375,-6.2255859375,-10.80322265625,-13.9251708984375,41.6656494140625,95.6085205078125
1758877868.0380874,-0.79638671875,-0.11669921875,0.62548828125,1.40380859375,-6.2255859375,-10.80322265625,-13.99658203125,41.6162109375,95.4931640625
1758877868.047928,-0.763671875,-0.1328125,0.595703125,-3.96728515625,-4.69970703125,-10.68115234375,-14.095458984375,41.5777587890625,95.3778076171875
1758877868.058837,-0.763671875,-0.1328125,0.595703125,-3.96728515625,-4.69970703125,-10.68115234375,-14.21630859375,41.5447998046875,95.2569580078125
1758877868.0685377,-0.74560546875,-0.1923828125,0.625,-8.23974609375,-3.47900390625,-10.80322265625,-14.359130859375,41.5228271484375,95.1361083984375
1758877868.0782528,-0.74560546875,-0.1923828125,0.625,-8.23974609375,-3.47900390625,-10.80322265625,-14.5294189453125,41.50634765625,95.009765625
1758877868.0879078,-0.72509765625,-0.2421875,0.6357421875,-0.91552734375,-2.74658203125,-11.474609375,-14.666748046875,41.4898681640625,94.8834228515625
1758877868.0988028,-0.72509765625,-0.2421875,0.6357421875,-0.91552734375,-2.74658203125,-11.474609375,-14.7711181640625,41.4788818359375,94.74609375
1758877868.1079512,-0.720703125,-0.23876953125,0.64111328125,7.87353515625,-2.25830078125,-11.65771484375,-14.8370361328125,41.46240234375,94.6142578125
1758877868.1181803,-0.720703125,-0.23876953125,0.64111328125,7.87353515625,-2.25830078125,-11.65771484375,-14.864501953125,41.451416015625,94.4769287109375
1758877868.1288378,-0.72509765625,-0.21142578125,0.65673828125,12.75634765625,-1.15966796875,-11.53564453125,-14.864501953125,41.4459228515625,94.3450927734375
1758877868.138256,-0.72509765625,-0.21142578125,0.65673828125,12.75634765625,-1.15966796875,-11.53564453125,-14.8480224609375,41.4404296875,94.207763671875
1758877868.1480684,-0.71533203125,-0.1806640625,0.6640625,11.71875,-0.244140625,-11.65771484375,-14.83154296875,41.4459228515625,94.0704345703125
1758877868.1626873,-0.71533203125,-0.1806640625,0.6640625,11.71875,-0.244140625,-11.65771484375,-14.8260498046875,41.4459228515625,93.9276123046875
1758877868.1695566,-0.712890625,-0.171875,0.67626953125,8.544921875,0.79345703125,-11.3525390625,-14.8370361328125,41.4569091796875,93.7847900390625
1758877868.1791327,-0.712890625,-0.171875,0.67626953125,8.544921875,0.79345703125,-11.3525390625,-14.8590087890625,41.4678955078125,93.6419677734375
1758877868.1881113,-0.70556640625,-0.19482421875,0.69482421875,6.7138671875,1.89208984375,-10.92529296875,-14.8974609375,41.495361328125,93.49365234375
1758877868.1995132,-0.70556640625,-0.19482421875,0.69482421875,6.7138671875,1.89208984375,-10.92529296875,-14.9359130859375,41.517333984375,93.350830078125
1758877868.2080858,-0.69384765625,-0.21533203125,0.68896484375,7.4462890625,2.74658203125,-10.6201171875,-14.96337890625,41.5447998046875,93.2025146484375
1758877868.219018,-0.69384765625,-0.21533203125,0.68896484375,7.4462890625,2.74658203125,-10.6201171875,-14.996337890625,41.572265625,93.05419921875
1758877868.2294374,-0.671875,-0.2109375,0.69775390625,10.3759765625,2.99072265625,-10.25390625,-14.996337890625,41.5997314453125,92.911376953125
1758877868.2403347,-0.671875,-0.2109375,0.69775390625,10.3759765625,2.99072265625,-10.25390625,-14.9908447265625,41.627197265625,92.7685546875
1758877868.2491245,-0.650390625,-0.20068359375,0.72900390625,11.3525390625,2.74658203125,-9.765625,-14.9798583984375,41.649169921875,92.6312255859375
1758877868.2593012,-0.650390625,-0.20068359375,0.72900390625,11.3525390625,2.74658203125,-9.765625,-14.96337890625,41.6656494140625,92.4884033203125
1758877868.2686067,-0.6396484375,-0.19091796875,0.7470703125,8.85009765625,2.0751953125,-8.9111328125,-14.96337890625,41.68212890625,92.362060546875
1758877868.2782755,-0.6396484375,-0.19091796875,0.7470703125,8.85009765625,2.0751953125,-8.9111328125,-14.9578857421875,41.6876220703125,92.2357177734375
1758877868.2881877,-0.63525390625,-0.1953125,0.75634765625,5.126953125,1.708984375,-7.87353515625,-14.9853515625,41.693115234375,92.120361328125
1758877868.2982576,-0.63525390625,-0.1953125,0.75634765625,5.126953125,1.708984375,-7.87353515625,-15.00732421875,41.6986083984375,92.0050048828125
1758877868.3088253,-0.62744140625,-0.2021484375,0.7490234375,4.21142578125,1.40380859375,-7.32421875,-15.0347900390625,41.6986083984375,91.8951416015625
1758877868.3183365,-0.62744140625,-0.2021484375,0.7490234375,4.21142578125,1.40380859375,-7.32421875,-15.062255859375,41.6986083984375,91.7852783203125
1758877868.3283246,-0.63330078125,-0.20361328125,0.744140625,7.9345703125,1.03759765625,-7.4462890625,-15.05126953125,41.6876220703125,91.680908203125
1758877868.338801,-0.63330078125,-0.20361328125,0.744140625,7.9345703125,1.03759765625,-7.4462890625,-15.0457763671875,41.6766357421875,91.571044921875
1758877868.3483388,-0.6328125,-0.197265625,0.75048828125,8.056640625,0.6103515625,-7.75146484375,-15.0347900390625,41.6656494140625,91.4556884765625
1758877868.3585246,-0.6328125,-0.197265625,0.75048828125,8.056640625,0.6103515625,-7.75146484375,-15.0238037109375,41.649169921875,91.3458251953125
1758877868.3687005,-0.64111328125,-0.18017578125,0.75146484375,8.85009765625,0.732421875,-7.99560546875,-15.00732421875,41.627197265625,91.2249755859375
1758877868.3783746,-0.64111328125,-0.18017578125,0.75146484375,8.85009765625,0.732421875,-7.99560546875,-14.9853515625,41.6107177734375,91.109619140625
1758877868.3883107,-0.62255859375,-0.18798828125,0.7744140625,6.9580078125,0.79345703125,-8.056640625,-14.9908447265625,41.59423828125,90.9942626953125
1758877868.3987615,-0.62255859375,-0.18798828125,0.7744140625,6.9580078125,0.79345703125,-8.056640625,-14.9908447265625,41.572265625,90.8734130859375
1758877868.4083242,-0.6240234375,-0.197265625,0.7646484375,7.080078125,1.40380859375,-8.1787109375,-14.9908447265625,41.5557861328125,90.7525634765625
1758877868.418397,-0.6240234375,-0.197265625,0.7646484375,7.080078125,1.40380859375,-8.1787109375,-14.9908447265625,41.539306640625,90.626220703125
1758877868.4288836,-0.6171875,-0.1953125,0.7666015625,8.97216796875,1.77001953125,-8.60595703125,-14.974365234375,41.5228271484375,90.494384765625
1758877868.438421,-0.6171875,-0.1953125,0.7666015625,8.97216796875,1.77001953125,-8.60595703125,-14.96337890625,41.50634765625,90.362548828125
1758877868.4484591,-0.61083984375,-0.18994140625,0.77197265625,12.0849609375,2.0751953125,-9.1552734375,-14.91943359375,41.4898681640625,90.2252197265625
1758877868.4585016,-0.61083984375,-0.18994140625,0.77197265625,12.0849609375,2.0751953125,-9.1552734375,-14.8809814453125,41.473388671875,90.0823974609375
1758877868.4686687,-0.609375,-0.189453125,0.78125,14.6484375,2.13623046875,-9.70458984375,-14.820556640625,41.4569091796875,89.93408203125
1758877868.47854,-0.609375,-0.189453125,0.78125,14.6484375,2.13623046875,-9.70458984375,-14.7601318359375,41.4349365234375,89.7857666015625
1758877868.4886773,-0.6015625,-0.19091796875,0.78173828125,13.73291015625,2.44140625,-9.58251953125,-14.7052001953125,41.41845703125,89.637451171875
1758877868.4988327,-0.6015625,-0.19091796875,0.78173828125,13.73291015625,2.44140625,-9.58251953125,-14.65576171875,41.4019775390625,89.49462890625
1758877868.508538,-0.59716796875,-0.19384765625,0.7919921875,10.07080078125,2.8076171875,-9.46044921875,-14.6392822265625,41.385498046875,89.3463134765625
1758877868.5185947,-0.59716796875,-0.19384765625,0.7919921875,10.07080078125,2.8076171875,-9.46044921875,-14.622802734375,41.3690185546875,89.197998046875
1758877868.529245,-0.61181640625,-0.18603515625,0.79052734375,13.0615234375,3.41796875,-9.8876953125,-14.578857421875,41.3580322265625,89.044189453125
1758877868.5386918,-0.61181640625,-0.18603515625,0.79052734375,13.0615234375,3.41796875,-9.8876953125,-14.5404052734375,41.3470458984375,88.890380859375
1758877868.5485392,-0.61181640625,-0.18603515625,0.79052734375,18.73779296875,3.90625,-10.6201171875,-14.447021484375,41.3360595703125,88.7255859375
1758877868.5588179,-0.62255859375,-0.18994140625,0.76513671875,18.73779296875,3.90625,-10.6201171875,-14.359130859375,41.3250732421875,88.560791015625
1758877868.5688844,-0.63916015625,-0.20166015625,0.75244140625,19.8974609375,4.150390625,-11.41357421875,-14.2657470703125,41.319580078125,88.385009765625
1758877868.5787947,-0.63916015625,-0.20166015625,0.75244140625,19.8974609375,4.150390625,-11.41357421875,-14.17236328125,41.30859375,88.209228515625
1758877868.5888379,-0.64892578125,-0.19580078125,0.74609375,23.5595703125,3.7841796875,-11.962890625,-14.0460205078125,41.3031005859375,88.0279541015625
1758877868.5989406,-0.64892578125,-0.19580078125,0.74609375,23.5595703125,3.7841796875,-11.962890625,-13.9251708984375,41.2921142578125,87.8466796875
1758877868.6086152,-0.662109375,-0.19482421875,0.7255859375,29.35791015625,3.2958984375,-12.5732421875,-13.7493896484375,41.2811279296875,87.659912109375
1758877868.618625,-0.662109375,-0.19482421875,0.7255859375,29.35791015625,3.2958984375,-12.5732421875,-13.5736083984375,41.2701416015625,87.47314453125
1758877868.6291554,-0.66650390625,-0.18896484375,0.69580078125,27.34375,3.2958984375,-12.8173828125,-13.4197998046875,41.2591552734375,87.286376953125
1758877868.6387553,-0.66650390625,-0.18896484375,0.69580078125,27.34375,3.2958984375,-12.8173828125,-13.271484375,41.253662109375,87.0941162109375
1758877868.6487157,-0.66650390625,-0.166015625,0.72119140625,22.3388671875,3.47900390625,-13.0615234375,-13.172607421875,41.2481689453125,86.90185546875
1758877868.658884,-0.66650390625,-0.166015625,0.72119140625,22.3388671875,3.47900390625,-13.0615234375,-13.0792236328125,41.24267578125,86.7041015625
1758877868.6691265,-0.6796875,-0.15673828125,0.720703125,20.93505859375,3.662109375,-13.18359375,-12.996826171875,41.24267578125,86.50634765625
1758877868.678932,-0.6796875,-0.15673828125,0.720703125,20.93505859375,3.662109375,-13.18359375,-12.908935546875,41.2481689453125,86.30859375
1758877868.688799,-0.68115234375,-0.158203125,0.7158203125,22.3388671875,3.5400390625,-13.3056640625,-12.8155517578125,41.2481689453125,86.11083984375
1758877868.6990838,-0.68115234375,-0.158203125,0.7158203125,22.3388671875,3.5400390625,-13.3056640625,-12.7166748046875,41.253662109375,85.9130859375
1758877868.7088315,-0.6923828125,-0.1572265625,0.708984375,19.83642578125,3.90625,-13.18359375,-12.645263671875,41.2646484375,85.71533203125
1758877868.7188063,-0.6923828125,-0.1572265625,0.708984375,19.83642578125,3.90625,-13.18359375,-12.5738525390625,41.275634765625,85.5120849609375
1758877868.7294085,-0.68701171875,-0.158203125,0.701171875,17.578125,4.45556640625,-13.18359375,-12.5244140625,41.2921142578125,85.308837890625
1758877868.7388732,-0.68701171875,-0.158203125,0.701171875,17.578125,4.45556640625,-13.18359375,-12.4749755859375,41.30859375,85.1055908203125
1758877868.7490375,-0.68505859375,-0.1708984375,0.6962890625,18.73779296875,5.37109375,-13.24462890625,-12.41455078125,41.3360595703125,84.8968505859375
1758877868.7591796,-0.68505859375,-0.1708984375,0.6962890625,18.73779296875,5.37109375,-13.24462890625,-12.3541259765625,41.3690185546875,84.6881103515625
1758877868.7691383,-0.67529296875,-0.16943359375,0.70654296875,22.0947265625,6.2255859375,-13.5498046875,-12.271728515625,41.4019775390625,84.473876953125
1758877868.7789083,-0.67529296875,-0.16943359375,0.70654296875,22.0947265625,6.2255859375,-13.5498046875,-12.183837890625,41.4404296875,84.2596435546875
1758877868.788902,-0.67919921875,-0.154296875,0.72998046875,20.20263671875,7.50732421875,-13.671875,-12.1234130859375,41.4898681640625,84.0399169921875
1758877868.799448,-0.67919921875,-0.154296875,0.72998046875,20.20263671875,7.50732421875,-13.671875,-12.0574951171875,41.5447998046875,83.8201904296875
1758877868.8088946,-0.66357421875,-0.1357421875,0.73291015625,17.7001953125,8.36181640625,-14.0380859375,-12.0245361328125,41.5997314453125,83.5894775390625
1758877868.8189325,-0.66357421875,-0.1357421875,0.73291015625,17.7001953125,8.36181640625,-14.0380859375,-11.986083984375,41.6546630859375,83.3587646484375
1758877868.829083,-0.66259765625,-0.1513671875,0.7451171875,17.4560546875,8.85009765625,-14.34326171875,-11.9586181640625,41.715087890625,83.1280517578125
1758877868.8408437,-0.66259765625,-0.1513671875,0.7451171875,17.4560546875,8.85009765625,-14.34326171875,-11.9256591796875,41.7755126953125,82.891845703125
1758877868.8500078,-0.6455078125,-0.14501953125,0.744140625,16.6015625,8.30078125,-14.70947265625,-11.9091796875,41.824951171875,82.6556396484375
1758877868.8592856,-0.6455078125,-0.14501953125,0.744140625,16.6015625,8.30078125,-14.70947265625,-11.88720703125,41.8743896484375,82.4139404296875
1758877868.869437,-0.63232421875,-0.1474609375,0.7373046875,18.24951171875,7.4462890625,-15.13671875,-11.854248046875,41.9183349609375,82.1722412109375
1758877868.879052,-0.63232421875,-0.1474609375,0.7373046875,18.24951171875,7.4462890625,-15.13671875,-11.8212890625,41.956787109375,81.9305419921875
1758877868.889024,-0.6416015625,-0.15185546875,0.74609375,18.310546875,6.34765625,-15.19775390625,-11.7828369140625,41.9842529296875,81.6888427734375
1758877868.8995507,-0.6416015625,-0.15185546875,0.74609375,18.310546875,6.34765625,-15.19775390625,-11.744384765625,42.0062255859375,81.45263671875
1758877868.909013,-0.65771484375,-0.15478515625,0.7548828125,13.73291015625,5.67626953125,-14.7705078125,-11.7498779296875,42.0281982421875,81.2164306640625
1758877868.9190662,-0.65771484375,-0.15478515625,0.7548828125,13.73291015625,5.67626953125,-14.7705078125,-11.75537109375,42.0501708984375,80.9857177734375
1758877868.9293833,-0.67529296875,-0.14697265625,0.74072265625,11.5966796875,5.4931640625,-14.22119140625,-11.77734375,42.066650390625,80.760498046875
1758877868.9393854,-0.67529296875,-0.14697265625,0.74072265625,11.5966796875,5.4931640625,-14.22119140625,-11.7938232421875,42.088623046875,80.52978515625
1758877868.949122,-0.66943359375,-0.158203125,0.70361328125,12.451171875,5.615234375,-14.09912109375,-11.8048095703125,42.1051025390625,80.3045654296875
1758877868.9591384,-0.66943359375,-0.158203125,0.70361328125,12.451171875,5.615234375,-14.09912109375,-11.8157958984375,42.1270751953125,80.079345703125
1758877868.9696646,-0.66748046875,-0.16845703125,0.70947265625,14.404296875,5.79833984375,-14.22119140625,-11.810302734375,42.154541015625,79.8541259765625
1758877868.9792042,-0.66748046875,-0.16845703125,0.70947265625,14.404296875,5.79833984375,-14.22119140625,-11.8048095703125,42.176513671875,79.6234130859375
1758877868.9891362,-0.67138671875,-0.15576171875,0.7314453125,17.7001953125,6.2255859375,-14.34326171875,-11.7718505859375,42.20947265625,79.38720703125
1758877868.9995513,-0.67138671875,-0.15576171875,0.7314453125,17.7001953125,6.2255859375,-14.34326171875,-11.7333984375,42.2369384765625,79.156494140625
1758877869.009324,-0.6728515625,-0.1328125,0.72998046875,17.76123046875,6.16455078125,-14.404296875,-11.700439453125,42.264404296875,78.9202880859375
1758877869.0191882,-0.6728515625,-0.1328125,0.72998046875,17.76123046875,6.16455078125,-14.404296875,-11.6619873046875,42.2918701171875,78.68408203125
1758877869.029304,-0.6748046875,-0.13134765625,0.73046875,13.48876953125,5.79833984375,-14.22119140625,-11.66748046875,42.3193359375,78.4478759765625
1758877869.0393157,-0.6748046875,-0.13134765625,0.73046875,13.48876953125,5.79833984375,-14.22119140625,-11.66748046875,42.34130859375,78.2171630859375
1758877869.049258,-0.68310546875,-0.15869140625,0.71337890625,10.25390625,5.43212890625,-13.916015625,-11.700439453125,42.36328125,77.9864501953125
1758877869.060196,-0.68310546875,-0.15869140625,0.71337890625,10.25390625,5.43212890625,-13.916015625,-11.7279052734375,42.3907470703125,77.7557373046875
1758877869.0697002,-0.6708984375,-0.171875,0.7119140625,10.80322265625,5.31005859375,-13.85498046875,-11.75537109375,42.4127197265625,77.530517578125
1758877869.0793338,-0.6708984375,-0.171875,0.7119140625,10.80322265625,5.31005859375,-13.85498046875,-11.7828369140625,42.4346923828125,77.2998046875
1758877869.089307,-0.65869140625,-0.1640625,0.7119140625,13.671875,5.31005859375,-13.61083984375,-11.7828369140625,42.4566650390625,77.0745849609375
1758877869.099651,-0.65869140625,-0.1640625,0.7119140625,13.671875,5.31005859375,-13.61083984375,-11.77734375,42.4786376953125,76.849365234375
1758877869.1095755,-0.66455078125,-0.15380859375,0.72412109375,15.0146484375,5.18798828125,-13.61083984375,-11.7608642578125,42.5006103515625,76.6241455078125
1758877869.1193233,-0.66455078125,-0.15380859375,0.72412109375,15.0146484375,5.18798828125,-13.61083984375,-11.744384765625,42.5225830078125,76.4044189453125
1758877869.129527,-0.6611328125,-0.1376953125,0.7314453125,15.80810546875,4.94384765625,-13.85498046875,-11.722412109375,42.5390625,76.1737060546875
1758877869.1425536,-0.6611328125,-0.1376953125,0.7314453125,15.80810546875,4.94384765625,-13.85498046875,-11.700439453125,42.5555419921875,75.948486328125
1758877869.1517212,-0.65771484375,-0.14306640625,0.72998046875,16.4794921875,4.8828125,-13.73291015625,-11.6729736328125,42.572021484375,75.7232666015625
1758877869.1596048,-0.65771484375,-0.14306640625,0.72998046875,16.4794921875,4.8828125,-13.73291015625,-11.6400146484375,42.5885009765625,75.498046875
1758877869.1698346,-0.65380859375,-0.14501953125,0.73388671875,14.6484375,4.7607421875,-13.61083984375,-11.62353515625,42.60498046875,75.2728271484375
1758877869.1800883,-0.64794921875,-0.13671875,0.74560546875,13.85498046875,4.7607421875,-13.427734375,-11.612548828125,42.615966796875,75.047607421875
1758877869.1894464,-0.64794921875,-0.13671875,0.74560546875,13.85498046875,4.7607421875,-13.427734375,-11.6070556640625,42.6324462890625,74.827880859375
1758877869.1996129,-0.65087890625,-0.14013671875,0.7412109375,15.13671875,4.69970703125,-13.24462890625,-11.590576171875,42.6434326171875,74.608154296875
1758877869.2098117,-0.65087890625,-0.14013671875,0.7412109375,15.13671875,4.69970703125,-13.24462890625,-11.5631103515625,42.6544189453125,74.388427734375
1758877869.2195113,-0.6474609375,-0.1357421875,0.74169921875,15.80810546875,4.5166015625,-13.3056640625,-11.53564453125,42.6654052734375,74.168701171875
1758877869.2294567,-0.6474609375,-0.1357421875,0.74169921875,15.80810546875,4.5166015625,-13.3056640625,-11.502685546875,42.6763916015625,73.948974609375
1758877869.2396424,-0.65380859375,-0.146484375,0.73876953125,12.26806640625,4.21142578125,-13.12255859375,-11.49169921875,42.681884765625,73.7347412109375
1758877869.249469,-0.65380859375,-0.146484375,0.73876953125,12.26806640625,4.21142578125,-13.12255859375,-11.49169921875,42.69287109375,73.5205078125
1758877869.259488,-0.64453125,-0.13818359375,0.763671875,5.4931640625,3.5400390625,-12.51220703125,-11.524658203125,42.69287109375,73.311767578125
1758877869.2697833,-0.64453125,-0.13818359375,0.763671875,5.4931640625,3.5400390625,-12.51220703125,-11.5850830078125,42.69287109375,73.10302734375
1758877869.2796497,-0.64208984375,-0.1455078125,0.74365234375,4.150390625,3.2958984375,-11.71875,-11.6510009765625,42.69287109375,72.9052734375
1758877869.2895732,-0.64208984375,-0.1455078125,0.74365234375,4.150390625,3.2958984375,-11.71875,-11.7169189453125,42.6873779296875,72.7130126953125
1758877869.299845,-0.64111328125,-0.1708984375,0.72998046875,3.23486328125,2.74658203125,-10.986328125,-11.7828369140625,42.681884765625,72.520751953125
1758877869.309685,-0.64111328125,-0.1708984375,0.72998046875,3.23486328125,2.74658203125,-10.986328125,-11.854248046875,42.6763916015625,72.3394775390625
1758877869.3195343,-0.66259765625,-0.18994140625,0.7158203125,4.39453125,2.74658203125,-10.25390625,-11.9146728515625,42.6708984375,72.1636962890625
1758877869.3296142,-0.66259765625,-0.18994140625,0.7158203125,4.39453125,2.74658203125,-10.25390625,-11.9696044921875,42.6654052734375,71.993408203125
1758877869.3399806,-0.67431640625,-0.18359375,0.6611328125,8.48388671875,2.9296875,-9.46044921875,-11.9970703125,42.6654052734375,71.82861328125
1758877869.3496947,-0.67431640625,-0.18359375,0.6611328125,8.48388671875,2.9296875,-9.46044921875,-12.008056640625,42.6654052734375,71.663818359375
1758877869.359659,-0.6806640625,-0.1796875,0.69775390625,19.775390625,3.11279296875,-8.9111328125,-11.9586181640625,42.6708984375,71.5045166015625
1758877869.369996,-0.6806640625,-0.1796875,0.69775390625,19.775390625,3.11279296875,-8.9111328125,-11.854248046875,42.6763916015625,71.34521484375
1758877869.3796582,-0.708984375,-0.20166015625,0.7216796875,27.64892578125,3.72314453125,-8.36181640625,-11.71142578125,42.6873779296875,71.19140625
1758877869.3896809,-0.708984375,-0.20166015625,0.7216796875,27.64892578125,3.72314453125,-8.36181640625,-11.524658203125,42.703857421875,71.03759765625
1758877869.3997014,-0.72705078125,-0.18408203125,0.6943359375,30.70068359375,3.662109375,-7.87353515625,-11.326904296875,42.7203369140625,70.8892822265625
1758877869.4101346,-0.72705078125,-0.18408203125,0.6943359375,30.70068359375,3.662109375,-7.87353515625,-11.1126708984375,42.7423095703125,70.7464599609375
1758877869.4197073,-0.74853515625,-0.14892578125,0.677734375,36.19384765625,3.84521484375,-7.01904296875,-10.8709716796875,42.769775390625,70.6036376953125
1758877869.4301207,-0.74853515625,-0.14892578125,0.677734375,36.19384765625,3.84521484375,-7.01904296875,-10.5963134765625,42.7972412109375,70.46630859375
1758877869.4397051,-0.76416015625,-0.1201171875,0.68017578125,34.24072265625,3.173828125,-6.103515625,-10.3271484375,42.82470703125,70.3399658203125
1758877869.4497306,-0.76416015625,-0.1201171875,0.68017578125,34.24072265625,3.173828125,-6.103515625,-10.0634765625,42.8521728515625,70.213623046875
1758877869.4600048,-0.75390625,-0.0869140625,0.666015625,22.705078125,2.5634765625,-5.2490234375,-9.8492431640625,42.8851318359375,70.0982666015625
1758877869.4702027,-0.75390625,-0.0869140625,0.666015625,22.705078125,2.5634765625,-5.2490234375,-9.68994140625,42.91259765625,69.98291015625
1758877869.4798143,-0.75390625,-0.0693359375,0.64697265625,12.26806640625,2.13623046875,-4.150390625,-9.5745849609375,42.9400634765625,69.873046875
1758877869.4898658,-0.75390625,-0.0693359375,0.64697265625,12.26806640625,2.13623046875,-4.150390625,-9.4976806640625,42.9730224609375,69.774169921875
1758877869.5002804,-0.7412109375,-0.0859375,0.66455078125,6.28662109375,1.708984375,-3.11279296875,-9.4482421875,43.0059814453125,69.6807861328125
1758877869.5098956,-0.7412109375,-0.0859375,0.66455078125,6.28662109375,1.708984375,-3.11279296875,-9.4207763671875,43.033447265625,69.58740234375
1758877869.5198658,-0.72998046875,-0.123046875,0.6640625,0.79345703125,1.708984375,-2.44140625,-9.4207763671875,43.06640625,69.5050048828125
1758877869.5301335,-0.72998046875,-0.123046875,0.6640625,0.79345703125,1.708984375,-2.44140625,-9.437255859375,43.099365234375,69.422607421875
1758877869.539871,-0.71923828125,-0.138671875,0.66064453125,0.1220703125,1.8310546875,-2.197265625,-9.4647216796875,43.13232421875,69.345703125
1758877869.5499635,-0.71923828125,-0.138671875,0.66064453125,0.1220703125,1.8310546875,-2.197265625,-9.4866943359375,43.1707763671875,69.268798828125
1758877869.5598738,-0.71142578125,-0.1513671875,0.67138671875,7.26318359375,2.3193359375,-2.0751953125,-9.481201171875,43.209228515625,69.19189453125
1758877869.5704513,-0.71142578125,-0.1513671875,0.67138671875,7.26318359375,2.3193359375,-2.0751953125,-9.437255859375,43.2476806640625,69.114990234375
1758877869.5799797,-0.70849609375,-0.14013671875,0.68798828125,13.18359375,2.9296875,-2.25830078125,-9.3658447265625,43.2861328125,69.0380859375
1758877869.5901191,-0.70849609375,-0.14013671875,0.68798828125,13.18359375,2.9296875,-2.25830078125,-9.2669677734375,43.330078125,68.961181640625
1758877869.6004755,-0.6923828125,-0.1171875,0.703125,18.24951171875,3.23486328125,-2.50244140625,-9.1461181640625,43.3740234375,68.8787841796875
1758877869.6100752,-0.6923828125,-0.1171875,0.703125,18.24951171875,3.23486328125,-2.50244140625,-9.0032958984375,43.41796875,68.8018798828125
1758877869.6200066,-0.67578125,-0.103515625,0.7236328125,19.95849609375,3.173828125,-2.62451171875,-8.8494873046875,43.4619140625,68.719482421875
1758877869.6300874,-0.67578125,-0.103515625,0.7236328125,19.95849609375,3.173828125,-2.62451171875,-8.690185546875,43.5003662109375,68.6370849609375
1758877869.6399984,-0.66796875,-0.091796875,0.74853515625,18.61572265625,2.99072265625,-2.74658203125,-8.536376953125,43.538818359375,68.5546875
1758877869.6500711,-0.66796875,-0.091796875,0.74853515625,18.61572265625,2.99072265625,-2.74658203125,-8.3880615234375,43.57177734375,68.477783203125
1758877869.6603515,-0.66748046875,-0.08740234375,0.74462890625,18.6767578125,2.5634765625,-2.9296875,-8.23974609375,43.5992431640625,68.40087890625
1758877869.6700625,-0.66748046875,-0.08740234375,0.74462890625,18.6767578125,2.5634765625,-2.9296875,-8.0859375,43.626708984375,68.3184814453125
1758877869.6800184,-0.6650390625,-0.09228515625,0.736328125,20.99609375,2.0751953125,-3.11279296875,-7.9266357421875,43.648681640625,68.2415771484375
1758877869.6900952,-0.6650390625,-0.09228515625,0.736328125,20.99609375,2.0751953125,-3.11279296875,-7.75634765625,43.6651611328125,68.1646728515625
1758877869.7003987,-0.6650390625,-0.09912109375,0.751953125,22.88818359375,1.5869140625,-3.23486328125,-7.5750732421875,43.6761474609375,68.0877685546875
1758877869.710108,-0.6650390625,-0.09912109375,0.751953125,22.88818359375,1.5869140625,-3.23486328125,-7.3828125,43.6871337890625,68.0108642578125
1758877869.7201316,-0.6494140625,-0.1015625,0.76123046875,25.87890625,1.0986328125,-3.47900390625,-7.1795654296875,43.692626953125,67.9339599609375
1758877869.730426,-0.6494140625,-0.1015625,0.76123046875,25.87890625,1.0986328125,-3.47900390625,-6.96533203125,43.692626953125,67.8570556640625
1758877869.742277,-0.646484375,-0.0859375,0.76123046875,28.99169921875,0.79345703125,-3.35693359375,-6.734619140625,43.692626953125,67.78564453125
1758877869.751168,-0.646484375,-0.0859375,0.76123046875,28.99169921875,0.79345703125,-3.35693359375,-6.4874267578125,43.6871337890625,67.7142333984375
1758877869.760515,-0.625,-0.0732421875,0.80126953125,28.62548828125,0.1220703125,-3.11279296875,-6.240234375,43.681640625,67.642822265625
1758877869.7703583,-0.625,-0.0732421875,0.80126953125,28.62548828125,0.1220703125,-3.11279296875,-5.9930419921875,43.6651611328125,67.576904296875
1758877869.7801485,-0.6123046875,-0.076171875,0.81591796875,26.3671875,-0.30517578125,-3.0517578125,-5.7568359375,43.648681640625,67.5164794921875
1758877869.7906435,-0.6123046875,-0.076171875,0.81591796875,26.3671875,-0.30517578125,-3.0517578125,-5.5316162109375,43.626708984375,67.4560546875
1758877869.8004518,-0.61767578125,-0.05712890625,0.78515625,24.71923828125,-0.54931640625,-2.44140625,-5.3118896484375,43.5992431640625,67.401123046875
1758877869.8102915,-0.61767578125,-0.05712890625,0.78515625,24.71923828125,-0.54931640625,-2.44140625,-5.09765625,43.57177734375,67.3516845703125
1758877869.820235,-0.60693359375,-0.0595703125,0.78515625,22.705078125,-0.48828125,-1.64794921875,-4.888916015625,43.5443115234375,67.3077392578125
1758877869.8304203,-0.60693359375,-0.0595703125,0.78515625,22.705078125,-0.48828125,-1.64794921875,-4.6856689453125,43.516845703125,67.269287109375
1758877869.8402548,-0.58935546875,-0.04248046875,0.80029296875,12.939453125,-0.1220703125,-0.8544921875,-4.5318603515625,43.4893798828125,67.2418212890625
1758877869.8503246,-0.58935546875,-0.04248046875,0.80029296875,12.939453125,-0.1220703125,-0.8544921875,-4.41650390625,43.4619140625,67.21435546875
1758877869.8607583,-0.57470703125,-0.01806640625,0.80859375,9.6435546875,0.06103515625,-0.54931640625,-4.317626953125,43.4344482421875,67.1923828125
1758877869.8703232,-0.57470703125,-0.01806640625,0.80859375,9.6435546875,0.06103515625,-0.54931640625,-4.229736328125,43.4014892578125,67.1759033203125
1758877869.8802934,-0.57958984375,-0.03662109375,0.81640625,9.82666015625,0.06103515625,0.18310546875,-4.141845703125,43.3740234375,67.1649169921875
1758877869.8907828,-0.57958984375,-0.03662109375,0.81640625,9.82666015625,0.06103515625,0.18310546875,-4.04296875,43.341064453125,67.1539306640625
1758877869.9009159,-0.58740234375,-0.0595703125,0.791015625,4.5166015625,-0.244140625,0.91552734375,-3.966064453125,43.30810546875,67.1539306640625
1758877869.9104025,-0.58740234375,-0.0595703125,0.791015625,4.5166015625,-0.244140625,0.91552734375,-3.9166259765625,43.275146484375,67.159423828125
1758877869.9204483,-0.6240234375,-0.0380859375,0.76611328125,-1.89208984375,-0.42724609375,1.77001953125,-3.8946533203125,43.2366943359375,67.17041015625
1758877869.9304852,-0.6240234375,-0.0380859375,0.76611328125,-1.89208984375,-0.42724609375,1.77001953125,-3.8946533203125,43.2037353515625,67.1868896484375
1758877869.9404638,-0.7001953125,-0.0146484375,0.77734375,-4.69970703125,-0.54931640625,3.35693359375,-3.9056396484375,43.165283203125,67.21435546875
1758877869.9504478,-0.7001953125,-0.0146484375,0.77734375,-4.69970703125,-0.54931640625,3.35693359375,-3.922119140625,43.13232421875,67.247314453125
1758877869.9609737,-0.75732421875,0.00634765625,0.75537109375,-7.75146484375,-0.9765625,5.0048828125,-3.9385986328125,43.1048583984375,67.2967529296875
1758877869.970458,-0.75732421875,0.00634765625,0.75537109375,-7.75146484375,-0.9765625,5.0048828125,-3.966064453125,43.077392578125,67.34619140625
1758877869.980581,-0.77734375,-0.0556640625,0.6748046875,-5.0048828125,-1.28173828125,5.859375,-3.9715576171875,43.0499267578125,67.4066162109375
1758877869.9906387,-0.77734375,-0.0556640625,0.6748046875,-5.0048828125,-1.28173828125,5.859375,-3.9605712890625,43.0279541015625,67.467041015625
1758877870.0009177,-0.77734375,-0.0556640625,0.6748046875,2.74658203125,-1.0986328125,6.40869140625,-3.9111328125,43.0169677734375,67.532958984375
1758877870.010535,-0.77294921875,-0.1171875,0.68408203125,2.74658203125,-1.0986328125,6.40869140625,-3.8232421875,43.0059814453125,67.598876953125
1758877870.0205195,-0.74267578125,-0.1171875,0.66259765625,17.578125,-0.6103515625,6.40869140625,-3.6639404296875,43.00048828125,67.664794921875
1758877870.0306778,-0.74267578125,-0.1171875,0.66259765625,17.578125,-0.6103515625,6.40869140625,-3.438720703125,43.00048828125,67.730712890625
1758877870.0426745,-0.69873046875,-0.08447265625,0.67041015625,27.83203125,0.1220703125,6.34765625,-3.1640625,43.0059814453125,67.7911376953125
1758877870.0512884,-0.69873046875,-0.08447265625,0.67041015625,27.83203125,0.1220703125,6.34765625,-2.8399658203125,43.0169677734375,67.8570556640625
1758877870.0608027,-0.69873046875,-0.08447265625,0.67041015625,24.47509765625,0.91552734375,6.9580078125,-2.5323486328125,43.033447265625,67.9229736328125
1758877870.0708141,-0.673828125,-0.02490234375,0.705078125,24.47509765625,0.91552734375,6.9580078125,-2.2412109375,43.055419921875,67.9888916015625
1758877870.0806096,-0.669921875,0.02294921875,0.7177734375,10.80322265625,2.13623046875,8.056640625,-2.010498046875,43.077392578125,68.0712890625
1758877870.0907414,-0.669921875,0.02294921875,0.7177734375,10.80322265625,2.13623046875,8.056640625,-1.8402099609375,43.1103515625,68.1591796875
1758877870.1010294,-0.671875,0.03857421875,0.71484375,0.06103515625,2.38037109375,8.9111328125,-1.7193603515625,43.1378173828125,68.2525634765625
1758877870.1106608,-0.671875,0.03857421875,0.71484375,0.06103515625,2.38037109375,8.9111328125,-1.6424560546875,43.1707763671875,68.3514404296875
1758877870.1206903,-0.67578125,0.025390625,0.74853515625,-4.5166015625,2.5634765625,9.3994140625,-1.58203125,43.1982421875,68.455810546875
1758877870.1308827,-0.67578125,0.025390625,0.74853515625,-4.5166015625,2.5634765625,9.3994140625,-1.5435791015625,43.231201171875,68.565673828125
1758877870.1408246,-0.67138671875,0.00390625,0.74755859375,-10.43701171875,2.50244140625,9.58251953125,-1.527099609375,43.2586669921875,68.675537109375
1758877870.1508067,-0.67138671875,0.00390625,0.74755859375,-10.43701171875,2.50244140625,9.58251953125,-1.5435791015625,43.2861328125,68.785400390625
1758877870.1609912,-0.68115234375,0.00341796875,0.73779296875,-20.08056640625,2.50244140625,9.8876953125,-1.5985107421875,43.3135986328125,68.9007568359375
1758877870.1709049,-0.68115234375,0.00341796875,0.73779296875,-20.08056640625,2.50244140625,9.8876953125,-1.702880859375,43.341064453125,69.01611328125
1758877870.1808014,-0.67578125,0.01806640625,0.71728515625,-27.4658203125,2.38037109375,10.25390625,-1.878662109375,43.3685302734375,69.1424560546875
1758877870.191012,-0.67578125,0.01806640625,0.71728515625,-27.4658203125,2.38037109375,10.25390625,-2.0489501953125,43.3905029296875,69.2633056640625
1758877870.2012405,-0.66796875,0.00537109375,0.7099609375,-32.28759765625,2.38037109375,10.7421875,-2.2576904296875,43.41796875,69.3951416015625
1758877870.2108238,-0.66796875,0.00537109375,0.7099609375,-32.28759765625,2.38037109375,10.7421875,-2.4664306640625,43.4454345703125,69.521484375
1758877870.220778,-0.6669921875,0.00439453125,0.685546875,-38.57421875,2.38037109375,11.29150390625,-2.735595703125,43.472900390625,69.6588134765625
1758877870.2308836,-0.6669921875,0.00439453125,0.685546875,-38.57421875,2.38037109375,11.29150390625,-2.999267578125,43.5003662109375,69.7906494140625
1758877870.2409718,-0.69091796875,-0.001953125,0.72802734375,-40.0390625,1.708984375,11.53564453125,-3.27392578125,43.5223388671875,69.9334716796875
1758877870.2508476,-0.69091796875,-0.001953125,0.72802734375,-40.0390625,1.708984375,11.53564453125,-3.5430908203125,43.5443115234375,70.07080078125
1758877870.2611363,-0.69482421875,-0.0224609375,0.72412109375,-39.794921875,1.46484375,11.90185546875,-3.812255859375,43.5662841796875,70.213623046875
1758877870.2712533,-0.69482421875,-0.0224609375,0.72412109375,-39.794921875,1.46484375,11.90185546875,-4.075927734375,43.5882568359375,70.3564453125
1758877870.2808297,-0.6884765625,-0.0390625,0.6953125,-37.59765625,1.03759765625,12.451171875,-4.3121337890625,43.604736328125,70.51025390625
1758877870.2909968,-0.6884765625,-0.0390625,0.6953125,-37.59765625,1.03759765625,12.451171875,-4.54833984375,43.626708984375,70.6585693359375
1758877870.3013601,-0.7041015625,-0.05517578125,0.68896484375,-33.14208984375,1.220703125,12.8173828125,-4.7406005859375,43.648681640625,70.8123779296875
1758877870.3109756,-0.7041015625,-0.05517578125,0.68896484375,-33.14208984375,1.220703125,12.8173828125,-4.9273681640625,43.6761474609375,70.9661865234375
1758877870.3209524,-0.6865234375,-0.07275390625,0.69091796875,-28.076171875,1.15966796875,13.18359375,-5.0701904296875,43.6981201171875,71.1309814453125
1758877870.3313923,-0.6865234375,-0.07275390625,0.69091796875,-28.076171875,1.15966796875,13.18359375,-5.20751953125,43.7255859375,71.290283203125
1758877870.3409653,-0.697265625,-0.0712890625,0.7001953125,-19.59228515625,1.28173828125,13.18359375,-5.262451171875,43.7530517578125,71.4495849609375
1758877870.3510573,-0.697265625,-0.0712890625,0.7001953125,-19.59228515625,1.28173828125,13.18359375,-5.3173828125,43.780517578125,71.60888671875
1758877870.3613508,-0.6904296875,-0.0693359375,0.68505859375,-14.404296875,1.28173828125,13.18359375,-5.328369140625,43.8079833984375,71.773681640625
1758877870.371107,-0.6904296875,-0.0693359375,0.68505859375,-14.404296875,1.28173828125,13.18359375,-5.3338623046875,43.83544921875,71.9329833984375
1758877870.3809981,-0.66259765625,-0.04931640625,0.693359375,-15.07568359375,0.732421875,13.5498046875,-5.3448486328125,43.857421875,72.103271484375
1758877870.3912368,-0.66259765625,-0.04931640625,0.693359375,-15.07568359375,0.732421875,13.5498046875,-5.3558349609375,43.87939453125,72.2735595703125
1758877870.401504,-0.6611328125,-0.04150390625,0.69580078125,-18.12744140625,0.9765625,14.404296875,-5.3887939453125,43.9068603515625,72.454833984375
1758877870.411238,-0.6611328125,-0.04150390625,0.69580078125,-18.12744140625,0.9765625,14.404296875,-5.4217529296875,43.9288330078125,72.6361083984375
1758877870.4211087,-0.67041015625,-0.06640625,0.7265625,-17.578125,0.91552734375,15.0146484375,-5.44921875,43.956298828125,72.828369140625
1758877870.4314425,-0.67041015625,-0.06640625,0.7265625,-17.578125,0.91552734375,15.0146484375,-5.47119140625,43.978271484375,73.01513671875
1758877870.4411194,-0.732421875,-0.091796875,0.75244140625,-10.55908203125,1.0986328125,14.7705078125,-5.42724609375,44.000244140625,73.2073974609375
1758877870.451267,-0.732421875,-0.091796875,0.75244140625,-10.55908203125,1.0986328125,14.7705078125,-5.38330078125,44.0277099609375,73.399658203125
1758877870.4613945,-0.72314453125,-0.08837890625,0.69580078125,-5.859375,0.732421875,14.6484375,-5.3009033203125,44.044189453125,73.58642578125
1758877870.4711595,-0.72314453125,-0.08837890625,0.69580078125,-5.859375,0.732421875,14.6484375,-5.218505859375,44.066162109375,73.773193359375
1758877870.4811404,-0.7373046875,-0.02685546875,0.6982421875,-9.3994140625,0.244140625,14.46533203125,-5.1690673828125,44.088134765625,73.9599609375
1758877870.491149,-0.7373046875,-0.02685546875,0.6982421875,-9.3994140625,0.244140625,14.46533203125,-5.11962890625,44.1046142578125,74.146728515625
1758877870.501707,-0.71826171875,0.00537109375,0.69775390625,-18.6767578125,0.0,14.892578125,-5.1580810546875,44.12109375,74.3389892578125
1758877870.5113003,-0.71826171875,0.00537109375,0.69775390625,-18.6767578125,0.0,14.892578125,-5.1910400390625,44.1375732421875,74.53125
1758877870.5212328,-0.7109375,0.00634765625,0.671875,-31.982421875,-0.244140625,15.80810546875,-5.3448486328125,44.1595458984375,74.7344970703125
1758877870.5314271,-0.7109375,0.00634765625,0.671875,-31.982421875,-0.244140625,15.80810546875,-5.4986572265625,44.176025390625,74.9432373046875
1758877870.5412345,-0.72314453125,-0.01708984375,0.67919921875,-43.15185546875,-0.3662109375,16.6015625,-5.7513427734375,44.1925048828125,75.157470703125
1758877870.5512686,-0.72314453125,-0.01708984375,0.67919921875,-43.15185546875,-0.3662109375,16.6015625,-5.99853515625,44.2144775390625,75.3717041015625
1758877870.5617473,-0.73388671875,-0.05615234375,0.6796875,-45.83740234375,-0.6103515625,16.9677734375,-6.273193359375,44.2364501953125,75.5914306640625
1758877870.5712771,-0.73388671875,-0.05615234375,0.6796875,-45.83740234375,-0.6103515625,16.9677734375,-6.5423583984375,44.2584228515625,75.8111572265625
1758877870.5812523,-0.7314453125,-0.087890625,0.66455078125,-41.6259765625,-1.220703125,16.9677734375,-6.7730712890625,44.27490234375,76.036376953125
1758877870.5913084,-0.7314453125,-0.087890625,0.66455078125,-41.6259765625,-1.220703125,16.9677734375,-7.0037841796875,44.296875,76.256103515625
1758877870.601891,-0.71435546875,-0.1083984375,0.6923828125,-36.7431640625,-2.3193359375,16.7236328125,-7.1905517578125,44.3023681640625,76.4813232421875
1758877870.611356,-0.71435546875,-0.1083984375,0.6923828125,-36.7431640625,-2.3193359375,16.7236328125,-7.3773193359375,44.3133544921875,76.7010498046875
1758877870.6213355,-0.7138671875,-0.10498046875,0.7216796875,-30.8837890625,-3.47900390625,16.17431640625,-7.5091552734375,44.307861328125,76.9207763671875
1758877870.6317854,-0.7138671875,-0.10498046875,0.7216796875,-30.8837890625,-3.47900390625,16.17431640625,-7.646484375,44.3023681640625,77.1405029296875
1758877870.6421022,-0.701171875,-0.10205078125,0.7109375,-24.4140625,-4.638671875,15.93017578125,-7.7178955078125,44.285888671875,77.3602294921875
1758877870.651434,-0.701171875,-0.10205078125,0.7109375,-24.4140625,-4.638671875,15.93017578125,-7.789306640625,44.2694091796875,77.574462890625
1758877870.66198,-0.7021484375,-0.11767578125,0.71240234375,-15.625,-5.2490234375,15.68603515625,-7.7783203125,44.2474365234375,77.794189453125
1758877870.67179,-0.7021484375,-0.11767578125,0.71240234375,-15.625,-5.2490234375,15.68603515625,-7.767333984375,44.219970703125,78.013916015625
1758877870.6814098,-0.70703125,-0.13916015625,0.6865234375,-6.04248046875,-5.615234375,15.68603515625,-7.66845703125,44.1925048828125,78.233642578125
1758877870.6914465,-0.70703125,-0.13916015625,0.6865234375,-6.04248046875,-5.615234375,15.68603515625,-7.5640869140625,44.1650390625,78.453369140625
1758877870.702108,-0.703125,-0.14306640625,0.6796875,3.11279296875,-5.2490234375,15.44189453125,-7.3828125,44.1375732421875,78.673095703125
1758877870.7114902,-0.703125,-0.14306640625,0.6796875,3.11279296875,-5.2490234375,15.44189453125,-7.2015380859375,44.1156005859375,78.892822265625
1758877870.7215037,-0.7080078125,-0.1103515625,0.705078125,8.72802734375,-4.0283203125,15.0146484375,-6.9708251953125,44.09912109375,79.1015625
1758877870.7318802,-0.7080078125,-0.1103515625,0.705078125,8.72802734375,-4.0283203125,15.0146484375,-6.74560546875,44.0826416015625,79.3157958984375
1758877870.741597,-0.69384765625,-0.0595703125,0.71533203125,8.544921875,-2.3193359375,14.70947265625,-6.52587890625,44.0826416015625,79.5245361328125
1758877870.7516022,-0.69384765625,-0.0595703125,0.71533203125,8.544921875,-2.3193359375,14.70947265625,-6.30615234375,44.0826416015625,79.727783203125
1758877870.7620783,-0.6708984375,-0.0400390625,0.72900390625,7.75146484375,-0.9765625,14.34326171875,-6.097412109375,44.0936279296875,79.925537109375
1758877870.7716208,-0.6708984375,-0.0400390625,0.72900390625,7.75146484375,-0.9765625,14.34326171875,-5.8831787109375,44.09912109375,80.1287841796875
1758877870.7816157,-0.6689453125,-0.0380859375,0.73583984375,5.31005859375,-0.30517578125,14.09912109375,-5.701904296875,44.1156005859375,80.321044921875
1758877870.791882,-0.6689453125,-0.0380859375,0.73583984375,5.31005859375,-0.30517578125,14.09912109375,-5.51513671875,44.1265869140625,80.518798828125
1758877870.8021317,-0.6796875,-0.037109375,0.74609375,0.0,-0.244140625,14.404296875,-5.3778076171875,44.1375732421875,80.7220458984375
1758877870.8117468,-0.6796875,-0.037109375,0.74609375,0.0,-0.244140625,14.404296875,-5.240478515625,44.14306640625,80.92529296875
1758877870.8217988,-0.689453125,-0.037109375,0.73876953125,-7.6904296875,-0.48828125,14.6484375,-5.174560546875,44.1485595703125,81.1285400390625
1758877870.8318803,-0.689453125,-0.037109375,0.73876953125,-7.6904296875,-0.48828125,14.6484375,-5.108642578125,44.154052734375,81.3372802734375
1758877870.8417394,-0.68798828125,-0.04443359375,0.732421875,-14.70947265625,-0.67138671875,15.44189453125,-5.108642578125,44.1595458984375,81.5570068359375
1758877870.8517315,-0.68798828125,-0.04443359375,0.732421875,-14.70947265625,-0.67138671875,15.44189453125,-5.1031494140625,44.1650390625,81.7767333984375
1758877870.8620543,-0.7060546875,-0.04931640625,0.7158203125,-17.4560546875,-0.6103515625,15.68603515625,-5.11962890625,44.1705322265625,81.9964599609375
1758877870.872049,-0.7060546875,-0.04931640625,0.7158203125,-17.4560546875,-0.6103515625,15.68603515625,-5.1416015625,44.176025390625,82.2216796875
1758877870.881801,-0.71240234375,-0.068359375,0.69873046875,-13.7939453125,-0.244140625,15.68603515625,-5.1251220703125,44.1815185546875,82.44140625
1758877870.8917942,-0.71240234375,-0.068359375,0.69873046875,-13.7939453125,-0.244140625,15.68603515625,-5.108642578125,44.1925048828125,82.6666259765625
1758877870.9023616,-0.71728515625,-0.078125,0.70947265625,-7.99560546875,-0.3662109375,15.7470703125,-5.03173828125,44.2034912109375,82.891845703125
1758877870.9118426,-0.71728515625,-0.078125,0.70947265625,-7.99560546875,-0.3662109375,15.7470703125,-4.9603271484375,44.2144775390625,83.1170654296875
1758877870.921818,-0.720703125,-0.06494140625,0.71240234375,-2.8076171875,-0.732421875,15.93017578125,-4.833984375,44.219970703125,83.3477783203125
1758877870.9323711,-0.720703125,-0.06494140625,0.71240234375,-2.8076171875,-0.732421875,15.93017578125,-4.7076416015625,44.2254638671875,83.5784912109375
1758877870.9429185,-0.73193359375,-0.0341796875,0.716796875,-6.9580078125,-1.3427734375,16.41845703125,-4.6197509765625,44.23095703125,83.814697265625
1758877870.9519234,-0.73193359375,-0.0341796875,0.716796875,-6.9580078125,-1.3427734375,16.41845703125,-4.5263671875,44.23095703125,84.0509033203125
1758877870.9619548,-0.73486328125,-0.02392578125,0.6923828125,-10.8642578125,-1.220703125,16.845703125,-4.471435546875,44.2364501953125,84.298095703125
1758877870.9722915,-0.73486328125,-0.02392578125,0.6923828125,-10.8642578125,-1.220703125,16.845703125,-4.41650390625,44.241943359375,84.539794921875
1758877870.9819412,-0.7412109375,-0.03857421875,0.68310546875,-15.07568359375,-0.6103515625,17.27294921875,-4.39453125,44.2529296875,84.79248046875
1758877870.9919655,-0.7412109375,-0.03857421875,0.68310546875,-15.07568359375,-0.6103515625,17.27294921875,-4.3780517578125,44.2694091796875,85.0396728515625
1758877871.0023475,-0.74267578125,-0.046875,0.6787109375,-17.7001953125,-0.06103515625,17.51708984375,-4.383544921875,44.2913818359375,85.2978515625
1758877871.0119867,-0.74267578125,-0.046875,0.6787109375,-17.7001953125,-0.06103515625,17.51708984375,-4.383544921875,44.3133544921875,85.550537109375
1758877871.0220058,-0.7451171875,-0.0498046875,0.68603515625,-16.2353515625,0.67138671875,17.51708984375,-4.3780517578125,44.3408203125,85.80322265625
1758877871.0321097,-0.7451171875,-0.0498046875,0.68603515625,-16.2353515625,0.67138671875,17.51708984375,-4.3670654296875,44.373779296875,86.0614013671875
1758877871.0420024,-0.7353515625,-0.05029296875,0.669921875,-15.0146484375,1.3427734375,16.90673828125,-4.3505859375,44.40673828125,86.3031005859375
1758877871.0519617,-0.7353515625,-0.05029296875,0.669921875,-15.0146484375,1.3427734375,16.90673828125,-4.3341064453125,44.4451904296875,86.55029296875
1758877871.062101,-0.7373046875,-0.0400390625,0.68359375,-14.404296875,1.8310546875,16.4794921875,-4.317626953125,44.4891357421875,86.7919921875
1758877871.0723386,-0.7373046875,-0.0400390625,0.68359375,-14.404296875,1.8310546875,16.4794921875,-4.3011474609375,44.5330810546875,87.03369140625
1758877871.0820258,-0.7373046875,-0.03515625,0.68603515625,-14.404296875,2.8076171875,16.11328125,-4.28466796875,44.58251953125,87.2698974609375
1758877871.0920837,-0.7373046875,-0.03515625,0.68603515625,-14.404296875,2.8076171875,16.11328125,-4.2681884765625,44.637451171875,87.506103515625
1758877871.1025755,-0.72705078125,-0.03125,0.67919921875,-15.19775390625,3.60107421875,15.68603515625,-4.2681884765625,44.6923828125,87.73681640625
1758877871.1122003,-0.72705078125,-0.03125,0.67919921875,-15.19775390625,3.60107421875,15.68603515625,-4.2626953125,44.7528076171875,87.967529296875
1758877871.1221583,-0.7197265625,-0.04248046875,0.69384765625,-15.869140625,4.21142578125,15.380859375,-4.2681884765625,44.8187255859375,88.1982421875
1758877871.132627,-0.7197265625,-0.04248046875,0.69384765625,-15.869140625,4.21142578125,15.380859375,-4.273681640625,44.879150390625,88.4234619140625
1758877871.1422715,-0.70556640625,-0.048828125,0.703125,-15.5029296875,4.57763671875,15.380859375,-4.273681640625,44.9505615234375,88.6541748046875
1758877871.152118,-0.69580078125,-0.05078125,0.728515625,-13.85498046875,4.638671875,15.44189453125,-4.2681884765625,45.010986328125,88.87939453125
1758877871.16243,-0.69580078125,-0.05078125,0.728515625,-13.85498046875,4.638671875,15.44189453125,-4.251708984375,45.076904296875,89.110107421875
1758877871.172622,-0.67578125,-0.05126953125,0.716796875,-13.427734375,3.96728515625,15.44189453125,-4.2352294921875,45.1373291015625,89.3408203125
1758877871.1822474,-0.67578125,-0.05126953125,0.716796875,-13.427734375,3.96728515625,15.44189453125,-4.2132568359375,45.186767578125,89.5770263671875
1758877871.1922703,-0.68212890625,-0.048828125,0.7255859375,-15.2587890625,3.5400390625,15.19775390625,-4.2022705078125,45.2362060546875,89.8077392578125
1758877871.2027924,-0.68212890625,-0.048828125,0.7255859375,-15.2587890625,3.5400390625,15.19775390625,-4.2022705078125,45.2801513671875,90.0384521484375
1758877871.2122564,-0.68408203125,-0.02978515625,0.74853515625,-15.56396484375,4.08935546875,14.46533203125,-4.207763671875,45.32958984375,90.263671875
1758877871.2222805,-0.68408203125,-0.02978515625,0.74853515625,-15.56396484375,4.08935546875,14.46533203125,-4.21875,45.37353515625,90.4833984375
1758877871.2327437,-0.67138671875,-0.03662109375,0.73291015625,-13.5498046875,4.0283203125,13.916015625,-4.21875,45.4229736328125,90.6976318359375
1758877871.2422774,-0.67138671875,-0.03662109375,0.73291015625,-13.5498046875,4.0283203125,13.916015625,-4.207763671875,45.46142578125,90.911865234375
1758877871.2523081,-0.6640625,-0.03955078125,0.7412109375,-15.56396484375,3.72314453125,13.427734375,-4.2132568359375,45.50537109375,91.1260986328125
1758877871.2625961,-0.6640625,-0.03955078125,0.7412109375,-15.56396484375,3.72314453125,13.427734375,-4.229736328125,45.538330078125,91.3348388671875
1758877871.2724276,-0.6640625,-0.03515625,0.74609375,-16.05224609375,3.2958984375,13.24462890625,-4.2462158203125,45.5767822265625,91.5435791015625
1758877871.2823696,-0.6640625,-0.03515625,0.74609375,-16.05224609375,3.2958984375,13.24462890625,-4.2681884765625,45.604248046875,91.746826171875
1758877871.2925763,-0.6708984375,-0.0556640625,0.74169921875,-16.17431640625,2.9296875,13.18359375,-4.2901611328125,45.6317138671875,91.95556640625
1758877871.3028622,-0.6708984375,-0.0556640625,0.74169921875,-16.17431640625,2.9296875,13.18359375,-4.3121337890625,45.6536865234375,92.164306640625
1758877871.312364,-0.68505859375,-0.0517578125,0.7451171875,-13.48876953125,2.62451171875,12.8173828125,-4.3231201171875,45.6756591796875,92.3675537109375
1758877871.3224623,-0.68505859375,-0.0517578125,0.7451171875,-13.48876953125,2.62451171875,12.8173828125,-4.3231201171875,45.6976318359375,92.57080078125
1758877871.3328342,-0.67724609375,-0.04296875,0.7314453125,-9.033203125,2.62451171875,12.26806640625,-4.306640625,45.714111328125,92.7685546875
1758877871.3424573,-0.67724609375,-0.04296875,0.7314453125,-9.033203125,2.62451171875,12.26806640625,-4.2681884765625,45.736083984375,92.96630859375
1758877871.3524108,-0.6708984375,-0.02880859375,0.72265625,-10.07080078125,2.74658203125,11.65771484375,-4.2352294921875,45.7525634765625,93.153076171875
1758877871.362832,-0.6708984375,-0.02880859375,0.72265625,-10.07080078125,2.74658203125,11.65771484375,-4.2132568359375,45.7745361328125,93.33984375
1758877871.372469,-0.6796875,-0.01953125,0.74072265625,-12.02392578125,2.8076171875,10.986328125,-4.2022705078125,45.791015625,93.5211181640625
1758877871.382495,-0.6796875,-0.01953125,0.74072265625,-12.02392578125,2.8076171875,10.986328125,-4.2022705078125,45.8074951171875,93.702392578125
1758877871.392677,-0.7333984375,-0.0341796875,0.72021484375,-12.6953125,3.47900390625,10.498046875,-4.2132568359375,45.8294677734375,93.8726806640625
1758877871.4031262,-0.7333984375,-0.0341796875,0.72021484375,-12.6953125,3.47900390625,10.498046875,-4.2242431640625,45.85693359375,94.04296875
1758877871.4125004,-0.7255859375,-0.05224609375,0.6630859375,-12.939453125,3.90625,9.765625,-4.24072265625,45.889892578125,94.207763671875
1758877871.4225867,-0.7255859375,-0.05224609375,0.6630859375,-12.939453125,3.90625,9.765625,-4.2681884765625,45.9228515625,94.3670654296875
1758877871.432961,-0.744140625,-0.06787109375,0.68798828125,-8.36181640625,3.96728515625,9.09423828125,-4.273681640625,45.955810546875,94.5263671875
1758877871.4425707,-0.744140625,-0.06787109375,0.68798828125,-8.36181640625,3.96728515625,9.09423828125,-4.2572021484375,45.9942626953125,94.68017578125
1758877871.4525778,-0.73486328125,-0.068359375,0.681640625,-4.0283203125,4.21142578125,8.544921875,-4.229736328125,46.03271484375,94.8284912109375
1758877871.4628088,-0.73486328125,-0.068359375,0.681640625,-4.0283203125,4.21142578125,8.544921875,-4.1802978515625,46.07666015625,94.9713134765625
1758877871.4726372,-0.7392578125,-0.0322265625,0.66748046875,0.9765625,4.150390625,7.568359375,-4.1143798828125,46.12060546875,95.1141357421875
1758877871.48266,-0.7392578125,-0.0322265625,0.66748046875,0.9765625,4.150390625,7.568359375,-4.0264892578125,46.1590576171875,95.2459716796875
1758877871.492648,-0.73828125,-0.02734375,0.67333984375,0.1220703125,3.96728515625,7.080078125,-3.9495849609375,46.2030029296875,95.372314453125
1758877871.5032785,-0.73828125,-0.02734375,0.67333984375,0.1220703125,3.96728515625,7.080078125,-3.8726806640625,46.2469482421875,95.4986572265625
1758877871.5126688,-0.759765625,0.00146484375,0.65380859375,-5.7373046875,4.150390625,6.65283203125,-3.8287353515625,46.2908935546875,95.625
1758877871.522704,-0.759765625,0.00146484375,0.65380859375,-5.7373046875,4.150390625,6.65283203125,-3.8177490234375,46.3348388671875,95.745849609375
1758877871.533259,-0.734375,-0.02197265625,0.666015625,-9.27734375,4.2724609375,6.16455078125,-3.8232421875,46.38427734375,95.8612060546875
1758877871.5435843,-0.734375,-0.02197265625,0.666015625,-9.27734375,4.2724609375,6.16455078125,-3.84521484375,46.4337158203125,95.9765625
1758877871.5527136,-0.73583984375,-0.04833984375,0.67578125,-7.50732421875,4.21142578125,5.55419921875,-3.8671875,46.483154296875,96.08642578125
1758877871.5628784,-0.73583984375,-0.04833984375,0.67578125,-7.50732421875,4.21142578125,5.55419921875,-3.878173828125,46.527099609375,96.1907958984375
1758877871.5733635,-0.7138671875,-0.05712890625,0.68115234375,-1.708984375,4.150390625,4.7607421875,-3.8671875,46.5765380859375,96.295166015625
1758877871.5828943,-0.7138671875,-0.05712890625,0.68115234375,-1.708984375,4.150390625,4.7607421875,-3.834228515625,46.6204833984375,96.3885498046875
1758877871.5928488,-0.69580078125,-0.05810546875,0.70361328125,-0.732421875,3.72314453125,3.41796875,-3.8067626953125,46.6644287109375,96.4764404296875
1758877871.6034567,-0.69580078125,-0.05810546875,0.70361328125,-0.732421875,3.72314453125,3.41796875,-3.7738037109375,46.702880859375,96.5533447265625
1758877871.6128147,-0.69189453125,-0.02734375,0.70361328125,-2.9296875,3.35693359375,2.5634765625,-3.7628173828125,46.7413330078125,96.624755859375
1758877871.6229153,-0.69189453125,-0.02734375,0.70361328125,-2.9296875,3.35693359375,2.5634765625,-3.768310546875,46.768798828125,96.6851806640625
1758877871.6329577,-0.65625,-0.00830078125,0.732421875,-4.2724609375,2.86865234375,2.197265625,-3.7738037109375,46.7962646484375,96.74560546875
1758877871.6428866,-0.65625,-0.00830078125,0.732421875,-4.2724609375,2.86865234375,2.197265625,-3.790283203125,46.82373046875,96.8060302734375
1758877871.6537347,-0.65380859375,-0.02294921875,0.75537109375,-4.8828125,2.38037109375,1.3427734375,-3.812255859375,46.8402099609375,96.85546875
1758877871.6629581,-0.65380859375,-0.02294921875,0.75537109375,-4.8828125,2.38037109375,1.3427734375,-3.8397216796875,46.8511962890625,96.8994140625
1758877871.6732655,-0.64794921875,-0.0478515625,0.73095703125,-9.09423828125,2.13623046875,0.0,-3.8946533203125,46.856689453125,96.932373046875
1758877871.6828673,-0.64794921875,-0.0478515625,0.73095703125,-9.09423828125,2.13623046875,0.0,-3.9825439453125,46.8621826171875,96.9598388671875
1758877871.6930363,-0.64892578125,-0.01513671875,0.71240234375,-14.34326171875,1.953125,-0.79345703125,-4.0924072265625,46.86767578125,96.976318359375
1758877871.7033904,-0.64892578125,-0.01513671875,0.71240234375,-14.34326171875,1.953125,-0.79345703125,-4.2352294921875,46.86767578125,96.9873046875
1758877871.7130342,-0.673828125,0.0,0.74462890625,-21.30126953125,1.77001953125,-1.8310546875,-4.41650390625,46.8621826171875,96.9927978515625
1758877871.7230246,-0.673828125,0.0,0.74462890625,-21.30126953125,1.77001953125,-1.8310546875,-4.63623046875,46.8621826171875,96.9873046875
1758877871.733414,-0.67138671875,-0.0107421875,0.7275390625,-25.390625,1.77001953125,-2.9296875,-4.8779296875,46.856689453125,96.976318359375
1758877871.7430594,-0.67138671875,-0.0107421875,0.7275390625,-25.390625,1.77001953125,-2.9296875,-5.1416015625,46.8511962890625,96.954345703125
1758877871.7530873,-0.64794921875,-0.04150390625,0.693359375,-21.3623046875,1.8310546875,-3.72314453125,-5.394287109375,46.845703125,96.9268798828125
1758877871.763148,-0.64794921875,-0.04150390625,0.693359375,-21.3623046875,1.8310546875,-3.72314453125,-5.625,46.834716796875,96.8939208984375
1758877871.7732496,-0.6884765625,-0.06396484375,0.72119140625,-19.04296875,1.77001953125,-4.0283203125,-5.8447265625,46.8292236328125,96.8609619140625
1758877871.7830648,-0.6884765625,-0.06396484375,0.72119140625,-19.04296875,1.77001953125,-4.0283203125,-6.0589599609375,46.82373046875,96.822509765625
1758877871.793129,-0.69384765625,-0.064453125,0.71337890625,-24.0478515625,1.40380859375,-4.45556640625,-6.295166015625,46.812744140625,96.778564453125
1758877871.8033912,-0.69384765625,-0.064453125,0.71337890625,-24.0478515625,1.40380859375,-4.45556640625,-6.5643310546875,46.8017578125,96.734619140625
1758877871.813041,-0.68408203125,-0.0498046875,0.70556640625,-28.50341796875,0.67138671875,-4.69970703125,-6.85546875,46.7852783203125,96.6851806640625
1758877871.823045,-0.68408203125,-0.0498046875,0.70556640625,-28.50341796875,0.67138671875,-4.69970703125,-7.1630859375,46.768798828125,96.6412353515625
1758877871.8335466,-0.69091796875,-0.06201171875,0.72412109375,-23.62060546875,-0.30517578125,-4.94384765625,-7.44873046875,46.746826171875,96.591796875
1758877871.8433824,-0.69091796875,-0.06201171875,0.72412109375,-23.62060546875,-0.30517578125,-4.94384765625,-7.71240234375,46.7138671875,96.5423583984375
1758877871.8531032,-0.798828125,-0.14111328125,0.75,-12.939453125,-1.40380859375,-5.43212890625,-7.921142578125,46.680908203125,96.4874267578125
1758877871.863498,-0.798828125,-0.14111328125,0.75,-12.939453125,-1.40380859375,-5.43212890625,-8.0804443359375,46.64794921875,96.4324951171875
1758877871.8733938,-0.81494140625,-0.1796875,0.71240234375,1.0986328125,-2.01416015625,-6.591796875,-8.184814453125,46.60400390625,96.3720703125
1758877871.883171,-0.81494140625,-0.1796875,0.71240234375,1.0986328125,-2.01416015625,-6.591796875,-8.2232666015625,46.5655517578125,96.3006591796875
1758877871.893166,-0.85302734375,-0.15771484375,0.5966796875,18.6767578125,-2.0751953125,-6.77490234375,-8.184814453125,46.527099609375,96.2347412109375
1758877871.9038017,-0.85302734375,-0.15771484375,0.5966796875,18.6767578125,-2.0751953125,-6.77490234375,-8.0584716796875,46.494140625,96.163330078125
1758877871.913177,-0.81494140625,-0.06982421875,0.57470703125,24.10888671875,-1.77001953125,-7.2021484375,-7.9156494140625,46.47216796875,96.0919189453125
1758877871.9232433,-0.81494140625,-0.06982421875,0.57470703125,24.10888671875,-1.77001953125,-7.2021484375,-7.7508544921875,46.4501953125,96.0205078125
1758877871.933557,-0.82421875,-0.03759765625,0.609375,3.84521484375,-1.5869140625,-6.53076171875,-7.679443359375,46.4337158203125,95.95458984375
1758877871.9432616,-0.82421875,-0.03759765625,0.609375,3.84521484375,-1.5869140625,-6.53076171875,-7.7069091796875,46.4227294921875,95.888671875
1758877871.9532459,-0.78369140625,-0.033203125,0.6376953125,-23.5595703125,-1.64794921875,-5.9814453125,-7.8662109375,46.417236328125,95.8282470703125
1758877871.963548,-0.78369140625,-0.033203125,0.6376953125,-23.5595703125,-1.64794921875,-5.9814453125,-8.15185546875,46.4117431640625,95.7733154296875
1758877871.9736345,-0.7373046875,-0.052734375,0.62109375,-35.0341796875,-1.5869140625,-6.28662109375,-8.4979248046875,46.40625,95.712890625
1758877871.983239,-0.7373046875,-0.052734375,0.62109375,-35.0341796875,-1.5869140625,-6.28662109375,-8.8934326171875,46.395263671875,95.64697265625
1758877871.993284,-0.7197265625,-0.10888671875,0.607421875,-25.0244140625,-1.220703125,-7.26318359375,-9.2449951171875,46.395263671875,95.5755615234375
1758877872.0035777,-0.7197265625,-0.10888671875,0.607421875,-25.0244140625,-1.220703125,-7.26318359375,-9.5526123046875,46.3897705078125,95.4986572265625
1758877872.0133288,-0.734375,-0.1650390625,0.61572265625,-10.31494140625,-0.91552734375,-8.544921875,-9.7943115234375,46.38427734375,95.4107666015625
1758877872.0233812,-0.734375,-0.1650390625,0.61572265625,-10.31494140625,-0.91552734375,-8.544921875,-9.9755859375,46.3787841796875,95.3118896484375
1758877872.0338917,-0.76025390625,-0.16943359375,0.65185546875,4.0283203125,-0.48828125,-9.27734375,-10.08544921875,46.373291015625,95.20751953125
1758877872.0433784,-0.76025390625,-0.16943359375,0.65185546875,4.0283203125,-0.48828125,-9.27734375,-10.1348876953125,46.373291015625,95.09765625
1758877872.0533724,-0.7646484375,-0.18701171875,0.62548828125,15.0146484375,0.18310546875,-9.765625,-10.1348876953125,46.373291015625,94.98779296875
1758877872.063477,-0.7646484375,-0.18701171875,0.62548828125,15.0146484375,0.18310546875,-9.765625,-10.0909423828125,46.373291015625,94.8724365234375
1758877872.073571,-0.76708984375,-0.15185546875,0.623046875,23.92578125,0.6103515625,-9.6435546875,-10.0030517578125,46.3787841796875,94.757080078125
1758877872.0833886,-0.76708984375,-0.15185546875,0.623046875,23.92578125,0.6103515625,-9.6435546875,-9.8712158203125,46.38427734375,94.6417236328125
1758877872.0937912,-0.7783203125,-0.162109375,0.6318359375,35.5224609375,1.15966796875,-9.46044921875,-9.6844482421875,46.395263671875,94.5263671875
1758877872.103736,-0.7783203125,-0.162109375,0.6318359375,35.5224609375,1.15966796875,-9.46044921875,-9.4482421875,46.4117431640625,94.41650390625
1758877872.1135116,-0.755859375,-0.166015625,0.63525390625,41.32080078125,1.8310546875,-9.3994140625,-9.1790771484375,46.42822265625,94.3011474609375
1758877872.1234834,-0.755859375,-0.166015625,0.63525390625,41.32080078125,1.8310546875,-9.3994140625,-8.887939453125,46.4501953125,94.185791015625
1758877872.1343281,-0.748046875,-0.14306640625,0.6220703125,44.3115234375,2.38037109375,-9.033203125,-8.580322265625,46.4776611328125,94.075927734375
1758877872.1434865,-0.748046875,-0.14306640625,0.6220703125,44.3115234375,2.38037109375,-9.033203125,-8.26171875,46.505126953125,93.9605712890625
1758877872.1535165,-0.74755859375,-0.10986328125,0.650390625,48.583984375,2.44140625,-8.60595703125,-7.8936767578125,46.5325927734375,93.856201171875
1758877872.1636646,-0.74755859375,-0.10986328125,0.650390625,48.583984375,2.44140625,-8.60595703125,-7.5311279296875,46.56005859375,93.7518310546875
1758877872.1736073,-0.7421875,-0.09326171875,0.65625,51.1474609375,2.44140625,-8.30078125,-7.1356201171875,46.593017578125,93.6474609375
1758877872.1835105,-0.7421875,-0.09326171875,0.65625,51.1474609375,2.44140625,-8.30078125,-6.7401123046875,46.6204833984375,93.548583984375
1758877872.1935887,-0.75390625,-0.07568359375,0.64794921875,48.9501953125,2.3193359375,-8.11767578125,-6.3665771484375,46.64794921875,93.4442138671875
1758877872.203991,-0.75390625,-0.07568359375,0.64794921875,48.9501953125,2.3193359375,-8.11767578125,-5.9930419921875,46.6754150390625,93.3453369140625
1758877872.213505,-0.748046875,-0.0517578125,0.65478515625,45.0439453125,2.0751953125,-7.62939453125,-5.64697265625,46.702880859375,93.251953125
1758877872.2235398,-0.748046875,-0.0517578125,0.65478515625,45.0439453125,2.0751953125,-7.62939453125,-5.306396484375,46.7303466796875,93.1585693359375
1758877872.2340991,-0.7548828125,-0.04541015625,0.6552734375,39.12353515625,2.197265625,-6.9580078125,-5.009765625,46.7633056640625,93.0706787109375
1758877872.2436109,-0.7548828125,-0.04541015625,0.6552734375,39.12353515625,2.197265625,-6.9580078125,-4.7186279296875,46.790771484375,92.9827880859375
1758877872.2536218,-0.7451171875,-0.03076171875,0.658203125,29.4189453125,1.708984375,-6.103515625,-4.5098876953125,46.8182373046875,92.911376953125
1758877872.2637618,-0.7451171875,-0.03076171875,0.658203125,29.4189453125,1.708984375,-6.103515625,-4.3011474609375,46.8402099609375,92.83447265625
1758877872.273762,-0.7353515625,-0.025390625,0.68798828125,22.15576171875,1.220703125,-4.7607421875,-4.1473388671875,46.8621826171875,92.779541015625
1758877872.2836592,-0.7353515625,-0.025390625,0.68798828125,22.15576171875,1.220703125,-4.7607421875,-3.9935302734375,46.878662109375,92.724609375
1758877872.2936661,-0.7353515625,-0.025390625,0.68798828125,15.380859375,1.28173828125,-3.72314453125,-3.88916015625,46.900634765625,92.6861572265625
1758877872.3039632,-0.74609375,-0.044921875,0.68798828125,15.380859375,1.28173828125,-3.72314453125,-3.790283203125,46.922607421875,92.647705078125
1758877872.3136346,-0.7451171875,-0.044921875,0.66455078125,8.48388671875,1.52587890625,-2.86865234375,-3.746337890625,46.9390869140625,92.61474609375
1758877872.3239048,-0.7451171875,-0.044921875,0.66455078125,8.48388671875,1.52587890625,-2.86865234375,-3.7078857421875,46.9610595703125,92.5872802734375
1758877872.3342092,-0.75048828125,-0.03515625,0.6611328125,6.103515625,2.25830078125,-2.13623046875,-3.680419921875,46.9940185546875,92.5653076171875
1758877872.343756,-0.75048828125,-0.03515625,0.6611328125,6.103515625,2.25830078125,-2.13623046875,-3.6529541015625,47.021484375,92.548828125
1758877872.3537333,-0.748046875,-0.03857421875,0.662109375,5.7373046875,3.23486328125,-1.46484375,-3.6199951171875,47.0599365234375,92.537841796875
1758877872.3640296,-0.748046875,-0.03857421875,0.662109375,5.7373046875,3.23486328125,-1.46484375,-3.5870361328125,47.098388671875,92.52685546875
