timestamp,acc_x,acc_y,acc_z,gyro_x,gyro_y,gyro_z,angle_x,angle_y,angle_z
1759066616.6422224,-0.5869140625,-0.005859375,0.81201171875,-0.3662109375,0.8544921875,0.0,-0.274658203125,34.87060546875,64.9456787109375
1759066616.6524224,-0.5859375,-0.0087890625,0.81298828125,-0.18310546875,1.03759765625,0.0,-0.2801513671875,34.881591796875,64.9456787109375
1759066616.6624599,-0.5859375,-0.0087890625,0.81298828125,-0.18310546875,1.03759765625,0.0,-0.2801513671875,34.892578125,64.9456787109375
1759066616.6720035,-0.57958984375,-0.00537109375,0.81494140625,0.0,1.15966796875,0.0,-0.2801513671875,34.9090576171875,64.940185546875
1759066616.6810882,-0.57958984375,-0.00537109375,0.81494140625,0.0,1.15966796875,0.0,-0.2801513671875,34.925537109375,64.940185546875
1759066616.690398,-0.57763671875,-0.00537109375,0.81787109375,-0.1220703125,1.220703125,0.0,-0.28564453125,34.9420166015625,64.940185546875
1759066616.700187,-0.57763671875,-0.00537109375,0.81787109375,-0.1220703125,1.220703125,0.0,-0.28564453125,34.9530029296875,64.940185546875
1759066616.7104735,-0.58349609375,-0.00439453125,0.8154296875,-0.3662109375,1.40380859375,0.0,-0.2911376953125,34.969482421875,64.940185546875
1759066616.7201626,-0.58349609375,-0.00439453125,0.8154296875,-0.3662109375,1.40380859375,0.0,-0.2911376953125,34.9859619140625,64.9346923828125
1759066616.7305458,-0.5869140625,-0.00537109375,0.81640625,0.48828125,1.8310546875,0.0,-0.28564453125,35.0079345703125,64.9346923828125
1759066616.7401507,-0.5869140625,-0.00537109375,0.81640625,0.48828125,1.8310546875,0.0,-0.28564453125,35.0299072265625,64.9346923828125
1759066616.7503557,-0.58251953125,-0.00634765625,0.81640625,1.220703125,2.3193359375,0.0,-0.274658203125,35.057373046875,64.9346923828125
1759066616.760348,-0.58251953125,-0.00634765625,0.81640625,1.220703125,2.3193359375,0.0,-0.2581787109375,35.079345703125,64.92919921875
1759066616.770261,-0.58642578125,-0.005859375,0.81103515625,0.732421875,2.74658203125,0.0,-0.252685546875,35.1123046875,64.92919921875
1759066616.7801552,-0.58642578125,-0.005859375,0.81103515625,0.732421875,2.74658203125,0.0,-0.2471923828125,35.1397705078125,64.92919921875
1759066616.7899582,-0.580078125,-0.00341796875,0.82421875,1.03759765625,3.2958984375,0.0,-0.2362060546875,35.17822265625,64.92919921875
1759066616.7999132,-0.580078125,-0.00341796875,0.82421875,1.03759765625,3.2958984375,0.0,-0.230712890625,35.211181640625,64.92919921875
1759066616.8102083,-0.576171875,-0.0048828125,0.81982421875,0.732421875,3.72314453125,0.0,-0.2197265625,35.2496337890625,64.9237060546875
1759066616.8204234,-0.576171875,-0.0048828125,0.81982421875,0.732421875,3.72314453125,0.0,-0.2142333984375,35.2880859375,64.9237060546875
1759066616.8299377,-0.58251953125,-0.0029296875,0.81396484375,0.79345703125,3.90625,0.0,-0.208740234375,35.3265380859375,64.9237060546875
1759066616.8399231,-0.58251953125,-0.0029296875,0.81396484375,0.79345703125,3.90625,0.0,-0.2032470703125,35.364990234375,64.9237060546875
1759066616.8499424,-0.5888671875,-0.00341796875,0.81103515625,0.67138671875,4.150390625,-0.30517578125,-0.19775390625,35.408935546875,64.918212890625
1759066616.8599455,-0.5888671875,-0.00341796875,0.81103515625,0.67138671875,4.150390625,-0.30517578125,-0.1922607421875,35.452880859375,64.9127197265625
1759066616.869971,-0.59912109375,-0.00146484375,0.80126953125,0.30517578125,4.2724609375,-0.244140625,-0.1922607421875,35.496826171875,64.9072265625
1759066616.8799741,-0.59912109375,-0.00146484375,0.80126953125,0.30517578125,4.2724609375,-0.244140625,-0.1922607421875,35.540771484375,64.9017333984375
1759066616.8900218,-0.599609375,-0.001953125,0.80224609375,0.54931640625,4.39453125,-0.244140625,-0.186767578125,35.584716796875,64.896240234375
1759066616.9000037,-0.599609375,-0.001953125,0.80224609375,0.54931640625,4.39453125,-0.244140625,-0.186767578125,35.628662109375,64.8907470703125
1759066616.9100037,-0.59912109375,-0.00146484375,0.796875,0.0,4.2724609375,-0.1220703125,-0.186767578125,35.6781005859375,64.8907470703125
1759066616.9200017,-0.59912109375,-0.00146484375,0.796875,0.0,4.2724609375,-0.1220703125,-0.186767578125,35.7220458984375,64.88525390625
1759066616.9300191,-0.60205078125,-0.0009765625,0.7998046875,-0.732421875,4.21142578125,0.0,-0.19775390625,35.7659912109375,64.88525390625
1759066616.9400215,-0.60205078125,-0.0009765625,0.7998046875,-0.732421875,4.21142578125,0.0,-0.2032470703125,35.8099365234375,64.8797607421875
1759066616.9500728,-0.59326171875,-0.00341796875,0.806640625,-0.79345703125,4.39453125,0.244140625,-0.208740234375,35.859375,64.88525390625
1759066616.9601374,-0.59326171875,-0.00341796875,0.806640625,-0.79345703125,4.39453125,0.244140625,-0.2142333984375,35.9033203125,64.88525390625
1759066616.9701517,-0.58251953125,-0.00537109375,0.80859375,-0.79345703125,4.2724609375,0.42724609375,-0.2197265625,35.947265625,64.88525390625
1759066616.9801393,-0.58251953125,-0.00537109375,0.80859375,-0.79345703125,4.2724609375,0.42724609375,-0.2252197265625,35.9912109375,64.8907470703125
1759066616.9901452,-0.5791015625,-0.0078125,0.81640625,-0.91552734375,3.90625,0.91552734375,-0.230712890625,36.03515625,64.9017333984375
1759066617.0001454,-0.5791015625,-0.0078125,0.81640625,-0.91552734375,3.90625,0.91552734375,-0.230712890625,36.0736083984375,64.9127197265625
1759066617.0102553,-0.5830078125,-0.00830078125,0.80859375,-1.15966796875,3.47900390625,1.28173828125,-0.2362060546875,36.1065673828125,64.92919921875
1759066617.0202641,-0.5830078125,-0.00830078125,0.80859375,-1.15966796875,3.47900390625,1.28173828125,-0.2362060546875,36.1395263671875,64.9456787109375
1759066617.0303526,-0.59228515625,-0.0078125,0.8046875,-1.28173828125,3.2958984375,1.52587890625,-0.24169921875,36.1724853515625,64.962158203125
1759066617.040159,-0.59228515625,-0.0078125,0.8046875,-1.28173828125,3.2958984375,1.52587890625,-0.24169921875,36.2054443359375,64.984130859375
1759066617.0501642,-0.58935546875,-0.005859375,0.806640625,-1.5869140625,3.35693359375,1.708984375,-0.2471923828125,36.2384033203125,65.006103515625
1759066617.0601773,-0.58935546875,-0.005859375,0.806640625,-1.5869140625,3.35693359375,1.708984375,-0.252685546875,36.2713623046875,65.028076171875
1759066617.0701892,-0.5830078125,-0.00439453125,0.814453125,-1.89208984375,3.47900390625,1.8310546875,-0.2581787109375,36.3043212890625,65.050048828125
1759066617.0801978,-0.5830078125,-0.00439453125,0.814453125,-1.89208984375,3.47900390625,1.8310546875,-0.263671875,36.3372802734375,65.072021484375
1759066617.090217,-0.5859375,-0.0048828125,0.8125,-1.8310546875,3.5400390625,1.8310546875,-0.2691650390625,36.3702392578125,65.093994140625
1759066617.1002302,-0.5859375,-0.0048828125,0.8125,-1.8310546875,3.5400390625,1.8310546875,-0.274658203125,36.4031982421875,65.115966796875
1759066617.1102452,-0.60595703125,-0.00439453125,0.80712890625,-1.3427734375,4.150390625,1.77001953125,-0.274658203125,36.441650390625,65.1434326171875
1759066617.1202433,-0.60595703125,-0.00439453125,0.80712890625,-1.3427734375,4.150390625,1.77001953125,-0.274658203125,36.4801025390625,65.1654052734375
1759066617.1303084,-0.60986328125,-0.005859375,0.80322265625,-0.8544921875,5.18798828125,1.77001953125,-0.274658203125,36.529541015625,65.1873779296875
1759066617.140297,-0.60986328125,-0.005859375,0.80322265625,-0.8544921875,5.18798828125,1.77001953125,-0.2691650390625,36.5789794921875,65.2093505859375
1759066617.150423,-0.60791015625,-0.00341796875,0.7919921875,-1.0986328125,5.615234375,1.8310546875,-0.2691650390625,36.6339111328125,65.23681640625
1759066617.160328,-0.60791015625,-0.00341796875,0.7919921875,-1.0986328125,5.615234375,1.8310546875,-0.263671875,36.6888427734375,65.2587890625
1759066617.1704705,-0.615234375,-0.0009765625,0.78955078125,-1.708984375,5.7373046875,2.01416015625,-0.2691650390625,36.749267578125,65.28076171875
1759066617.1803467,-0.615234375,-0.0009765625,0.78955078125,-1.708984375,5.7373046875,2.01416015625,-0.2691650390625,36.80419921875,65.3082275390625
1759066617.1905031,-0.62158203125,-0.0048828125,0.79296875,-2.5634765625,6.16455078125,2.3193359375,-0.2801513671875,36.8701171875,65.335693359375
1759066617.2003708,-0.62158203125,-0.0048828125,0.79296875,-2.5634765625,6.16455078125,2.3193359375,-0.28564453125,36.9305419921875,65.36865234375
1759066617.2105415,-0.6083984375,-0.01025390625,0.79443359375,-1.89208984375,6.28662109375,2.62451171875,-0.28564453125,36.990966796875,65.3961181640625
1759066617.220447,-0.6083984375,-0.01025390625,0.79443359375,-1.89208984375,6.28662109375,2.62451171875,-0.28564453125,37.056884765625,65.4290771484375
1759066617.2306957,-0.60546875,-0.0087890625,0.78466796875,-0.79345703125,5.92041015625,2.62451171875,-0.274658203125,37.1173095703125,65.4620361328125
1759066617.2407122,-0.60546875,-0.0087890625,0.78466796875,-0.79345703125,5.92041015625,2.62451171875,-0.263671875,37.177734375,65.4949951171875
1759066617.2506588,-0.60546875,-0.0087890625,0.78466796875,-1.03759765625,5.67626953125,2.8076171875,-0.252685546875,37.232666015625,65.533447265625
1759066617.2608263,-0.61181640625,-0.00390625,0.80078125,-1.03759765625,5.67626953125,2.8076171875,-0.2471923828125,37.28759765625,65.56640625
1759066617.2705994,-0.60546875,-0.00390625,0.7841796875,-2.01416015625,5.18798828125,3.11279296875,-0.24169921875,37.342529296875,65.6103515625
1759066617.2806988,-0.60546875,-0.00390625,0.7841796875,-2.01416015625,5.18798828125,3.11279296875,-0.24169921875,37.3919677734375,65.6488037109375
1759066617.2906058,-0.6015625,-0.001953125,0.787109375,-1.28173828125,4.33349609375,2.86865234375,-0.230712890625,37.4359130859375,65.687255859375
1759066617.3005135,-0.6015625,-0.001953125,0.787109375,-1.28173828125,4.33349609375,2.86865234375,-0.2252197265625,37.4798583984375,65.72021484375
1759066617.3109086,-0.591796875,-0.0009765625,0.8095703125,-0.6103515625,3.5400390625,2.86865234375,-0.208740234375,37.5128173828125,65.7586669921875
1759066617.3212774,-0.591796875,-0.0009765625,0.8095703125,-0.6103515625,3.5400390625,2.86865234375,-0.1922607421875,37.5457763671875,65.797119140625
1759066617.3310914,-0.58642578125,-0.00439453125,0.80419921875,-1.64794921875,2.8076171875,3.173828125,-0.186767578125,37.5732421875,65.841064453125
1759066617.3406076,-0.58642578125,-0.00439453125,0.80419921875,-1.64794921875,2.8076171875,3.173828125,-0.1812744140625,37.59521484375,65.885009765625
1759066617.3507266,-0.59619140625,-0.001953125,0.798828125,-4.08935546875,2.3193359375,3.47900390625,-0.1922607421875,37.6116943359375,65.928955078125
1759066617.361378,-0.59619140625,-0.001953125,0.798828125,-4.08935546875,2.3193359375,3.47900390625,-0.208740234375,37.6336669921875,65.972900390625
1759066617.3708167,-0.6083984375,0.0,0.79638671875,-4.2724609375,2.13623046875,3.47900390625,-0.2252197265625,37.650146484375,66.0223388671875
1759066617.3807466,-0.6083984375,0.0,0.79638671875,-4.2724609375,2.13623046875,3.47900390625,-0.24169921875,37.6666259765625,66.0662841796875
1759066617.3911207,-0.61376953125,-0.0078125,0.79150390625,-1.28173828125,2.3193359375,3.11279296875,-0.230712890625,37.6885986328125,66.1102294921875
1759066617.4006426,-0.61376953125,-0.0078125,0.79150390625,-1.28173828125,2.3193359375,3.11279296875,-0.2197265625,37.705078125,66.148681640625
1759066617.4108055,-0.607421875,-0.01123046875,0.79052734375,-0.06103515625,2.44140625,3.0517578125,-0.19775390625,37.72705078125,66.192626953125
1759066617.421361,-0.607421875,-0.01123046875,0.79052734375,-0.06103515625,2.44140625,3.0517578125,-0.17578125,37.7490234375,66.2310791015625
1759066617.4308817,-0.60302734375,0.00341796875,0.80078125,-2.25830078125,2.50244140625,3.23486328125,-0.1702880859375,37.77099609375,66.2750244140625
1759066617.4412386,-0.60302734375,0.00341796875,0.80078125,-2.25830078125,2.50244140625,3.23486328125,-0.1702880859375,37.79296875,66.3189697265625
1759066617.451041,-0.6015625,0.0068359375,0.8017578125,-3.662109375,2.62451171875,3.35693359375,-0.1812744140625,37.81494140625,66.3629150390625
1759066617.4608107,-0.6015625,0.0068359375,0.8017578125,-3.662109375,2.62451171875,3.35693359375,-0.1922607421875,37.8369140625,66.4068603515625
1759066617.4711568,-0.59716796875,-0.00146484375,0.7998046875,-5.43212890625,2.5634765625,3.662109375,-0.2142333984375,37.85888671875,66.456298828125
1759066617.4808896,-0.59716796875,-0.00146484375,0.7998046875,-5.43212890625,2.5634765625,3.662109375,-0.24169921875,37.880859375,66.51123046875
1759066617.4909072,-0.595703125,-0.005859375,0.80517578125,-5.859375,2.5634765625,3.72314453125,-0.2691650390625,37.8973388671875,66.5606689453125
1759066617.5013473,-0.595703125,-0.005859375,0.80517578125,-5.859375,2.5634765625,3.72314453125,-0.3021240234375,37.9193115234375,66.610107421875
1759066617.510868,-0.59423828125,-0.0107421875,0.8037109375,-4.638671875,2.5634765625,3.5400390625,-0.318603515625,37.9412841796875,66.6595458984375
1759066617.520843,-0.59423828125,-0.0107421875,0.8037109375,-4.638671875,2.5634765625,3.5400390625,-0.3350830078125,37.957763671875,66.7034912109375
1759066617.5309536,-0.57666015625,-0.00830078125,0.8173828125,-3.60107421875,2.44140625,3.2958984375,-0.3460693359375,37.9742431640625,66.7474365234375
1759066617.5411186,-0.57666015625,-0.00830078125,0.8173828125,-3.60107421875,2.44140625,3.2958984375,-0.3570556640625,37.99072265625,66.796875
1759066617.55099,-0.57666015625,-0.00830078125,0.8173828125,-2.74658203125,2.5634765625,3.173828125,-0.3570556640625,38.0072021484375,66.8408203125
1759066617.5610983,-0.57177734375,-0.0048828125,0.83642578125,-2.74658203125,2.5634765625,3.173828125,-0.362548828125,38.023681640625,66.884765625
1759066617.5714135,-0.5771484375,-0.005859375,0.80517578125,-0.732421875,2.86865234375,2.74658203125,-0.3460693359375,38.0401611328125,66.9232177734375
1759066617.5809293,-0.5771484375,-0.005859375,0.80517578125,-0.732421875,2.86865234375,2.74658203125,-0.3350830078125,38.056640625,66.961669921875
1759066617.591062,-0.599609375,-0.00830078125,0.796875,-0.18310546875,2.86865234375,2.62451171875,-0.3131103515625,38.0731201171875,67.0001220703125
1759066617.6015503,-0.599609375,-0.00830078125,0.796875,-0.18310546875,2.86865234375,2.62451171875,-0.296630859375,38.089599609375,67.03857421875
1759066617.611011,-0.6142578125,0.0,0.79345703125,-0.79345703125,2.86865234375,2.8076171875,-0.28564453125,38.111572265625,67.08251953125
1759066617.621032,-0.6142578125,0.0,0.79345703125,-0.79345703125,2.86865234375,2.8076171875,-0.2691650390625,38.1280517578125,67.1209716796875
1759066617.6311347,-0.623046875,0.00146484375,0.775390625,-2.74658203125,2.5634765625,3.173828125,-0.274658203125,38.14453125,67.1649169921875
1759066617.6418302,-0.623046875,0.00146484375,0.775390625,-2.74658203125,2.5634765625,3.173828125,-0.274658203125,38.1610107421875,67.2088623046875
1759066617.6510925,-0.626953125,-0.00439453125,0.77880859375,-3.41796875,2.25830078125,3.23486328125,-0.28564453125,38.177490234375,67.2528076171875
1759066617.6611936,-0.626953125,-0.00439453125,0.77880859375,-3.41796875,2.25830078125,3.23486328125,-0.2911376953125,38.1939697265625,67.2967529296875
1759066617.6715412,-0.62060546875,-0.013671875,0.783203125,-3.2958984375,2.13623046875,3.35693359375,-0.296630859375,38.21044921875,67.3406982421875
1759066617.6810746,-0.62060546875,-0.013671875,0.783203125,-3.2958984375,2.13623046875,3.35693359375,-0.3076171875,38.2269287109375,67.39013671875
1759066617.6911528,-0.61767578125,-0.00634765625,0.78759765625,-2.685546875,2.13623046875,3.47900390625,-0.3076171875,38.2489013671875,67.43408203125
1759066617.701354,-0.61767578125,-0.00634765625,0.78759765625,-2.685546875,2.13623046875,3.47900390625,-0.3076171875,38.265380859375,67.4835205078125
1759066617.7111084,-0.615234375,0.00146484375,0.79052734375,-2.8076171875,2.197265625,3.35693359375,-0.3076171875,38.2818603515625,67.5274658203125
1759066617.7210698,-0.615234375,0.00146484375,0.79052734375,-2.8076171875,2.197265625,3.35693359375,-0.3076171875,38.29833984375,67.576904296875
1759066617.7311866,-0.60693359375,0.0009765625,0.79052734375,-3.35693359375,2.197265625,3.23486328125,-0.318603515625,38.3203125,67.620849609375
1759066617.7413945,-0.60693359375,0.0009765625,0.79052734375,-3.35693359375,2.197265625,3.23486328125,-0.3240966796875,38.3367919921875,67.664794921875
1759066617.751102,-0.6025390625,-0.001953125,0.802734375,-2.99072265625,2.3193359375,3.0517578125,-0.32958984375,38.353271484375,67.708740234375
1759066617.7611709,-0.60107421875,-0.0048828125,0.80029296875,-2.197265625,2.44140625,2.8076171875,-0.3350830078125,38.375244140625,67.7471923828125
1759066617.771788,-0.60107421875,-0.0048828125,0.80029296875,-2.197265625,2.44140625,2.8076171875,-0.32958984375,38.3917236328125,67.7911376953125
1759066617.7811778,-0.60693359375,-0.00390625,0.79443359375,-1.52587890625,2.50244140625,2.62451171875,-0.32958984375,38.4136962890625,67.82958984375
1759066617.7913997,-0.60693359375,-0.00390625,0.79443359375,-1.52587890625,2.50244140625,2.62451171875,-0.3240966796875,38.43017578125,67.8680419921875
1759066617.8014553,-0.609375,0.0,0.791015625,-1.40380859375,2.5634765625,2.3193359375,-0.318603515625,38.4521484375,67.9010009765625
1759066617.8113074,-0.609375,0.0,0.791015625,-1.40380859375,2.5634765625,2.3193359375,-0.3131103515625,38.4686279296875,67.9339599609375
1759066617.8212197,-0.607421875,0.00146484375,0.79736328125,-1.46484375,2.50244140625,2.0751953125,-0.3076171875,38.4906005859375,67.9669189453125
1759066617.8313754,-0.607421875,0.00146484375,0.79736328125,-1.46484375,2.50244140625,2.0751953125,-0.3076171875,38.507080078125,67.9998779296875
1759066617.8414013,-0.60546875,0.00048828125,0.79638671875,-1.64794921875,2.3193359375,1.89208984375,-0.3076171875,38.5235595703125,68.02734375
1759066617.8512752,-0.60546875,0.00048828125,0.79638671875,-1.64794921875,2.3193359375,1.89208984375,-0.3076171875,38.5400390625,68.0548095703125
1759066617.861345,-0.607421875,-0.0009765625,0.7900390625,-1.5869140625,2.0751953125,1.89208984375,-0.3076171875,38.5565185546875,68.0877685546875
1759066617.8718743,-0.607421875,-0.0009765625,0.7900390625,-1.5869140625,2.0751953125,1.89208984375,-0.3076171875,38.5675048828125,68.115234375
1759066617.8813245,-0.60888671875,-0.00146484375,0.79150390625,-2.01416015625,1.89208984375,1.8310546875,-0.3076171875,38.583984375,68.1427001953125
1759066617.8916068,-0.60888671875,-0.00146484375,0.79150390625,-2.01416015625,1.89208984375,1.8310546875,-0.3131103515625,38.594970703125,68.170166015625
1759066617.9016192,-0.611328125,0.0009765625,0.7958984375,-2.8076171875,1.77001953125,1.8310546875,-0.318603515625,38.60595703125,68.203125
1759066617.9116023,-0.611328125,0.0009765625,0.7958984375,-2.8076171875,1.77001953125,1.8310546875,-0.32958984375,38.616943359375,68.2305908203125
1759066617.921693,-0.61376953125,0.00244140625,0.7861328125,-3.23486328125,1.52587890625,1.89208984375,-0.3460693359375,38.6279296875,68.258056640625
1759066617.9322445,-0.61376953125,0.00244140625,0.7861328125,-3.23486328125,1.52587890625,1.89208984375,-0.362548828125,38.6334228515625,68.2855224609375
1759066617.9416695,-0.61474609375,0.0,0.78466796875,-2.8076171875,1.15966796875,1.89208984375,-0.37353515625,38.6444091796875,68.31298828125
1759066617.9514897,-0.61474609375,0.0,0.78466796875,-2.8076171875,1.15966796875,1.89208984375,-0.384521484375,38.64990234375,68.3404541015625
1759066617.961403,-0.61865234375,-0.0029296875,0.78857421875,-2.01416015625,1.0986328125,1.8310546875,-0.3900146484375,38.6553955078125,68.3734130859375
1759066617.972081,-0.61865234375,-0.0029296875,0.78857421875,-2.01416015625,1.0986328125,1.8310546875,-0.3955078125,38.660888671875,68.40087890625
1759066617.9814193,-0.6220703125,-0.00537109375,0.787109375,-1.89208984375,1.03759765625,1.77001953125,-0.3955078125,38.6663818359375,68.4283447265625
1759066617.9914892,-0.6220703125,-0.00537109375,0.787109375,-1.89208984375,1.03759765625,1.77001953125,-0.4010009765625,38.671875,68.455810546875
1759066618.001707,-0.62451171875,-0.0048828125,0.783203125,-2.50244140625,0.9765625,1.64794921875,-0.406494140625,38.6773681640625,68.477783203125
1759066618.0116668,-0.62451171875,-0.0048828125,0.783203125,-2.50244140625,0.9765625,1.64794921875,-0.41748046875,38.682861328125,68.5052490234375
1759066618.0215297,-0.62744140625,-0.0078125,0.77587890625,-2.3193359375,1.0986328125,1.52587890625,-0.428466796875,38.6883544921875,68.53271484375
1759066618.0320065,-0.62744140625,-0.0078125,0.77587890625,-2.3193359375,1.0986328125,1.52587890625,-0.439453125,38.69384765625,68.5546875
1759066618.0417845,-0.630859375,-0.01220703125,0.775390625,-1.5869140625,1.0986328125,1.220703125,-0.4449462890625,38.704833984375,68.57666015625
1759066618.0514693,-0.630859375,-0.01220703125,0.775390625,-1.5869140625,1.0986328125,1.220703125,-0.450439453125,38.7103271484375,68.5931396484375
1759066618.0615048,-0.630859375,-0.01220703125,0.775390625,-0.91552734375,1.0986328125,1.03759765625,-0.450439453125,38.7213134765625,68.6151123046875
1759066618.0721102,-0.63330078125,-0.009765625,0.77490234375,-0.91552734375,1.0986328125,1.03759765625,-0.4559326171875,38.726806640625,68.631591796875
1759066618.0815158,-0.63525390625,-0.00439453125,0.77587890625,-0.54931640625,0.9765625,0.732421875,-0.4559326171875,38.73779296875,68.642578125
1759066618.0917983,-0.63525390625,-0.00439453125,0.77587890625,-0.54931640625,0.9765625,0.732421875,-0.450439453125,38.748779296875,68.6590576171875
1759066618.1019015,-0.63671875,-0.001953125,0.77197265625,-0.9765625,0.732421875,0.54931640625,-0.4559326171875,38.7542724609375,68.6700439453125
1759066618.1116588,-0.63671875,-0.001953125,0.77197265625,-0.9765625,0.732421875,0.54931640625,-0.46142578125,38.7652587890625,68.6810302734375
1759066618.1215913,-0.638671875,-0.00390625,0.76513671875,-0.9765625,0.67138671875,0.54931640625,-0.4669189453125,38.770751953125,68.6920166015625
1759066618.1327448,-0.638671875,-0.00390625,0.76513671875,-0.9765625,0.67138671875,0.54931640625,-0.4669189453125,38.7762451171875,68.697509765625
1759066618.141825,-0.642578125,-0.00634765625,0.763671875,-0.42724609375,0.54931640625,0.42724609375,-0.472412109375,38.7872314453125,68.70849609375
1759066618.1516106,-0.642578125,-0.00634765625,0.763671875,-0.42724609375,0.54931640625,0.42724609375,-0.472412109375,38.792724609375,68.7139892578125
1759066618.1616373,-0.642578125,-0.00830078125,0.765625,-0.30517578125,0.42724609375,0.244140625,-0.472412109375,38.7982177734375,68.719482421875
1759066618.1721656,-0.642578125,-0.00830078125,0.765625,-0.30517578125,0.42724609375,0.244140625,-0.472412109375,38.8092041015625,68.7249755859375
1759066618.1816647,-0.64111328125,-0.0078125,0.77197265625,-0.06103515625,0.42724609375,0.06103515625,-0.472412109375,38.814697265625,68.73046875
1759066618.191868,-0.64111328125,-0.0078125,0.77197265625,-0.06103515625,0.42724609375,0.06103515625,-0.472412109375,38.82568359375,68.73046875
1759066618.2080154,-0.638671875,-0.00830078125,0.76513671875,0.18310546875,0.3662109375,0.0,-0.472412109375,38.8311767578125,68.7359619140625
1759066618.2156944,-0.638671875,-0.00830078125,0.76513671875,0.18310546875,0.3662109375,0.0,-0.472412109375,38.836669921875,68.7359619140625
1759066618.2231944,-0.64013671875,-0.005859375,0.76904296875,0.1220703125,0.30517578125,-0.18310546875,-0.472412109375,38.84765625,68.7359619140625
1759066618.2360082,-0.64013671875,-0.005859375,0.76904296875,0.1220703125,0.30517578125,-0.18310546875,-0.472412109375,38.8531494140625,68.7359619140625
1759066618.244552,-0.6376953125,-0.00537109375,0.77099609375,0.48828125,0.30517578125,-0.30517578125,-0.4669189453125,38.858642578125,68.73046875
1759066618.2519295,-0.6376953125,-0.00537109375,0.77099609375,0.48828125,0.30517578125,-0.30517578125,-0.4669189453125,38.86962890625,68.73046875
1759066618.262476,-0.63671875,-0.00732421875,0.7705078125,1.03759765625,0.18310546875,-0.3662109375,-0.46142578125,38.8751220703125,68.73046875
1759066618.272404,-0.63671875,-0.00732421875,0.7705078125,1.03759765625,0.18310546875,-0.3662109375,-0.4559326171875,38.880615234375,68.7249755859375
1759066618.2825341,-0.634765625,-0.005859375,0.77294921875,0.8544921875,0.0,-0.42724609375,-0.450439453125,38.8861083984375,68.719482421875
1759066618.2923536,-0.634765625,-0.005859375,0.77294921875,0.8544921875,0.0,-0.42724609375,-0.4449462890625,38.8861083984375,68.7139892578125
1759066618.3029642,-0.63671875,-0.00634765625,0.77197265625,0.67138671875,0.06103515625,-0.54931640625,-0.439453125,38.8916015625,68.7139892578125
1759066618.3121147,-0.63671875,-0.00634765625,0.77197265625,0.67138671875,0.06103515625,-0.54931640625,-0.439453125,38.8970947265625,68.70849609375
1759066618.322814,-0.63916015625,-0.005859375,0.7724609375,0.8544921875,0.18310546875,-0.732421875,-0.4339599609375,38.902587890625,68.697509765625
1759066618.3325365,-0.63916015625,-0.005859375,0.7724609375,0.8544921875,0.18310546875,-0.732421875,-0.4339599609375,38.9080810546875,68.6920166015625
1759066618.3428738,-0.638671875,-0.0048828125,0.771484375,0.6103515625,0.244140625,-0.79345703125,-0.4339599609375,38.91357421875,68.6865234375
1759066618.3522491,-0.638671875,-0.0048828125,0.771484375,0.6103515625,0.244140625,-0.79345703125,-0.4339599609375,38.9190673828125,68.675537109375
1759066618.3626044,-0.638671875,-0.00390625,0.76904296875,0.54931640625,0.244140625,-0.91552734375,-0.4339599609375,38.924560546875,68.66455078125
1759066618.3728707,-0.638671875,-0.00390625,0.76904296875,0.54931640625,0.244140625,-0.91552734375,-0.4339599609375,38.9300537109375,68.653564453125
1759066618.3827343,-0.6416015625,-0.00537109375,0.76953125,0.30517578125,0.1220703125,-0.8544921875,-0.439453125,38.935546875,68.642578125
1759066618.3920543,-0.6416015625,-0.00537109375,0.76953125,0.30517578125,0.1220703125,-0.8544921875,-0.439453125,38.9410400390625,68.6370849609375
1759066618.4031458,-0.642578125,-0.00537109375,0.76513671875,0.0,0.06103515625,-0.91552734375,-0.4449462890625,38.946533203125,68.6260986328125
1759066618.4122512,-0.642578125,-0.00537109375,0.76513671875,0.0,0.06103515625,-0.91552734375,-0.4559326171875,38.9520263671875,68.6151123046875
1759066618.4229097,-0.6435546875,-0.005859375,0.76318359375,0.06103515625,0.06103515625,-0.91552734375,-0.46142578125,38.95751953125,68.6041259765625
1759066618.4325502,-0.6435546875,-0.005859375,0.76318359375,0.06103515625,0.06103515625,-0.91552734375,-0.4669189453125,38.9630126953125,68.5931396484375
1759066618.4429386,-0.64404296875,-0.00732421875,0.76611328125,0.0,-0.06103515625,-0.8544921875,-0.472412109375,38.968505859375,68.5821533203125
1759066618.452173,-0.64404296875,-0.00732421875,0.76611328125,0.0,-0.06103515625,-0.8544921875,-0.4833984375,38.9739990234375,68.5711669921875
1759066618.4626071,-0.6416015625,-0.00634765625,0.7666015625,0.06103515625,-0.06103515625,-0.8544921875,-0.4888916015625,38.9739990234375,68.5601806640625
1759066618.4728944,-0.6416015625,-0.00634765625,0.7666015625,0.06103515625,-0.06103515625,-0.8544921875,-0.494384765625,38.9794921875,68.5546875
1759066618.482654,-0.640625,-0.0087890625,0.7685546875,-0.1220703125,-0.18310546875,-0.8544921875,-0.4998779296875,38.9849853515625,68.543701171875
1759066618.4925854,-0.640625,-0.0087890625,0.7685546875,-0.1220703125,-0.18310546875,-0.8544921875,-0.50537109375,38.990478515625,68.53271484375
1759066618.503192,-0.63623046875,-0.02880859375,0.7705078125,0.48828125,-0.244140625,-1.3427734375,-0.516357421875,38.990478515625,68.521728515625
1759066618.5124712,-0.63623046875,-0.02880859375,0.7705078125,0.48828125,-0.244140625,-1.3427734375,-0.5218505859375,38.9959716796875,68.5052490234375
1759066618.5226536,-0.63427734375,-0.03125,0.77099609375,1.77001953125,-0.244140625,-1.0986328125,-0.5218505859375,38.9959716796875,68.48876953125
1759066618.5328333,-0.63427734375,-0.03125,0.77099609375,1.77001953125,-0.244140625,-1.0986328125,-0.516357421875,38.9959716796875,68.477783203125
1759066618.5427341,-0.6318359375,-0.0126953125,0.7783203125,1.953125,-0.3662109375,-1.0986328125,-0.5108642578125,38.9959716796875,68.4613037109375
1759066618.5525343,-0.6318359375,-0.0126953125,0.7783203125,1.953125,-0.3662109375,-1.0986328125,-0.50537109375,38.9959716796875,68.4503173828125
1759066618.5625222,-0.62841796875,0.009765625,0.78173828125,2.44140625,-0.244140625,-1.0986328125,-0.494384765625,39.00146484375,68.4393310546875
1759066618.5730295,-0.62841796875,0.009765625,0.78173828125,2.44140625,-0.244140625,-1.0986328125,-0.4779052734375,39.00146484375,68.4283447265625
1759066618.5825937,-0.62841796875,0.01611328125,0.77685546875,1.8310546875,-0.244140625,-1.15966796875,-0.4669189453125,39.00146484375,68.411865234375
1759066618.5923562,-0.62841796875,0.01611328125,0.77685546875,1.8310546875,-0.244140625,-1.15966796875,-0.46142578125,39.00146484375,68.40087890625
1759066618.602949,-0.62451171875,-0.0009765625,0.78173828125,0.48828125,-0.244140625,-0.9765625,-0.4559326171875,39.00146484375,68.389892578125
1759066618.6125243,-0.62451171875,-0.0009765625,0.78173828125,0.48828125,-0.244140625,-0.9765625,-0.4559326171875,38.9959716796875,68.37890625
1759066618.622181,-0.623046875,0.0107421875,0.78173828125,2.25830078125,-0.244140625,-0.79345703125,-0.450439453125,38.9959716796875,68.367919921875
1759066618.6367228,-0.623046875,0.0107421875,0.78173828125,2.25830078125,-0.244140625,-0.79345703125,-0.4339599609375,38.9959716796875,68.35693359375
1759066618.6444376,-0.6220703125,0.00830078125,0.779296875,2.50244140625,-0.18310546875,-0.79345703125,-0.4119873046875,38.9959716796875,68.3514404296875
1759066618.6527083,-0.6220703125,0.00830078125,0.779296875,2.50244140625,-0.18310546875,-0.79345703125,-0.3900146484375,38.990478515625,68.3404541015625
1759066618.6626813,-0.62109375,0.00732421875,0.7900390625,-0.67138671875,-0.244140625,-0.79345703125,-0.384521484375,38.990478515625,68.3349609375
1759066618.6731782,-0.62109375,0.00732421875,0.7900390625,-0.67138671875,-0.244140625,-0.79345703125,-0.3955078125,38.9849853515625,68.323974609375
1759066618.6827826,-0.61962890625,0.00439453125,0.791015625,-4.33349609375,-0.244140625,-0.244140625,-0.4229736328125,38.9849853515625,68.3184814453125
1759066618.6923933,-0.61962890625,0.00439453125,0.791015625,-4.33349609375,-0.244140625,-0.244140625,-0.4669189453125,38.9794921875,68.3184814453125
1759066618.7038703,-0.6171875,-0.00634765625,0.78125,-4.08935546875,-0.3662109375,-0.54931640625,-0.50537109375,38.9739990234375,68.3184814453125
1759066618.7127886,-0.6171875,-0.00634765625,0.78125,-4.08935546875,-0.3662109375,-0.54931640625,-0.54931640625,38.968505859375,68.31298828125
1759066618.722949,-0.6171875,-0.029296875,0.78076171875,-0.48828125,-0.48828125,-0.67138671875,-0.5712890625,38.9630126953125,68.3074951171875
1759066618.732988,-0.6171875,-0.029296875,0.78076171875,-0.48828125,-0.48828125,-0.67138671875,-0.582275390625,38.95751953125,68.2965087890625
1759066618.7428792,-0.62060546875,-0.02734375,0.7822265625,2.13623046875,-0.48828125,-0.67138671875,-0.5767822265625,38.946533203125,68.291015625
1759066618.7527,-0.62060546875,-0.02734375,0.7822265625,2.13623046875,-0.48828125,-0.67138671875,-0.560302734375,38.9410400390625,68.2855224609375
1759066618.7628431,-0.6259765625,0.00048828125,0.78759765625,0.6103515625,-0.54931640625,-0.6103515625,-0.5548095703125,38.935546875,68.280029296875
1759066618.7731595,-0.6259765625,0.00048828125,0.78759765625,0.6103515625,-0.54931640625,-0.6103515625,-0.54931640625,38.924560546875,68.2745361328125
1759066618.7828696,-0.630859375,-0.00048828125,0.78759765625,-2.197265625,-0.732421875,-0.54931640625,-0.5657958984375,38.9190673828125,68.26904296875
1759066618.792614,-0.630859375,-0.00048828125,0.78759765625,-2.197265625,-0.732421875,-0.54931640625,-0.5877685546875,38.9080810546875,68.2635498046875
1759066618.8039007,-0.63330078125,-0.01708984375,0.77001953125,0.30517578125,-0.67138671875,-0.48828125,-0.5877685546875,38.8970947265625,68.258056640625
1759066618.8124297,-0.63330078125,-0.01708984375,0.77001953125,0.30517578125,-0.67138671875,-0.48828125,-0.59326171875,38.8916015625,68.2525634765625
1759066618.823953,-0.64990234375,-0.0185546875,0.77099609375,3.96728515625,-0.732421875,-0.79345703125,-0.560302734375,38.880615234375,68.2415771484375
1759066618.8331769,-0.64990234375,-0.0185546875,0.77099609375,3.96728515625,-0.732421875,-0.79345703125,-0.52734375,38.8751220703125,68.2305908203125
1759066618.842528,-0.6669921875,-0.01904296875,0.759765625,5.615234375,-0.30517578125,-0.67138671875,-0.4779052734375,38.8751220703125,68.22509765625
1759066618.8524673,-0.6669921875,-0.01904296875,0.759765625,5.615234375,-0.30517578125,-0.67138671875,-0.428466796875,38.8751220703125,68.214111328125
1759066618.8624625,-0.68798828125,-0.021484375,0.72705078125,3.7841796875,0.0,-0.79345703125,-0.4010009765625,38.880615234375,68.2086181640625
1759066618.8728707,-0.68798828125,-0.021484375,0.72705078125,3.7841796875,0.0,-0.79345703125,-0.37353515625,38.8861083984375,68.1976318359375
1759066618.8825629,-0.7177734375,-0.0068359375,0.69970703125,6.7138671875,0.3662109375,-0.67138671875,-0.3131103515625,38.902587890625,68.1866455078125
1759066618.8927138,-0.7177734375,-0.0068359375,0.69970703125,6.7138671875,0.3662109375,-0.67138671875,-0.2581787109375,38.9190673828125,68.1756591796875
1759066618.9026837,-0.72607421875,0.00732421875,0.6865234375,9.46044921875,0.67138671875,-0.54931640625,-0.1702880859375,38.9410400390625,68.1646728515625
1759066618.9126017,-0.72607421875,0.00732421875,0.6865234375,9.46044921875,0.67138671875,-0.54931640625,-0.0823974609375,38.9630126953125,68.148193359375
1759066618.9225824,-0.693359375,-0.009765625,0.71533203125,2.86865234375,0.48828125,0.0,-0.0604248046875,38.990478515625,68.1427001953125
1759066618.933096,-0.693359375,-0.009765625,0.71533203125,2.86865234375,0.48828125,0.0,-0.032958984375,39.0179443359375,68.13720703125
1759066618.9430156,-0.65966796875,-0.01513671875,0.7509765625,-1.77001953125,0.18310546875,0.732421875,-0.0494384765625,39.0399169921875,68.1427001953125
1759066618.952604,-0.65966796875,-0.01513671875,0.7509765625,-1.77001953125,0.18310546875,0.732421875,-0.06591796875,39.0618896484375,68.148193359375
1759066618.9626613,-0.63671875,-0.00634765625,0.7685546875,-4.2724609375,-0.1220703125,0.9765625,-0.1043701171875,39.078369140625,68.1536865234375
1759066618.9727623,-0.63671875,-0.00634765625,0.7685546875,-4.2724609375,-0.1220703125,0.9765625,-0.142822265625,39.0948486328125,68.1646728515625
1759066618.9826398,-0.625,-0.00146484375,0.78515625,-3.23486328125,-0.30517578125,0.79345703125,-0.1702880859375,39.1058349609375,68.170166015625
1759066618.9926863,-0.625,-0.00146484375,0.78515625,-3.23486328125,-0.30517578125,0.79345703125,-0.19775390625,39.111328125,68.1756591796875
1759066619.0028272,-0.6083984375,-0.01171875,0.7978515625,0.18310546875,-0.244140625,0.67138671875,-0.1922607421875,39.122314453125,68.18115234375
1759066619.012695,-0.6083984375,-0.01171875,0.7978515625,0.18310546875,-0.244140625,0.67138671875,-0.186767578125,39.1278076171875,68.1866455078125
1759066619.022749,-0.6064453125,-0.0126953125,0.7978515625,5.126953125,-0.30517578125,0.48828125,-0.1373291015625,39.13330078125,68.192138671875
1759066619.0329912,-0.6064453125,-0.0126953125,0.7978515625,5.126953125,-0.30517578125,0.48828125,-0.0823974609375,39.13330078125,68.1976318359375
1759066619.043298,-0.61328125,0.0,0.7939453125,7.8125,-0.48828125,0.0,-0.010986328125,39.13330078125,68.1976318359375
1759066619.0527565,-0.61328125,0.0,0.7939453125,7.8125,-0.48828125,0.0,0.0604248046875,39.1278076171875,68.1976318359375
1759066619.0627658,-0.61328125,0.0,0.7939453125,8.1787109375,-0.67138671875,-0.18310546875,0.1373291015625,39.122314453125,68.192138671875
1759066619.0728781,-0.61376953125,0.0078125,0.802734375,8.1787109375,-0.67138671875,-0.18310546875,0.2142333984375,39.1168212890625,68.192138671875
1759066619.0827584,-0.6162109375,0.0283203125,0.80224609375,4.7607421875,-1.15966796875,-0.244140625,0.252685546875,39.1058349609375,68.192138671875
1759066619.0928035,-0.6162109375,0.0283203125,0.80224609375,4.7607421875,-1.15966796875,-0.244140625,0.296630859375,39.0948486328125,68.1866455078125
1759066619.1032472,-0.619140625,0.02783203125,0.78857421875,-0.244140625,-1.708984375,-0.54931640625,0.2911376953125,39.0728759765625,68.18115234375
1759066619.1133032,-0.619140625,0.02783203125,0.78857421875,-0.244140625,-1.708984375,-0.54931640625,0.28564453125,39.056396484375,68.1756591796875
1759066619.1240714,-0.62060546875,0.009765625,0.791015625,-4.82177734375,-2.01416015625,-0.244140625,0.2362060546875,39.0289306640625,68.1756591796875
1759066619.1377165,-0.62060546875,0.009765625,0.791015625,-4.82177734375,-2.01416015625,-0.244140625,0.186767578125,39.0069580078125,68.170166015625
1759066619.1449482,-0.62548828125,-0.0107421875,0.7939453125,-5.79833984375,-2.0751953125,-0.18310546875,0.1318359375,38.9849853515625,68.170166015625
1759066619.1528668,-0.62548828125,-0.0107421875,0.7939453125,-5.79833984375,-2.0751953125,-0.18310546875,0.0714111328125,38.9630126953125,68.170166015625
1759066619.1628964,-0.6279296875,-0.02099609375,0.78369140625,-2.8076171875,-2.197265625,-0.18310546875,0.0439453125,38.935546875,68.170166015625
1759066619.1733017,-0.6279296875,-0.02099609375,0.78369140625,-2.8076171875,-2.197265625,-0.18310546875,0.010986328125,38.91357421875,68.170166015625
1759066619.1829264,-0.6318359375,-0.0087890625,0.7763671875,0.18310546875,-2.13623046875,-0.244140625,0.010986328125,38.8916015625,68.1646728515625
1759066619.1929774,-0.6318359375,-0.0087890625,0.7763671875,0.18310546875,-2.13623046875,-0.244140625,0.010986328125,38.8641357421875,68.1646728515625
1759066619.2033572,-0.63671875,0.005859375,0.77587890625,0.67138671875,-2.0751953125,-0.3662109375,0.0164794921875,38.84765625,68.1591796875
1759066619.2129698,-0.63671875,0.005859375,0.77587890625,0.67138671875,-2.0751953125,-0.3662109375,0.0164794921875,38.82568359375,68.1591796875
1759066619.2230167,-0.63525390625,0.01025390625,0.77783203125,-1.5869140625,-2.01416015625,-0.42724609375,0.0,38.8037109375,68.1536865234375
1759066619.2330768,-0.63525390625,0.01025390625,0.77783203125,-1.5869140625,-2.01416015625,-0.42724609375,-0.0164794921875,38.78173828125,68.148193359375
1759066619.2430553,-0.6318359375,0.0009765625,0.77294921875,-2.86865234375,-1.8310546875,-0.54931640625,-0.0494384765625,38.7652587890625,68.1427001953125
1759066619.2530336,-0.6318359375,0.0009765625,0.77294921875,-2.86865234375,-1.8310546875,-0.54931640625,-0.0823974609375,38.748779296875,68.13720703125
1759066619.2629972,-0.63232421875,-0.0078125,0.7734375,-3.0517578125,-1.64794921875,-0.48828125,-0.1153564453125,38.7322998046875,68.1317138671875
1759066619.2734864,-0.63232421875,-0.0078125,0.7734375,-3.0517578125,-1.64794921875,-0.48828125,-0.1483154296875,38.7213134765625,68.1207275390625
1759066619.283029,-0.62646484375,-0.00390625,0.78173828125,-1.64794921875,-1.3427734375,-0.6103515625,-0.1702880859375,38.704833984375,68.115234375
1759066619.2930691,-0.62646484375,-0.00390625,0.78173828125,-1.64794921875,-1.3427734375,-0.6103515625,-0.186767578125,38.69384765625,68.1097412109375
1759066619.3035896,-0.6279296875,0.0,0.78076171875,-0.91552734375,-1.220703125,-0.79345703125,-0.2032470703125,38.682861328125,68.0987548828125
1759066619.3131163,-0.6279296875,0.0,0.78076171875,-0.91552734375,-1.220703125,-0.79345703125,-0.2197265625,38.671875,68.0877685546875
1759066619.3231442,-0.634765625,-0.01171875,0.77001953125,0.48828125,-1.03759765625,-0.8544921875,-0.2197265625,38.6663818359375,68.0767822265625
1759066619.3332074,-0.634765625,-0.01171875,0.77001953125,0.48828125,-1.03759765625,-0.8544921875,-0.2197265625,38.6553955078125,68.0657958984375
1759066619.3433456,-0.638671875,-0.01416015625,0.759765625,1.52587890625,-0.91552734375,-0.54931640625,-0.208740234375,38.64990234375,68.060302734375
1759066619.3533585,-0.638671875,-0.01416015625,0.759765625,1.52587890625,-0.91552734375,-0.54931640625,-0.19775390625,38.6444091796875,68.0548095703125
1759066619.3631349,-0.63818359375,-0.0068359375,0.76416015625,1.953125,-0.9765625,-0.244140625,-0.1812744140625,38.638916015625,68.04931640625
1759066619.3736207,-0.63818359375,-0.0068359375,0.76416015625,1.953125,-0.9765625,-0.244140625,-0.1702880859375,38.6334228515625,68.04931640625
1759066619.383172,-0.63818359375,-0.0068359375,0.76318359375,2.197265625,-0.9765625,-0.3662109375,-0.1483154296875,38.6279296875,68.0438232421875
1759066619.3932064,-0.63818359375,-0.0068359375,0.76318359375,2.197265625,-0.9765625,-0.3662109375,-0.1318359375,38.6224365234375,68.038330078125
1759066619.404001,-0.6396484375,-0.01123046875,0.75927734375,2.74658203125,-0.91552734375,-0.30517578125,-0.10986328125,38.616943359375,68.0328369140625
1759066619.413213,-0.6396484375,-0.01123046875,0.75927734375,2.74658203125,-0.91552734375,-0.30517578125,-0.087890625,38.616943359375,68.02734375
1759066619.4234412,-0.63525390625,-0.01318359375,0.7646484375,3.41796875,-0.8544921875,-0.244140625,-0.054931640625,38.6114501953125,68.0218505859375
1759066619.433397,-0.63525390625,-0.01318359375,0.7646484375,3.41796875,-0.8544921875,-0.244140625,-0.0274658203125,38.6114501953125,68.016357421875
1759066619.443654,-0.62744140625,-0.005859375,0.78125,4.08935546875,-0.79345703125,-0.1220703125,0.0,38.60595703125,68.016357421875
1759066619.453469,-0.62744140625,-0.005859375,0.78125,4.08935546875,-0.79345703125,-0.1220703125,0.0384521484375,38.60595703125,68.0108642578125
1759066619.4634645,-0.6240234375,0.00390625,0.78857421875,3.41796875,-0.54931640625,-0.244140625,0.06591796875,38.60595703125,68.0108642578125
1759066619.4736824,-0.6240234375,0.00390625,0.78857421875,3.41796875,-0.54931640625,-0.244140625,0.098876953125,38.6004638671875,68.00537109375
1759066619.4836712,-0.62353515625,0.0107421875,0.7861328125,1.46484375,-0.42724609375,-0.1220703125,0.10986328125,38.6004638671875,67.9998779296875
1759066619.493329,-0.62353515625,0.0107421875,0.7861328125,1.46484375,-0.42724609375,-0.1220703125,0.120849609375,38.6004638671875,67.9998779296875
1759066619.5039682,-0.6201171875,0.0078125,0.79052734375,0.1220703125,-0.244140625,-0.06103515625,0.120849609375,38.6004638671875,67.9998779296875
1759066619.5133615,-0.6201171875,0.0078125,0.79052734375,0.1220703125,-0.244140625,-0.06103515625,0.120849609375,38.6004638671875,67.994384765625
1759066619.5234017,-0.61181640625,0.00048828125,0.79931640625,0.6103515625,-0.1220703125,-0.244140625,0.120849609375,38.6004638671875,67.994384765625
1759066619.5334895,-0.61181640625,0.00048828125,0.79931640625,0.6103515625,-0.1220703125,-0.244140625,0.1263427734375,38.6004638671875,67.9888916015625
1759066619.5436738,-0.60888671875,-0.00634765625,0.79638671875,1.03759765625,-0.06103515625,-0.1220703125,0.1318359375,38.6004638671875,67.9888916015625
1759066619.5534213,-0.60888671875,-0.00634765625,0.79638671875,1.03759765625,-0.06103515625,-0.1220703125,0.142822265625,38.594970703125,67.9888916015625
1759066619.5633914,-0.607421875,-0.00244140625,0.7958984375,1.89208984375,-0.06103515625,0.0,0.1593017578125,38.594970703125,67.9888916015625
1759066619.5737693,-0.607421875,-0.00244140625,0.7958984375,1.89208984375,-0.06103515625,0.0,0.17578125,38.5894775390625,67.9888916015625
1759066619.5834005,-0.603515625,-0.001953125,0.80712890625,2.685546875,-0.1220703125,0.1220703125,0.2032470703125,38.5894775390625,67.994384765625
1759066619.593535,-0.603515625,-0.001953125,0.80712890625,2.685546875,-0.1220703125,0.1220703125,0.2252197265625,38.583984375,67.994384765625
1759066619.6035979,-0.58935546875,0.0,0.806640625,4.69970703125,-0.30517578125,-0.06103515625,0.274658203125,38.572998046875,67.994384765625
1759066619.613561,-0.58935546875,0.0,0.806640625,4.69970703125,-0.30517578125,-0.06103515625,0.318603515625,38.5675048828125,67.994384765625
1759066619.6235452,-0.58837890625,-0.0107421875,0.8193359375,6.40869140625,-0.54931640625,-0.42724609375,0.37353515625,38.551025390625,67.994384765625
1759066619.6336212,-0.58837890625,-0.0107421875,0.8193359375,6.40869140625,-0.54931640625,-0.42724609375,0.428466796875,38.5400390625,67.9888916015625
1759066619.643707,-0.58984375,-0.00732421875,0.81591796875,7.87353515625,-0.6103515625,-0.67138671875,0.4998779296875,38.5235595703125,67.9833984375
1759066619.6535542,-0.58984375,-0.00732421875,0.81591796875,7.87353515625,-0.6103515625,-0.67138671875,0.5657958984375,38.5125732421875,67.9779052734375
1759066619.6635392,-0.59765625,0.025390625,0.79931640625,8.7890625,-0.67138671875,-0.6103515625,0.648193359375,38.49609375,67.972412109375
1759066619.6742377,-0.59765625,0.025390625,0.79931640625,8.7890625,-0.67138671875,-0.6103515625,0.72509765625,38.4796142578125,67.9669189453125
1759066619.6835449,-0.61279296875,0.025390625,0.77978515625,7.75146484375,-0.67138671875,-0.8544921875,0.791015625,38.463134765625,67.96142578125
1759066619.6936097,-0.61279296875,0.025390625,0.77978515625,7.75146484375,-0.67138671875,-0.8544921875,0.8624267578125,38.4521484375,67.950439453125
1759066619.7039664,-0.61572265625,0.015625,0.78564453125,6.9580078125,-0.732421875,-0.79345703125,0.9228515625,38.4356689453125,67.9449462890625
1759066619.716843,-0.61572265625,0.015625,0.78564453125,6.9580078125,-0.732421875,-0.79345703125,0.9832763671875,38.419189453125,67.9339599609375
1759066619.7237139,-0.61669921875,0.0087890625,0.7763671875,7.14111328125,-0.67138671875,-0.67138671875,1.043701171875,38.408203125,67.928466796875
1759066619.7370431,-0.61669921875,0.0087890625,0.7763671875,7.14111328125,-0.67138671875,-0.67138671875,1.109619140625,38.397216796875,67.9229736328125
1759066619.7441857,-0.62939453125,0.00927734375,0.76708984375,7.99560546875,-0.79345703125,-0.67138671875,1.1810302734375,38.38623046875,67.91748046875
1759066619.753719,-0.62939453125,0.00927734375,0.76708984375,7.99560546875,-0.79345703125,-0.67138671875,1.25244140625,38.375244140625,67.9119873046875
1759066619.7637165,-0.63525390625,0.01611328125,0.7646484375,7.62939453125,-0.732421875,-0.54931640625,1.318359375,38.3642578125,67.906494140625
1759066619.774088,-0.63525390625,0.01611328125,0.7646484375,7.62939453125,-0.732421875,-0.54931640625,1.38427734375,38.3587646484375,67.8955078125
1759066619.7837038,-0.62890625,0.02685546875,0.75927734375,6.89697265625,-0.8544921875,-0.67138671875,1.4447021484375,38.3477783203125,67.8900146484375
1759066619.7937458,-0.63232421875,0.0224609375,0.7744140625,6.65283203125,-0.79345703125,-0.48828125,1.505126953125,38.34228515625,67.884521484375
1759066619.803821,-0.63232421875,0.0224609375,0.7744140625,6.65283203125,-0.79345703125,-0.48828125,1.5655517578125,38.331298828125,67.8790283203125
1759066619.8137534,-0.63330078125,0.02978515625,0.7607421875,5.7373046875,-0.91552734375,-0.54931640625,1.6204833984375,38.3258056640625,67.8680419921875
1759066619.8238046,-0.63330078125,0.02978515625,0.7607421875,5.7373046875,-0.91552734375,-0.54931640625,1.669921875,38.3203125,67.862548828125
1759066619.8341014,-0.6357421875,0.029296875,0.76904296875,4.8828125,-0.91552734375,-0.48828125,1.7138671875,38.3148193359375,67.8570556640625
1759066619.8440175,-0.6357421875,0.029296875,0.76904296875,4.8828125,-0.91552734375,-0.48828125,1.7578125,38.309326171875,67.8515625
1759066619.8537924,-0.63134765625,0.03125,0.77392578125,3.47900390625,-0.9765625,-0.42724609375,1.790771484375,38.3038330078125,67.8460693359375
1759066619.8638098,-0.63134765625,0.03125,0.77392578125,3.47900390625,-0.9765625,-0.42724609375,1.82373046875,38.29833984375,67.840576171875
1759066619.874423,-0.625,0.03564453125,0.775390625,2.38037109375,-1.03759765625,-0.42724609375,1.845703125,38.2928466796875,67.8350830078125
1759066619.8838196,-0.625,0.03564453125,0.775390625,2.38037109375,-1.03759765625,-0.42724609375,1.86767578125,38.287353515625,67.82958984375
1759066619.8939075,-0.62451171875,0.04248046875,0.78515625,0.8544921875,-1.03759765625,-0.42724609375,1.878662109375,38.2818603515625,67.818603515625
1759066619.9038863,-0.62451171875,0.04248046875,0.78515625,0.8544921875,-1.03759765625,-0.42724609375,1.8841552734375,38.2708740234375,67.8131103515625
1759066619.9138715,-0.62255859375,0.03759765625,0.78759765625,-0.732421875,-0.91552734375,-0.54931640625,1.878662109375,38.265380859375,67.8076171875
1759066619.923868,-0.62255859375,0.03759765625,0.78759765625,-0.732421875,-0.91552734375,-0.54931640625,1.86767578125,38.2598876953125,67.8021240234375
1759066619.934134,-0.62548828125,0.0380859375,0.78076171875,-2.3193359375,-0.79345703125,-0.42724609375,1.8511962890625,38.25439453125,67.7911376953125
1759066619.9440303,-0.62548828125,0.0380859375,0.78076171875,-2.3193359375,-0.79345703125,-0.42724609375,1.8292236328125,38.2489013671875,67.78564453125
1759066619.9541311,-0.6259765625,0.03564453125,0.78564453125,-4.45556640625,-0.79345703125,-0.244140625,1.7962646484375,38.243408203125,67.7801513671875
1759066619.9639204,-0.6259765625,0.03564453125,0.78564453125,-4.45556640625,-0.79345703125,-0.244140625,1.7523193359375,38.243408203125,67.7801513671875
1759066619.9746017,-0.62255859375,0.029296875,0.79052734375,-6.2255859375,-0.67138671875,-0.1220703125,1.6973876953125,38.2379150390625,67.774658203125
1759066619.9839704,-0.62255859375,0.029296875,0.79052734375,-6.2255859375,-0.67138671875,-0.1220703125,1.6424560546875,38.232421875,67.774658203125
1759066619.99401,-0.62255859375,0.0244140625,0.78515625,-7.4462890625,-0.67138671875,-0.244140625,1.5765380859375,38.2269287109375,67.7691650390625
1759066620.004165,-0.62255859375,0.0244140625,0.78515625,-7.4462890625,-0.67138671875,-0.244140625,1.4996337890625,38.221435546875,67.7691650390625
1759066620.0160556,-0.62255859375,0.01904296875,0.7822265625,-8.544921875,-0.732421875,-0.244140625,1.4227294921875,38.2159423828125,67.763671875
1759066620.0247397,-0.62255859375,0.01904296875,0.7822265625,-8.544921875,-0.732421875,-0.244140625,1.34033203125,38.21044921875,67.763671875
1759066620.0340898,-0.6240234375,0.01611328125,0.7861328125,-9.46044921875,-0.732421875,-0.30517578125,1.25244140625,38.21044921875,67.7581787109375
1759066620.044058,-0.6240234375,0.01611328125,0.7861328125,-9.46044921875,-0.732421875,-0.30517578125,1.1590576171875,38.2049560546875,67.752685546875
1759066620.0540574,-0.623046875,0.013671875,0.77587890625,-9.46044921875,-0.54931640625,-0.30517578125,1.0711669921875,38.199462890625,67.7471923828125
1759066620.064053,-0.623046875,0.013671875,0.77587890625,-9.46044921875,-0.54931640625,-0.30517578125,0.977783203125,38.1939697265625,67.7471923828125
1759066620.074546,-0.6240234375,0.00439453125,0.77685546875,-7.50732421875,-0.48828125,-0.3662109375,0.8953857421875,38.1939697265625,67.74169921875
1759066620.084084,-0.6240234375,0.00439453125,0.77685546875,-7.50732421875,-0.48828125,-0.3662109375,0.8184814453125,38.1884765625,67.7362060546875
1759066620.094287,-0.623046875,0.00146484375,0.7763671875,-5.2490234375,-0.18310546875,-0.06103515625,0.758056640625,38.1884765625,67.730712890625
1759066620.1041446,-0.623046875,0.00146484375,0.7763671875,-5.2490234375,-0.18310546875,-0.06103515625,0.7086181640625,38.1884765625,67.730712890625
1759066620.1141438,-0.62744140625,0.0068359375,0.771484375,-3.173828125,0.0,0.06103515625,0.670166015625,38.1939697265625,67.7252197265625
1759066620.1241534,-0.62744140625,0.0068359375,0.771484375,-3.173828125,0.0,0.06103515625,0.6427001953125,38.1939697265625,67.7252197265625
1759066620.134234,-0.62890625,0.00634765625,0.771484375,-0.79345703125,0.0,0.18310546875,0.626220703125,38.199462890625,67.7252197265625
1759066620.1443014,-0.62890625,0.00634765625,0.771484375,-0.79345703125,0.0,0.18310546875,0.6207275390625,38.199462890625,67.7252197265625
1759066620.1541636,-0.63330078125,0.0009765625,0.767578125,1.220703125,0.18310546875,0.48828125,0.626220703125,38.2049560546875,67.730712890625
1759066620.1641123,-0.63330078125,0.0009765625,0.767578125,1.220703125,0.18310546875,0.48828125,0.6427001953125,38.21044921875,67.730712890625
1759066620.1746576,-0.638671875,-0.00146484375,0.7646484375,3.23486328125,0.42724609375,0.6103515625,0.670166015625,38.221435546875,67.7362060546875
1759066620.1841347,-0.638671875,-0.00146484375,0.7646484375,3.23486328125,0.42724609375,0.6103515625,0.7086181640625,38.2269287109375,67.74169921875
1759066620.1942308,-0.638671875,-0.00146484375,0.77001953125,3.90625,0.48828125,0.732421875,0.7525634765625,38.2379150390625,67.752685546875
1759066620.2042432,-0.638671875,-0.00146484375,0.77001953125,3.90625,0.48828125,0.732421875,0.791015625,38.2489013671875,67.7581787109375
1759066620.214229,-0.63720703125,0.00830078125,0.7744140625,3.35693359375,0.48828125,0.8544921875,0.8349609375,38.2598876953125,67.763671875
1759066620.2243288,-0.63720703125,0.00830078125,0.7744140625,3.35693359375,0.48828125,0.8544921875,0.8734130859375,38.2708740234375,67.774658203125
1759066620.234337,-0.63671875,0.0107421875,0.76806640625,2.99072265625,0.3662109375,0.8544921875,0.9063720703125,38.2818603515625,67.7801513671875
1759066620.244313,-0.63671875,0.0107421875,0.76806640625,2.99072265625,0.3662109375,0.8544921875,0.94482421875,38.287353515625,67.7911376953125
1759066620.254321,-0.63671875,0.0107421875,0.76806640625,3.173828125,0.30517578125,0.8544921875,0.977783203125,38.29833984375,67.8021240234375
1759066620.2642279,-0.63330078125,0.00927734375,0.7724609375,3.173828125,0.30517578125,0.8544921875,1.0162353515625,38.309326171875,67.8076171875
1759066620.2747676,-0.63037109375,0.0146484375,0.779296875,3.0517578125,0.1220703125,0.732421875,1.0491943359375,38.3148193359375,67.818603515625
1759066620.2842717,-0.63037109375,0.0146484375,0.779296875,3.0517578125,0.1220703125,0.732421875,1.0821533203125,38.3258056640625,67.8240966796875
1759066620.2942805,-0.626953125,0.02001953125,0.77978515625,1.953125,0.0,0.48828125,1.109619140625,38.331298828125,67.82958984375
1759066620.304936,-0.626953125,0.02001953125,0.77978515625,1.953125,0.0,0.48828125,1.131591796875,38.3367919921875,67.8350830078125
1759066620.31436,-0.62158203125,0.0166015625,0.78076171875,1.220703125,0.0,0.244140625,1.1480712890625,38.34228515625,67.8350830078125
1759066620.3245492,-0.62158203125,0.0166015625,0.78076171875,1.220703125,0.0,0.244140625,1.1590576171875,38.34228515625,67.840576171875
1759066620.334402,-0.6171875,0.0166015625,0.7900390625,1.220703125,0.1220703125,0.0,1.175537109375,38.3477783203125,67.840576171875
1759066620.344568,-0.6171875,0.0166015625,0.7900390625,1.220703125,0.1220703125,0.0,1.1865234375,38.353271484375,67.8350830078125
1759066620.354638,-0.61181640625,0.01416015625,0.7890625,2.25830078125,0.3662109375,-0.244140625,1.197509765625,38.3587646484375,67.8350830078125
1759066620.3643749,-0.61181640625,0.01416015625,0.7890625,2.25830078125,0.3662109375,-0.244140625,1.219482421875,38.3642578125,67.82958984375
1759066620.3746848,-0.60986328125,0.01513671875,0.78955078125,3.47900390625,0.42724609375,-0.6103515625,1.241455078125,38.3697509765625,67.8240966796875
1759066620.3843937,-0.60986328125,0.01513671875,0.78955078125,3.47900390625,0.42724609375,-0.6103515625,1.2689208984375,38.375244140625,67.8131103515625
1759066620.3944266,-0.61328125,0.01953125,0.7919921875,4.150390625,0.54931640625,-0.91552734375,1.3018798828125,38.3807373046875,67.8021240234375
1759066620.405027,-0.61328125,0.01953125,0.7919921875,4.150390625,0.54931640625,-0.91552734375,1.3348388671875,38.38623046875,67.7911376953125
1759066620.4144514,-0.61474609375,0.0234375,0.7841796875,4.08935546875,0.54931640625,-1.220703125,1.3623046875,38.3917236328125,67.774658203125
1759066620.4245522,-0.61474609375,0.0234375,0.7841796875,4.08935546875,0.54931640625,-1.220703125,1.395263671875,38.397216796875,67.7581787109375
1759066620.4345758,-0.6162109375,0.02490234375,0.7802734375,4.45556640625,0.3662109375,-1.28173828125,1.42822265625,38.4027099609375,67.74169921875
1759066620.444681,-0.6162109375,0.02490234375,0.7802734375,4.45556640625,0.3662109375,-1.28173828125,1.461181640625,38.4027099609375,67.7252197265625
1759066620.454565,-0.6181640625,0.0185546875,0.77734375,5.4931640625,0.1220703125,-1.5869140625,1.4996337890625,38.408203125,67.708740234375
1759066620.4647157,-0.6181640625,0.0185546875,0.77734375,5.4931640625,0.1220703125,-1.5869140625,1.5380859375,38.408203125,67.686767578125
1759066620.4748936,-0.62109375,0.01513671875,0.7744140625,7.2021484375,0.0,-1.5869140625,1.5875244140625,38.408203125,67.6702880859375
1759066620.4847686,-0.62109375,0.01513671875,0.7744140625,7.2021484375,0.0,-1.5869140625,1.6424560546875,38.408203125,67.6483154296875
1759066620.4946678,-0.626953125,0.0205078125,0.7763671875,8.36181640625,-0.18310546875,-1.64794921875,1.7083740234375,38.408203125,67.6263427734375
1759066620.505151,-0.626953125,0.0205078125,0.7763671875,8.36181640625,-0.18310546875,-1.64794921875,1.7742919921875,38.408203125,67.6043701171875
1759066620.5146422,-0.6328125,0.02734375,0.771484375,8.544921875,-0.18310546875,-1.77001953125,1.845703125,38.408203125,67.5823974609375
1759066620.5246265,-0.6328125,0.02734375,0.771484375,8.544921875,-0.18310546875,-1.77001953125,1.91162109375,38.408203125,67.5604248046875
1759066620.5347254,-0.6357421875,0.02783203125,0.76953125,8.36181640625,-0.244140625,-1.953125,1.9775390625,38.408203125,67.5384521484375
1759066620.5446458,-0.6357421875,0.02783203125,0.76953125,8.36181640625,-0.244140625,-1.953125,2.04345703125,38.408203125,67.510986328125
1759066620.5546994,-0.63916015625,0.02587890625,0.77197265625,8.30078125,-0.244140625,-1.953125,2.109375,38.408203125,67.489013671875
1759066620.5646193,-0.63916015625,0.02587890625,0.77197265625,8.30078125,-0.244140625,-1.953125,2.1697998046875,38.408203125,67.4615478515625
1759066620.5749884,-0.6416015625,0.02685546875,0.77490234375,8.1787109375,-0.18310546875,-1.953125,2.2357177734375,38.4136962890625,67.43408203125
1759066620.584633,-0.6416015625,0.02685546875,0.77490234375,8.1787109375,-0.18310546875,-1.953125,2.296142578125,38.4136962890625,67.412109375
1759066620.5946968,-0.642578125,0.02978515625,0.7744140625,7.62939453125,-0.1220703125,-2.01416015625,2.3565673828125,38.419189453125,67.3846435546875
1759066620.6053312,-0.642578125,0.02978515625,0.7744140625,7.62939453125,-0.1220703125,-2.01416015625,2.4169921875,38.419189453125,67.357177734375
1759066620.6160429,-0.64306640625,0.0302734375,0.76611328125,7.26318359375,-0.1220703125,-1.953125,2.4664306640625,38.4246826171875,67.3297119140625
1759066620.6247728,-0.64306640625,0.0302734375,0.76611328125,7.26318359375,-0.1220703125,-1.953125,2.5213623046875,38.43017578125,67.3077392578125
1759066620.641133,-0.6416015625,0.03173828125,0.76513671875,7.080078125,-0.1220703125,-1.89208984375,2.5762939453125,38.4356689453125,67.2802734375
1759066620.647506,-0.6416015625,0.03173828125,0.76513671875,7.080078125,-0.1220703125,-1.89208984375,2.625732421875,38.441162109375,67.2528076171875
1759066620.654737,-0.63818359375,0.02978515625,0.76904296875,7.87353515625,-0.18310546875,-1.8310546875,2.6806640625,38.4466552734375,67.225341796875
1759066620.6648352,-0.63818359375,0.02978515625,0.76904296875,7.87353515625,-0.18310546875,-1.8310546875,2.7410888671875,38.4521484375,67.203369140625
1759066620.6750984,-0.63427734375,0.029296875,0.771484375,9.765625,-0.244140625,-1.52587890625,2.8125,38.4576416015625,67.1759033203125
1759066620.684759,-0.63427734375,0.029296875,0.771484375,9.765625,-0.244140625,-1.52587890625,2.8948974609375,38.463134765625,67.1539306640625
1759066620.6948175,-0.63134765625,0.0380859375,0.77294921875,10.986328125,-0.3662109375,-1.3427734375,2.977294921875,38.463134765625,67.1319580078125
1759066620.7053475,-0.63134765625,0.0380859375,0.77294921875,10.986328125,-0.3662109375,-1.3427734375,3.0706787109375,38.4686279296875,67.115478515625
1759066620.714973,-0.6318359375,0.0546875,0.78125,10.25390625,-0.42724609375,-0.9765625,3.1640625,38.4686279296875,67.0989990234375
1759066620.7248385,-0.6318359375,0.0546875,0.78125,10.25390625,-0.42724609375,-0.9765625,3.251953125,38.47412109375,67.08251953125
1759066620.7348635,-0.6318359375,0.064453125,0.7861328125,7.38525390625,-0.42724609375,-0.6103515625,3.3343505859375,38.47412109375,67.071533203125
1759066620.7452452,-0.6318359375,0.064453125,0.7861328125,7.38525390625,-0.42724609375,-0.6103515625,3.394775390625,38.47412109375,67.060546875
1759066620.7548978,-0.62841796875,0.0654296875,0.78466796875,4.2724609375,-0.30517578125,-0.18310546875,3.44970703125,38.47412109375,67.0550537109375
1759066620.7650516,-0.62841796875,0.0654296875,0.78466796875,4.2724609375,-0.30517578125,-0.18310546875,3.4881591796875,38.47412109375,67.049560546875
1759066620.7753642,-0.62890625,0.0634765625,0.78369140625,1.03759765625,-0.244140625,0.1220703125,3.515625,38.4796142578125,67.049560546875
1759066620.7849586,-0.62890625,0.0634765625,0.78369140625,1.03759765625,-0.244140625,0.1220703125,3.526611328125,38.4796142578125,67.049560546875
1759066620.7951167,-0.6279296875,0.05859375,0.7822265625,-0.48828125,-0.18310546875,0.3662109375,3.526611328125,38.4796142578125,67.049560546875
1759066620.8054068,-0.6279296875,0.05859375,0.7822265625,-0.48828125,-0.18310546875,0.3662109375,3.526611328125,38.4796142578125,67.0550537109375
1759066620.8155077,-0.6298828125,0.05517578125,0.7783203125,-1.708984375,-0.1220703125,0.48828125,3.5211181640625,38.4796142578125,67.060546875
1759066620.8249085,-0.6298828125,0.05517578125,0.7783203125,-1.708984375,-0.1220703125,0.48828125,3.5101318359375,38.485107421875,67.0660400390625
1759066620.8351378,-0.630859375,0.05029296875,0.77783203125,-2.50244140625,-0.06103515625,0.3662109375,3.49365234375,38.485107421875,67.071533203125
1759066620.845834,-0.630859375,0.05029296875,0.77783203125,-2.50244140625,-0.06103515625,0.3662109375,3.4716796875,38.485107421875,67.071533203125
1759066620.8554914,-0.63134765625,0.04345703125,0.775390625,-2.50244140625,0.0,0.48828125,3.44970703125,38.4906005859375,67.0770263671875
1759066620.8654685,-0.63134765625,0.04345703125,0.775390625,-2.50244140625,0.0,0.48828125,3.4332275390625,38.4906005859375,67.08251953125
1759066620.8764522,-0.63427734375,0.03955078125,0.7744140625,-2.01416015625,0.06103515625,0.732421875,3.416748046875,38.49609375,67.093505859375
1759066620.8849692,-0.63427734375,0.03955078125,0.7744140625,-2.01416015625,0.06103515625,0.732421875,3.40576171875,38.49609375,67.0989990234375
1759066620.895821,-0.63232421875,0.0380859375,0.7705078125,-0.8544921875,0.18310546875,0.79345703125,3.40576171875,38.5015869140625,67.1099853515625
1759066620.9057553,-0.63232421875,0.0380859375,0.7705078125,-0.8544921875,0.18310546875,0.79345703125,3.4002685546875,38.507080078125,67.115478515625
1759066620.9162123,-0.6328125,0.04248046875,0.77099609375,-0.244140625,0.244140625,0.9765625,3.40576171875,38.5125732421875,67.12646484375
1759066620.9253216,-0.6328125,0.04248046875,0.77099609375,-0.244140625,0.244140625,0.9765625,3.4112548828125,38.51806640625,67.137451171875
1759066620.9414952,-0.63330078125,0.03955078125,0.775390625,0.732421875,0.244140625,0.91552734375,3.427734375,38.5235595703125,67.1484375
1759066620.9484258,-0.63330078125,0.03955078125,0.775390625,0.732421875,0.244140625,0.91552734375,3.438720703125,38.529052734375,67.159423828125
1759066620.955104,-0.63134765625,0.03076171875,0.771484375,2.50244140625,0.3662109375,0.9765625,3.4716796875,38.5345458984375,67.17041015625
1759066620.9653254,-0.63134765625,0.03076171875,0.771484375,2.50244140625,0.3662109375,0.9765625,3.4991455078125,38.5455322265625,67.181396484375
1759066620.9753578,-0.63134765625,0.037109375,0.7685546875,5.0048828125,0.42724609375,0.8544921875,3.5540771484375,38.551025390625,67.1868896484375
1759066620.9850974,-0.63134765625,0.037109375,0.7685546875,5.0048828125,0.42724609375,0.8544921875,3.6090087890625,38.5565185546875,67.1978759765625
1759066620.9950957,-0.63330078125,0.04541015625,0.77099609375,7.14111328125,0.42724609375,0.6103515625,3.680419921875,38.5675048828125,67.203369140625
1759066621.0111623,-0.63330078125,0.04541015625,0.77099609375,7.14111328125,0.42724609375,0.6103515625,3.7518310546875,38.572998046875,67.2088623046875
1759066621.0192852,-0.634765625,0.0498046875,0.76953125,8.85009765625,0.6103515625,0.48828125,3.84521484375,38.583984375,67.21435546875
1759066621.0263195,-0.634765625,0.0498046875,0.76953125,8.85009765625,0.6103515625,0.48828125,3.93310546875,38.594970703125,67.2198486328125
1759066621.0351772,-0.6328125,0.05859375,0.771484375,10.07080078125,0.6103515625,0.30517578125,4.031982421875,38.60595703125,67.225341796875
1759066621.045368,-0.6328125,0.05859375,0.771484375,10.07080078125,0.6103515625,0.30517578125,4.130859375,38.6114501953125,67.225341796875
1759066621.0552182,-0.6357421875,0.06591796875,0.77490234375,10.31494140625,0.48828125,0.244140625,4.229736328125,38.6224365234375,67.2308349609375
1759066621.06521,-0.6357421875,0.06591796875,0.77490234375,10.31494140625,0.48828125,0.244140625,4.3341064453125,38.6334228515625,67.2308349609375
1759066621.0753677,-0.6318359375,0.06787109375,0.7783203125,9.6435546875,0.244140625,0.1220703125,4.427490234375,38.638916015625,67.2308349609375
1759066621.0852563,-0.6318359375,0.06787109375,0.7783203125,9.6435546875,0.244140625,0.1220703125,4.5208740234375,38.6444091796875,67.2308349609375
1759066621.0952737,-0.6279296875,0.07275390625,0.779296875,8.48388671875,0.0,0.06103515625,4.603271484375,38.6444091796875,67.2308349609375
1759066621.1056814,-0.6279296875,0.07275390625,0.779296875,8.48388671875,0.0,0.06103515625,4.6856689453125,38.64990234375,67.2308349609375
1759066621.1152954,-0.62451171875,0.07763671875,0.77880859375,6.4697265625,-0.244140625,0.0,4.74609375,38.64990234375,67.2308349609375
1759066621.1252534,-0.62451171875,0.07763671875,0.77880859375,6.4697265625,-0.244140625,0.0,4.8065185546875,38.64990234375,67.2308349609375
1759066621.1353288,-0.62109375,0.07666015625,0.78369140625,4.57763671875,-0.3662109375,-0.06103515625,4.8504638671875,38.64990234375,67.2308349609375
1759066621.1454816,-0.62109375,0.07666015625,0.78369140625,4.57763671875,-0.3662109375,-0.06103515625,4.8944091796875,38.6444091796875,67.2308349609375
1759066621.1553001,-0.61962890625,0.07275390625,0.7822265625,3.5400390625,-0.54931640625,-0.244140625,4.9273681640625,38.638916015625,67.225341796875
1759066621.1653433,-0.61962890625,0.07275390625,0.7822265625,3.5400390625,-0.54931640625,-0.244140625,4.9603271484375,38.638916015625,67.225341796875
1759066621.1781762,-0.61767578125,0.0751953125,0.78369140625,3.35693359375,-0.54931640625,-0.42724609375,4.98779296875,38.6334228515625,67.2198486328125
1759066621.1853778,-0.61767578125,0.0751953125,0.78369140625,3.35693359375,-0.54931640625,-0.42724609375,5.0152587890625,38.6279296875,67.21435546875
1759066621.1954126,-0.6171875,0.07470703125,0.7841796875,3.84521484375,-0.48828125,-0.6103515625,5.0482177734375,38.6224365234375,67.203369140625
1759066621.209972,-0.6171875,0.07470703125,0.7841796875,3.84521484375,-0.48828125,-0.6103515625,5.0811767578125,38.616943359375,67.1978759765625
1759066621.21605,-0.6171875,0.07568359375,0.7841796875,4.08935546875,-0.48828125,-0.6103515625,5.11962890625,38.6114501953125,67.1923828125
1759066621.2254488,-0.6171875,0.07568359375,0.7841796875,4.08935546875,-0.48828125,-0.6103515625,5.152587890625,38.60595703125,67.181396484375
1759066621.2401018,-0.61865234375,0.07958984375,0.78662109375,3.47900390625,-0.42724609375,-0.79345703125,5.1800537109375,38.60595703125,67.1759033203125
1759066621.248559,-0.61865234375,0.07958984375,0.78662109375,3.47900390625,-0.42724609375,-0.79345703125,5.2130126953125,38.6004638671875,67.1649169921875
1759066621.2557318,-0.61865234375,0.07958984375,0.78662109375,2.197265625,-0.30517578125,-0.79345703125,5.2239990234375,38.594970703125,67.1539306640625
1759066621.2662485,-0.61865234375,0.08154296875,0.78125,2.197265625,-0.30517578125,-0.79345703125,5.240478515625,38.5894775390625,67.1484375
1759066621.2760732,-0.619140625,0.07568359375,0.78515625,1.3427734375,-0.42724609375,-0.79345703125,5.25146484375,38.583984375,67.137451171875
1759066621.2860694,-0.619140625,0.07568359375,0.78515625,1.3427734375,-0.42724609375,-0.79345703125,5.2569580078125,38.583984375,67.12646484375
1759066621.296094,-0.6240234375,0.07421875,0.78271484375,0.54931640625,-0.3662109375,-0.54931640625,5.2569580078125,38.5784912109375,67.1209716796875
1759066621.3073103,-0.6240234375,0.07421875,0.78271484375,0.54931640625,-0.3662109375,-0.54931640625,5.262451171875,38.572998046875,67.115478515625
1759066621.31583,-0.62353515625,0.07666015625,0.7744140625,-0.67138671875,-0.3662109375,-0.42724609375,5.25146484375,38.5675048828125,67.1099853515625
1759066621.3261974,-0.62353515625,0.07666015625,0.7744140625,-0.67138671875,-0.3662109375,-0.42724609375,5.240478515625,38.56201171875,67.1099853515625
1759066621.3359532,-0.62158203125,0.0751953125,0.78369140625,-2.01416015625,-0.42724609375,-0.244140625,5.2239990234375,38.5565185546875,67.1044921875
1759066621.346869,-0.62158203125,0.0751953125,0.78369140625,-2.01416015625,-0.42724609375,-0.244140625,5.2020263671875,38.551025390625,67.1044921875
1759066621.355835,-0.62451171875,0.07470703125,0.77880859375,-3.11279296875,-0.3662109375,0.0,5.1690673828125,38.551025390625,67.1044921875
1759066621.365544,-0.62451171875,0.07470703125,0.77880859375,-3.11279296875,-0.3662109375,0.0,5.1416015625,38.5455322265625,67.1044921875
1759066621.3761494,-0.62744140625,0.07275390625,0.7734375,-3.662109375,-0.42724609375,0.18310546875,5.108642578125,38.5400390625,67.1099853515625
1759066621.3855488,-0.62744140625,0.07275390625,0.7734375,-3.662109375,-0.42724609375,0.18310546875,5.07568359375,38.5345458984375,67.115478515625
1759066621.3960788,-0.62744140625,0.06884765625,0.78125,-4.150390625,-0.42724609375,0.42724609375,5.0372314453125,38.529052734375,67.1209716796875
1759066621.4063094,-0.62744140625,0.06884765625,0.78125,-4.150390625,-0.42724609375,0.42724609375,5.0042724609375,38.5235595703125,67.12646484375
1759066621.415819,-0.6298828125,0.0673828125,0.77490234375,-4.33349609375,-0.30517578125,0.54931640625,4.9658203125,38.5235595703125,67.137451171875
1759066621.425811,-0.6298828125,0.0673828125,0.77490234375,-4.33349609375,-0.30517578125,0.54931640625,4.9273681640625,38.51806640625,67.1429443359375
1759066621.4359293,-0.62548828125,0.068359375,0.7763671875,-4.21142578125,-0.18310546875,0.732421875,4.8944091796875,38.51806640625,67.1539306640625
1759066621.4461887,-0.62548828125,0.068359375,0.7763671875,-4.21142578125,-0.18310546875,0.732421875,4.8614501953125,38.51806640625,67.1649169921875
1759066621.455827,-0.626953125,0.06640625,0.77978515625,-4.21142578125,-0.06103515625,0.91552734375,4.8284912109375,38.51806640625,67.1759033203125
1759066621.4659362,-0.626953125,0.06640625,0.77978515625,-4.21142578125,-0.06103515625,0.91552734375,4.7955322265625,38.5125732421875,67.1868896484375
1759066621.476359,-0.623046875,0.06494140625,0.77392578125,-4.45556640625,-0.1220703125,1.0986328125,4.7625732421875,38.5125732421875,67.203369140625
1759066621.485774,-0.623046875,0.06494140625,0.77392578125,-4.45556640625,-0.1220703125,1.0986328125,4.7296142578125,38.5125732421875,67.21435546875
1759066621.4960687,-0.62109375,0.064453125,0.7841796875,-4.8828125,-0.1220703125,1.28173828125,4.691162109375,38.5125732421875,67.236328125
1759066621.506423,-0.62109375,0.064453125,0.7841796875,-4.8828125,-0.1220703125,1.28173828125,4.6527099609375,38.507080078125,67.2528076171875
1759066621.5166986,-0.62060546875,0.06298828125,0.77783203125,-5.37109375,-0.1220703125,1.46484375,4.6142578125,38.507080078125,67.269287109375
1759066621.5259938,-0.62060546875,0.06298828125,0.77783203125,-5.37109375,-0.1220703125,1.46484375,4.5758056640625,38.507080078125,67.2857666015625
1759066621.5359318,-0.6171875,0.06103515625,0.77978515625,-5.92041015625,-0.3662109375,1.46484375,4.5263671875,38.5015869140625,67.3077392578125
1759066621.5460153,-0.6171875,0.06103515625,0.77978515625,-5.92041015625,-0.3662109375,1.46484375,4.482421875,38.49609375,67.32421875
1759066621.5558329,-0.61279296875,0.0576171875,0.7861328125,-5.55419921875,-0.42724609375,1.46484375,4.4439697265625,38.4906005859375,67.34619140625
1759066621.5660615,-0.61279296875,0.0576171875,0.7861328125,-5.55419921875,-0.42724609375,1.46484375,4.4000244140625,38.485107421875,67.3626708984375
1759066621.5765646,-0.60986328125,0.056640625,0.7880859375,-4.5166015625,-0.42724609375,1.40380859375,4.3670654296875,38.4796142578125,67.3846435546875
1759066621.5858326,-0.60986328125,0.056640625,0.7880859375,-4.5166015625,-0.42724609375,1.40380859375,4.3341064453125,38.47412109375,67.401123046875
1759066621.5962496,-0.60986328125,0.05810546875,0.78759765625,-3.11279296875,-0.42724609375,1.220703125,4.3121337890625,38.463134765625,67.4176025390625
1759066621.6065328,-0.60986328125,0.05810546875,0.78759765625,-3.11279296875,-0.42724609375,1.220703125,4.295654296875,38.4576416015625,67.43408203125
1759066621.6163704,-0.6123046875,0.0595703125,0.79248046875,-2.13623046875,-0.3662109375,1.03759765625,4.28466796875,38.4521484375,67.445068359375
1759066621.625982,-0.6123046875,0.0595703125,0.79248046875,-2.13623046875,-0.3662109375,1.03759765625,4.2681884765625,38.4466552734375,67.4615478515625
1759066621.63667,-0.61083984375,0.0625,0.78564453125,-2.01416015625,-0.18310546875,0.8544921875,4.2572021484375,38.441162109375,67.4725341796875
1759066621.646462,-0.61083984375,0.0625,0.78564453125,-2.01416015625,-0.18310546875,0.8544921875,4.2462158203125,38.4356689453125,67.4835205078125
1759066621.6565716,-0.6123046875,0.0625,0.7861328125,-2.5634765625,-0.244140625,0.67138671875,4.229736328125,38.43017578125,67.4945068359375
1759066621.6659555,-0.6123046875,0.0625,0.7861328125,-2.5634765625,-0.244140625,0.67138671875,4.207763671875,38.4246826171875,67.5054931640625
1759066621.6773596,-0.611328125,0.0595703125,0.78564453125,-2.62451171875,-0.30517578125,0.54931640625,4.1912841796875,38.419189453125,67.510986328125
1759066621.6859589,-0.611328125,0.0595703125,0.78564453125,-2.62451171875,-0.30517578125,0.54931640625,4.1693115234375,38.4136962890625,67.52197265625
1759066621.6971097,-0.61279296875,0.052734375,0.78515625,-1.708984375,-0.42724609375,0.48828125,4.1583251953125,38.4027099609375,67.5274658203125
1759066621.706577,-0.61279296875,0.052734375,0.78515625,-1.708984375,-0.42724609375,0.48828125,4.141845703125,38.397216796875,67.5384521484375
1759066621.7165213,-0.61572265625,0.05419921875,0.78466796875,-0.42724609375,-0.3662109375,0.42724609375,4.141845703125,38.3917236328125,67.5439453125
1759066621.7260895,-0.61572265625,0.05419921875,0.78466796875,-0.42724609375,-0.3662109375,0.42724609375,4.141845703125,38.38623046875,67.5494384765625
1759066621.7373607,-0.61669921875,0.05810546875,0.78515625,0.54931640625,-0.30517578125,0.3662109375,4.15283203125,38.375244140625,67.554931640625
1759066621.746999,-0.61669921875,0.05810546875,0.78515625,0.54931640625,-0.30517578125,0.3662109375,4.163818359375,38.3697509765625,67.5604248046875
1759066621.7565644,-0.619140625,0.06298828125,0.78564453125,0.06103515625,-0.244140625,0.30517578125,4.163818359375,38.3697509765625,67.56591796875
1759066621.7671716,-0.619140625,0.06298828125,0.78564453125,0.06103515625,-0.244140625,0.30517578125,4.1693115234375,38.3642578125,67.5714111328125
1759066621.7774026,-0.6220703125,0.0673828125,0.7880859375,-1.46484375,-0.06103515625,0.30517578125,4.1583251953125,38.3587646484375,67.5714111328125
1759066621.7861657,-0.6220703125,0.0673828125,0.7880859375,-1.46484375,-0.06103515625,0.30517578125,4.1473388671875,38.3587646484375,67.576904296875
1759066621.7965171,-0.62158203125,0.06396484375,0.78759765625,-3.0517578125,0.0,0.244140625,4.119873046875,38.353271484375,67.5823974609375
1759066621.8072166,-0.62158203125,0.06396484375,0.78759765625,-3.0517578125,0.0,0.244140625,4.097900390625,38.353271484375,67.587890625
1759066621.817113,-0.62548828125,0.060546875,0.78076171875,-4.08935546875,0.1220703125,0.3662109375,4.0594482421875,38.353271484375,67.5933837890625
1759066621.8266156,-0.62548828125,0.060546875,0.78076171875,-4.08935546875,0.1220703125,0.3662109375,4.0264892578125,38.353271484375,67.598876953125
1759066621.8365161,-0.6240234375,0.05517578125,0.78076171875,-4.82177734375,0.18310546875,0.42724609375,3.9825439453125,38.353271484375,67.6043701171875
1759066621.847039,-0.6240234375,0.05517578125,0.78076171875,-4.82177734375,0.18310546875,0.42724609375,3.9385986328125,38.353271484375,67.60986328125
1759066621.8561928,-0.62255859375,0.05029296875,0.7822265625,-5.0048828125,0.3662109375,0.48828125,3.8946533203125,38.3587646484375,67.6153564453125
1759066621.8665354,-0.62255859375,0.05029296875,0.7822265625,-5.0048828125,0.3662109375,0.48828125,3.8507080078125,38.3587646484375,67.620849609375
1759066621.8773735,-0.623046875,0.05078125,0.7783203125,-4.69970703125,0.42724609375,0.6103515625,3.812255859375,38.3642578125,67.6318359375
1759066621.8862305,-0.62060546875,0.052734375,0.78125,-4.21142578125,0.42724609375,0.6103515625,3.7738037109375,38.3642578125,67.6373291015625
1759066621.896517,-0.62060546875,0.052734375,0.78125,-4.21142578125,0.42724609375,0.6103515625,3.7408447265625,38.3697509765625,67.6483154296875
1759066621.9073155,-0.619140625,0.05029296875,0.7802734375,-3.96728515625,0.42724609375,0.6103515625,3.7078857421875,38.375244140625,67.6593017578125
1759066621.9162426,-0.619140625,0.05029296875,0.7802734375,-3.96728515625,0.42724609375,0.6103515625,3.6749267578125,38.375244140625,67.664794921875
1759066621.9272423,-0.619140625,0.0458984375,0.78125,-3.23486328125,0.30517578125,0.54931640625,3.6474609375,38.3807373046875,67.6702880859375
1759066621.9366107,-0.619140625,0.0458984375,0.78125,-3.23486328125,0.30517578125,0.54931640625,3.6199951171875,38.3807373046875,67.6812744140625
1759066621.9470732,-0.62255859375,0.0439453125,0.7822265625,-2.44140625,0.30517578125,0.6103515625,3.5980224609375,38.38623046875,67.686767578125
1759066621.9563427,-0.62255859375,0.0439453125,0.7822265625,-2.44140625,0.30517578125,0.6103515625,3.58154296875,38.38623046875,67.69775390625
1759066621.9665458,-0.61962890625,0.04833984375,0.779296875,-1.708984375,0.3662109375,0.54931640625,3.5650634765625,38.3917236328125,67.7032470703125
1759066621.9771564,-0.61962890625,0.04833984375,0.779296875,-1.708984375,0.3662109375,0.54931640625,3.5540771484375,38.3917236328125,67.7142333984375
1759066621.9864147,-0.61962890625,0.048828125,0.783203125,-1.708984375,0.3662109375,0.48828125,3.5430908203125,38.397216796875,67.7197265625
1759066621.9964147,-0.61962890625,0.048828125,0.783203125,-1.708984375,0.3662109375,0.48828125,3.5321044921875,38.4027099609375,67.7252197265625
1759066622.0087316,-0.6201171875,0.04443359375,0.78125,-1.15966796875,0.30517578125,0.42724609375,3.5211181640625,38.4027099609375,67.730712890625
1759066622.0164003,-0.6201171875,0.04443359375,0.78125,-1.15966796875,0.30517578125,0.42724609375,3.515625,38.408203125,67.7362060546875
1759066622.0275648,-0.6181640625,0.04248046875,0.78271484375,-0.244140625,0.30517578125,0.48828125,3.5101318359375,38.408203125,67.7471923828125
1759066622.0366802,-0.6181640625,0.04248046875,0.78271484375,-0.244140625,0.30517578125,0.48828125,3.515625,38.408203125,67.752685546875
1759066622.0479355,-0.6181640625,0.04736328125,0.783203125,0.30517578125,0.244140625,0.48828125,3.5211181640625,38.4136962890625,67.7581787109375
1759066622.0564785,-0.6181640625,0.04736328125,0.783203125,0.30517578125,0.244140625,0.48828125,3.526611328125,38.4136962890625,67.7691650390625
1759066622.066432,-0.62060546875,0.048828125,0.78125,0.244140625,0.1220703125,0.54931640625,3.5321044921875,38.4136962890625,67.774658203125
1759066622.0776875,-0.62060546875,0.048828125,0.78125,0.244140625,0.1220703125,0.54931640625,3.53759765625,38.4136962890625,67.7801513671875
1759066622.086737,-0.626953125,0.048828125,0.7822265625,-0.18310546875,0.18310546875,0.67138671875,3.5430908203125,38.419189453125,67.7911376953125
1759066622.0968916,-0.626953125,0.048828125,0.7822265625,-0.18310546875,0.18310546875,0.67138671875,3.548583984375,38.419189453125,67.796630859375
1759066622.1089787,-0.63037109375,0.05322265625,0.77978515625,-1.40380859375,0.3662109375,0.8544921875,3.548583984375,38.419189453125,67.8076171875
1759066622.1165292,-0.63037109375,0.05322265625,0.77978515625,-1.40380859375,0.3662109375,0.8544921875,3.53759765625,38.4246826171875,67.818603515625
1759066622.1266215,-0.626953125,0.05322265625,0.77587890625,-2.13623046875,0.42724609375,0.732421875,3.526611328125,38.43017578125,67.82958984375
1759066622.1376128,-0.626953125,0.05322265625,0.77587890625,-2.13623046875,0.42724609375,0.732421875,3.515625,38.43017578125,67.840576171875
1759066622.1477022,-0.626953125,0.048828125,0.7802734375,-2.62451171875,0.3662109375,0.732421875,3.4991455078125,38.4356689453125,67.8515625
1759066622.1566513,-0.626953125,0.048828125,0.7802734375,-2.62451171875,0.3662109375,0.732421875,3.4771728515625,38.441162109375,67.8570556640625
1759066622.1668448,-0.62646484375,0.048828125,0.77783203125,-2.74658203125,0.244140625,0.79345703125,3.460693359375,38.441162109375,67.8680419921875
1759066622.1777887,-0.62646484375,0.048828125,0.77783203125,-2.74658203125,0.244140625,0.79345703125,3.438720703125,38.4466552734375,67.8790283203125
1759066622.1869361,-0.62451171875,0.04638671875,0.77734375,-2.8076171875,0.06103515625,0.732421875,3.416748046875,38.4466552734375,67.8900146484375
1759066622.1969814,-0.62451171875,0.04638671875,0.77734375,-2.8076171875,0.06103515625,0.732421875,3.394775390625,38.4521484375,67.9010009765625
1759066622.2071004,-0.62548828125,0.04150390625,0.779296875,-2.44140625,0.0,0.79345703125,3.3782958984375,38.4521484375,67.906494140625
1759066622.2167816,-0.62548828125,0.04150390625,0.779296875,-2.44140625,0.0,0.79345703125,3.36181640625,38.4521484375,67.91748046875
1759066622.226736,-0.62451171875,0.04296875,0.78125,-1.89208984375,0.0,0.91552734375,3.3453369140625,38.4521484375,67.928466796875
1759066622.2412202,-0.62451171875,0.04296875,0.78125,-1.89208984375,0.0,0.91552734375,3.3343505859375,38.4521484375,67.939453125
1759066622.248754,-0.62109375,0.0458984375,0.77587890625,-1.0986328125,-0.1220703125,0.79345703125,3.328857421875,38.4521484375,67.950439453125
1759066622.2567463,-0.62109375,0.0458984375,0.77587890625,-1.0986328125,-0.1220703125,0.79345703125,3.3233642578125,38.4521484375,67.96142578125
1759066622.2667215,-0.6201171875,0.04345703125,0.78271484375,-0.54931640625,-0.244140625,0.732421875,3.3233642578125,38.4521484375,67.972412109375
1759066622.2770405,-0.6201171875,0.04345703125,0.78271484375,-0.54931640625,-0.244140625,0.732421875,3.3233642578125,38.4521484375,67.9779052734375
1759066622.2867799,-0.6181640625,0.04443359375,0.783203125,-0.18310546875,-0.30517578125,0.67138671875,3.3233642578125,38.4466552734375,67.9888916015625
1759066622.2967718,-0.6181640625,0.04443359375,0.783203125,-0.18310546875,-0.30517578125,0.67138671875,3.328857421875,38.4466552734375,67.994384765625
1759066622.3068318,-0.61669921875,0.04248046875,0.78466796875,-0.06103515625,-0.30517578125,0.48828125,3.328857421875,38.441162109375,68.00537109375
1759066622.3168008,-0.61669921875,0.04248046875,0.78466796875,-0.06103515625,-0.30517578125,0.48828125,3.3343505859375,38.441162109375,68.0108642578125
1759066622.3268852,-0.62109375,0.0439453125,0.78466796875,0.0,-0.30517578125,0.6103515625,3.33984375,38.4356689453125,68.016357421875
1759066622.337085,-0.62109375,0.0439453125,0.78466796875,0.0,-0.30517578125,0.6103515625,3.3453369140625,38.43017578125,68.02734375
1759066622.347235,-0.6220703125,0.0478515625,0.7783203125,0.3662109375,-0.244140625,0.42724609375,3.350830078125,38.43017578125,68.0328369140625
1759066622.356869,-0.6220703125,0.0478515625,0.7783203125,0.3662109375,-0.244140625,0.42724609375,3.3563232421875,38.4246826171875,68.038330078125
1759066622.3669074,-0.62109375,0.046875,0.787109375,0.48828125,-0.18310546875,0.244140625,3.36181640625,38.4246826171875,68.0438232421875
1759066622.377075,-0.62109375,0.046875,0.787109375,0.48828125,-0.18310546875,0.244140625,3.3673095703125,38.4246826171875,68.04931640625
1759066622.3868837,-0.61865234375,0.04541015625,0.7841796875,0.54931640625,0.06103515625,0.1220703125,3.372802734375,38.419189453125,68.04931640625
1759066622.3968873,-0.61865234375,0.04541015625,0.7841796875,0.54931640625,0.06103515625,0.1220703125,3.3782958984375,38.419189453125,68.04931640625
1759066622.4069793,-0.623046875,0.0458984375,0.78173828125,0.79345703125,0.244140625,0.0,3.3892822265625,38.4246826171875,68.0548095703125
1759066622.4173794,-0.623046875,0.0458984375,0.78173828125,0.79345703125,0.244140625,0.0,3.394775390625,38.4246826171875,68.0548095703125
1759066622.4279132,-0.6259765625,0.044921875,0.78515625,1.03759765625,0.54931640625,-0.244140625,3.40576171875,38.43017578125,68.0548095703125
1759066622.4370105,-0.6259765625,0.044921875,0.78515625,1.03759765625,0.54931640625,-0.244140625,3.4112548828125,38.4356689453125,68.0548095703125
1759066622.4472897,-0.62744140625,0.04931640625,0.78125,0.9765625,0.9765625,-0.244140625,3.4222412109375,38.441162109375,68.0548095703125
1759066622.4569495,-0.62744140625,0.04931640625,0.78125,0.9765625,0.9765625,-0.244140625,3.427734375,38.4521484375,68.0548095703125
1759066622.4669898,-0.625,0.05224609375,0.7724609375,0.48828125,0.9765625,-0.42724609375,3.4332275390625,38.463134765625,68.0548095703125
1759066622.477066,-0.625,0.05224609375,0.7724609375,0.48828125,0.9765625,-0.42724609375,3.4332275390625,38.47412109375,68.04931640625
1759066622.487042,-0.62548828125,0.04833984375,0.78125,0.06103515625,0.79345703125,-0.42724609375,3.4332275390625,38.4796142578125,68.0438232421875
1759066622.49704,-0.62548828125,0.04833984375,0.78125,0.06103515625,0.79345703125,-0.42724609375,3.4332275390625,38.4906005859375,68.0438232421875
1759066622.5071256,-0.62353515625,0.04296875,0.7763671875,0.732421875,0.6103515625,-0.30517578125,3.4332275390625,38.49609375,68.038330078125
1759066622.5171022,-0.62353515625,0.04296875,0.7763671875,0.732421875,0.6103515625,-0.30517578125,3.438720703125,38.507080078125,68.038330078125
1759066622.5270646,-0.623046875,0.041015625,0.7763671875,1.46484375,0.30517578125,-0.18310546875,3.44970703125,38.5125732421875,68.0328369140625
1759066622.5374396,-0.623046875,0.041015625,0.7763671875,1.46484375,0.30517578125,-0.18310546875,3.460693359375,38.5125732421875,68.0328369140625
1759066622.5473335,-0.6240234375,0.04296875,0.77685546875,1.28173828125,0.0,0.0,3.4716796875,38.51806640625,68.0328369140625
1759066622.5570416,-0.6240234375,0.04296875,0.77685546875,1.28173828125,0.0,0.0,3.482666015625,38.51806640625,68.0328369140625
1759066622.567115,-0.62548828125,0.0498046875,0.77783203125,0.54931640625,-0.18310546875,0.30517578125,3.49365234375,38.51806640625,68.0328369140625
1759066622.5774627,-0.62548828125,0.0498046875,0.77783203125,0.54931640625,-0.18310546875,0.30517578125,3.4991455078125,38.51806640625,68.038330078125
1759066622.5872,-0.62548828125,0.04736328125,0.77587890625,-0.244140625,-0.3662109375,0.3662109375,3.504638671875,38.5125732421875,68.0438232421875
1759066622.5971913,-0.62548828125,0.04736328125,0.77587890625,-0.244140625,-0.3662109375,0.3662109375,3.504638671875,38.5125732421875,68.04931640625
1759066622.607263,-0.6240234375,0.044921875,0.78466796875,-0.30517578125,-0.1220703125,0.48828125,3.504638671875,38.507080078125,68.0548095703125
1759066622.617196,-0.6240234375,0.044921875,0.78466796875,-0.30517578125,-0.1220703125,0.48828125,3.504638671875,38.507080078125,68.060302734375
1759066622.6272163,-0.62109375,0.0458984375,0.78076171875,-0.244140625,0.0,0.48828125,3.504638671875,38.507080078125,68.0657958984375
1759066622.637492,-0.62109375,0.0458984375,0.78076171875,-0.244140625,0.0,0.48828125,3.504638671875,38.507080078125,68.0712890625
1759066622.6472564,-0.6220703125,0.04931640625,0.78076171875,-0.48828125,0.06103515625,0.42724609375,3.504638671875,38.507080078125,68.0767822265625
1759066622.657238,-0.6220703125,0.04931640625,0.78076171875,-0.48828125,0.06103515625,0.42724609375,3.504638671875,38.5125732421875,68.082275390625
1759066622.6672852,-0.6279296875,0.0498046875,0.78076171875,-1.15966796875,0.244140625,0.42724609375,3.4991455078125,38.5125732421875,68.0877685546875
1759066622.6774056,-0.6279296875,0.0498046875,0.78076171875,-1.15966796875,0.244140625,0.42724609375,3.4881591796875,38.5125732421875,68.09326171875
1759066622.6873004,-0.62548828125,0.0498046875,0.77734375,-1.46484375,0.3662109375,0.3662109375,3.4771728515625,38.51806640625,68.0987548828125
1759066622.697328,-0.62548828125,0.0498046875,0.77734375,-1.46484375,0.3662109375,0.3662109375,3.4661865234375,38.5235595703125,68.104248046875
1759066622.7073846,-0.62548828125,0.05078125,0.78173828125,-1.953125,0.54931640625,0.48828125,3.4552001953125,38.529052734375,68.115234375
1759066622.718009,-0.62548828125,0.05078125,0.78173828125,-1.953125,0.54931640625,0.48828125,3.438720703125,38.5345458984375,68.1207275390625
1759066622.7273598,-0.62353515625,0.04638671875,0.77978515625,-1.8310546875,0.732421875,0.3662109375,3.4222412109375,38.5400390625,68.126220703125
1759066622.7375042,-0.62353515625,0.04638671875,0.77978515625,-1.8310546875,0.732421875,0.3662109375,3.4112548828125,38.5455322265625,68.1317138671875
1759066622.7475774,-0.6240234375,0.0419921875,0.775390625,-1.46484375,0.732421875,0.42724609375,3.4002685546875,38.5565185546875,68.1427001953125
1759066622.7573297,-0.6240234375,0.0419921875,0.775390625,-1.46484375,0.732421875,0.42724609375,3.3892822265625,38.56201171875,68.148193359375
1759066622.7673812,-0.62548828125,0.044921875,0.77880859375,-1.220703125,0.6103515625,0.48828125,3.3782958984375,38.5675048828125,68.1536865234375
1759066622.7777326,-0.62548828125,0.044921875,0.77880859375,-1.220703125,0.6103515625,0.48828125,3.372802734375,38.572998046875,68.1591796875
1759066622.7874746,-0.6279296875,0.04833984375,0.77392578125,-1.3427734375,0.48828125,0.6103515625,3.36181640625,38.583984375,68.170166015625
1759066622.7974522,-0.6279296875,0.04833984375,0.77392578125,-1.3427734375,0.48828125,0.6103515625,3.3563232421875,38.583984375,68.18115234375
1759066622.8075054,-0.6279296875,0.04833984375,0.77392578125,-1.77001953125,0.30517578125,0.732421875,3.3453369140625,38.5894775390625,68.1866455078125
1759066622.8174562,-0.62890625,0.0478515625,0.77294921875,-1.77001953125,0.30517578125,0.732421875,3.3343505859375,38.594970703125,68.1976318359375
1759066622.8275075,-0.62890625,0.04541015625,0.77490234375,-2.25830078125,0.244140625,0.732421875,3.3233642578125,38.6004638671875,68.2086181640625
1759066622.837694,-0.62890625,0.04541015625,0.77490234375,-2.25830078125,0.244140625,0.732421875,3.306884765625,38.6004638671875,68.2196044921875
1759066622.847541,-0.62939453125,0.04541015625,0.77490234375,-2.8076171875,0.244140625,0.732421875,3.284912109375,38.60595703125,68.22509765625
1759066622.857471,-0.62939453125,0.04541015625,0.77490234375,-2.8076171875,0.244140625,0.732421875,3.262939453125,38.60595703125,68.236083984375
1759066622.867581,-0.63427734375,0.05126953125,0.77685546875,-3.35693359375,0.30517578125,0.79345703125,3.240966796875,38.6114501953125,68.2470703125
1759066622.8775873,-0.63427734375,0.05126953125,0.77685546875,-3.35693359375,0.30517578125,0.79345703125,3.218994140625,38.616943359375,68.258056640625
1759066622.887536,-0.6318359375,0.05078125,0.77734375,-4.08935546875,0.3662109375,0.6103515625,3.18603515625,38.6224365234375,68.26904296875
1759066622.8976247,-0.6318359375,0.05078125,0.77734375,-4.08935546875,0.3662109375,0.6103515625,3.153076171875,38.6279296875,68.2745361328125
1759066622.9077077,-0.63623046875,0.04638671875,0.76708984375,-5.126953125,0.54931640625,0.6103515625,3.109130859375,38.6334228515625,68.2855224609375
1759066622.9176025,-0.63623046875,0.04638671875,0.76708984375,-5.126953125,0.54931640625,0.6103515625,3.065185546875,38.6444091796875,68.291015625
1759066622.9276757,-0.63037109375,0.04296875,0.76611328125,-5.4931640625,0.42724609375,0.48828125,3.0157470703125,38.64990234375,68.2965087890625
1759066622.937998,-0.63037109375,0.04296875,0.76611328125,-5.4931640625,0.42724609375,0.48828125,2.9718017578125,38.6553955078125,68.3074951171875
1759066622.947704,-0.626953125,0.0380859375,0.77685546875,-4.8828125,0.42724609375,0.48828125,2.9278564453125,38.660888671875,68.31298828125
1759066622.9576237,-0.626953125,0.0380859375,0.77685546875,-4.8828125,0.42724609375,0.48828125,2.8839111328125,38.6663818359375,68.3184814453125
1759066622.967767,-0.62451171875,0.03369140625,0.77490234375,-4.45556640625,0.30517578125,0.48828125,2.845458984375,38.671875,68.323974609375
1759066622.9780984,-0.62451171875,0.03369140625,0.77490234375,-4.45556640625,0.30517578125,0.48828125,2.8070068359375,38.6773681640625,68.3294677734375
1759066622.9877417,-0.62353515625,0.033203125,0.7744140625,-4.39453125,0.18310546875,0.54931640625,2.7740478515625,38.682861328125,68.3349609375
1759066622.9977596,-0.62353515625,0.033203125,0.7744140625,-4.39453125,0.18310546875,0.54931640625,2.735595703125,38.6883544921875,68.345947265625
1759066623.007973,-0.62109375,0.03662109375,0.7763671875,-4.7607421875,0.06103515625,0.54931640625,2.691650390625,38.6883544921875,68.3514404296875
1759066623.0177486,-0.62109375,0.03662109375,0.7763671875,-4.7607421875,0.06103515625,0.54931640625,2.6531982421875,38.6883544921875,68.35693359375
1759066623.0277886,-0.623046875,0.03466796875,0.783203125,-4.638671875,0.1220703125,0.6103515625,2.61474609375,38.69384765625,68.367919921875
1759066623.0377948,-0.623046875,0.03466796875,0.783203125,-4.638671875,0.1220703125,0.6103515625,2.57080078125,38.69384765625,68.37890625
1759066623.0480733,-0.62158203125,0.02294921875,0.78271484375,-3.47900390625,0.3662109375,0.48828125,2.5433349609375,38.6993408203125,68.3843994140625
1759066623.0577645,-0.62158203125,0.02294921875,0.78271484375,-3.47900390625,0.3662109375,0.48828125,2.515869140625,38.6993408203125,68.389892578125
1759066623.0678043,-0.62841796875,0.02734375,0.77294921875,-2.5634765625,0.48828125,0.42724609375,2.493896484375,38.704833984375,68.3953857421875
1759066623.0780244,-0.62841796875,0.02734375,0.77294921875,-2.5634765625,0.48828125,0.42724609375,2.471923828125,38.7103271484375,68.4063720703125
1759066623.0878522,-0.62744140625,0.03759765625,0.7724609375,-3.0517578125,0.48828125,0.3662109375,2.4444580078125,38.7158203125,68.4063720703125
1759066623.0977926,-0.62744140625,0.03759765625,0.7724609375,-3.0517578125,0.48828125,0.3662109375,2.4169921875,38.7213134765625,68.411865234375
1759066623.1080449,-0.6240234375,0.0390625,0.78076171875,-4.5166015625,0.6103515625,0.18310546875,2.373046875,38.7322998046875,68.4173583984375
1759066623.1181285,-0.6240234375,0.0390625,0.78076171875,-4.5166015625,0.6103515625,0.18310546875,2.3345947265625,38.73779296875,68.4173583984375
1759066623.1278265,-0.61962890625,0.029296875,0.78271484375,-5.126953125,0.54931640625,0.1220703125,2.28515625,38.7432861328125,68.4228515625
1759066623.1379917,-0.61962890625,0.029296875,0.78271484375,-5.126953125,0.54931640625,0.1220703125,2.2357177734375,38.748779296875,68.4228515625
1759066623.1480272,-0.6201171875,0.01904296875,0.78125,-4.39453125,0.54931640625,0.06103515625,2.197265625,38.7542724609375,68.4228515625
1759066623.157901,-0.6201171875,0.01904296875,0.78125,-4.39453125,0.54931640625,0.06103515625,2.1533203125,38.759765625,68.4283447265625
1759066623.1678324,-0.6220703125,0.02001953125,0.7744140625,-4.08935546875,0.54931640625,0.0,2.1148681640625,38.7652587890625,68.4283447265625
1759066623.1781251,-0.6220703125,0.02001953125,0.7744140625,-4.08935546875,0.54931640625,0.0,2.076416015625,38.770751953125,68.4283447265625
1759066623.1880236,-0.626953125,0.02734375,0.77978515625,-4.82177734375,0.54931640625,0.0,2.0269775390625,38.770751953125,68.4283447265625
1759066623.197985,-0.626953125,0.02734375,0.77978515625,-4.82177734375,0.54931640625,0.0,1.9775390625,38.7762451171875,68.4283447265625
1759066623.2079885,-0.62890625,0.03125,0.7822265625,-5.126953125,0.6103515625,0.0,1.9281005859375,38.78173828125,68.433837890625
1759066623.2182457,-0.62890625,0.03125,0.7822265625,-5.126953125,0.6103515625,0.0,1.878662109375,38.7872314453125,68.433837890625
1759066623.2279665,-0.6298828125,0.02490234375,0.77587890625,-4.8828125,0.732421875,0.0,1.834716796875,38.7982177734375,68.433837890625
1759066623.2380257,-0.6298828125,0.02490234375,0.77587890625,-4.8828125,0.732421875,0.0,1.7852783203125,38.8037109375,68.433837890625
1759066623.2482033,-0.63232421875,0.02099609375,0.7685546875,-4.82177734375,0.91552734375,0.0,1.7413330078125,38.814697265625,68.433837890625
1759066623.2580025,-0.63232421875,0.02099609375,0.7685546875,-4.82177734375,0.91552734375,0.0,1.69189453125,38.82568359375,68.433837890625
1759066623.2679949,-0.63525390625,0.0302734375,0.76513671875,-6.04248046875,1.03759765625,0.0,1.636962890625,38.836669921875,68.433837890625
1759066623.2784178,-0.63525390625,0.0302734375,0.76513671875,-6.04248046875,1.03759765625,0.0,1.5765380859375,38.84765625,68.433837890625
1759066623.2880301,-0.634765625,0.03076171875,0.7724609375,-7.01904296875,1.03759765625,0.06103515625,1.5106201171875,38.858642578125,68.433837890625
1759066623.2980866,-0.634765625,0.03076171875,0.7724609375,-7.01904296875,1.03759765625,0.06103515625,1.4447021484375,38.86962890625,68.4393310546875
1759066623.3081112,-0.63525390625,0.02001953125,0.767578125,-7.87353515625,0.9765625,0.1220703125,1.373291015625,38.880615234375,68.4393310546875
1759066623.3182254,-0.63525390625,0.02001953125,0.767578125,-7.87353515625,0.9765625,0.1220703125,1.3018798828125,38.8916015625,68.4393310546875
1759066623.3280485,-0.6376953125,0.0185546875,0.763671875,-8.056640625,0.732421875,0.244140625,1.2249755859375,38.902587890625,68.44482421875
1759066623.3381627,-0.6376953125,0.0185546875,0.763671875,-8.056640625,0.732421875,0.244140625,1.153564453125,38.91357421875,68.44482421875
1759066623.348667,-0.63330078125,0.01513671875,0.77294921875,-7.4462890625,0.67138671875,0.06103515625,1.0821533203125,38.9190673828125,68.44482421875
1759066623.3581526,-0.63330078125,0.01513671875,0.77294921875,-7.4462890625,0.67138671875,0.06103515625,1.0107421875,38.9300537109375,68.44482421875
1759066623.368121,-0.62939453125,0.005859375,0.77587890625,-7.080078125,0.67138671875,0.1220703125,0.94482421875,38.935546875,68.44482421875
1759066623.378341,-0.62939453125,0.005859375,0.77587890625,-7.080078125,0.67138671875,0.1220703125,0.87890625,38.946533203125,68.4503173828125
1759066623.3881495,-0.623046875,0.00048828125,0.77734375,-5.67626953125,0.6103515625,0.0,0.8294677734375,38.9520263671875,68.44482421875
1759066623.3982115,-0.623046875,0.00048828125,0.77734375,-5.67626953125,0.6103515625,0.0,0.7745361328125,38.9630126953125,68.44482421875
1759066623.4081771,-0.626953125,-0.001953125,0.78564453125,-3.7841796875,0.54931640625,-0.30517578125,0.736083984375,38.968505859375,68.4393310546875
1759066623.4188302,-0.626953125,-0.001953125,0.78564453125,-3.7841796875,0.54931640625,-0.30517578125,0.6976318359375,38.9739990234375,68.4393310546875
1759066623.4281676,-0.62353515625,-0.0048828125,0.78466796875,-0.91552734375,0.3662109375,-0.54931640625,0.6866455078125,38.9794921875,68.4283447265625
1759066623.4382572,-0.62353515625,-0.0048828125,0.78466796875,-0.91552734375,0.3662109375,-0.54931640625,0.670166015625,38.9794921875,68.4228515625
1759066623.4487536,-0.6240234375,-0.0009765625,0.7880859375,1.89208984375,0.18310546875,-0.91552734375,0.68115234375,38.9849853515625,68.411865234375
1759066623.458276,-0.6240234375,-0.0009765625,0.7880859375,1.89208984375,0.18310546875,-0.91552734375,0.692138671875,38.9849853515625,68.3953857421875
1759066623.4682505,-0.625,0.00732421875,0.79296875,2.86865234375,0.18310546875,-1.15966796875,0.714111328125,38.9849853515625,68.3843994140625
1759066623.4784079,-0.625,0.00732421875,0.79296875,2.86865234375,0.18310546875,-1.15966796875,0.7305908203125,38.9849853515625,68.367919921875
1759066623.488311,-0.62939453125,0.013671875,0.783203125,2.01416015625,0.1220703125,-1.3427734375,0.736083984375,38.9849853515625,68.3514404296875
1759066623.4983535,-0.62939453125,0.013671875,0.783203125,2.01416015625,0.1220703125,-1.3427734375,0.7470703125,38.9849853515625,68.3349609375
1759066623.508577,-0.6298828125,0.01513671875,0.78759765625,0.6103515625,0.1220703125,-1.40380859375,0.7415771484375,38.9849853515625,68.3184814453125
1759066623.5183516,-0.6298828125,0.01513671875,0.78759765625,0.6103515625,0.1220703125,-1.40380859375,0.736083984375,38.9849853515625,68.302001953125
1759066623.5283458,-0.62548828125,0.01318359375,0.78759765625,-0.54931640625,0.18310546875,-1.40380859375,0.7196044921875,38.9849853515625,68.280029296875
1759066623.5385497,-0.62548828125,0.01318359375,0.78759765625,-0.54931640625,0.18310546875,-1.40380859375,0.703125,38.9849853515625,68.2635498046875
1759066623.5483847,-0.62744140625,0.01025390625,0.78662109375,-1.40380859375,0.1220703125,-1.28173828125,0.68115234375,38.9849853515625,68.2470703125
1759066623.5584452,-0.62744140625,0.01025390625,0.78662109375,-1.40380859375,0.1220703125,-1.28173828125,0.6536865234375,38.9849853515625,68.2305908203125
1759066623.5684896,-0.6298828125,0.00244140625,0.787109375,-1.3427734375,0.18310546875,-1.3427734375,0.6317138671875,38.9849853515625,68.214111328125
1759066623.5784578,-0.6298828125,0.00244140625,0.787109375,-1.3427734375,0.18310546875,-1.3427734375,0.6097412109375,38.9849853515625,68.1976318359375
1759066623.5884378,-0.6259765625,0.00048828125,0.7802734375,-1.220703125,0.30517578125,-1.28173828125,0.5877685546875,38.9849853515625,68.18115234375
1759066623.5984502,-0.6259765625,0.00048828125,0.7802734375,-1.220703125,0.30517578125,-1.28173828125,0.560302734375,38.9849853515625,68.170166015625
1759066623.6084983,-0.62744140625,0.0,0.78076171875,-0.9765625,0.30517578125,-1.15966796875,0.5438232421875,38.990478515625,68.1536865234375
1759066623.6185794,-0.62744140625,0.0,0.78076171875,-0.9765625,0.30517578125,-1.15966796875,0.5218505859375,38.990478515625,68.13720703125
1759066623.6284769,-0.6328125,0.00146484375,0.78125,-0.67138671875,0.30517578125,-0.9765625,0.5108642578125,38.990478515625,68.126220703125
1759066623.6385708,-0.6328125,0.00146484375,0.78125,-0.67138671875,0.30517578125,-0.9765625,0.494384765625,38.9959716796875,68.115234375
1759066623.6485355,-0.6318359375,0.001953125,0.7744140625,-0.48828125,0.18310546875,-0.91552734375,0.4779052734375,38.9959716796875,68.104248046875
1759066623.6584837,-0.6318359375,0.001953125,0.7744140625,-0.48828125,0.18310546875,-0.91552734375,0.4669189453125,38.9959716796875,68.0877685546875
1759066623.6684618,-0.63330078125,0.0,0.77490234375,-0.42724609375,0.1220703125,-0.79345703125,0.4559326171875,38.9959716796875,68.082275390625
1759066623.6788793,-0.63330078125,0.0,0.77490234375,-0.42724609375,0.1220703125,-0.79345703125,0.4449462890625,38.9959716796875,68.0712890625
1759066623.688563,-0.6337890625,0.00146484375,0.77490234375,-0.8544921875,0.18310546875,-0.6103515625,0.428466796875,38.9959716796875,68.060302734375
1759066623.698692,-0.6337890625,0.00146484375,0.77490234375,-0.8544921875,0.18310546875,-0.6103515625,0.41748046875,39.00146484375,68.0548095703125
1759066623.70863,-0.6337890625,0.0029296875,0.77392578125,-1.03759765625,0.244140625,-0.42724609375,0.4010009765625,39.00146484375,68.04931640625
1759066623.7186847,-0.6337890625,0.0029296875,0.77392578125,-1.03759765625,0.244140625,-0.42724609375,0.384521484375,39.0069580078125,68.0438232421875
1759066623.7286274,-0.63232421875,0.0029296875,0.7783203125,-1.52587890625,0.244140625,-0.18310546875,0.3680419921875,39.0069580078125,68.038330078125
1759066623.7388384,-0.63232421875,0.0029296875,0.7783203125,-1.52587890625,0.244140625,-0.18310546875,0.3515625,39.012451171875,68.038330078125
1759066623.7486289,-0.6337890625,0.001953125,0.77685546875,-2.13623046875,0.3662109375,-0.06103515625,0.32958984375,39.012451171875,68.038330078125
1759066623.7586505,-0.6337890625,0.001953125,0.77685546875,-2.13623046875,0.3662109375,-0.06103515625,0.3076171875,39.0179443359375,68.038330078125
1759066623.7685888,-0.6376953125,0.0,0.7744140625,-1.953125,0.54931640625,0.0,0.28564453125,39.0234375,68.0328369140625
1759066623.7793772,-0.6376953125,0.0,0.7744140625,-1.953125,0.54931640625,0.0,0.263671875,39.0289306640625,68.0328369140625
1759066623.788684,-0.63671875,-0.001953125,0.7744140625,-1.0986328125,0.8544921875,0.06103515625,0.252685546875,39.0399169921875,68.0328369140625
1759066623.7988746,-0.63671875,-0.001953125,0.7744140625,-1.0986328125,0.8544921875,0.06103515625,0.24169921875,39.0509033203125,68.038330078125
1759066623.8088183,-0.63671875,-0.001953125,0.7744140625,-0.6103515625,1.15966796875,0.06103515625,0.2362060546875,39.0618896484375,68.038330078125
1759066623.8187258,-0.63525390625,0.0,0.7724609375,-0.6103515625,1.15966796875,0.06103515625,0.230712890625,39.0728759765625,68.038330078125
1759066623.8287673,-0.63525390625,0.00146484375,0.7685546875,-0.42724609375,1.15966796875,-0.06103515625,0.2252197265625,39.08935546875,68.0328369140625
1759066623.8388007,-0.63525390625,0.00146484375,0.7685546875,-0.42724609375,1.15966796875,-0.06103515625,0.2197265625,39.100341796875,68.0328369140625
1759066623.8487546,-0.63916015625,0.001953125,0.7685546875,-0.42724609375,1.03759765625,-0.06103515625,0.2142333984375,39.111328125,68.0328369140625
1759066623.858804,-0.63916015625,0.001953125,0.7685546875,-0.42724609375,1.03759765625,-0.06103515625,0.208740234375,39.122314453125,68.02734375
1759066623.8687193,-0.640625,0.0009765625,0.767578125,-0.06103515625,0.8544921875,0.0,0.208740234375,39.13330078125,68.02734375
1759066623.8793218,-0.640625,0.0009765625,0.767578125,-0.06103515625,0.8544921875,0.0,0.2032470703125,39.144287109375,68.02734375
1759066623.888768,-0.64306640625,-0.00048828125,0.76708984375,0.0,0.67138671875,0.0,0.2032470703125,39.1552734375,68.0218505859375
1759066623.8990471,-0.64306640625,-0.00048828125,0.76708984375,0.0,0.67138671875,0.0,0.2032470703125,39.1607666015625,68.0218505859375
1759066623.9093359,-0.64013671875,0.0029296875,0.765625,-0.48828125,0.54931640625,0.06103515625,0.19775390625,39.1717529296875,68.0218505859375
1759066623.918884,-0.63623046875,0.0009765625,0.771484375,-0.6103515625,0.3662109375,0.06103515625,0.1922607421875,39.17724609375,68.0218505859375
1759066623.9288812,-0.63623046875,0.0009765625,0.771484375,-0.6103515625,0.3662109375,0.06103515625,0.186767578125,39.1827392578125,68.0218505859375
1759066623.9390295,-0.634765625,-0.00341796875,0.76953125,-0.3662109375,0.18310546875,0.1220703125,0.1812744140625,39.188232421875,68.0218505859375
1759066623.9488833,-0.634765625,-0.00341796875,0.76953125,-0.3662109375,0.18310546875,0.1220703125,0.1812744140625,39.1937255859375,68.0218505859375
1759066623.959044,-0.63818359375,-0.001953125,0.7685546875,0.3662109375,0.06103515625,0.1220703125,0.1812744140625,39.1937255859375,68.0218505859375
1759066623.9689143,-0.63818359375,-0.001953125,0.7685546875,0.3662109375,0.06103515625,0.1220703125,0.1812744140625,39.19921875,68.0218505859375
1759066623.9792717,-0.63671875,0.00048828125,0.77197265625,0.67138671875,0.06103515625,0.06103515625,0.186767578125,39.2047119140625,68.0218505859375
1759066623.9890082,-0.63671875,0.00048828125,0.77197265625,0.67138671875,0.06103515625,0.06103515625,0.1922607421875,39.2047119140625,68.0218505859375
1759066623.999071,-0.63525390625,0.00244140625,0.7724609375,0.54931640625,0.1220703125,0.06103515625,0.19775390625,39.210205078125,68.0218505859375
1759066624.0096085,-0.63525390625,0.00244140625,0.7724609375,0.54931640625,0.1220703125,0.06103515625,0.2032470703125,39.210205078125,68.0218505859375
1759066624.019043,-0.63427734375,0.00390625,0.77197265625,0.8544921875,0.18310546875,0.0,0.208740234375,39.2156982421875,68.016357421875
1759066624.0290754,-0.63427734375,0.00390625,0.77197265625,0.8544921875,0.18310546875,0.0,0.2197265625,39.22119140625,68.016357421875
1759066624.0392373,-0.63232421875,0.00341796875,0.77490234375,1.708984375,0.18310546875,0.0,0.230712890625,39.22119140625,68.016357421875
1759066624.0491111,-0.63232421875,0.00341796875,0.77490234375,1.708984375,0.18310546875,0.0,0.2471923828125,39.2266845703125,68.016357421875
1759066624.0591617,-0.630859375,0.00537109375,0.77880859375,2.3193359375,0.18310546875,-0.06103515625,0.263671875,39.2266845703125,68.0108642578125
1759066624.0691366,-0.630859375,0.00537109375,0.77880859375,2.3193359375,0.18310546875,-0.06103515625,0.28564453125,39.232177734375,68.0108642578125
1759066624.0795588,-0.630859375,0.01123046875,0.77734375,2.38037109375,0.3662109375,-0.18310546875,0.3076171875,39.2376708984375,68.0108642578125
1759066624.0891404,-0.630859375,0.01123046875,0.77734375,2.38037109375,0.3662109375,-0.18310546875,0.32958984375,39.2376708984375,68.00537109375
1759066624.099201,-0.6298828125,0.01171875,0.7763671875,1.77001953125,0.48828125,-0.18310546875,0.3515625,39.2431640625,68.00537109375
1759066624.1095629,-0.6298828125,0.01171875,0.7763671875,1.77001953125,0.48828125,-0.18310546875,0.3680419921875,39.2486572265625,67.9998779296875
1759066624.1192193,-0.62939453125,0.0087890625,0.77783203125,1.28173828125,0.3662109375,-0.18310546875,0.3790283203125,39.254150390625,67.9998779296875
1759066624.129222,-0.62939453125,0.0087890625,0.77783203125,1.28173828125,0.3662109375,-0.18310546875,0.3900146484375,39.2596435546875,67.994384765625
1759066624.139329,-0.630859375,0.00634765625,0.77734375,0.6103515625,0.244140625,-0.1220703125,0.4010009765625,39.2596435546875,67.994384765625
1759066624.149192,-0.630859375,0.00634765625,0.77734375,0.6103515625,0.244140625,-0.1220703125,0.406494140625,39.26513671875,67.9888916015625
1759066624.1592708,-0.63134765625,0.00390625,0.7763671875,0.18310546875,0.18310546875,-0.18310546875,0.406494140625,39.26513671875,67.9888916015625
1759066624.1694357,-0.63134765625,0.00390625,0.7763671875,0.18310546875,0.18310546875,-0.18310546875,0.406494140625,39.26513671875,67.9833984375
1759066624.1795225,-0.63330078125,0.0009765625,0.7744140625,0.06103515625,0.18310546875,-0.244140625,0.406494140625,39.26513671875,67.9833984375
1759066624.1892967,-0.63330078125,0.0009765625,0.7744140625,0.06103515625,0.18310546875,-0.244140625,0.406494140625,39.2706298828125,67.9779052734375
1759066624.1993039,-0.63232421875,0.00048828125,0.7744140625,-0.1220703125,0.1220703125,-0.30517578125,0.406494140625,39.2706298828125,67.972412109375
1759066624.20977,-0.63232421875,0.00048828125,0.7744140625,-0.1220703125,0.1220703125,-0.30517578125,0.4010009765625,39.2706298828125,67.972412109375
1759066624.219625,-0.63134765625,0.0,0.77587890625,0.18310546875,0.06103515625,-0.3662109375,0.3955078125,39.2706298828125,67.9669189453125
1759066624.2296457,-0.63134765625,0.0,0.77587890625,0.18310546875,0.06103515625,-0.3662109375,0.3955078125,39.2706298828125,67.96142578125
1759066624.2395334,-0.63134765625,-0.005859375,0.7724609375,0.9765625,-0.1220703125,-0.42724609375,0.3955078125,39.2706298828125,67.9559326171875
1759066624.2493615,-0.63134765625,-0.005859375,0.7724609375,0.9765625,-0.1220703125,-0.42724609375,0.4010009765625,39.2706298828125,67.950439453125
1759066624.2595758,-0.63134765625,-0.005859375,0.7724609375,1.89208984375,-0.42724609375,-0.42724609375,0.4119873046875,39.26513671875,67.9449462890625
1759066624.2693481,-0.63427734375,-0.01025390625,0.771484375,1.89208984375,-0.42724609375,-0.42724609375,0.4229736328125,39.2596435546875,67.9339599609375
1759066624.279763,-0.6328125,-0.00390625,0.77294921875,1.77001953125,-0.6103515625,-0.42724609375,0.4339599609375,39.254150390625,67.928466796875
1759066624.289434,-0.6328125,-0.00390625,0.77294921875,1.77001953125,-0.6103515625,-0.42724609375,0.4449462890625,39.2486572265625,67.9229736328125
1759066624.2994485,-0.63232421875,0.001953125,0.7763671875,0.79345703125,-0.67138671875,-0.244140625,0.450439453125,39.2431640625,67.91748046875
1759066624.3099413,-0.63232421875,0.001953125,0.7763671875,0.79345703125,-0.67138671875,-0.244140625,0.4559326171875,39.2376708984375,67.9119873046875
1759066624.31953,-0.63232421875,0.001953125,0.7763671875,0.6103515625,-0.67138671875,-0.244140625,0.4559326171875,39.232177734375,67.9119873046875
1759066624.3297129,-0.63232421875,-0.00048828125,0.77392578125,0.6103515625,-0.67138671875,-0.244140625,0.4559326171875,39.22119140625,67.906494140625
1759066624.3396757,-0.63330078125,-0.00048828125,0.77587890625,1.03759765625,-0.6103515625,-0.30517578125,0.46142578125,39.2156982421875,67.9010009765625
1759066624.3494923,-0.63330078125,-0.00048828125,0.77587890625,1.03759765625,-0.6103515625,-0.30517578125,0.4669189453125,39.210205078125,67.8955078125
1759066624.3595393,-0.6337890625,0.0068359375,0.77587890625,1.0986328125,-0.54931640625,-0.3662109375,0.472412109375,39.2047119140625,67.8900146484375
1759066624.369507,-0.6337890625,0.0068359375,0.77587890625,1.0986328125,-0.54931640625,-0.3662109375,0.4779052734375,39.19921875,67.884521484375
1759066624.3798892,-0.6357421875,0.01123046875,0.77294921875,0.244140625,-0.48828125,-0.42724609375,0.4779052734375,39.1937255859375,67.8790283203125
1759066624.389609,-0.6357421875,0.01123046875,0.77294921875,0.244140625,-0.48828125,-0.42724609375,0.472412109375,39.1937255859375,67.87353515625
1759066624.3995922,-0.63623046875,0.00830078125,0.77490234375,-0.42724609375,-0.3662109375,-0.48828125,0.4669189453125,39.188232421875,67.8680419921875
1759066624.4100122,-0.63623046875,0.00830078125,0.77490234375,-0.42724609375,-0.3662109375,-0.48828125,0.4559326171875,39.1827392578125,67.862548828125
1759066624.4196336,-0.63037109375,0.00830078125,0.7744140625,-0.67138671875,-0.244140625,-0.48828125,0.4449462890625,39.1827392578125,67.8570556640625
1759066624.4298215,-0.63037109375,0.00830078125,0.7744140625,-0.67138671875,-0.244140625,-0.48828125,0.4339599609375,39.1827392578125,67.8460693359375
1759066624.4399285,-0.6279296875,0.00146484375,0.77685546875,-0.1220703125,-0.30517578125,-0.67138671875,0.428466796875,39.17724609375,67.840576171875
1759066624.4496112,-0.6279296875,0.00146484375,0.77685546875,-0.1220703125,-0.30517578125,-0.67138671875,0.41748046875,39.17724609375,67.82958984375
1759066624.4596171,-0.62890625,-0.00341796875,0.77880859375,0.67138671875,-0.30517578125,-0.732421875,0.41748046875,39.1717529296875,67.8240966796875
1759066624.4695954,-0.62890625,-0.00341796875,0.77880859375,0.67138671875,-0.30517578125,-0.732421875,0.41748046875,39.1717529296875,67.8131103515625
1759066624.4799235,-0.62939453125,0.00439453125,0.77783203125,1.03759765625,-0.3662109375,-0.732421875,0.41748046875,39.166259765625,67.8021240234375
1759066624.4896295,-0.62939453125,0.00439453125,0.77783203125,1.03759765625,-0.3662109375,-0.732421875,0.41748046875,39.1607666015625,67.7911376953125
1759066624.4999819,-0.6279296875,0.00537109375,0.77587890625,0.9765625,-0.48828125,-0.79345703125,0.4229736328125,39.1552734375,67.78564453125
1759066624.5101137,-0.6279296875,0.00537109375,0.77587890625,0.9765625,-0.48828125,-0.79345703125,0.4229736328125,39.1552734375,67.774658203125
1759066624.519899,-0.62939453125,0.00048828125,0.77685546875,0.30517578125,-0.54931640625,-0.6103515625,0.4229736328125,39.1497802734375,67.763671875
1759066624.5296967,-0.62939453125,0.00048828125,0.77685546875,0.30517578125,-0.54931640625,-0.6103515625,0.4229736328125,39.1387939453125,67.7581787109375
1759066624.5399032,-0.62939453125,0.0009765625,0.77392578125,-0.06103515625,-0.67138671875,-0.48828125,0.41748046875,39.13330078125,67.7471923828125
1759066624.5497653,-0.62939453125,0.0009765625,0.77392578125,-0.06103515625,-0.67138671875,-0.48828125,0.4119873046875,39.1278076171875,67.74169921875
1759066624.5600271,-0.63134765625,0.0009765625,0.77392578125,0.06103515625,-0.8544921875,-0.3662109375,0.406494140625,39.122314453125,67.7362060546875
1759066624.5697775,-0.63134765625,0.0009765625,0.77392578125,0.06103515625,-0.8544921875,-0.3662109375,0.4010009765625,39.111328125,67.730712890625
1759066624.5800347,-0.6328125,0.0009765625,0.77392578125,1.03759765625,-0.9765625,-0.30517578125,0.4010009765625,39.100341796875,67.7252197265625
1759066624.5897713,-0.6328125,0.0009765625,0.77392578125,1.03759765625,-0.9765625,-0.30517578125,0.406494140625,39.0948486328125,67.7197265625
1759066624.599818,-0.6376953125,0.0029296875,0.77099609375,1.708984375,-1.03759765625,-0.244140625,0.41748046875,39.0838623046875,67.7142333984375
1759066624.6102734,-0.6376953125,0.0029296875,0.77099609375,1.708984375,-1.03759765625,-0.244140625,0.4339599609375,39.0728759765625,67.708740234375
1759066624.6198723,-0.63671875,0.00537109375,0.76904296875,1.3427734375,-1.0986328125,-0.244140625,0.4449462890625,39.0618896484375,67.708740234375
1759066624.6300778,-0.63671875,0.00537109375,0.76904296875,1.3427734375,-1.0986328125,-0.244140625,0.4559326171875,39.056396484375,67.7032470703125
1759066624.640266,-0.6337890625,0.0068359375,0.77880859375,0.91552734375,-1.03759765625,-0.244140625,0.46142578125,39.04541015625,67.69775390625
1759066624.6498713,-0.6337890625,0.0068359375,0.77880859375,0.91552734375,-1.03759765625,-0.244140625,0.4669189453125,39.034423828125,67.6922607421875
1759066624.6599398,-0.62939453125,0.0029296875,0.7783203125,0.48828125,-0.9765625,-0.18310546875,0.472412109375,39.0289306640625,67.6922607421875
1759066624.669858,-0.62939453125,0.0029296875,0.7783203125,0.48828125,-0.9765625,-0.18310546875,0.472412109375,39.0179443359375,67.686767578125
1759066624.6801398,-0.62841796875,0.0,0.775390625,-0.06103515625,-1.0986328125,-0.06103515625,0.472412109375,39.012451171875,67.686767578125
1759066624.6899621,-0.62841796875,0.0,0.775390625,-0.06103515625,-1.0986328125,-0.06103515625,0.472412109375,39.00146484375,67.686767578125
1759066624.699902,-0.626953125,0.001953125,0.77734375,-0.6103515625,-1.0986328125,0.0,0.4669189453125,38.990478515625,67.6812744140625
1759066624.7103875,-0.626953125,0.001953125,0.77734375,-0.6103515625,-1.0986328125,0.0,0.4559326171875,38.9794921875,67.6812744140625
1759066624.719926,-0.625,0.00537109375,0.78271484375,-1.220703125,-1.0986328125,0.0,0.4449462890625,38.968505859375,67.6812744140625
1759066624.7299578,-0.625,0.00537109375,0.78271484375,-1.220703125,-1.0986328125,0.0,0.4339599609375,38.95751953125,67.6812744140625
1759066624.7401009,-0.62255859375,0.00390625,0.78369140625,-1.28173828125,-1.03759765625,0.0,0.41748046875,38.946533203125,67.6812744140625
1759066624.749925,-0.62255859375,0.00390625,0.78369140625,-1.28173828125,-1.03759765625,0.0,0.406494140625,38.9410400390625,67.67578125
1759066624.760115,-0.62451171875,0.00244140625,0.77978515625,-0.8544921875,-1.0986328125,0.0,0.3955078125,38.9300537109375,67.67578125
1759066624.7698958,-0.62451171875,0.00244140625,0.77978515625,-0.8544921875,-1.0986328125,0.0,0.384521484375,38.9190673828125,67.67578125
1759066624.780387,-0.62451171875,0.00048828125,0.779296875,-0.48828125,-1.220703125,0.0,0.37353515625,38.902587890625,67.67578125
1759066624.789987,-0.62451171875,0.00048828125,0.779296875,-0.48828125,-1.220703125,0.0,0.3680419921875,38.8916015625,67.67578125
1759066624.8000257,-0.62841796875,0.0,0.77880859375,-0.06103515625,-1.3427734375,0.06103515625,0.3680419921875,38.880615234375,67.67578125
1759066624.8105054,-0.62841796875,0.0,0.77880859375,-0.06103515625,-1.3427734375,0.06103515625,0.362548828125,38.8641357421875,67.67578125
1759066624.8200765,-0.625,0.00048828125,0.77978515625,0.3662109375,-1.40380859375,0.0,0.3680419921875,38.8531494140625,67.67578125
