timestamp,acc_x,acc_y,acc_z,gyro_x,gyro_y,gyro_z,angle_x,angle_y,angle_z
1758524836.877832,-0.8916015625,-0.03662109375,0.4482421875,-2.50244140625,-0.06103515625,-1.708984375,-5.3997802734375,62.7044677734375,-11.4697265625
1758524836.8876495,-0.8916015625,-0.03662109375,0.4482421875,-2.50244140625,-0.06103515625,-1.708984375,-5.4437255859375,62.7044677734375,-11.4862060546875
1758524836.897924,-0.89013671875,-0.03515625,0.4521484375,-0.79345703125,-0.244140625,-1.708984375,-5.4766845703125,62.7044677734375,-11.4971923828125
1758524836.9075286,-0.89013671875,-0.03515625,0.4521484375,-0.79345703125,-0.244140625,-1.708984375,-5.504150390625,62.7044677734375,-11.513671875
1758524836.9173102,-0.88134765625,-0.017578125,0.45458984375,-2.74658203125,-0.30517578125,-1.40380859375,-5.548095703125,62.7044677734375,-11.524658203125
1758524836.927511,-0.88134765625,-0.017578125,0.45458984375,-2.74658203125,-0.30517578125,-1.40380859375,-5.592041015625,62.7044677734375,-11.5301513671875
1758524836.9361048,-0.86376953125,-0.017578125,0.45361328125,-9.6435546875,0.0,-0.732421875,-5.69091796875,62.7044677734375,-11.5191650390625
1758524836.9461544,-0.86376953125,-0.017578125,0.45361328125,-9.6435546875,0.0,-0.732421875,-5.7843017578125,62.7044677734375,-11.5081787109375
1758524836.9563143,-0.865234375,-0.05615234375,0.45068359375,-11.53564453125,0.54931640625,-0.54931640625,-5.899658203125,62.7099609375,-11.4971923828125
1758524836.966032,-0.865234375,-0.05615234375,0.45068359375,-11.53564453125,0.54931640625,-0.54931640625,-6.0150146484375,62.7154541015625,-11.4862060546875
1758524836.9760807,-0.8701171875,-0.07666015625,0.4560546875,-2.99072265625,0.732421875,-0.54931640625,-6.04248046875,62.7264404296875,-11.480712890625
1758524836.9860375,-0.8701171875,-0.07666015625,0.4560546875,-2.99072265625,0.732421875,-0.54931640625,-6.0809326171875,62.73193359375,-11.4697265625
1758524836.9961603,-0.873046875,-0.060546875,0.46533203125,3.2958984375,0.732421875,-0.54931640625,-6.053466796875,62.7374267578125,-11.4642333984375
1758524837.006065,-0.873046875,-0.060546875,0.46533203125,3.2958984375,0.732421875,-0.54931640625,-6.031494140625,62.742919921875,-11.4642333984375
1758524837.0164607,-0.8779296875,-0.0458984375,0.46435546875,3.23486328125,0.9765625,-0.244140625,-5.99853515625,62.75390625,-11.4532470703125
1758524837.0261343,-0.8779296875,-0.0458984375,0.46435546875,3.23486328125,0.9765625,-0.244140625,-5.9710693359375,62.7593994140625,-11.4422607421875
1758524837.0361419,-0.89306640625,-0.05810546875,0.47216796875,0.54931640625,0.67138671875,-0.30517578125,-5.9710693359375,62.764892578125,-11.4312744140625
1758524837.04633,-0.89306640625,-0.05810546875,0.47216796875,0.54931640625,0.67138671875,-0.30517578125,-5.9710693359375,62.764892578125,-11.4202880859375
1758524837.0567646,-0.89599609375,-0.064453125,0.47021484375,2.13623046875,0.3662109375,-0.48828125,-5.9600830078125,62.7703857421875,-11.414794921875
1758524837.0661922,-0.89599609375,-0.064453125,0.47021484375,2.13623046875,0.3662109375,-0.48828125,-5.9490966796875,62.7703857421875,-11.414794921875
1758524837.0767634,-0.88525390625,-0.05029296875,0.466796875,4.638671875,0.06103515625,-0.54931640625,-5.9161376953125,62.764892578125,-11.4093017578125
1758524837.0861928,-0.88525390625,-0.05029296875,0.466796875,4.638671875,0.06103515625,-0.54931640625,-5.8831787109375,62.764892578125,-11.4093017578125
1758524837.0961902,-0.88232421875,-0.04638671875,0.46484375,2.38037109375,0.06103515625,-0.42724609375,-5.86669921875,62.7593994140625,-11.40380859375
1758524837.1061966,-0.88232421875,-0.04638671875,0.46484375,2.38037109375,0.06103515625,-0.42724609375,-5.855712890625,62.75390625,-11.3983154296875
1758524837.116219,-0.89501953125,-0.05615234375,0.4677734375,0.91552734375,-0.06103515625,-0.42724609375,-5.855712890625,62.75390625,-11.3873291015625
1758524837.126236,-0.89501953125,-0.05615234375,0.4677734375,0.91552734375,-0.06103515625,-0.42724609375,-5.855712890625,62.7484130859375,-11.3818359375
1758524837.1362467,-0.90234375,-0.056640625,0.4658203125,2.685546875,-0.3662109375,-0.3662109375,-5.8392333984375,62.742919921875,-11.3763427734375
1758524837.1462507,-0.90234375,-0.056640625,0.4658203125,2.685546875,-0.3662109375,-0.3662109375,-5.8172607421875,62.73193359375,-11.370849609375
1758524837.1563356,-0.896484375,-0.04638671875,0.4619140625,2.86865234375,-0.48828125,-0.1220703125,-5.7952880859375,62.7264404296875,-11.35986328125
1758524837.1662807,-0.896484375,-0.04638671875,0.4619140625,2.86865234375,-0.48828125,-0.1220703125,-5.7733154296875,62.720947265625,-11.348876953125
1758524837.1762538,-0.896484375,-0.0478515625,0.45703125,-0.3662109375,-0.54931640625,0.0,-5.77880859375,62.7099609375,-11.337890625
1758524837.1863086,-0.896484375,-0.0537109375,0.45068359375,-2.44140625,-0.54931640625,0.1220703125,-5.789794921875,62.7044677734375,-11.3214111328125
1758524837.1963062,-0.896484375,-0.0537109375,0.45068359375,-2.44140625,-0.54931640625,0.1220703125,-5.811767578125,62.698974609375,-11.304931640625
1758524837.2063074,-0.8994140625,-0.06005859375,0.44384765625,-2.50244140625,-0.3662109375,0.0,-5.8392333984375,62.6934814453125,-11.2939453125
1758524837.2163148,-0.8994140625,-0.06005859375,0.44384765625,-2.50244140625,-0.3662109375,0.0,-5.86669921875,62.68798828125,-11.282958984375
1758524837.2264237,-0.89599609375,-0.0625,0.4404296875,-2.0751953125,-0.18310546875,-0.244140625,-5.899658203125,62.68798828125,-11.2774658203125
1758524837.2363822,-0.89599609375,-0.0625,0.4404296875,-2.0751953125,-0.18310546875,-0.244140625,-5.9271240234375,62.68798828125,-11.27197265625
1758524837.2465556,-0.88818359375,-0.064453125,0.435546875,-0.3662109375,0.0,-0.6103515625,-5.95458984375,62.68798828125,-11.2774658203125
1758524837.256461,-0.88818359375,-0.064453125,0.435546875,-0.3662109375,0.0,-0.6103515625,-5.9765625,62.68798828125,-11.282958984375
1758524837.2675083,-0.8818359375,-0.06640625,0.43115234375,3.23486328125,0.30517578125,-0.91552734375,-5.9820556640625,62.68798828125,-11.2939453125
1758524837.2764437,-0.8818359375,-0.06640625,0.43115234375,3.23486328125,0.30517578125,-0.91552734375,-5.9765625,62.6934814453125,-11.3104248046875
1758524837.2866762,-0.88232421875,-0.05712890625,0.43017578125,6.8359375,0.732421875,-1.15966796875,-5.95458984375,62.698974609375,-11.3323974609375
1758524837.2964485,-0.88232421875,-0.05712890625,0.43017578125,6.8359375,0.732421875,-1.15966796875,-5.921630859375,62.7099609375,-11.3543701171875
1758524837.3065844,-0.87646484375,-0.04248046875,0.4365234375,6.4697265625,1.220703125,-1.15966796875,-5.888671875,62.720947265625,-11.3763427734375
1758524837.316513,-0.87646484375,-0.04248046875,0.4365234375,6.4697265625,1.220703125,-1.15966796875,-5.855712890625,62.7374267578125,-11.40380859375
1758524837.326596,-0.87646484375,-0.04248046875,0.4365234375,3.60107421875,1.5869140625,-1.0986328125,-5.8392333984375,62.75390625,-11.42578125
1758524837.33649,-0.87939453125,-0.03759765625,0.44189453125,3.60107421875,1.5869140625,-1.0986328125,-5.8282470703125,62.7703857421875,-11.44775390625
1758524837.3466184,-0.8818359375,-0.037109375,0.451171875,0.42724609375,1.77001953125,-0.9765625,-5.8392333984375,62.786865234375,-11.4697265625
1758524837.3566165,-0.8818359375,-0.037109375,0.451171875,0.42724609375,1.77001953125,-0.9765625,-5.8612060546875,62.808837890625,-11.4862060546875
1758524837.3668308,-0.8876953125,-0.04052734375,0.44873046875,-1.28173828125,1.77001953125,-0.79345703125,-5.888671875,62.8253173828125,-11.502685546875
1758524837.376606,-0.8876953125,-0.04052734375,0.44873046875,-1.28173828125,1.77001953125,-0.79345703125,-5.921630859375,62.8472900390625,-11.513671875
1758524837.3869474,-0.896484375,-0.048828125,0.453125,-0.30517578125,1.708984375,-0.9765625,-5.9490966796875,62.86376953125,-11.524658203125
1758524837.3966258,-0.896484375,-0.048828125,0.453125,-0.30517578125,1.708984375,-0.9765625,-5.9765625,62.8802490234375,-11.5411376953125
1758524837.4070685,-0.89892578125,-0.0478515625,0.458984375,1.3427734375,1.52587890625,-1.15966796875,-5.99853515625,62.896728515625,-11.5576171875
1758524837.4166334,-0.89892578125,-0.0478515625,0.458984375,1.3427734375,1.52587890625,-1.15966796875,-6.009521484375,62.9132080078125,-11.5740966796875
1758524837.427192,-0.8994140625,-0.04443359375,0.4638671875,3.72314453125,1.40380859375,-0.9765625,-6.009521484375,62.9296875,-11.5850830078125
1758524837.4367406,-0.8994140625,-0.04443359375,0.4638671875,3.72314453125,1.40380859375,-0.9765625,-5.9930419921875,62.940673828125,-11.6015625
1758524837.4471319,-0.90087890625,-0.0400390625,0.466796875,5.06591796875,1.03759765625,-0.8544921875,-5.9710693359375,62.95166015625,-11.612548828125
1758524837.4567835,-0.90087890625,-0.0400390625,0.466796875,5.06591796875,1.03759765625,-0.8544921875,-5.9381103515625,62.962646484375,-11.6180419921875
1758524837.467578,-0.8916015625,-0.02880859375,0.46875,2.685546875,0.79345703125,-0.48828125,-5.91064453125,62.9681396484375,-11.6180419921875
1758524837.4770722,-0.8916015625,-0.02880859375,0.46875,2.685546875,0.79345703125,-0.48828125,-5.8941650390625,62.9791259765625,-11.6180419921875
1758524837.4867122,-0.89013671875,-0.03564453125,0.46630859375,-1.40380859375,0.67138671875,-0.18310546875,-5.888671875,62.984619140625,-11.6070556640625
1758524837.4969637,-0.89013671875,-0.03564453125,0.46630859375,-1.40380859375,0.67138671875,-0.18310546875,-5.9051513671875,62.9901123046875,-11.5960693359375
1758524837.5067222,-0.89599609375,-0.05517578125,0.45947265625,-0.79345703125,0.48828125,0.0,-5.9161376953125,62.9901123046875,-11.57958984375
1758524837.5175097,-0.89599609375,-0.05517578125,0.45947265625,-0.79345703125,0.48828125,0.0,-5.921630859375,62.99560546875,-11.5631103515625
1758524837.5268135,-0.9013671875,-0.06396484375,0.46435546875,2.38037109375,0.1220703125,-0.06103515625,-5.91064453125,62.99560546875,-11.5521240234375
1758524837.5368383,-0.9013671875,-0.06396484375,0.46435546875,2.38037109375,0.1220703125,-0.06103515625,-5.888671875,62.99560546875,-11.5411376953125
1758524837.5474255,-0.896484375,-0.05615234375,0.4638671875,3.47900390625,-0.06103515625,-0.06103515625,-5.8612060546875,62.99560546875,-11.524658203125
1758524837.5570736,-0.896484375,-0.05615234375,0.4638671875,3.47900390625,-0.06103515625,-0.06103515625,-5.8282470703125,62.9901123046875,-11.513671875
1758524837.5676982,-0.88916015625,-0.0439453125,0.46337890625,0.9765625,-0.30517578125,0.0,-5.8062744140625,62.984619140625,-11.502685546875
1758524837.5781603,-0.88916015625,-0.0439453125,0.46337890625,0.9765625,-0.30517578125,0.0,-5.80078125,62.9791259765625,-11.49169921875
1758524837.5869365,-0.884765625,-0.0517578125,0.45751953125,-2.44140625,-0.30517578125,0.244140625,-5.8062744140625,62.9736328125,-11.4752197265625
1758524837.5968902,-0.884765625,-0.0517578125,0.45751953125,-2.44140625,-0.30517578125,0.244140625,-5.82275390625,62.9736328125,-11.4532470703125
1758524837.6072328,-0.884765625,-0.060546875,0.4580078125,-3.7841796875,-0.3662109375,0.244140625,-5.8502197265625,62.9681396484375,-11.4312744140625
1758524837.6172404,-0.884765625,-0.060546875,0.4580078125,-3.7841796875,-0.3662109375,0.244140625,-5.8831787109375,62.9571533203125,-11.414794921875
1758524837.6269207,-0.88037109375,-0.0625,0.451171875,-3.2958984375,-0.3662109375,0.30517578125,-5.9161376953125,62.95166015625,-11.392822265625
1758524837.6369905,-0.88037109375,-0.0625,0.451171875,-3.2958984375,-0.3662109375,0.30517578125,-5.9490966796875,62.9461669921875,-11.3763427734375
1758524837.647992,-0.88134765625,-0.0712890625,0.44775390625,-0.8544921875,-0.1220703125,0.30517578125,-5.965576171875,62.9461669921875,-11.35986328125
1758524837.6576488,-0.88134765625,-0.0712890625,0.44775390625,-0.8544921875,-0.1220703125,0.30517578125,-5.9710693359375,62.940673828125,-11.3433837890625
1758524837.666948,-0.89013671875,-0.06787109375,0.4541015625,2.74658203125,-0.06103515625,0.244140625,-5.965576171875,62.9351806640625,-11.326904296875
1758524837.6770506,-0.89013671875,-0.06787109375,0.4541015625,2.74658203125,-0.06103515625,0.244140625,-5.943603515625,62.9351806640625,-11.31591796875
1758524837.6872413,-0.8935546875,-0.05078125,0.46337890625,3.2958984375,-0.244140625,0.1220703125,-5.9161376953125,62.9296875,-11.304931640625
1758524837.6975493,-0.8935546875,-0.05078125,0.46337890625,3.2958984375,-0.244140625,0.1220703125,-5.888671875,62.9296875,-11.2939453125
1758524837.707061,-0.890625,-0.037109375,0.45849609375,-0.54931640625,-0.42724609375,0.18310546875,-5.877685546875,62.9241943359375,-11.282958984375
1758524837.7179728,-0.890625,-0.037109375,0.45849609375,-0.54931640625,-0.42724609375,0.18310546875,-5.8831787109375,62.918701171875,-11.27197265625
1758524837.7276392,-0.890625,-0.04833984375,0.45068359375,-4.21142578125,-0.244140625,0.244140625,-5.9051513671875,62.9132080078125,-11.2554931640625
1758524837.7376237,-0.890625,-0.04833984375,0.45068359375,-4.21142578125,-0.244140625,0.244140625,-5.9490966796875,62.90771484375,-11.239013671875
1758524837.7471802,-0.9033203125,-0.060546875,0.451171875,-2.01416015625,-0.06103515625,0.244140625,-5.9765625,62.90771484375,-11.22802734375
1758524837.7586243,-0.9033203125,-0.060546875,0.451171875,-2.01416015625,-0.06103515625,0.244140625,-5.99853515625,62.9022216796875,-11.2115478515625
1758524837.7672575,-0.9130859375,-0.0546875,0.45703125,1.5869140625,-0.18310546875,0.244140625,-5.99853515625,62.9022216796875,-11.2005615234375
1758524837.7777002,-0.9130859375,-0.0546875,0.45703125,1.5869140625,-0.18310546875,0.244140625,-5.9820556640625,62.9022216796875,-11.18408203125
1758524837.7871847,-0.9072265625,-0.04296875,0.45849609375,0.54931640625,-0.48828125,0.1220703125,-5.9710693359375,62.896728515625,-11.173095703125
1758524837.7987864,-0.9072265625,-0.04296875,0.45849609375,0.54931640625,-0.48828125,0.1220703125,-5.965576171875,62.8912353515625,-11.162109375
1758524837.8072236,-0.9033203125,-0.04052734375,0.453125,-1.89208984375,-0.67138671875,0.244140625,-5.9710693359375,62.8857421875,-11.1456298828125
1758524837.8178825,-0.9033203125,-0.04052734375,0.453125,-1.89208984375,-0.67138671875,0.244140625,-5.987548828125,62.8802490234375,-11.129150390625
1758524837.8277457,-0.91259765625,-0.0478515625,0.451171875,-1.89208984375,-0.79345703125,0.244140625,-6.0040283203125,62.874755859375,-11.1126708984375
1758524837.8386943,-0.91259765625,-0.0478515625,0.451171875,-1.89208984375,-0.79345703125,0.244140625,-6.0150146484375,62.8692626953125,-11.09619140625
1758524837.8472219,-0.91064453125,-0.0458984375,0.4482421875,-0.79345703125,-1.0986328125,0.244140625,-6.0205078125,62.86376953125,-11.0797119140625
1758524837.858135,-0.91064453125,-0.0458984375,0.4482421875,-0.79345703125,-1.0986328125,0.244140625,-6.0260009765625,62.852783203125,-11.063232421875
1758524837.8677554,-0.8984375,-0.03564453125,0.44384765625,-2.685546875,-1.15966796875,0.30517578125,-6.0369873046875,62.841796875,-11.0467529296875
1758524837.877911,-0.8984375,-0.03564453125,0.44384765625,-2.685546875,-1.15966796875,0.30517578125,-6.053466796875,62.8363037109375,-11.0247802734375
1758524837.887245,-0.8828125,-0.0341796875,0.43798828125,-6.9580078125,-0.79345703125,0.48828125,-6.0919189453125,62.830810546875,-11.0028076171875
1758524837.897536,-0.8828125,-0.0341796875,0.43798828125,-6.9580078125,-0.79345703125,0.48828125,-6.1468505859375,62.8253173828125,-10.9808349609375
1758524837.907804,-0.88037109375,-0.0595703125,0.4384765625,-6.65283203125,-0.30517578125,0.67138671875,-6.2017822265625,62.81982421875,-10.9588623046875
1758524837.9173138,-0.88037109375,-0.0595703125,0.4384765625,-6.65283203125,-0.30517578125,0.67138671875,-6.251220703125,62.8253173828125,-10.931396484375
1758524837.9278598,-0.88671875,-0.07177734375,0.44482421875,0.244140625,-0.06103515625,0.67138671875,-6.2677001953125,62.8253173828125,-10.9039306640625
1758524837.937472,-0.88671875,-0.07177734375,0.44482421875,0.244140625,-0.06103515625,0.67138671875,-6.251220703125,62.8253173828125,-10.8819580078125
1758524837.9477632,-0.87890625,-0.05126953125,0.458984375,2.9296875,-0.06103515625,0.732421875,-6.2237548828125,62.830810546875,-10.8599853515625
1758524837.9583554,-0.87890625,-0.05126953125,0.458984375,2.9296875,-0.06103515625,0.732421875,-6.185302734375,62.830810546875,-10.8380126953125
1758524837.9673946,-0.8818359375,-0.0419921875,0.46923828125,-1.89208984375,-0.06103515625,0.8544921875,-6.163330078125,62.8363037109375,-10.810546875
1758524837.9773734,-0.8818359375,-0.0419921875,0.46923828125,-1.89208984375,-0.06103515625,0.8544921875,-6.1688232421875,62.8363037109375,-10.7830810546875
1758524837.987383,-0.88330078125,-0.0546875,0.46484375,-6.16455078125,-0.244140625,0.8544921875,-6.1907958984375,62.8363037109375,-10.755615234375
1758524837.9986565,-0.88330078125,-0.0546875,0.46484375,-6.16455078125,-0.244140625,0.8544921875,-6.240234375,62.830810546875,-10.7281494140625
1758524838.0074408,-0.88134765625,-0.07177734375,0.4580078125,-4.82177734375,-0.18310546875,0.91552734375,-6.2786865234375,62.830810546875,-10.70068359375
1758524838.0178049,-0.88134765625,-0.07177734375,0.4580078125,-4.82177734375,-0.18310546875,0.91552734375,-6.30615234375,62.830810546875,-10.667724609375
1758524838.0278003,-0.88525390625,-0.072265625,0.45703125,0.06103515625,-0.244140625,0.67138671875,-6.317138671875,62.8253173828125,-10.645751953125
1758524838.037613,-0.88525390625,-0.072265625,0.45703125,0.06103515625,-0.244140625,0.67138671875,-6.3116455078125,62.8253173828125,-10.623779296875
1758524838.0487845,-0.884765625,-0.05419921875,0.46142578125,1.64794921875,-0.1220703125,0.67138671875,-6.295166015625,62.81982421875,-10.601806640625
1758524838.057628,-0.884765625,-0.05419921875,0.46142578125,1.64794921875,-0.1220703125,0.67138671875,-6.2677001953125,62.81982421875,-10.579833984375
1758524838.067517,-0.8818359375,-0.044921875,0.46044921875,-1.28173828125,-0.1220703125,0.6103515625,-6.26220703125,62.81982421875,-10.557861328125
1758524838.0777917,-0.8818359375,-0.044921875,0.46044921875,-1.28173828125,-0.1220703125,0.6103515625,-6.26220703125,62.8143310546875,-10.535888671875
1758524838.0875611,-0.8857421875,-0.05029296875,0.45556640625,-3.84521484375,-0.06103515625,0.67138671875,-6.2786865234375,62.8143310546875,-10.513916015625
1758524838.0980911,-0.8857421875,-0.05029296875,0.45556640625,-3.84521484375,-0.06103515625,0.67138671875,-6.3116455078125,62.808837890625,-10.491943359375
1758524838.1082158,-0.8935546875,-0.05908203125,0.4501953125,-3.23486328125,-0.06103515625,0.6103515625,-6.3336181640625,62.808837890625,-10.469970703125
1758524838.1177187,-0.8935546875,-0.05908203125,0.4501953125,-3.23486328125,-0.06103515625,0.6103515625,-6.3555908203125,62.808837890625,-10.447998046875
1758524838.1278048,-0.896484375,-0.0625,0.451171875,-1.15966796875,0.06103515625,0.42724609375,-6.3720703125,62.808837890625,-10.4315185546875
1758524838.1379428,-0.896484375,-0.0625,0.451171875,-1.15966796875,0.06103515625,0.42724609375,-6.3775634765625,62.808837890625,-10.4150390625
1758524838.1484606,-0.89697265625,-0.060546875,0.4501953125,1.77001953125,0.0,0.06103515625,-6.3775634765625,62.808837890625,-10.404052734375
1758524838.157775,-0.89697265625,-0.060546875,0.4501953125,1.77001953125,0.0,0.06103515625,-6.361083984375,62.808837890625,-10.3985595703125
1758524838.1686006,-0.8896484375,-0.044921875,0.4501953125,2.9296875,0.0,0.0,-6.339111328125,62.808837890625,-10.39306640625
1758524838.1797898,-0.8896484375,-0.044921875,0.4501953125,2.9296875,0.0,0.0,-6.3116455078125,62.808837890625,-10.3875732421875
1758524838.1881447,-0.88818359375,-0.0380859375,0.4521484375,-0.06103515625,0.1220703125,0.06103515625,-6.3116455078125,62.808837890625,-10.3765869140625
1758524838.1983693,-0.88818359375,-0.0380859375,0.4521484375,-0.06103515625,0.1220703125,0.06103515625,-6.317138671875,62.808837890625,-10.3656005859375
1758524838.2088773,-0.89306640625,-0.05078125,0.44873046875,-1.64794921875,0.18310546875,0.06103515625,-6.3336181640625,62.8143310546875,-10.360107421875
1758524838.2178357,-0.89306640625,-0.05078125,0.44873046875,-1.64794921875,0.18310546875,0.06103515625,-6.35009765625,62.8143310546875,-10.34912109375
1758524838.2284708,-0.89453125,-0.0556640625,0.44580078125,-0.18310546875,0.18310546875,0.0,-6.35009765625,62.81982421875,-10.3436279296875
1758524838.2380211,-0.89453125,-0.0556640625,0.44580078125,-0.18310546875,0.18310546875,0.0,-6.3555908203125,62.81982421875,-10.3326416015625
1758524838.2486646,-0.89501953125,-0.0556640625,0.4501953125,1.28173828125,0.18310546875,-0.1220703125,-6.3446044921875,62.8253173828125,-10.3326416015625
1758524838.2579978,-0.89501953125,-0.0556640625,0.4501953125,1.28173828125,0.18310546875,-0.1220703125,-6.339111328125,62.8253173828125,-10.3271484375
1758524838.268203,-0.8916015625,-0.05126953125,0.45166015625,2.685546875,0.06103515625,-0.244140625,-6.317138671875,62.8253173828125,-10.3271484375
1758524838.278286,-0.8916015625,-0.05126953125,0.45166015625,2.685546875,0.06103515625,-0.244140625,-6.3006591796875,62.830810546875,-10.3271484375
1758524838.288432,-0.89013671875,-0.044921875,0.45166015625,2.01416015625,0.06103515625,-0.18310546875,-6.2841796875,62.830810546875,-10.3216552734375
1758524838.2984073,-0.89013671875,-0.044921875,0.45166015625,2.01416015625,0.06103515625,-0.18310546875,-6.2677001953125,62.830810546875,-10.3216552734375
1758524838.3089905,-0.88671875,-0.04833984375,0.45166015625,-0.30517578125,0.244140625,-0.30517578125,-6.2786865234375,62.8363037109375,-10.3216552734375
1758524838.3179843,-0.88671875,-0.04833984375,0.45166015625,-0.30517578125,0.244140625,-0.30517578125,-6.2896728515625,62.8363037109375,-10.3216552734375
1758524838.3279095,-0.88671875,-0.04833984375,0.45166015625,-0.06103515625,0.42724609375,-0.3662109375,-6.3006591796875,62.841796875,-10.3216552734375
1758524838.338158,-0.888671875,-0.05712890625,0.45263671875,-0.06103515625,0.42724609375,-0.3662109375,-6.3116455078125,62.8472900390625,-10.3216552734375
1758524838.3484232,-0.8916015625,-0.0625,0.45556640625,2.685546875,0.3662109375,-0.42724609375,-6.295166015625,62.852783203125,-10.3271484375
1758524838.3580825,-0.8916015625,-0.0625,0.45556640625,2.685546875,0.3662109375,-0.42724609375,-6.2786865234375,62.852783203125,-10.3326416015625
1758524838.3678966,-0.892578125,-0.05712890625,0.458984375,5.55419921875,0.244140625,-0.54931640625,-6.240234375,62.8582763671875,-10.338134765625
1758524838.3784301,-0.892578125,-0.05712890625,0.458984375,5.55419921875,0.244140625,-0.54931640625,-6.1962890625,62.8582763671875,-10.34912109375
1758524838.388028,-0.89013671875,-0.05078125,0.4599609375,5.126953125,0.1220703125,-0.6103515625,-6.163330078125,62.8582763671875,-10.3546142578125
1758524838.3987541,-0.89013671875,-0.05078125,0.4599609375,5.126953125,0.1220703125,-0.6103515625,-6.1248779296875,62.8582763671875,-10.360107421875
1758524838.4084466,-0.89990234375,-0.04541015625,0.45947265625,3.41796875,0.0,-0.6103515625,-6.1083984375,62.8582763671875,-10.37109375
1758524838.418173,-0.89990234375,-0.04541015625,0.45947265625,3.41796875,0.0,-0.6103515625,-6.08642578125,62.8582763671875,-10.3765869140625
1758524838.4280844,-0.90478515625,-0.04443359375,0.45654296875,1.220703125,-0.06103515625,-0.54931640625,-6.08642578125,62.852783203125,-10.382080078125
1758524838.4383543,-0.90478515625,-0.04443359375,0.45654296875,1.220703125,-0.06103515625,-0.54931640625,-6.08642578125,62.852783203125,-10.3875732421875
1758524838.4485314,-0.9013671875,-0.05224609375,0.44775390625,0.8544921875,-0.1220703125,-0.48828125,-6.0919189453125,62.852783203125,-10.3875732421875
1758524838.4582026,-0.9013671875,-0.05224609375,0.44775390625,0.8544921875,-0.1220703125,-0.48828125,-6.0919189453125,62.852783203125,-10.39306640625
1758524838.4685314,-0.89404296875,-0.056640625,0.44091796875,3.84521484375,-0.18310546875,-0.48828125,-6.064453125,62.8472900390625,-10.3985595703125
1758524838.479372,-0.89404296875,-0.056640625,0.44091796875,3.84521484375,-0.18310546875,-0.48828125,-6.04248046875,62.8472900390625,-10.404052734375
1758524838.4881582,-0.89013671875,-0.046875,0.447265625,5.67626953125,0.0,-0.42724609375,-5.9930419921875,62.8472900390625,-10.4095458984375
1758524838.498805,-0.89013671875,-0.046875,0.447265625,5.67626953125,0.0,-0.42724609375,-5.9490966796875,62.852783203125,-10.4095458984375
1758524838.508678,-0.89697265625,-0.041015625,0.4560546875,3.47900390625,0.0,-0.244140625,-5.921630859375,62.852783203125,-10.4095458984375
1758524838.518315,-0.89697265625,-0.041015625,0.4560546875,3.47900390625,0.0,-0.244140625,-5.8941650390625,62.852783203125,-10.4095458984375
1758524838.5287688,-0.9013671875,-0.04541015625,0.45849609375,-0.6103515625,-0.18310546875,-0.18310546875,-5.9051513671875,62.852783203125,-10.4095458984375
1758524838.5392866,-0.9013671875,-0.04541015625,0.45849609375,-0.6103515625,-0.18310546875,-0.18310546875,-5.9161376953125,62.852783203125,-10.404052734375
1758524838.5486526,-0.89501953125,-0.0537109375,0.45166015625,-1.52587890625,-0.42724609375,-0.1220703125,-5.9326171875,62.8472900390625,-10.3985595703125
1758524838.5587335,-0.89501953125,-0.0537109375,0.45166015625,-1.52587890625,-0.42724609375,-0.1220703125,-5.95458984375,62.8472900390625,-10.39306640625
1758524838.5681949,-0.89013671875,-0.0556640625,0.44482421875,0.42724609375,-0.42724609375,-0.06103515625,-5.9490966796875,62.841796875,-10.3875732421875
1758524838.5792477,-0.89013671875,-0.0556640625,0.44482421875,0.42724609375,-0.42724609375,-0.06103515625,-5.9490966796875,62.841796875,-10.382080078125
1758524838.588305,-0.8828125,-0.0498046875,0.44921875,2.0751953125,-0.30517578125,0.06103515625,-5.9271240234375,62.8363037109375,-10.3765869140625
1758524838.5990508,-0.8828125,-0.0498046875,0.44921875,2.0751953125,-0.30517578125,0.06103515625,-5.91064453125,62.8363037109375,-10.37109375
1758524838.608822,-0.88134765625,-0.046875,0.453125,1.220703125,-0.3662109375,0.244140625,-5.8941650390625,62.8363037109375,-10.360107421875
1758524838.6187584,-0.88134765625,-0.046875,0.453125,1.220703125,-0.3662109375,0.244140625,-5.877685546875,62.830810546875,-10.34912109375
1758524838.6287615,-0.8896484375,-0.0517578125,0.455078125,-0.91552734375,-0.42724609375,0.30517578125,-5.8831787109375,62.8253173828125,-10.338134765625
1758524838.6394796,-0.8896484375,-0.0517578125,0.455078125,-0.91552734375,-0.42724609375,0.30517578125,-5.888671875,62.8253173828125,-10.3271484375
1758524838.6483264,-0.89013671875,-0.056640625,0.451171875,-1.28173828125,-0.48828125,0.18310546875,-5.899658203125,62.81982421875,-10.316162109375
1758524838.6591735,-0.89013671875,-0.056640625,0.451171875,-1.28173828125,-0.48828125,0.18310546875,-5.91064453125,62.8143310546875,-10.30517578125
1758524838.6683552,-0.89013671875,-0.0576171875,0.4521484375,-0.06103515625,-0.42724609375,0.18310546875,-5.91064453125,62.8143310546875,-10.2996826171875
1758524838.679708,-0.89013671875,-0.0576171875,0.4521484375,-0.06103515625,-0.42724609375,0.18310546875,-5.91064453125,62.808837890625,-10.2886962890625
1758524838.6884413,-0.8828125,-0.05029296875,0.4560546875,0.8544921875,-0.42724609375,0.1220703125,-5.9051513671875,62.808837890625,-10.283203125
1758524838.6993809,-0.8828125,-0.05029296875,0.4560546875,0.8544921875,-0.42724609375,0.1220703125,-5.899658203125,62.8033447265625,-10.272216796875
1758524838.7091112,-0.87939453125,-0.04443359375,0.45654296875,-0.30517578125,-0.42724609375,0.30517578125,-5.899658203125,62.7978515625,-10.26123046875
1758524838.718576,-0.87939453125,-0.04443359375,0.45654296875,-0.30517578125,-0.42724609375,0.30517578125,-5.8941650390625,62.7923583984375,-10.250244140625
1758524838.7285469,-0.88330078125,-0.0517578125,0.45703125,-1.28173828125,-0.3662109375,0.3662109375,-5.9051513671875,62.7923583984375,-10.2337646484375
1758524838.7399642,-0.88330078125,-0.0517578125,0.45703125,-1.28173828125,-0.3662109375,0.3662109375,-5.91064453125,62.786865234375,-10.21728515625
1758524838.7485838,-0.88623046875,-0.0556640625,0.4560546875,-0.18310546875,-0.42724609375,0.42724609375,-5.91064453125,62.7813720703125,-10.206298828125
1758524838.7586415,-0.88623046875,-0.0556640625,0.4560546875,-0.18310546875,-0.42724609375,0.42724609375,-5.9051513671875,62.7813720703125,-10.1898193359375
1758524838.7685087,-0.88916015625,-0.05419921875,0.45947265625,0.1220703125,-0.3662109375,0.42724609375,-5.899658203125,62.77587890625,-10.17333984375
1758524838.7790275,-0.88916015625,-0.05419921875,0.45947265625,0.1220703125,-0.3662109375,0.42724609375,-5.8941650390625,62.7703857421875,-10.162353515625
1758524838.7885983,-0.89697265625,-0.0537109375,0.46337890625,0.42724609375,-0.42724609375,0.3662109375,-5.8831787109375,62.764892578125,-10.1458740234375
1758524838.7987103,-0.89697265625,-0.0537109375,0.46337890625,0.42724609375,-0.42724609375,0.3662109375,-5.877685546875,62.764892578125,-10.1348876953125
1758524838.8089027,-0.89599609375,-0.046875,0.46240234375,0.18310546875,-0.67138671875,0.30517578125,-5.8721923828125,62.75390625,-10.1239013671875
1758524838.8187156,-0.89599609375,-0.046875,0.46240234375,0.18310546875,-0.67138671875,0.30517578125,-5.86669921875,62.7484130859375,-10.107421875
1758524838.8289287,-0.884765625,-0.0419921875,0.451171875,-1.03759765625,-0.732421875,0.30517578125,-5.8721923828125,62.742919921875,-10.0909423828125
1758524838.8392038,-0.884765625,-0.0419921875,0.451171875,-1.03759765625,-0.732421875,0.30517578125,-5.877685546875,62.73193359375,-10.0799560546875
1758524838.848632,-0.8876953125,-0.04638671875,0.44580078125,-1.89208984375,-0.42724609375,0.30517578125,-5.888671875,62.73193359375,-10.0634765625
1758524838.8588872,-0.8876953125,-0.04638671875,0.44580078125,-1.89208984375,-0.42724609375,0.30517578125,-5.9051513671875,62.7264404296875,-10.052490234375
1758524838.868655,-0.8935546875,-0.05126953125,0.451171875,-1.03759765625,-0.244140625,0.42724609375,-5.9051513671875,62.7264404296875,-10.04150390625
1758524838.87921,-0.8935546875,-0.05126953125,0.451171875,-1.03759765625,-0.244140625,0.42724609375,-5.91064453125,62.720947265625,-10.0250244140625
1758524838.888814,-0.90087890625,-0.0478515625,0.45947265625,-1.5869140625,-0.244140625,0.42724609375,-5.9161376953125,62.720947265625,-10.0140380859375
1758524838.8987932,-0.90087890625,-0.0478515625,0.45947265625,-1.5869140625,-0.244140625,0.42724609375,-5.9271240234375,62.720947265625,-9.99755859375
1758524838.9092433,-0.90185546875,-0.05224609375,0.45947265625,-2.99072265625,-0.48828125,0.3662109375,-5.9490966796875,62.7154541015625,-9.986572265625
1758524838.918867,-0.90185546875,-0.05224609375,0.45947265625,-2.99072265625,-0.48828125,0.3662109375,-5.9765625,62.7099609375,-9.9700927734375
1758524838.9287288,-0.8974609375,-0.05517578125,0.45263671875,-1.8310546875,-0.6103515625,0.30517578125,-5.987548828125,62.7099609375,-9.9591064453125
1758524838.9393508,-0.8974609375,-0.05517578125,0.45263671875,-1.8310546875,-0.6103515625,0.30517578125,-5.99853515625,62.7044677734375,-9.9481201171875
1758524838.948874,-0.89208984375,-0.0556640625,0.4482421875,0.54931640625,-0.6103515625,0.1220703125,-5.9930419921875,62.698974609375,-9.942626953125
1758524838.95885,-0.89208984375,-0.0556640625,0.4482421875,0.54931640625,-0.6103515625,0.1220703125,-5.987548828125,62.6934814453125,-9.9371337890625
1758524838.968849,-0.892578125,-0.04833984375,0.45068359375,2.8076171875,-0.48828125,0.1220703125,-5.9600830078125,62.68798828125,-9.931640625
1758524838.9794123,-0.892578125,-0.04833984375,0.45068359375,2.8076171875,-0.48828125,0.1220703125,-5.9326171875,62.68798828125,-9.9261474609375
1758524838.9893453,-0.89208984375,-0.0419921875,0.4541015625,1.953125,-0.42724609375,0.244140625,-5.91064453125,62.6824951171875,-9.9151611328125
1758524838.9989371,-0.89208984375,-0.0419921875,0.4541015625,1.953125,-0.42724609375,0.244140625,-5.8831787109375,62.6824951171875,-9.9041748046875
1758524839.010091,-0.890625,-0.044921875,0.45654296875,-0.30517578125,-0.3662109375,0.3662109375,-5.8831787109375,62.6824951171875,-9.8931884765625
1758524839.0190983,-0.890625,-0.044921875,0.45654296875,-0.30517578125,-0.3662109375,0.3662109375,-5.877685546875,62.677001953125,-9.8822021484375
1758524839.029017,-0.8828125,-0.04736328125,0.4541015625,-1.89208984375,-0.3662109375,0.30517578125,-5.8941650390625,62.677001953125,-9.8712158203125
1758524839.039439,-0.8828125,-0.04736328125,0.4541015625,-1.89208984375,-0.3662109375,0.30517578125,-5.9051513671875,62.677001953125,-9.854736328125
1758524839.049035,-0.88232421875,-0.05419921875,0.453125,-2.01416015625,-0.1220703125,0.244140625,-5.921630859375,62.677001953125,-9.8492431640625
1758524839.0590396,-0.88232421875,-0.05419921875,0.453125,-2.01416015625,-0.1220703125,0.244140625,-5.9381103515625,62.677001953125,-9.8382568359375
1758524839.0695426,-0.888671875,-0.0556640625,0.45703125,-0.18310546875,-0.1220703125,0.1220703125,-5.9381103515625,62.677001953125,-9.832763671875
1758524839.0794668,-0.888671875,-0.0556640625,0.45703125,-0.18310546875,-0.1220703125,0.1220703125,-5.943603515625,62.6715087890625,-9.8272705078125
1758524839.0891168,-0.88671875,-0.048828125,0.4599609375,0.42724609375,-0.18310546875,0.06103515625,-5.9381103515625,62.6715087890625,-9.82177734375
1758524839.0994608,-0.88671875,-0.048828125,0.4599609375,0.42724609375,-0.18310546875,0.06103515625,-5.9326171875,62.6715087890625,-9.8162841796875
1758524839.1103754,-0.8828125,-0.04736328125,0.458984375,-0.9765625,-0.1220703125,0.1220703125,-5.943603515625,62.6715087890625,-9.810791015625
1758524839.1190436,-0.88232421875,-0.05126953125,0.45654296875,-1.89208984375,0.0,0.06103515625,-5.9600830078125,62.6715087890625,-9.7998046875
1758524839.129222,-0.88232421875,-0.05126953125,0.45654296875,-1.89208984375,0.0,0.06103515625,-5.9765625,62.6715087890625,-9.7943115234375
1758524839.1395233,-0.88232421875,-0.06103515625,0.45654296875,-0.9765625,0.1220703125,0.0,-5.9930419921875,62.6715087890625,-9.7943115234375
1758524839.1491523,-0.88232421875,-0.06103515625,0.45654296875,-0.9765625,0.1220703125,0.0,-6.0040283203125,62.6715087890625,-9.788818359375
1758524839.1592033,-0.88330078125,-0.0673828125,0.45751953125,2.685546875,0.06103515625,-0.244140625,-6.0040283203125,62.6715087890625,-9.788818359375
1758524839.1691203,-0.88330078125,-0.0673828125,0.45751953125,2.685546875,0.06103515625,-0.244140625,-5.987548828125,62.6715087890625,-9.7943115234375
1758524839.1795418,-0.8837890625,-0.05419921875,0.4619140625,6.2255859375,0.06103515625,-0.42724609375,-5.95458984375,62.6715087890625,-9.7998046875
1758524839.1892037,-0.8837890625,-0.05419921875,0.4619140625,6.2255859375,0.06103515625,-0.42724609375,-5.9051513671875,62.6715087890625,-9.8052978515625
1758524839.1992915,-0.88134765625,-0.037109375,0.4658203125,4.39453125,0.0,-0.30517578125,-5.86669921875,62.6715087890625,-9.810791015625
1758524839.2124705,-0.88134765625,-0.037109375,0.4658203125,4.39453125,0.0,-0.30517578125,-5.8282470703125,62.666015625,-9.8162841796875
1758524839.2193308,-0.89013671875,-0.04443359375,0.4638671875,0.30517578125,0.1220703125,-0.18310546875,-5.8172607421875,62.666015625,-9.8162841796875
1758524839.2292151,-0.89013671875,-0.04443359375,0.4638671875,0.30517578125,0.1220703125,-0.18310546875,-5.8172607421875,62.666015625,-9.8162841796875
1758524839.244182,-0.89990234375,-0.0654296875,0.4619140625,1.40380859375,-0.06103515625,-0.244140625,-5.8172607421875,62.666015625,-9.8162841796875
1758524839.250993,-0.89990234375,-0.0654296875,0.4619140625,1.40380859375,-0.06103515625,-0.244140625,-5.811767578125,62.6605224609375,-9.8162841796875
1758524839.2592385,-0.8984375,-0.06298828125,0.4599609375,5.859375,-0.54931640625,-0.732421875,-5.789794921875,62.655029296875,-9.82177734375
1758524839.2692215,-0.8984375,-0.06298828125,0.4599609375,5.859375,-0.54931640625,-0.732421875,-5.7513427734375,62.6495361328125,-9.8382568359375
1758524839.2803178,-0.88671875,-0.04833984375,0.453125,6.8359375,-1.220703125,-1.03759765625,-5.7073974609375,62.6385498046875,-9.8492431640625
1758524839.2892923,-0.88671875,-0.04833984375,0.453125,6.8359375,-1.220703125,-1.03759765625,-5.6634521484375,62.6275634765625,-9.8712158203125
1758524839.299586,-0.86767578125,-0.04443359375,0.43994140625,4.94384765625,-1.52587890625,-1.3427734375,-5.6304931640625,62.611083984375,-9.8876953125
1758524839.3103535,-0.86767578125,-0.04443359375,0.43994140625,4.94384765625,-1.52587890625,-1.3427734375,-5.6085205078125,62.5946044921875,-9.90966796875
1758524839.3194153,-0.8505859375,-0.0439453125,0.423828125,3.72314453125,-1.5869140625,-1.708984375,-5.5975341796875,62.578125,-9.9371337890625
1758524839.32929,-0.8505859375,-0.0439453125,0.423828125,3.72314453125,-1.5869140625,-1.708984375,-5.5975341796875,62.5616455078125,-9.9700927734375
1758524839.3403242,-0.822265625,-0.03466796875,0.41455078125,2.8076171875,-1.3427734375,-1.8310546875,-5.5975341796875,62.545166015625,-10.0030517578125
1758524839.349555,-0.822265625,-0.03466796875,0.41455078125,2.8076171875,-1.3427734375,-1.8310546875,-5.6085205078125,62.5341796875,-10.0360107421875
1758524839.3595228,-0.794921875,-0.02490234375,0.4052734375,-2.44140625,-0.9765625,-1.77001953125,-5.6414794921875,62.523193359375,-10.074462890625
1758524839.3710876,-0.794921875,-0.02490234375,0.4052734375,-2.44140625,-0.9765625,-1.77001953125,-5.6964111328125,62.51220703125,-10.1019287109375
1758524839.380028,-0.83447265625,-0.03857421875,0.41015625,-9.033203125,-0.54931640625,-1.953125,-5.789794921875,62.5067138671875,-10.1348876953125
1758524839.3901248,-0.83447265625,-0.03857421875,0.41015625,-9.033203125,-0.54931640625,-1.953125,-5.91064453125,62.501220703125,-10.17333984375
1758524839.399724,-0.87060546875,-0.05908203125,0.43359375,-10.43701171875,-0.18310546875,-2.25830078125,-6.0479736328125,62.4957275390625,-10.2117919921875
1758524839.4104586,-0.87060546875,-0.05908203125,0.43359375,-10.43701171875,-0.18310546875,-2.25830078125,-6.1962890625,62.4957275390625,-10.2557373046875
1758524839.419468,-0.8701171875,-0.06298828125,0.4599609375,-8.1787109375,-0.732421875,-2.50244140625,-6.328125,62.490234375,-10.30517578125
1758524839.4296598,-0.8701171875,-0.06298828125,0.4599609375,-8.1787109375,-0.732421875,-2.50244140625,-6.4544677734375,62.4847412109375,-10.34912109375
1758524839.4456422,-0.85009765625,-0.06884765625,0.48046875,-6.16455078125,-1.708984375,-2.50244140625,-6.5753173828125,62.4737548828125,-10.3985595703125
1758524839.4529634,-0.85009765625,-0.06884765625,0.48046875,-6.16455078125,-1.708984375,-2.50244140625,-6.6796875,62.4517822265625,-10.4425048828125
1758524839.4599264,-0.8583984375,-0.0771484375,0.50341796875,-4.69970703125,-2.8076171875,-2.50244140625,-6.7730712890625,62.42431640625,-10.48095703125
1758524839.469735,-0.8583984375,-0.0771484375,0.50341796875,-4.69970703125,-2.8076171875,-2.50244140625,-6.866455078125,62.391357421875,-10.52490234375
1758524839.4813747,-0.88818359375,-0.095703125,0.52880859375,-0.67138671875,-4.57763671875,-2.99072265625,-6.9378662109375,62.347412109375,-10.5633544921875
1758524839.4901347,-0.88818359375,-0.095703125,0.52880859375,-0.67138671875,-4.57763671875,-2.99072265625,-6.9927978515625,62.29248046875,-10.61279296875
1758524839.4996428,-0.91552734375,-0.10595703125,0.54541015625,6.89697265625,-6.103515625,-3.60107421875,-7.0147705078125,62.2320556640625,-10.6622314453125
1758524839.5108728,-0.91552734375,-0.10595703125,0.54541015625,6.89697265625,-6.103515625,-3.60107421875,-7.00927734375,62.16064453125,-10.72265625
1758524839.52012,-0.9052734375,-0.072265625,0.52783203125,14.70947265625,-7.32421875,-4.21142578125,-6.96533203125,62.0782470703125,-10.7830810546875
1758524839.5298548,-0.9052734375,-0.072265625,0.52783203125,14.70947265625,-7.32421875,-4.21142578125,-6.8939208984375,61.9903564453125,-10.8489990234375
1758524839.5409644,-0.89501953125,-0.048828125,0.55322265625,18.06640625,-8.72802734375,-4.33349609375,-6.7950439453125,61.89697265625,-10.9149169921875
1758524839.5511842,-0.89501953125,-0.048828125,0.55322265625,18.06640625,-8.72802734375,-4.33349609375,-6.6851806640625,61.798095703125,-10.975341796875
1758524839.5597122,-0.89501953125,-0.048828125,0.55322265625,13.7939453125,-9.6435546875,-4.2724609375,-6.591796875,61.688232421875,-11.0302734375
1758524839.5697727,-0.89501953125,-0.0322265625,0.5556640625,13.7939453125,-9.6435546875,-4.2724609375,-6.514892578125,61.578369140625,-11.085205078125
1758524839.5798671,-0.876953125,-0.0390625,0.54541015625,9.27734375,-9.58251953125,-4.33349609375,-6.4599609375,61.468505859375,-11.14013671875
1758524839.589735,-0.876953125,-0.0390625,0.54541015625,9.27734375,-9.58251953125,-4.33349609375,-6.427001953125,61.358642578125,-11.1895751953125
1758524839.599863,-0.814453125,-0.04296875,0.49755859375,16.05224609375,-9.3994140625,-4.5166015625,-6.3555908203125,61.2432861328125,-11.2445068359375
1758524839.6103404,-0.814453125,-0.04296875,0.49755859375,16.05224609375,-9.3994140625,-4.5166015625,-6.2567138671875,61.1334228515625,-11.2994384765625
1758524839.6197317,-0.78271484375,-0.05859375,0.46728515625,28.6865234375,-8.11767578125,-5.37109375,-6.1083984375,61.0345458984375,-11.3653564453125
1758524839.6298492,-0.78271484375,-0.05859375,0.46728515625,28.6865234375,-8.11767578125,-5.37109375,-5.899658203125,60.9356689453125,-11.4422607421875
1758524839.6402278,-0.7470703125,-0.0458984375,0.4384765625,40.46630859375,-6.7138671875,-6.16455078125,-5.64697265625,60.8477783203125,-11.5301513671875
1758524839.6498575,-0.7470703125,-0.0458984375,0.4384765625,40.46630859375,-6.7138671875,-6.16455078125,-5.3448486328125,60.765380859375,-11.6290283203125
1758524839.659852,-0.79443359375,-0.04833984375,0.44873046875,44.921875,-5.31005859375,-7.01904296875,-5.03173828125,60.6884765625,-11.744384765625
1758524839.6698062,-0.79443359375,-0.04833984375,0.44873046875,44.921875,-5.31005859375,-7.01904296875,-4.7076416015625,60.62255859375,-11.8707275390625
1758524839.680178,-0.8349609375,-0.0830078125,0.50390625,42.236328125,-3.662109375,-8.544921875,-4.41650390625,60.5621337890625,-12.0135498046875
1758524839.6898818,-0.8349609375,-0.0830078125,0.50390625,42.236328125,-3.662109375,-8.544921875,-4.15283203125,60.5126953125,-12.1783447265625
1758524839.6998622,-0.81689453125,-0.10791015625,0.51904296875,38.02490234375,-2.62451171875,-9.82666015625,-3.9276123046875,60.46875,-12.359619140625
1758524839.7103524,-0.81689453125,-0.10791015625,0.51904296875,38.02490234375,-2.62451171875,-9.82666015625,-3.7408447265625,60.4302978515625,-12.557373046875
1758524839.7199514,-0.80810546875,-0.150390625,0.4462890625,37.59765625,-1.5869140625,-11.90185546875,-3.5760498046875,60.391845703125,-12.777099609375
1758524839.7300007,-0.80810546875,-0.150390625,0.4462890625,37.59765625,-1.5869140625,-11.90185546875,-3.4442138671875,60.35888671875,-13.02978515625
1758524839.7403307,-0.80419921875,-0.1396484375,0.39306640625,54.01611328125,-0.3662109375,-13.48876953125,-3.2464599609375,60.3369140625,-13.304443359375
1758524839.7501028,-0.80419921875,-0.1396484375,0.39306640625,54.01611328125,-0.3662109375,-13.48876953125,-2.98828125,60.3204345703125,-13.6065673828125
1758524839.76009,-0.83154296875,-0.02783203125,0.53173828125,56.15234375,0.42724609375,-13.916015625,-2.7301025390625,60.31494140625,-13.9141845703125
1758524839.7702146,-0.83154296875,-0.02783203125,0.53173828125,56.15234375,0.42724609375,-13.916015625,-2.4609375,60.303955078125,-14.2218017578125
1758524839.780314,-0.83447265625,0.10791015625,0.7197265625,29.6630859375,-0.91552734375,-12.39013671875,-2.3016357421875,60.29296875,-14.501953125
1758524839.7900085,-0.83447265625,0.10791015625,0.7197265625,29.6630859375,-0.91552734375,-12.39013671875,-2.2467041015625,60.2655029296875,-14.754638671875
1758524839.8008265,-0.83203125,0.107421875,0.83935546875,9.8876953125,-3.84521484375,-9.09423828125,-2.2467041015625,60.216064453125,-14.952392578125
1758524839.8106077,-0.83203125,0.107421875,0.83935546875,9.8876953125,-3.84521484375,-9.09423828125,-2.30712890625,60.150146484375,-15.1007080078125
1758524839.820088,-0.84521484375,-0.0107421875,0.841796875,15.19775390625,-7.32421875,-7.568359375,-2.3126220703125,60.0567626953125,-15.216064453125
1758524839.8301153,-0.84521484375,-0.0107421875,0.841796875,15.19775390625,-7.32421875,-7.568359375,-2.2796630859375,59.94140625,-15.3094482421875
1758524839.8404377,-0.85693359375,0.01025390625,0.84912109375,23.86474609375,-10.986328125,-5.4931640625,-2.17529296875,59.8040771484375,-15.380859375
1758524839.850175,-0.85693359375,0.01025390625,0.84912109375,23.86474609375,-10.986328125,-5.4931640625,-2.010498046875,59.644775390625,-15.4193115234375
1758524839.8601236,-0.8447265625,-0.05908203125,0.791015625,16.41845703125,-13.61083984375,-4.7607421875,-1.878662109375,59.468994140625,-15.4522705078125
1758524839.870122,-0.8447265625,-0.05908203125,0.791015625,16.41845703125,-13.61083984375,-4.7607421875,-1.7742919921875,59.2767333984375,-15.479736328125
1758524839.8805332,-0.7529296875,-0.1044921875,0.8447265625,21.54541015625,-18.5546875,-5.2490234375,-1.6534423828125,59.0625,-15.5072021484375
1758524839.8902137,-0.7529296875,-0.1044921875,0.8447265625,21.54541015625,-18.5546875,-5.2490234375,-1.51611328125,58.8153076171875,-15.545654296875
1758524839.9001384,-0.81298828125,-0.12646484375,0.7275390625,28.564453125,-19.53125,-3.662109375,-1.3348388671875,58.5626220703125,-15.567626953125
1758524839.9107218,-0.81298828125,-0.12646484375,0.7275390625,28.564453125,-19.53125,-3.662109375,-1.109619140625,58.3099365234375,-15.5841064453125
1758524839.9202135,-0.86474609375,0.0166015625,0.65576171875,49.01123046875,-22.76611328125,-3.35693359375,-0.791015625,58.040771484375,-15.6005859375
1758524839.930283,-0.86474609375,0.0166015625,0.65576171875,49.01123046875,-22.76611328125,-3.35693359375,-0.3680419921875,57.7606201171875,-15.62255859375
1758524839.940574,-0.86767578125,0.12060546875,0.5498046875,38.818359375,-20.08056640625,-2.44140625,0.010986328125,57.4969482421875,-15.64453125
1758524839.9503226,-0.86767578125,0.12060546875,0.5498046875,38.818359375,-20.08056640625,-2.44140625,0.3460693359375,57.2552490234375,-15.655517578125
1758524839.96041,-0.90966796875,0.02783203125,0.35302734375,23.92578125,-18.73779296875,-3.173828125,0.6097412109375,57.0245361328125,-15.677490234375
1758524839.9744942,-0.90966796875,0.02783203125,0.35302734375,23.92578125,-18.73779296875,-3.173828125,0.791015625,56.810302734375,-15.721435546875
1758524839.9837358,-0.94970703125,-0.0595703125,0.41162109375,25.2685546875,-18.1884765625,-3.35693359375,0.9722900390625,56.612548828125,-15.7708740234375
1758524839.990484,-0.94970703125,-0.0595703125,0.41162109375,25.2685546875,-18.1884765625,-3.35693359375,1.1590576171875,56.42578125,-15.8367919921875
1758524840.000298,-0.92333984375,0.0498046875,0.61328125,2.99072265625,-19.10400390625,-3.96728515625,1.2249755859375,56.239013671875,-15.919189453125
1758524840.0106444,-0.92333984375,0.0498046875,0.61328125,2.99072265625,-19.10400390625,-3.96728515625,1.1810302734375,56.0467529296875,-16.0015869140625
1758524840.0207665,-0.80419921875,-0.00830078125,0.64892578125,-16.4794921875,-18.798828125,-3.96728515625,1.0382080078125,55.8599853515625,-16.0784912109375
1758524840.0304785,-0.80419921875,-0.00830078125,0.64892578125,-16.4794921875,-18.798828125,-3.96728515625,0.8074951171875,55.6732177734375,-16.160888671875
1758524840.040431,-0.62158203125,-0.060546875,0.5048828125,-2.3193359375,-16.7236328125,-4.8828125,0.63720703125,55.491943359375,-16.2432861328125
1758524840.0509288,-0.62158203125,-0.060546875,0.5048828125,-2.3193359375,-16.7236328125,-4.8828125,0.5328369140625,55.3271484375,-16.3421630859375
1758524840.0605931,-0.515625,0.02734375,0.61083984375,13.916015625,-14.6484375,-5.859375,0.4998779296875,55.162353515625,-16.4410400390625
1758524840.07041,-0.515625,0.02734375,0.61083984375,13.916015625,-14.6484375,-5.859375,0.5438232421875,55.008544921875,-16.5509033203125
1758524840.0804367,-0.466796875,-0.01806640625,0.708984375,16.357421875,-13.61083984375,-4.39453125,0.6097412109375,54.8492431640625,-16.63330078125
1758524840.0908,-0.466796875,-0.01806640625,0.708984375,16.357421875,-13.61083984375,-4.39453125,0.703125,54.6844482421875,-16.7047119140625
1758524840.1004508,-0.4677734375,-0.05712890625,0.658203125,23.4375,-10.55908203125,-3.5400390625,0.8734130859375,54.547119140625,-16.754150390625
1758524840.1105828,-0.4677734375,-0.05712890625,0.658203125,23.4375,-10.55908203125,-3.5400390625,1.043701171875,54.404296875,-16.8035888671875
1758524840.1206846,-0.4306640625,-0.0068359375,0.54833984375,36.4990234375,-8.4228515625,-4.638671875,1.3238525390625,54.2779541015625,-16.8695068359375
1758524840.1305778,-0.4306640625,-0.0068359375,0.54833984375,36.4990234375,-8.4228515625,-4.638671875,1.60400390625,54.1461181640625,-16.9354248046875
1758524840.1405628,-0.6162109375,0.193359375,0.783203125,10.55908203125,-6.8359375,-7.32421875,1.5985107421875,54.03076171875,-17.02880859375
1758524840.1505947,-0.6162109375,0.193359375,0.783203125,10.55908203125,-6.8359375,-7.32421875,1.6094970703125,53.909912109375,-17.1112060546875
1758524840.160806,-0.8173828125,0.162109375,1.0751953125,-91.24755859375,-9.58251953125,-2.3193359375,0.68115234375,53.756103515625,-17.0947265625
1758524840.1705356,-0.8173828125,0.162109375,1.0751953125,-91.24755859375,-9.58251953125,-2.3193359375,-0.2197265625,53.5968017578125,-17.061767578125
1758524840.1805933,-1.041015625,-0.2744140625,0.79931640625,-96.61865234375,-15.19775390625,-3.173828125,-1.2030029296875,53.382568359375,-17.0562744140625
1758524840.1907303,-1.041015625,-0.2744140625,0.79931640625,-96.61865234375,-15.19775390625,-3.173828125,-2.1917724609375,53.1793212890625,-17.061767578125
1758524840.2005804,-1.69482421875,0.07666015625,0.90673828125,-51.33056640625,-14.5263671875,-1.40380859375,-2.6971435546875,52.998046875,-17.05078125
1758524840.2106721,-1.69482421875,0.07666015625,0.90673828125,-51.33056640625,-14.5263671875,-1.40380859375,-3.197021484375,52.833251953125,-17.0452880859375
1758524840.2206619,-1.82177734375,0.15478515625,0.365234375,-34.11865234375,-21.42333984375,-1.77001953125,-3.515625,52.6190185546875,-17.0452880859375
1758524840.2309546,-1.82177734375,0.15478515625,0.365234375,-34.11865234375,-21.42333984375,-1.77001953125,-3.8287353515625,52.4322509765625,-17.05078125
1758524840.240708,-1.0419921875,0.16552734375,0.3740234375,22.705078125,-24.0478515625,-1.52587890625,-3.5595703125,52.2235107421875,-17.0562744140625
1758524840.2507246,-1.0419921875,0.16552734375,0.3740234375,22.705078125,-24.0478515625,-1.52587890625,-3.2904052734375,52.0257568359375,-17.0562744140625
1758524840.2609618,-0.82666015625,-0.11328125,0.3203125,48.583984375,-25.69580078125,1.0986328125,-2.7301025390625,51.8170166015625,-17.0233154296875
1758524840.2716577,-0.82666015625,-0.11328125,0.3203125,48.583984375,-25.69580078125,1.0986328125,-2.186279296875,51.6192626953125,-17.0068359375
1758524840.2806926,-0.56396484375,-0.224609375,0.1123046875,37.29248046875,-17.9443359375,1.28173828125,-1.7742919921875,51.4984130859375,-17.0068359375
1758524840.290766,-0.56396484375,-0.224609375,0.1123046875,37.29248046875,-17.9443359375,1.28173828125,-1.3677978515625,51.383056640625,-17.0233154296875
1758524840.3007724,-0.4697265625,-0.1513671875,0.24755859375,29.11376953125,-9.33837890625,0.67138671875,-1.0711669921875,51.3555908203125,-17.0672607421875
1758524840.3108246,-0.4697265625,-0.1513671875,0.24755859375,29.11376953125,-9.33837890625,0.67138671875,-0.780029296875,51.3336181640625,-17.11669921875
1758524840.3209717,-0.49267578125,-0.1748046875,0.37353515625,11.474609375,-3.2958984375,0.06103515625,-0.6866455078125,51.3665771484375,-17.1881103515625
1758524840.3310227,-0.49267578125,-0.1748046875,0.37353515625,11.474609375,-3.2958984375,0.06103515625,-0.5987548828125,51.39404296875,-17.2705078125
1758524840.3408298,-0.5390625,-0.15283203125,0.61376953125,-3.90625,-1.46484375,-1.0986328125,-0.6866455078125,51.4324951171875,-17.369384765625
1758524840.351101,-0.5390625,-0.15283203125,0.61376953125,-3.90625,-1.46484375,-1.0986328125,-0.7855224609375,51.4599609375,-17.46826171875
1758524840.3613842,-0.60205078125,-0.08740234375,0.72265625,-12.39013671875,-1.03759765625,-2.25830078125,-0.9832763671875,51.48193359375,-17.5836181640625
1758524840.3708267,-0.60205078125,-0.08740234375,0.72265625,-12.39013671875,-1.03759765625,-2.25830078125,-1.175537109375,51.492919921875,-17.68798828125
1758524840.3808863,-0.673828125,-0.0185546875,0.7666015625,-10.80322265625,-1.220703125,-3.41796875,-1.3677978515625,51.4874267578125,-17.8033447265625
1758524840.3909576,-0.673828125,-0.0185546875,0.7666015625,-10.80322265625,-1.220703125,-3.41796875,-1.5545654296875,51.4764404296875,-17.90771484375
1758524840.4009328,-0.79296875,0.02978515625,0.85546875,1.89208984375,-1.77001953125,-2.9296875,-1.60400390625,51.4544677734375,-17.99560546875
1758524840.4110167,-0.79296875,0.02978515625,0.85546875,1.89208984375,-1.77001953125,-2.9296875,-1.6424560546875,51.427001953125,-18.0670166015625
1758524840.4211767,-0.8603515625,0.04638671875,0.77490234375,4.39453125,-2.74658203125,-2.44140625,-1.64794921875,51.3885498046875,-18.12744140625
1758524840.4311974,-0.8603515625,0.04638671875,0.77490234375,4.39453125,-2.74658203125,-2.44140625,-1.6424560546875,51.35009765625,-18.1768798828125
1758524840.4409735,-0.90185546875,0.10498046875,0.55615234375,16.6015625,-3.84521484375,-2.0751953125,-1.505126953125,51.3006591796875,-18.21533203125
1758524840.4510405,-0.90185546875,0.10498046875,0.55615234375,16.6015625,-3.84521484375,-2.0751953125,-1.3623046875,51.2567138671875,-18.25927734375
1758524840.4613917,-1.2255859375,0.291015625,0.63818359375,-0.6103515625,-4.33349609375,-2.8076171875,-1.38427734375,51.21826171875,-18.30322265625
1758524840.471031,-1.2255859375,0.291015625,0.63818359375,-0.6103515625,-4.33349609375,-2.8076171875,-1.395263671875,51.1907958984375,-18.336181640625
1758524840.4811642,-1.42529296875,0.30908203125,0.5224609375,-36.0107421875,-7.6904296875,-1.953125,-1.73583984375,51.1358642578125,-18.3526611328125
1758524840.4912384,-1.42529296875,0.30908203125,0.5224609375,-36.0107421875,-7.6904296875,-1.953125,-2.0599365234375,51.097412109375,-18.3636474609375
1758524840.5013392,-1.14501953125,-0.1767578125,0.26220703125,-22.0947265625,-7.2021484375,-2.685546875,-2.2576904296875,51.0699462890625,-18.402099609375
1758524840.511081,-1.14501953125,-0.1767578125,0.26220703125,-22.0947265625,-7.2021484375,-2.685546875,-2.4664306640625,51.0589599609375,-18.4515380859375
1758524840.5212004,-0.8798828125,-0.25634765625,0.36865234375,13.36669921875,-5.79833984375,-5.31005859375,-2.3675537109375,51.0589599609375,-18.5614013671875
1758524840.5314746,-0.8798828125,-0.25634765625,0.36865234375,13.36669921875,-5.79833984375,-5.31005859375,-2.2796630859375,51.064453125,-18.6822509765625
1758524840.5412624,-0.7705078125,-0.21630859375,0.26123046875,32.5927734375,-0.79345703125,-6.9580078125,-2.032470703125,51.1248779296875,-18.8470458984375
1758524840.5511115,-0.7705078125,-0.21630859375,0.26123046875,32.5927734375,-0.79345703125,-6.9580078125,-1.8017578125,51.1907958984375,-19.0228271484375
1758524840.5612073,-0.7705078125,-0.21630859375,0.26123046875,27.34375,3.96728515625,-7.080078125,-1.6259765625,51.3006591796875,-19.2041015625
1758524840.571263,-0.6630859375,-0.00537109375,0.416015625,27.34375,3.96728515625,-7.080078125,-1.4447021484375,51.405029296875,-19.3798828125
1758524840.5812967,-0.595703125,0.02197265625,0.619140625,-3.23486328125,6.89697265625,-4.7607421875,-1.549072265625,51.536865234375,-19.5172119140625
1758524840.5936406,-0.595703125,0.02197265625,0.619140625,-3.23486328125,6.89697265625,-4.7607421875,-1.64794921875,51.6522216796875,-19.6435546875
1758524840.6019423,-0.525390625,0.005859375,0.81103515625,-19.47021484375,6.53076171875,-1.220703125,-1.8621826171875,51.756591796875,-19.70947265625
1758524840.6112165,-0.525390625,0.005859375,0.81103515625,-19.47021484375,6.53076171875,-1.220703125,-2.076416015625,51.8389892578125,-19.7589111328125
1758524840.6214638,-0.4638671875,-0.12158203125,0.9111328125,-12.6953125,3.35693359375,2.38037109375,-2.1807861328125,51.87744140625,-19.742431640625
1758524840.6336381,-0.4638671875,-0.12158203125,0.9111328125,-12.6953125,3.35693359375,2.38037109375,-2.28515625,51.9049072265625,-19.7259521484375
1758524840.6429257,-0.3271484375,-0.130859375,0.95166015625,3.173828125,0.6103515625,5.31005859375,-2.2027587890625,51.8829345703125,-19.6435546875
1758524840.6527574,-0.3271484375,-0.130859375,0.95166015625,3.173828125,0.6103515625,5.31005859375,-2.120361328125,51.844482421875,-19.5556640625
1758524840.6638265,-0.23193359375,-0.12841796875,0.79296875,14.7705078125,2.25830078125,6.89697265625,-1.9061279296875,51.8060302734375,-19.4293212890625
1758524840.6717277,-0.23193359375,-0.12841796875,0.79296875,14.7705078125,2.25830078125,6.89697265625,-1.69189453125,51.7620849609375,-19.2974853515625
1758524840.6812577,-0.2666015625,-0.0126953125,0.8876953125,14.70947265625,3.35693359375,9.82666015625,-1.439208984375,51.7071533203125,-19.0997314453125
1758524840.6912718,-0.2666015625,-0.0126953125,0.8876953125,14.70947265625,3.35693359375,9.82666015625,-1.1810302734375,51.646728515625,-18.8909912109375
1758524840.7014415,-0.51513671875,-0.2958984375,0.884765625,11.04736328125,3.47900390625,9.3994140625,-0.977783203125,51.580810546875,-18.687744140625
1758524840.711421,-0.51513671875,-0.2958984375,0.884765625,11.04736328125,3.47900390625,9.3994140625,-0.7855224609375,51.5093994140625,-18.4954833984375
1758524840.7212965,-0.83642578125,-0.24560546875,1.07958984375,15.07568359375,0.0,6.04248046875,-0.604248046875,51.405029296875,-18.358154296875
1758524840.7313669,-0.83642578125,-0.24560546875,1.07958984375,15.07568359375,0.0,6.04248046875,-0.428466796875,51.3006591796875,-18.2373046875
1758524840.7418652,-1.10205078125,0.537109375,1.02978515625,-22.15576171875,-5.43212890625,10.25390625,-0.54931640625,51.1578369140625,-18.0340576171875
1758524840.7513735,-1.10205078125,0.537109375,1.02978515625,-22.15576171875,-5.43212890625,10.25390625,-0.63720703125,51.0205078125,-17.8143310546875
1758524840.7617133,-1.36083984375,0.5908203125,0.8349609375,-76.7822265625,-13.0615234375,10.07080078125,-1.2469482421875,50.8282470703125,-17.5946044921875
1758524840.7714348,-1.36083984375,0.5908203125,0.8349609375,-76.7822265625,-13.0615234375,10.07080078125,-1.8292236328125,50.6524658203125,-17.3583984375
1758524840.7813745,-1.19873046875,-0.1533203125,0.75048828125,-67.56591796875,-17.08984375,10.31494140625,-2.318115234375,50.44921875,-17.1331787109375
1758524840.7916105,-1.19873046875,-0.1533203125,0.75048828125,-67.56591796875,-17.08984375,10.31494140625,-2.8125,50.262451171875,-16.9189453125
1758524840.8014863,-0.935546875,-0.609375,0.20703125,15.5029296875,-14.404296875,7.9345703125,-2.537841796875,50.108642578125,-16.7816162109375
1758524840.8118606,-0.935546875,-0.609375,0.20703125,15.5029296875,-14.404296875,7.9345703125,-2.2906494140625,49.9713134765625,-16.67724609375
1758524840.8214529,-0.90869140625,-0.373046875,0.0986328125,107.2998046875,-9.82666015625,0.0,-1.2469482421875,49.888916015625,-16.732177734375
1758524840.8323429,-0.90869140625,-0.373046875,0.0986328125,107.2998046875,-9.82666015625,0.0,-0.2252197265625,49.822998046875,-16.8145751953125
1758524840.841526,-0.82568359375,-0.03515625,0.32470703125,109.80224609375,-4.2724609375,-1.708984375,0.791015625,49.8284912109375,-16.9354248046875
1758524840.851802,-0.82568359375,-0.03515625,0.32470703125,109.80224609375,-4.2724609375,-1.708984375,1.812744140625,49.833984375,-17.061767578125
1758524840.861681,-0.68603515625,0.00439453125,0.26123046875,77.33154296875,-1.40380859375,-4.2724609375,2.4774169921875,49.8779296875,-17.2265625
1758524840.8738954,-0.68603515625,0.00439453125,0.26123046875,77.33154296875,-1.40380859375,-4.2724609375,3.14208984375,49.9273681640625,-17.391357421875
1758524840.8815348,-0.55908203125,0.06201171875,0.4638671875,42.6025390625,2.197265625,-5.43212890625,3.4552001953125,50.009765625,-17.567138671875
1758524840.891931,-0.55908203125,0.06201171875,0.4638671875,42.6025390625,2.197265625,-5.43212890625,3.768310546875,50.086669921875,-17.73193359375
1758524840.9018595,-0.50439453125,0.02783203125,0.546875,25.69580078125,4.7607421875,-5.18798828125,3.922119140625,50.1800537109375,-17.8912353515625
1758524840.9128706,-0.50439453125,0.02783203125,0.546875,25.69580078125,4.7607421875,-5.18798828125,4.075927734375,50.2734375,-18.03955078125
1758524840.9218304,-0.45068359375,-0.01953125,0.47314453125,19.71435546875,8.60595703125,-5.18798828125,4.1748046875,50.394287109375,-18.182373046875
1758524840.9322236,-0.45068359375,-0.01953125,0.47314453125,19.71435546875,8.60595703125,-5.18798828125,4.2681884765625,50.5096435546875,-18.3197021484375
1758524840.9416945,-0.51171875,-0.03955078125,0.5947265625,33.02001953125,8.9111328125,-6.16455078125,4.482421875,50.6195068359375,-18.4735107421875
1758524840.9523075,-0.51171875,-0.03955078125,0.5947265625,33.02001953125,8.9111328125,-6.16455078125,4.6966552734375,50.723876953125,-18.621826171875
1758524840.9616818,-0.6845703125,-0.0869140625,0.67724609375,38.4521484375,10.3759765625,-7.32421875,4.94384765625,50.8392333984375,-18.78662109375
1758524840.974827,-0.6845703125,-0.0869140625,0.67724609375,38.4521484375,10.3759765625,-7.32421875,5.1910400390625,50.9490966796875,-18.951416015625
1758524840.9819853,-0.7783203125,0.13134765625,0.5859375,49.98779296875,9.033203125,-7.01904296875,5.55908203125,51.04248046875,-19.105224609375
1758524840.991655,-0.7783203125,0.13134765625,0.5859375,49.98779296875,9.033203125,-7.01904296875,5.9381103515625,51.141357421875,-19.2535400390625
1758524841.0018976,-1.05712890625,0.41845703125,0.5830078125,31.31103515625,9.1552734375,-5.4931640625,6.1688232421875,51.240234375,-19.35791015625
1758524841.0118334,-1.05712890625,0.41845703125,0.5830078125,31.31103515625,9.1552734375,-5.4931640625,6.4215087890625,51.35009765625,-19.4403076171875
1758524841.0221486,-1.8369140625,0.29443359375,0.234375,24.4140625,8.4228515625,-4.5166015625,6.6357421875,51.470947265625,-19.51171875
1758524841.0317738,-1.8369140625,0.29443359375,0.234375,24.4140625,8.4228515625,-4.5166015625,6.8609619140625,51.61376953125,-19.57763671875
1758524841.0422013,-1.4033203125,0.28076171875,0.3564453125,30.57861328125,5.06591796875,-5.859375,7.14111328125,51.7401123046875,-19.676513671875
1758524841.0517943,-1.4033203125,0.28076171875,0.3564453125,30.57861328125,5.06591796875,-5.859375,7.4267578125,51.8719482421875,-19.764404296875
1758524841.061845,-1.6923828125,-0.02392578125,0.05810546875,34.60693359375,-1.40380859375,-7.080078125,7.723388671875,51.9598388671875,-19.896240234375
1758524841.072102,-1.14990234375,-0.1259765625,-0.24267578125,48.2177734375,3.35693359375,-4.69970703125,8.1024169921875,52.0806884765625,-20.01708984375
1758524841.0819051,-1.14990234375,-0.1259765625,-0.24267578125,48.2177734375,3.35693359375,-4.69970703125,8.5693359375,52.2454833984375,-20.1214599609375
1758524841.091831,-0.73681640625,0.3828125,-0.01904296875,15.869140625,9.1552734375,-5.31005859375,8.8824462890625,52.44873046875,-20.225830078125
1758524841.1018538,-0.73681640625,0.3828125,-0.01904296875,15.869140625,9.1552734375,-5.31005859375,9.0472412109375,52.6849365234375,-20.3082275390625
1758524841.1119895,-0.65380859375,-0.07763671875,0.4501953125,-48.88916015625,18.85986328125,-1.708984375,8.931884765625,52.965087890625,-20.3411865234375
1758524841.1224945,-0.65380859375,-0.07763671875,0.4501953125,-48.88916015625,18.85986328125,-1.708984375,8.5198974609375,53.28369140625,-20.3411865234375
1758524841.1318352,-0.767578125,-0.02685546875,0.83349609375,-46.5087890625,22.88818359375,1.28173828125,8.1243896484375,53.602294921875,-20.32470703125
1758524841.1419556,-0.767578125,-0.02685546875,0.83349609375,-46.5087890625,22.88818359375,1.28173828125,7.7508544921875,53.9263916015625,-20.2862548828125
1758524841.1519825,-0.76123046875,0.142578125,1.134765625,-45.59326171875,17.7001953125,2.38037109375,7.3773193359375,54.2010498046875,-20.247802734375
1758524841.1619549,-0.76123046875,0.142578125,1.134765625,-45.59326171875,17.7001953125,2.38037109375,6.998291015625,54.4207763671875,-20.1983642578125
1758524841.1782987,-0.75732421875,0.041015625,0.8740234375,-4.638671875,11.29150390625,4.21142578125,6.83349609375,54.591064453125,-20.137939453125
1758524841.1849751,-0.75732421875,0.041015625,0.8740234375,-4.638671875,11.29150390625,4.21142578125,6.8719482421875,54.7174072265625,-20.06103515625
1758524841.1919398,-0.861328125,0.04931640625,0.5693359375,9.46044921875,7.50732421875,5.67626953125,6.9818115234375,54.810791015625,-19.9676513671875
1758524841.201986,-0.861328125,0.04931640625,0.5693359375,9.46044921875,7.50732421875,5.67626953125,7.1685791015625,54.8876953125,-19.874267578125
1758524841.21234,-0.9130859375,-0.01416015625,0.4033203125,1.40380859375,5.43212890625,6.7138671875,7.3223876953125,54.95361328125,-19.7698974609375
1758524841.221979,-0.9130859375,-0.01416015625,0.4033203125,1.40380859375,5.43212890625,6.7138671875,7.4322509765625,55.0140380859375,-19.66552734375
1758524841.231981,-0.90576171875,0.07568359375,0.3544921875,-7.6904296875,5.67626953125,6.77490234375,7.4981689453125,55.0799560546875,-19.566650390625
1758524841.2427924,-0.90576171875,0.07568359375,0.3544921875,-7.6904296875,5.67626953125,6.77490234375,7.525634765625,55.1513671875,-19.4677734375
1758524841.2520678,-0.8486328125,0.140625,0.4775390625,-16.9677734375,6.34765625,5.55419921875,7.4981689453125,55.2337646484375,-19.3798828125
1758524841.2624056,-0.8486328125,0.140625,0.4775390625,-16.9677734375,6.34765625,5.55419921875,7.4212646484375,55.316162109375,-19.2919921875
1758524841.2724006,-0.833984375,0.072265625,0.61767578125,-16.66259765625,6.34765625,5.859375,7.3553466796875,55.3985595703125,-19.1986083984375
1758524841.283002,-0.833984375,0.072265625,0.61767578125,-16.66259765625,6.34765625,5.859375,7.2894287109375,55.4754638671875,-19.0997314453125
1758524841.2921114,-0.85107421875,0.03662109375,0.68505859375,-15.44189453125,5.67626953125,5.859375,7.22900390625,55.5413818359375,-19.0008544921875
1758524841.3028626,-0.85107421875,0.03662109375,0.68505859375,-15.44189453125,5.67626953125,5.859375,7.1685791015625,55.6072998046875,-18.9019775390625
1758524841.3123758,-0.8076171875,0.06298828125,0.60205078125,-6.40869140625,4.638671875,4.5166015625,7.14111328125,55.65673828125,-18.8140869140625
1758524841.3224132,-0.8076171875,0.06298828125,0.60205078125,-6.40869140625,4.638671875,4.5166015625,7.152099609375,55.7061767578125,-18.7371826171875
1758524841.332137,-0.78955078125,0.14111328125,0.58349609375,-3.90625,5.4931640625,2.50244140625,7.1575927734375,55.755615234375,-18.6767578125
1758524841.3433073,-0.78955078125,0.14111328125,0.58349609375,-3.90625,5.4931640625,2.50244140625,7.1685791015625,55.8050537109375,-18.6273193359375
1758524841.3522139,-0.81591796875,0.09326171875,0.560546875,-4.150390625,6.103515625,0.3662109375,7.1630859375,55.865478515625,-18.5943603515625
1758524841.363082,-0.81591796875,0.09326171875,0.560546875,-4.150390625,6.103515625,0.3662109375,7.1466064453125,55.92041015625,-18.5723876953125
1758524841.3723886,-0.830078125,0.1005859375,0.59619140625,-3.2958984375,6.34765625,-1.28173828125,7.119140625,55.9808349609375,-18.56689453125
1758524841.3828425,-0.830078125,0.1005859375,0.59619140625,-3.2958984375,6.34765625,-1.28173828125,7.086181640625,56.041259765625,-18.5723876953125
1758524841.3923554,-0.7607421875,0.064453125,0.55908203125,-1.708984375,5.615234375,-2.38037109375,7.05322265625,56.1016845703125,-18.5888671875
1758524841.4037097,-0.7607421875,0.064453125,0.55908203125,-1.708984375,5.615234375,-2.38037109375,7.020263671875,56.151123046875,-18.61083984375
1758524841.412383,-0.74267578125,0.0703125,0.56103515625,-1.89208984375,6.103515625,-4.45556640625,6.9708251953125,56.2060546875,-18.65478515625
1758524841.4222693,-0.74267578125,0.0703125,0.56103515625,-1.89208984375,6.103515625,-4.45556640625,6.9049072265625,56.2664794921875,-18.7152099609375
1758524841.4326031,-0.78759765625,0.08349609375,0.56103515625,-2.3193359375,6.53076171875,-6.40869140625,6.822509765625,56.326904296875,-18.78662109375
1758524841.4424996,-0.78759765625,0.08349609375,0.56103515625,-2.3193359375,6.53076171875,-6.40869140625,6.7236328125,56.3873291015625,-18.8800048828125
1758524841.4523377,-0.82470703125,0.078125,0.55712890625,2.50244140625,5.9814453125,-7.87353515625,6.6357421875,56.44775390625,-18.984375
1758524841.462377,-0.82470703125,0.078125,0.55712890625,2.50244140625,5.9814453125,-7.87353515625,6.5643310546875,56.502685546875,-19.0997314453125
1758524841.47249,-0.806640625,0.07763671875,0.548828125,3.662109375,4.7607421875,-8.97216796875,6.4874267578125,56.5576171875,-19.2315673828125
1758524841.4824,-0.806640625,0.07763671875,0.548828125,3.662109375,4.7607421875,-8.97216796875,6.405029296875,56.6015625,-19.368896484375
1758524841.4923563,-0.7705078125,0.06201171875,0.5283203125,1.89208984375,3.41796875,-9.82666015625,6.3116455078125,56.6455078125,-19.5172119140625
1758524841.502679,-0.7705078125,0.06201171875,0.5283203125,1.89208984375,3.41796875,-9.82666015625,6.1962890625,56.678466796875,-19.6710205078125
1758524841.5126534,-0.783203125,0.0380859375,0.51416015625,-1.5869140625,2.86865234375,-10.43701171875,6.0589599609375,56.71142578125,-19.8358154296875
1758524841.5224123,-0.783203125,0.0380859375,0.51416015625,-1.5869140625,2.86865234375,-10.43701171875,5.899658203125,56.7388916015625,-20.006103515625
1758524841.5326006,-0.82275390625,0.0439453125,0.5302734375,-0.48828125,3.2958984375,-10.3759765625,5.745849609375,56.7718505859375,-20.1763916015625
1758524841.542633,-0.82275390625,0.0439453125,0.5302734375,-0.48828125,3.2958984375,-10.3759765625,5.592041015625,56.810302734375,-20.3466796875
1758524841.5524037,-0.8603515625,0.05810546875,0.60888671875,7.2021484375,3.72314453125,-8.60595703125,5.4986572265625,56.8487548828125,-20.50048828125
1758524841.5625696,-0.8603515625,0.05810546875,0.60888671875,7.2021484375,3.72314453125,-8.60595703125,5.44921875,56.8817138671875,-20.6378173828125
1758524841.5724108,-0.94091796875,-0.015625,0.60986328125,6.8359375,2.9296875,-5.06591796875,5.42724609375,56.9146728515625,-20.7421875
1758524841.582577,-0.94091796875,-0.015625,0.60986328125,6.8359375,2.9296875,-5.06591796875,5.4217529296875,56.942138671875,-20.8245849609375
1758524841.5929065,-0.8583984375,-0.03173828125,0.48828125,-1.03759765625,1.5869140625,-1.5869140625,5.3997802734375,56.9586181640625,-20.8795166015625
1758524841.602519,-0.8583984375,-0.03173828125,0.48828125,-1.03759765625,1.5869140625,-1.5869140625,5.3558349609375,56.97509765625,-20.9124755859375
1758524841.6126928,-0.810546875,0.03662109375,0.474609375,-6.2255859375,0.0,0.8544921875,5.306396484375,56.9805908203125,-20.928955078125
1758524841.622792,-0.810546875,0.03662109375,0.474609375,-6.2255859375,0.0,0.8544921875,5.2459716796875,56.9805908203125,-20.9234619140625
1758524841.6325665,-0.8017578125,0.0400390625,0.52197265625,-7.2021484375,-2.197265625,2.8076171875,5.196533203125,56.9696044921875,-20.9014892578125
1758524841.64286,-0.8017578125,0.0400390625,0.52197265625,-7.2021484375,-2.197265625,2.8076171875,5.1580810546875,56.9476318359375,-20.863037109375
1758524841.6530342,-0.826171875,0.00830078125,0.53369140625,-7.080078125,-4.2724609375,5.31005859375,5.1361083984375,56.9091796875,-20.8026123046875
1758524841.6625693,-0.826171875,0.00830078125,0.53369140625,-7.080078125,-4.2724609375,5.31005859375,5.130615234375,56.865234375,-20.7257080078125
1758524841.6736248,-0.865234375,0.01123046875,0.5625,-6.9580078125,-4.94384765625,8.11767578125,5.1416015625,56.8157958984375,-20.6268310546875
1758524841.682618,-0.865234375,0.01123046875,0.5625,-6.9580078125,-4.94384765625,8.11767578125,5.174560546875,56.7608642578125,-20.50048828125
1758524841.692828,-0.8935546875,-0.02099609375,0.55517578125,-3.96728515625,-5.18798828125,10.7421875,5.2459716796875,56.7059326171875,-20.357666015625
1758524841.703049,-0.8935546875,-0.02099609375,0.55517578125,-3.96728515625,-5.18798828125,10.7421875,5.33935546875,56.6455078125,-20.19287109375
1758524841.7136056,-0.892578125,0.03515625,0.556640625,-3.96728515625,-4.8828125,13.0615234375,5.4547119140625,56.590576171875,-20.0115966796875
1758524841.7226999,-0.892578125,0.03515625,0.556640625,-3.96728515625,-4.8828125,13.0615234375,5.5810546875,56.53564453125,-19.808349609375
1758524841.734177,-0.8291015625,0.05615234375,0.55859375,-1.708984375,-4.5166015625,14.46533203125,5.73486328125,56.480712890625,-19.5941162109375
1758524841.742714,-0.8291015625,0.05615234375,0.55859375,-1.708984375,-4.5166015625,14.46533203125,5.91064453125,56.42578125,-19.368896484375
1758524841.7530928,-0.79248046875,0.05908203125,0.56884765625,-3.96728515625,-3.90625,15.07568359375,6.075439453125,56.370849609375,-19.1326904296875
1758524841.762851,-0.79248046875,0.05908203125,0.56884765625,-3.96728515625,-3.90625,15.07568359375,6.240234375,56.3214111328125,-18.8909912109375
1758524841.773982,-0.79443359375,0.0576171875,0.5673828125,-4.33349609375,-3.5400390625,15.31982421875,6.3995361328125,56.27197265625,-18.6492919921875
1758524841.7827373,-0.79443359375,0.0576171875,0.5673828125,-4.33349609375,-3.5400390625,15.31982421875,6.5643310546875,56.217041015625,-18.402099609375
1758524841.7938688,-0.833984375,0.0478515625,0.55517578125,-5.2490234375,-3.41796875,15.19775390625,6.7181396484375,56.1676025390625,-18.1549072265625
1758524841.8027253,-0.833984375,0.0478515625,0.55517578125,-5.2490234375,-3.41796875,15.19775390625,6.866455078125,56.1126708984375,-17.9132080078125
1758524841.8142493,-0.8173828125,0.078125,0.55419921875,-5.06591796875,-3.72314453125,14.70947265625,7.0147705078125,56.063232421875,-17.677001953125
1758524841.8228526,-0.8173828125,0.078125,0.55419921875,-5.06591796875,-3.72314453125,14.70947265625,7.1575927734375,56.00830078125,-17.4407958984375
1758524841.8328106,-0.7412109375,0.11181640625,0.55078125,-1.52587890625,-4.21142578125,13.48876953125,7.3114013671875,55.953369140625,-17.2210693359375
1758524841.8430393,-0.7412109375,0.11181640625,0.55078125,-1.52587890625,-4.21142578125,13.48876953125,7.4761962890625,55.8929443359375,-17.0068359375
1758524841.852811,-0.7734375,0.10107421875,0.58984375,0.6103515625,-3.84521484375,12.8173828125,7.646484375,55.83251953125,-16.7926025390625
1758524841.8650198,-0.7734375,0.10107421875,0.58984375,0.6103515625,-3.84521484375,12.8173828125,7.822265625,55.7720947265625,-16.58935546875
1758524841.872968,-0.85009765625,0.02490234375,0.61572265625,-5.859375,-4.2724609375,12.51220703125,7.965087890625,55.711669921875,-16.3861083984375
1758524841.8828628,-0.85009765625,0.02490234375,0.61572265625,-5.859375,-4.2724609375,12.51220703125,8.0694580078125,55.645751953125,-16.1883544921875
1758524841.892836,-0.8349609375,0.0859375,0.568359375,-4.2724609375,-5.859375,10.25390625,8.1573486328125,55.5743408203125,-16.0125732421875
1758524841.9028456,-0.8349609375,0.0859375,0.568359375,-4.2724609375,-5.859375,10.25390625,8.23974609375,55.5029296875,-15.8642578125
1758524841.9174168,-0.78515625,0.17041015625,0.55322265625,-3.35693359375,-6.9580078125,7.38525390625,8.3056640625,55.4205322265625,-15.7379150390625
1758524841.9241505,-0.78515625,0.17041015625,0.55322265625,-3.35693359375,-6.9580078125,7.38525390625,8.360595703125,55.338134765625,-15.6390380859375
1758524841.9329576,-0.83642578125,0.10498046875,0.61181640625,2.01416015625,-8.48388671875,6.103515625,8.4320068359375,55.250244140625,-15.5401611328125
1758524841.947789,-0.83642578125,0.10498046875,0.61181640625,2.01416015625,-8.48388671875,6.103515625,8.5198974609375,55.1513671875,-15.4632568359375
1758524841.9540205,-0.89306640625,0.01953125,0.60009765625,5.37109375,-11.1083984375,5.92041015625,8.624267578125,55.04150390625,-15.3863525390625
1758524841.9630089,-0.89306640625,0.01953125,0.60009765625,5.37109375,-11.1083984375,5.92041015625,8.7286376953125,54.9261474609375,-15.325927734375
1758524841.9730697,-0.83935546875,0.07861328125,0.52099609375,6.28662109375,-13.12255859375,5.79833984375,8.8385009765625,54.7943115234375,-15.27099609375
1758524841.9830008,-0.83935546875,0.07861328125,0.52099609375,6.28662109375,-13.12255859375,5.79833984375,8.94287109375,54.6624755859375,-15.2215576171875
1758524841.9930005,-0.81103515625,0.1201171875,0.54345703125,1.15966796875,-13.427734375,5.615234375,9.0252685546875,54.525146484375,-15.172119140625
1758524842.002958,-0.81103515625,0.1201171875,0.54345703125,1.15966796875,-13.427734375,5.615234375,9.0802001953125,54.3878173828125,-15.1336669921875
1758524842.0139105,-0.830078125,0.0615234375,0.6025390625,2.74658203125,-13.85498046875,6.34765625,9.1461181640625,54.25048828125,-15.084228515625
1758524842.0230014,-0.830078125,0.0615234375,0.6025390625,2.74658203125,-13.85498046875,6.34765625,9.2230224609375,54.1131591796875,-15.029296875
1758524842.033041,-0.84814453125,0.0693359375,0.640625,7.99560546875,-14.7705078125,7.568359375,9.3328857421875,53.96484375,-14.9688720703125
1758524842.043285,-0.84814453125,0.0693359375,0.640625,7.99560546875,-14.7705078125,7.568359375,9.47021484375,53.8165283203125,-14.9029541015625
1758524842.0530913,-0.85009765625,0.07666015625,0.6357421875,7.8125,-15.31982421875,8.544921875,9.613037109375,53.6572265625,-14.8370361328125
1758524842.0632334,-0.85009765625,0.07666015625,0.6357421875,7.8125,-15.31982421875,8.544921875,9.755859375,53.4979248046875,-14.7601318359375
1758524842.0742075,-0.85009765625,0.07666015625,0.6357421875,9.70458984375,-17.02880859375,8.6669921875,9.9151611328125,53.3221435546875,-14.688720703125
1758524842.0835419,-0.88134765625,0.10498046875,0.61767578125,9.70458984375,-17.02880859375,8.6669921875,10.074462890625,53.1463623046875,-14.6173095703125
1758524842.0931036,-0.93505859375,0.138671875,0.64892578125,8.544921875,-18.73779296875,8.6669921875,10.21728515625,52.9595947265625,-14.556884765625
1758524842.103227,-0.93505859375,0.138671875,0.64892578125,8.544921875,-18.73779296875,8.6669921875,10.3656005859375,52.767333984375,-14.490966796875
1758524842.1136808,-0.970703125,0.16357421875,0.68701171875,15.19775390625,-22.03369140625,9.21630859375,10.5743408203125,52.547607421875,-14.4305419921875
1758524842.1231294,-0.970703125,0.16357421875,0.68701171875,15.19775390625,-22.03369140625,9.21630859375,10.7830810546875,52.327880859375,-14.3701171875
1758524842.1331272,-1.017578125,0.2021484375,0.72412109375,7.568359375,-26.2451171875,9.27734375,10.909423828125,52.064208984375,-14.3206787109375
1758524842.1433299,-1.017578125,0.2021484375,0.72412109375,7.568359375,-26.2451171875,9.27734375,11.041259765625,51.800537109375,-14.271240234375
1758524842.1531239,-0.98876953125,0.20556640625,0.7197265625,-12.451171875,-29.47998046875,9.3994140625,10.96435546875,51.5093994140625,-14.2327880859375
1758524842.1632848,-0.98876953125,0.20556640625,0.7197265625,-12.451171875,-29.47998046875,9.3994140625,10.8929443359375,51.21826171875,-14.1888427734375
1758524842.1735516,-0.88818359375,0.16748046875,0.71630859375,-43.3349609375,-30.1513671875,9.21630859375,10.5084228515625,50.921630859375,-14.150390625
1758524842.1833913,-0.88818359375,0.16748046875,0.71630859375,-43.3349609375,-30.1513671875,9.21630859375,10.1348876953125,50.625,-14.1009521484375
1758524842.1932158,-0.77685546875,0.109375,0.724609375,-44.73876953125,-29.60205078125,8.7890625,9.7393798828125,50.3338623046875,-14.0625
1758524842.203681,-0.77685546875,0.109375,0.724609375,-44.73876953125,-29.60205078125,8.7890625,9.349365234375,50.042724609375,-14.0130615234375
1758524842.2137322,-0.6875,0.07421875,0.74755859375,-44.98291015625,-29.052734375,7.6904296875,8.9483642578125,49.7515869140625,-13.9801025390625
1758524842.2235355,-0.6875,0.07421875,0.74755859375,-44.98291015625,-29.052734375,7.6904296875,8.54736328125,49.46044921875,-13.9471435546875
1758524842.2332942,-0.6142578125,0.02880859375,0.72998046875,-40.0390625,-28.13720703125,7.01904296875,8.1903076171875,49.1748046875,-13.9141845703125
1758524842.243611,-0.6142578125,0.02880859375,0.72998046875,-40.0390625,-28.13720703125,7.01904296875,7.8277587890625,48.8836669921875,-13.8812255859375
1758524842.2532485,-0.48291015625,0.01171875,0.66455078125,-25.634765625,-26.79443359375,5.0048828125,7.591552734375,48.6090087890625,-13.875732421875
1758524842.2633822,-0.48291015625,0.01171875,0.66455078125,-25.634765625,-26.79443359375,5.0048828125,7.3553466796875,48.328857421875,-13.8702392578125
1758524842.2733166,-0.32958984375,0.00146484375,0.5810546875,-12.451171875,-23.0712890625,2.9296875,7.22900390625,48.087158203125,-13.8812255859375
1758524842.283374,-0.32958984375,0.00146484375,0.5810546875,-12.451171875,-23.0712890625,2.9296875,7.09716796875,47.8399658203125,-13.8922119140625
1758524842.293265,-0.2705078125,-0.0205078125,0.52001953125,-5.7373046875,-18.85986328125,0.0,7.00927734375,47.625732421875,-13.9306640625
1758524842.3032901,-0.2705078125,-0.0205078125,0.52001953125,-5.7373046875,-18.85986328125,0.0,6.9158935546875,47.4114990234375,-13.974609375
1758524842.3137224,-0.21875,-0.02685546875,0.4736328125,7.32421875,-12.451171875,-2.5634765625,6.9268798828125,47.26318359375,-14.04052734375
1758524842.3233707,-0.21875,-0.02685546875,0.4736328125,7.32421875,-12.451171875,-2.5634765625,6.9378662109375,47.1038818359375,-14.1064453125
1758524842.3334293,-0.279296875,0.01025390625,0.5283203125,13.18359375,-6.591796875,-5.67626953125,6.976318359375,46.99951171875,-14.205322265625
1758524842.3439202,-0.279296875,0.01025390625,0.5283203125,13.18359375,-6.591796875,-5.67626953125,7.020263671875,46.8951416015625,-14.2987060546875
1758524842.3535364,-0.45166015625,0.080078125,0.666015625,3.0517578125,-3.60107421875,-8.4228515625,6.932373046875,46.8182373046875,-14.4195556640625
1758524842.3633697,-0.45166015625,0.080078125,0.666015625,3.0517578125,-3.60107421875,-8.4228515625,6.85546875,46.7413330078125,-14.5404052734375
1758524842.3738146,-0.62890625,0.0751953125,0.70947265625,-5.55419921875,-3.2958984375,-10.68115234375,6.668701171875,46.669921875,-14.688720703125
1758524842.3839233,-0.62890625,0.0751953125,0.70947265625,-5.55419921875,-3.2958984375,-10.68115234375,6.48193359375,46.5985107421875,-14.842529296875
1758524842.393563,-0.76416015625,0.10546875,0.67138671875,7.38525390625,-3.96728515625,-11.90185546875,6.416015625,46.5325927734375,-15.0128173828125
1758524842.403505,-0.76416015625,0.10546875,0.67138671875,7.38525390625,-3.96728515625,-11.90185546875,6.3555908203125,46.47216796875,-15.1885986328125
1758524842.414127,-0.8505859375,0.19921875,0.70263671875,22.4609375,-3.47900390625,-10.92529296875,6.4599609375,46.417236328125,-15.347900390625
1758524842.4236262,-0.8505859375,0.19921875,0.70263671875,22.4609375,-3.47900390625,-10.92529296875,6.56982421875,46.373291015625,-15.5072021484375
1758524842.4336302,-0.93701171875,0.21826171875,0.64697265625,20.6298828125,-3.35693359375,-8.72802734375,6.6961669921875,46.34033203125,-15.633544921875
1758524842.4441402,-0.93701171875,0.21826171875,0.64697265625,20.6298828125,-3.35693359375,-8.72802734375,6.822509765625,46.307373046875,-15.765380859375
1758524842.4535565,-0.96923828125,0.1826171875,0.63671875,13.97705078125,-2.197265625,-6.77490234375,6.9049072265625,46.29638671875,-15.8642578125
1758524842.4635942,-0.96923828125,0.1826171875,0.63671875,13.97705078125,-2.197265625,-6.77490234375,6.998291015625,46.2908935546875,-15.963134765625
1758524842.4737246,-1.0341796875,0.04833984375,0.7333984375,3.5400390625,-2.8076171875,-5.9814453125,6.9873046875,46.2799072265625,-16.06201171875
1758524842.4839673,-1.0341796875,0.04833984375,0.7333984375,3.5400390625,-2.8076171875,-5.9814453125,6.9708251953125,46.2799072265625,-16.1663818359375
1758524842.4935782,-0.98828125,0.029296875,0.80517578125,1.46484375,-5.18798828125,-5.06591796875,6.9378662109375,46.25244140625,-16.270751953125
1758524842.5036833,-0.98828125,0.029296875,0.80517578125,1.46484375,-5.18798828125,-5.06591796875,6.8994140625,46.2249755859375,-16.3751220703125
1758524842.5142853,-0.8330078125,0.068359375,0.724609375,-1.15966796875,-4.69970703125,-3.173828125,6.85546875,46.2030029296875,-16.4520263671875
1758524842.5236485,-0.8330078125,0.068359375,0.724609375,-1.15966796875,-4.69970703125,-3.173828125,6.8115234375,46.1810302734375,-16.534423828125
1758524842.5338538,-0.7109375,0.1064453125,0.69482421875,-2.01416015625,-2.9296875,-1.40380859375,6.778564453125,46.1700439453125,-16.5838623046875
1758524842.544087,-0.7109375,0.1064453125,0.69482421875,-2.01416015625,-2.9296875,-1.40380859375,6.74560546875,46.1590576171875,-16.63330078125
1758524842.5538309,-0.650390625,0.04736328125,0.7197265625,-6.40869140625,-2.9296875,0.42724609375,6.6851806640625,46.142578125,-16.6552734375
1758524842.5636778,-0.650390625,0.04736328125,0.7197265625,-6.40869140625,-2.9296875,0.42724609375,6.624755859375,46.1260986328125,-16.6717529296875
1758524842.5739005,-0.6064453125,0.04150390625,0.74560546875,-3.60107421875,-3.60107421875,0.42724609375,6.5863037109375,46.0931396484375,-16.6937255859375
1758524842.5841188,-0.6064453125,0.04150390625,0.74560546875,-3.60107421875,-3.60107421875,0.42724609375,6.5533447265625,46.0601806640625,-16.7156982421875
1758524842.5937126,-0.64306640625,0.06298828125,0.79638671875,-6.591796875,-1.77001953125,0.3662109375,6.48193359375,46.0382080078125,-16.732177734375
1758524842.603736,-0.64306640625,0.06298828125,0.79638671875,-6.591796875,-1.77001953125,0.3662109375,6.416015625,46.0162353515625,-16.7431640625
1758524842.614289,-0.78564453125,0.0634765625,0.89306640625,-5.126953125,-0.9765625,0.54931640625,6.3665771484375,45.9942626953125,-16.754150390625
1758524842.6237192,-0.78564453125,0.0634765625,0.89306640625,-5.126953125,-0.9765625,0.54931640625,6.3116455078125,45.977783203125,-16.7596435546875
1758524842.6338923,-0.7548828125,0.0986328125,0.86474609375,-8.85009765625,-2.5634765625,-1.28173828125,6.2017822265625,45.9393310546875,-16.798095703125
1758524842.643791,-0.7548828125,0.0986328125,0.86474609375,-8.85009765625,-2.5634765625,-1.28173828125,6.097412109375,45.90087890625,-16.8310546875
1758524842.653849,-0.61083984375,0.1494140625,0.81494140625,-9.765625,-3.60107421875,-4.638671875,5.9490966796875,45.8514404296875,-16.907958984375
1758524842.6638181,-0.61083984375,0.1494140625,0.81494140625,-9.765625,-3.60107421875,-4.638671875,5.80078125,45.802001953125,-16.9793701171875
1758524842.6756275,-0.58740234375,0.138671875,0.9150390625,-17.822265625,-1.40380859375,-6.16455078125,5.5645751953125,45.76904296875,-17.061767578125
1758524842.6845975,-0.58740234375,0.138671875,0.9150390625,-17.822265625,-1.40380859375,-6.16455078125,5.3338623046875,45.72509765625,-17.1331787109375
1758524842.694613,-0.6044921875,0.0185546875,0.90869140625,-10.80322265625,-2.9296875,-6.65283203125,5.16357421875,45.670166015625,-17.215576171875
1758524842.7040696,-0.6044921875,0.0185546875,0.90869140625,-10.80322265625,-2.9296875,-6.65283203125,4.9932861328125,45.6097412109375,-17.2979736328125
1758524842.715191,-0.576171875,0.0087890625,0.9892578125,5.55419921875,-7.8125,-10.31494140625,4.94384765625,45.494384765625,-17.4407958984375
1758524842.7238524,-0.576171875,0.0087890625,0.9892578125,5.55419921875,-7.8125,-10.31494140625,4.888916015625,45.3790283203125,-17.578125
1758524842.7338965,-0.490234375,0.0693359375,1.00244140625,15.68603515625,-9.21630859375,-13.18359375,4.9053955078125,45.2471923828125,-17.7484130859375
1758524842.7441986,-0.490234375,0.0693359375,1.00244140625,15.68603515625,-9.21630859375,-13.18359375,4.921875,45.10986328125,-17.9132080078125
1758524842.7539809,-0.357421875,0.11328125,0.84423828125,25.57373046875,-10.009765625,-12.75634765625,5.042724609375,44.9560546875,-18.0670166015625
1758524842.763946,-0.357421875,0.11328125,0.84423828125,25.57373046875,-10.009765625,-12.75634765625,5.1690673828125,44.80224609375,-18.21533203125
1758524842.7739775,-0.32080078125,0.0908203125,0.8251953125,25.2685546875,-10.43701171875,-10.07080078125,5.3173828125,44.6319580078125,-18.3197021484375
1758524842.7843816,-0.32080078125,0.0908203125,0.8251953125,25.2685546875,-10.43701171875,-10.07080078125,5.47119140625,44.461669921875,-18.4185791015625
1758524842.7940328,-0.228515625,0.048828125,0.767578125,5.859375,-9.33837890625,-7.2021484375,5.460205078125,44.2913818359375,-18.4735107421875
1758524842.8039918,-0.228515625,0.048828125,0.767578125,5.859375,-9.33837890625,-7.2021484375,5.44921875,44.1156005859375,-18.5174560546875
1758524842.8144503,-0.08447265625,0.02978515625,0.76806640625,-13.916015625,-4.2724609375,-3.2958984375,5.284423828125,43.978271484375,-18.4954833984375
1758524842.8240478,-0.08447265625,0.02978515625,0.76806640625,-13.916015625,-4.2724609375,-3.2958984375,5.11962890625,43.83544921875,-18.4625244140625
1758524842.8340113,-0.28955078125,-0.14599609375,0.88720703125,-21.78955078125,0.06103515625,-0.3662109375,4.9053955078125,43.7200927734375,-18.3856201171875
1758524842.8441982,-0.28955078125,-0.14599609375,0.88720703125,-21.78955078125,0.06103515625,-0.3662109375,4.6856689453125,43.604736328125,-18.3087158203125
1758524842.8540814,-0.47900390625,-0.1572265625,0.88720703125,0.48828125,-3.11279296875,-1.0986328125,4.6636962890625,43.4619140625,-18.2537841796875
1758524842.864081,-0.47900390625,-0.1572265625,0.88720703125,0.48828125,-3.11279296875,-1.0986328125,4.63623046875,43.319091796875,-18.204345703125
1758524842.8741465,-0.564453125,0.00048828125,0.8291015625,-1.89208984375,-3.90625,-1.89208984375,4.5758056640625,43.17626953125,-18.1768798828125
1758524842.884553,-0.564453125,0.00048828125,0.8291015625,-1.89208984375,-3.90625,-1.89208984375,4.5098876953125,43.0389404296875,-18.160400390625
1758524842.8941991,-0.712890625,0.13916015625,0.7265625,-22.88818359375,-1.46484375,-0.6103515625,4.2572021484375,42.9345703125,-18.12744140625
1758524842.9041603,-0.712890625,0.13916015625,0.7265625,-22.88818359375,-1.46484375,-0.6103515625,4.010009765625,42.8411865234375,-18.094482421875
1758524842.9147842,-0.94677734375,0.17529296875,0.580078125,-21.66748046875,0.6103515625,3.0517578125,3.812255859375,42.7862548828125,-18.028564453125
1758524842.924164,-0.94677734375,0.17529296875,0.580078125,-21.66748046875,0.6103515625,3.0517578125,3.62548828125,42.747802734375,-17.9681396484375
1758524842.9342108,-1.12060546875,0.02490234375,0.7919921875,4.150390625,-3.35693359375,1.40380859375,3.680419921875,42.681884765625,-17.9461669921875
1758524842.9443707,-1.12060546875,0.02490234375,0.7919921875,4.150390625,-3.35693359375,1.40380859375,3.7298583984375,42.6324462890625,-17.940673828125
1758524842.9544485,-1.185546875,-0.03271484375,0.6767578125,18.61572265625,-4.69970703125,-0.67138671875,3.900146484375,42.5830078125,-17.9736328125
1758524842.9642315,-1.185546875,-0.03271484375,0.6767578125,18.61572265625,-4.69970703125,-0.67138671875,4.06494140625,42.550048828125,-18.017578125
1758524842.9744928,-1.16015625,0.01953125,0.552734375,30.6396484375,-5.9814453125,-2.197265625,4.339599609375,42.51708984375,-18.094482421875
1758524842.9843698,-1.16015625,0.01953125,0.552734375,30.6396484375,-5.9814453125,-2.197265625,4.6142578125,42.5006103515625,-18.1768798828125
1758524842.994265,-1.09033203125,0.10400390625,0.58642578125,34.85107421875,-7.14111328125,-2.9296875,4.921875,42.4786376953125,-18.2757568359375
1758524843.0044205,-1.09033203125,0.10400390625,0.58642578125,34.85107421875,-7.14111328125,-2.9296875,5.2349853515625,42.462158203125,-18.3746337890625
1758524843.0144305,-0.98828125,0.18701171875,0.5654296875,11.53564453125,-6.28662109375,-2.8076171875,5.3228759765625,42.462158203125,-18.4735107421875
1758524843.025572,-0.98828125,0.18701171875,0.5654296875,11.53564453125,-6.28662109375,-2.8076171875,5.4107666015625,42.4676513671875,-18.56689453125
1758524843.0343072,-0.86279296875,0.06494140625,0.478515625,1.03759765625,-3.84521484375,-2.9296875,5.4052734375,42.4951171875,-18.65478515625
1758524843.0446584,-0.86279296875,0.06494140625,0.478515625,1.03759765625,-3.84521484375,-2.9296875,5.394287109375,42.5335693359375,-18.7481689453125
1758524843.0544398,-0.72021484375,0.03466796875,0.5732421875,4.82177734375,-0.48828125,-2.74658203125,5.42724609375,42.5994873046875,-18.8360595703125
1758524843.0653803,-0.62939453125,0.02734375,0.4794921875,9.94873046875,3.2958984375,-1.52587890625,5.4931640625,42.681884765625,-18.9129638671875
1758524843.07442,-0.62939453125,0.02734375,0.4794921875,9.94873046875,3.2958984375,-1.52587890625,5.5865478515625,42.7862548828125,-18.9788818359375
1758524843.0847993,-0.5224609375,0.05859375,0.556640625,7.4462890625,4.33349609375,-1.77001953125,5.6689453125,42.890625,-19.05029296875
1758524843.0945241,-0.5224609375,0.05859375,0.556640625,7.4462890625,4.33349609375,-1.77001953125,5.73486328125,42.9949951171875,-19.1162109375
1758524843.1048028,-0.4775390625,0.09228515625,0.65771484375,-5.43212890625,5.9814453125,-1.220703125,5.7403564453125,43.099365234375,-19.171142578125
1758524843.1145966,-0.4775390625,0.09228515625,0.65771484375,-5.43212890625,5.9814453125,-1.220703125,5.6854248046875,43.2037353515625,-19.2205810546875
1758524843.1253862,-0.4267578125,-0.02490234375,0.6005859375,-4.57763671875,6.591796875,-2.50244140625,5.6304931640625,43.30810546875,-19.2755126953125
1758524843.1344423,-0.4267578125,-0.02490234375,0.6005859375,-4.57763671875,6.591796875,-2.50244140625,5.5645751953125,43.406982421875,-19.3359375
1758524843.1450608,-0.5068359375,0.04638671875,0.76513671875,7.9345703125,8.6669921875,-3.47900390625,5.5535888671875,43.505859375,-19.40185546875
1758524843.1548738,-0.5068359375,0.04638671875,0.76513671875,7.9345703125,8.6669921875,-3.47900390625,5.60302734375,43.6102294921875,-19.4677734375
1758524843.16513,-0.6220703125,0.0361328125,0.91015625,6.28662109375,9.033203125,-4.21142578125,5.635986328125,43.7091064453125,-19.53369140625
1758524843.1745684,-0.6220703125,0.0361328125,0.91015625,6.28662109375,9.033203125,-4.21142578125,5.657958984375,43.7969970703125,-19.599609375
1758524843.1855683,-0.76025390625,-0.0068359375,0.75146484375,16.17431640625,8.23974609375,-6.8359375,5.712890625,43.8848876953125,-19.6820068359375
1758524843.1946003,-0.76025390625,-0.0068359375,0.75146484375,16.17431640625,8.23974609375,-6.8359375,5.80078125,43.96728515625,-19.786376953125
1758524843.2045453,-0.94482421875,-0.080078125,0.77880859375,39.6728515625,6.04248046875,-10.07080078125,5.987548828125,44.044189453125,-19.9237060546875
1758524843.2148123,-0.94482421875,-0.080078125,0.77880859375,39.6728515625,6.04248046875,-10.07080078125,6.2677001953125,44.1156005859375,-20.0885009765625
1758524843.224927,-1.05419921875,-0.099609375,0.55712890625,63.65966796875,5.126953125,-13.48876953125,6.6412353515625,44.1925048828125,-20.2862548828125
1758524843.2346697,-1.05419921875,-0.099609375,0.55712890625,63.65966796875,5.126953125,-13.48876953125,7.1136474609375,44.2803955078125,-20.5169677734375
1758524843.2445624,-1.07861328125,0.09765625,0.51416015625,89.35546875,4.45556640625,-14.892578125,7.7069091796875,44.3792724609375,-20.7696533203125
1758524843.255117,-1.07861328125,0.09765625,0.51416015625,89.35546875,4.45556640625,-14.892578125,8.426513671875,44.483642578125,-21.0333251953125
1758524843.2646608,-1.05078125,0.19580078125,0.41748046875,90.6982421875,6.103515625,-14.46533203125,9.1571044921875,44.6099853515625,-21.29150390625
1758524843.2746208,-1.05078125,0.19580078125,0.41748046875,90.6982421875,6.103515625,-14.46533203125,9.9041748046875,44.747314453125,-21.5386962890625
1758524843.2847047,-1.02099609375,0.22802734375,0.3427734375,66.95556640625,8.9111328125,-13.85498046875,10.546875,44.912109375,-21.77490234375
1758524843.2951734,-1.02099609375,0.22802734375,0.3427734375,66.95556640625,8.9111328125,-13.85498046875,11.085205078125,45.098876953125,-21.99462890625
1758524843.3046494,-1.01708984375,0.22607421875,0.3623046875,33.99658203125,11.41357421875,-12.3291015625,11.4752197265625,45.3021240234375,-22.1978759765625
1758524843.3146977,-1.01708984375,0.22607421875,0.3623046875,33.99658203125,11.41357421875,-12.3291015625,11.7169189453125,45.5218505859375,-22.3846435546875
1758524843.3248806,-0.8916015625,0.24560546875,0.48095703125,4.39453125,11.71875,-10.25390625,11.8267822265625,45.7415771484375,-22.5494384765625
1758524843.3348033,-0.8916015625,0.24560546875,0.48095703125,4.39453125,11.71875,-10.25390625,11.810302734375,45.9613037109375,-22.6922607421875
1758524843.3446715,-0.68701171875,0.169921875,0.650390625,-13.0615234375,11.474609375,-9.21630859375,11.71142578125,46.175537109375,-22.82958984375
1758524843.3547592,-0.68701171875,0.169921875,0.650390625,-13.0615234375,11.474609375,-9.21630859375,11.5301513671875,46.3787841796875,-22.950439453125
1758524843.3651152,-0.59375,0.0693359375,0.81689453125,-12.20703125,13.00048828125,-7.38525390625,11.35986328125,46.5765380859375,-23.060302734375
1758524843.3747087,-0.59375,0.0693359375,0.81689453125,-12.20703125,13.00048828125,-7.38525390625,11.2005615234375,46.7633056640625,-23.1536865234375
1758524843.3848166,-0.64990234375,-0.0166015625,0.8369140625,1.28173828125,13.18359375,-3.47900390625,11.1236572265625,46.944580078125,-23.2196044921875
1758524843.3950279,-0.64990234375,-0.0166015625,0.8369140625,1.28173828125,13.18359375,-3.47900390625,11.1236572265625,47.109375,-23.258056640625
1758524843.404775,-0.716796875,0.033203125,0.697265625,18.798828125,9.765625,-0.79345703125,11.2115478515625,47.2467041015625,-23.291015625
1758524843.4149883,-0.716796875,0.033203125,0.697265625,18.798828125,9.765625,-0.79345703125,11.392822265625,47.362060546875,-23.3074951171875
1758524843.4250827,-0.75341796875,0.11328125,0.6162109375,26.79443359375,5.615234375,1.03759765625,11.6180419921875,47.449951171875,-23.3184814453125
1758524843.43479,-0.75341796875,0.11328125,0.6162109375,26.79443359375,5.615234375,1.03759765625,11.88720703125,47.5213623046875,-23.3184814453125
1758524843.4447958,-0.7705078125,0.18115234375,0.57861328125,20.32470703125,3.90625,2.01416015625,12.12890625,47.5762939453125,-23.31298828125
1758524843.4551487,-0.7705078125,0.18115234375,0.57861328125,20.32470703125,3.90625,2.01416015625,12.3486328125,47.625732421875,-23.302001953125
1758524843.4648194,-0.83203125,0.19482421875,0.60791015625,10.68115234375,2.9296875,3.47900390625,12.5244140625,47.669677734375,-23.2745361328125
1758524843.4748504,-0.83203125,0.19482421875,0.60791015625,10.68115234375,2.9296875,3.47900390625,12.667236328125,47.7081298828125,-23.2415771484375
1758524843.4852352,-0.88232421875,0.15087890625,0.587890625,3.41796875,2.0751953125,4.8828125,12.7825927734375,47.74658203125,-23.192138671875
1758524843.4951174,-0.88232421875,0.15087890625,0.587890625,3.41796875,2.0751953125,4.8828125,12.864990234375,47.7740478515625,-23.13720703125
1758524843.5048978,-0.82763671875,0.20263671875,0.5791015625,-2.197265625,1.28173828125,5.2490234375,12.9254150390625,47.8070068359375,-23.082275390625
1758524843.515841,-0.82763671875,0.20263671875,0.5791015625,-2.197265625,1.28173828125,5.2490234375,12.9638671875,47.8289794921875,-23.0218505859375
1758524843.524956,-0.8095703125,0.1884765625,0.67138671875,-9.27734375,1.77001953125,5.92041015625,12.974853515625,47.8564453125,-22.9559326171875
1758524843.535362,-0.8095703125,0.1884765625,0.67138671875,-9.27734375,1.77001953125,5.92041015625,12.952880859375,47.8839111328125,-22.8790283203125
1758524843.5455687,-0.81982421875,0.14111328125,0.69677734375,-10.55908203125,2.38037109375,7.568359375,12.9364013671875,47.911376953125,-22.78564453125
1758524843.555327,-0.81982421875,0.14111328125,0.69677734375,-10.55908203125,2.38037109375,7.568359375,12.919921875,47.9388427734375,-22.6812744140625
1758524843.5654056,-0.81982421875,0.14111328125,0.69677734375,-14.6484375,3.84521484375,9.70458984375,12.89794921875,47.96630859375,-22.5604248046875
1758524843.577706,-0.880859375,0.1767578125,0.69775390625,-14.6484375,3.84521484375,9.70458984375,12.8704833984375,47.999267578125,-22.423095703125
1758524843.5855865,-0.880859375,0.1767578125,0.69775390625,-20.751953125,6.34765625,12.5732421875,12.83203125,48.043212890625,-22.25830078125
1758524843.5956166,-0.89892578125,0.18896484375,0.68896484375,-20.751953125,6.34765625,12.5732421875,12.7825927734375,48.09814453125,-22.0660400390625
1758524843.605144,-0.892578125,0.189453125,0.71630859375,-25.69580078125,8.30078125,15.19775390625,12.7276611328125,48.153076171875,-21.851806640625
1758524843.615967,-0.892578125,0.189453125,0.71630859375,-25.69580078125,8.30078125,15.19775390625,12.6617431640625,48.218994140625,-21.6156005859375
1758524843.62505,-0.8603515625,0.181640625,0.740234375,-35.400390625,8.1787109375,16.6015625,12.557373046875,48.2794189453125,-21.3629150390625
1758524843.6352599,-0.8603515625,0.181640625,0.740234375,-35.400390625,8.1787109375,16.6015625,12.41455078125,48.33984375,-21.104736328125
1758524843.6457624,-0.806640625,0.17333984375,0.74951171875,-50.96435546875,6.77490234375,16.78466796875,12.19482421875,48.3892822265625,-20.841064453125
1758524843.655218,-0.806640625,0.17333984375,0.74951171875,-50.96435546875,6.77490234375,16.78466796875,11.898193359375,48.427734375,-20.5828857421875
1758524843.6651475,-0.7216796875,0.15380859375,0.7900390625,-67.44384765625,5.2490234375,15.44189453125,11.513671875,48.460693359375,-20.3302001953125
1758524843.6752625,-0.7216796875,0.15380859375,0.7900390625,-67.44384765625,5.2490234375,15.44189453125,11.0302734375,48.482666015625,-20.0885009765625
1758524843.6858914,-0.6630859375,0.04638671875,0.81298828125,-69.64111328125,2.86865234375,13.24462890625,10.5303955078125,48.49365234375,-19.86328125
1758524843.6959798,-0.6630859375,0.04638671875,0.81298828125,-69.64111328125,2.86865234375,13.24462890625,9.99755859375,48.4881591796875,-19.6600341796875
1758524843.7052999,-0.6103515625,-0.03466796875,0.7734375,-45.7763671875,-0.48828125,9.27734375,9.5526123046875,48.4716796875,-19.48974609375
1758524843.715471,-0.6103515625,-0.03466796875,0.7734375,-45.7763671875,-0.48828125,9.27734375,9.2010498046875,48.438720703125,-19.35791015625
1758524843.7252872,-0.53564453125,-0.03857421875,0.703125,-13.671875,-4.45556640625,4.7607421875,8.9703369140625,48.3837890625,-19.2645263671875
1758524843.7353437,-0.53564453125,-0.03857421875,0.703125,-13.671875,-4.45556640625,4.7607421875,8.8714599609375,48.306884765625,-19.215087890625
1758524843.7456124,-0.4560546875,-0.00537109375,0.61572265625,12.20703125,-6.04248046875,-0.3662109375,8.8604736328125,48.22998046875,-19.2041015625
1758524843.755786,-0.4560546875,-0.00537109375,0.61572265625,12.20703125,-6.04248046875,-0.3662109375,8.9483642578125,48.14208984375,-19.2315673828125
1758524843.7652133,-0.32177734375,0.04638671875,0.5126953125,31.982421875,-5.615234375,-4.82177734375,9.107666015625,48.05419921875,-19.2919921875
1758524843.7753487,-0.32177734375,0.04638671875,0.5126953125,31.982421875,-5.615234375,-4.82177734375,9.33837890625,47.9718017578125,-19.3798828125
1758524843.7855892,-0.27587890625,0.11376953125,0.474609375,39.85595703125,-2.44140625,-7.87353515625,9.5965576171875,47.9058837890625,-19.4842529296875
1758524843.7954032,-0.27587890625,0.11376953125,0.474609375,39.85595703125,-2.44140625,-7.87353515625,9.8822021484375,47.8509521484375,-19.599609375
1758524843.8053095,-0.31884765625,0.12646484375,0.5078125,42.54150390625,0.244140625,-10.19287109375,10.17333984375,47.8125,-19.720458984375
1758524843.815943,-0.31884765625,0.12646484375,0.5078125,42.54150390625,0.244140625,-10.19287109375,10.469970703125,47.779541015625,-19.8468017578125
1758524843.8255355,-0.47314453125,0.18212890625,0.5908203125,40.52734375,1.15966796875,-12.5732421875,10.7501220703125,47.757568359375,-19.9896240234375
1758524843.835416,-0.47314453125,0.18212890625,0.5908203125,40.52734375,1.15966796875,-12.5732421875,11.00830078125,47.735595703125,-20.137939453125
1758524843.8458922,-0.62255859375,0.21337890625,0.623046875,33.87451171875,-0.30517578125,-13.48876953125,11.2335205078125,47.713623046875,-20.291748046875
1758524843.855717,-0.62255859375,0.21337890625,0.623046875,33.87451171875,-0.30517578125,-13.48876953125,11.42578125,47.6861572265625,-20.4510498046875
1758524843.8653758,-0.7255859375,0.2412109375,0.61865234375,21.1181640625,-2.38037109375,-13.916015625,11.5576171875,47.65869140625,-20.6158447265625
1758524843.8760526,-0.7255859375,0.2412109375,0.61865234375,21.1181640625,-2.38037109375,-13.916015625,11.6180419921875,47.6202392578125,-20.7861328125
1758524843.8861105,-0.7392578125,0.14501953125,0.69775390625,9.33837890625,-0.91552734375,-13.36669921875,11.634521484375,47.5982666015625,-20.9564208984375
1758524843.8955295,-0.7392578125,0.14501953125,0.69775390625,9.33837890625,-0.91552734375,-13.36669921875,11.5960693359375,47.581787109375,-21.11572265625
1758524843.9056726,-0.94775390625,-0.00390625,0.87255859375,8.48388671875,-1.40380859375,-12.39013671875,11.5521240234375,47.57080078125,-21.280517578125
1758524843.916239,-0.94775390625,-0.00390625,0.87255859375,8.48388671875,-1.40380859375,-12.39013671875,11.4971923828125,47.5543212890625,-21.4508056640625
1758524843.92643,-1.05810546875,-0.07666015625,0.88232421875,11.962890625,-3.7841796875,-11.04736328125,11.4532470703125,47.5323486328125,-21.6265869140625
1758524843.9356089,-1.05810546875,-0.07666015625,0.88232421875,11.962890625,-3.7841796875,-11.04736328125,11.42578125,47.5048828125,-21.807861328125
1758524843.9460056,-1.04150390625,0.05078125,0.8505859375,28.74755859375,-6.591796875,-8.6669921875,11.480712890625,47.4609375,-21.9891357421875
1758524843.9557383,-1.04150390625,0.05078125,0.8505859375,28.74755859375,-6.591796875,-8.6669921875,11.62353515625,47.406005859375,-22.159423828125
1758524843.965538,-0.90478515625,0.30517578125,0.70263671875,35.2783203125,-8.23974609375,-5.06591796875,11.8212890625,47.3455810546875,-22.3077392578125
1758524843.975895,-0.90478515625,0.30517578125,0.70263671875,35.2783203125,-8.23974609375,-5.06591796875,12.0794677734375,47.2796630859375,-22.4285888671875
1758524843.9860067,-0.7783203125,0.32373046875,0.54736328125,21.97265625,-7.50732421875,-1.3427734375,12.2991943359375,47.2137451171875,-22.510986328125
1758524843.9955642,-0.7783203125,0.32373046875,0.54736328125,21.97265625,-7.50732421875,-1.3427734375,12.48046875,47.1478271484375,-22.5604248046875
1758524844.0059404,-0.6767578125,0.1904296875,0.58935546875,2.8076171875,-7.2021484375,0.06103515625,12.579345703125,47.0819091796875,-22.5933837890625
1758524844.016305,-0.6767578125,0.1904296875,0.58935546875,2.8076171875,-7.2021484375,0.06103515625,12.5958251953125,47.021484375,-22.6153564453125
1758524844.02556,-0.642578125,0.08544921875,0.71142578125,-6.4697265625,-3.5400390625,0.79345703125,12.5738525390625,46.9720458984375,-22.6263427734375
1758524844.0356348,-0.642578125,0.08544921875,0.71142578125,-6.4697265625,-3.5400390625,0.79345703125,12.5079345703125,46.944580078125,-22.6263427734375
1758524844.0459275,-0.626953125,0.072265625,0.81298828125,-11.53564453125,-4.94384765625,1.953125,12.3980712890625,46.8896484375,-22.6153564453125
1758524844.055751,-0.626953125,0.072265625,0.81298828125,-11.53564453125,-4.94384765625,1.953125,12.2882080078125,46.8292236328125,-22.60986328125
1758524844.0656655,-0.57763671875,0.060546875,0.82080078125,-0.1220703125,-8.056640625,0.9765625,12.2662353515625,46.73583984375,-22.620849609375
1758524844.0760236,-0.57763671875,0.060546875,0.82080078125,-0.1220703125,-8.056640625,0.9765625,12.23876953125,46.6424560546875,-22.6373291015625
1758524844.0863965,-0.56298828125,0.1650390625,0.814453125,11.77978515625,-10.009765625,-1.64794921875,12.3046875,46.527099609375,-22.6922607421875
1758524844.0957363,-0.56298828125,0.1650390625,0.814453125,11.77978515625,-10.009765625,-1.64794921875,12.3651123046875,46.40625,-22.74169921875
1758524844.1058054,-0.59619140625,0.18701171875,0.8427734375,25.08544921875,-9.09423828125,-1.77001953125,12.5628662109375,46.2908935546875,-22.78564453125
1758524844.1165287,-0.59619140625,0.18701171875,0.8427734375,25.08544921875,-9.09423828125,-1.77001953125,12.76611328125,46.175537109375,-22.8240966796875
1758524844.1257753,-0.62744140625,0.21484375,0.8701171875,26.123046875,-9.27734375,-0.54931640625,12.98583984375,46.0491943359375,-22.8460693359375
1758524844.1357565,-0.62744140625,0.21484375,0.8701171875,26.123046875,-9.27734375,-0.54931640625,13.20556640625,45.9228515625,-22.862548828125
1758524844.1465874,-0.54296875,0.2529296875,1.08447265625,-18.85986328125,-13.12255859375,-0.48828125,12.974853515625,45.7525634765625,-22.884521484375
1758524844.1558769,-0.54296875,0.2529296875,1.08447265625,-18.85986328125,-13.12255859375,-0.48828125,12.7496337890625,45.5712890625,-22.8955078125
1758524844.1657557,-0.537109375,0.17333984375,0.97607421875,-35.400390625,-14.09912109375,0.54931640625,12.3651123046875,45.37353515625,-22.8900146484375
1758524844.175954,-0.537109375,0.17333984375,0.97607421875,-35.400390625,-14.09912109375,0.54931640625,11.986083984375,45.17578125,-22.8790283203125
1758524844.1866045,-0.57763671875,0.01416015625,0.67333984375,1.3427734375,-14.2822265625,-0.6103515625,11.964111328125,44.97802734375,-22.8900146484375
1758524844.195761,-0.57763671875,0.01416015625,0.67333984375,1.3427734375,-14.2822265625,-0.6103515625,11.93115234375,44.7857666015625,-22.9119873046875
1758524844.205875,-0.642578125,0.03271484375,0.62548828125,38.14697265625,-10.8642578125,-0.67138671875,12.2662353515625,44.6319580078125,-22.9339599609375
1758524844.2163713,-0.642578125,0.03271484375,0.62548828125,38.14697265625,-10.8642578125,-0.67138671875,12.601318359375,44.483642578125,-22.96142578125
1758524844.2258453,-0.79052734375,0.14013671875,0.61865234375,45.71533203125,-9.46044921875,-1.8310546875,12.996826171875,44.36279296875,-23.0108642578125
1758524844.2358816,-0.79052734375,0.14013671875,0.61865234375,45.71533203125,-9.46044921875,-1.8310546875,13.3868408203125,44.2474365234375,-23.0657958984375
1758524844.2461321,-0.88232421875,0.17822265625,0.87939453125,8.60595703125,-13.12255859375,-1.8310546875,13.4033203125,44.1046142578125,-23.13720703125
1758524844.2562232,-0.88232421875,0.17822265625,0.87939453125,8.60595703125,-13.12255859375,-1.8310546875,13.4197998046875,43.9617919921875,-23.2086181640625
1758524844.2658834,-0.84912109375,0.05224609375,0.681640625,-10.009765625,-13.5498046875,-1.0986328125,13.2550048828125,43.8189697265625,-23.280029296875
1758524844.2759547,-0.84912109375,0.05224609375,0.681640625,-10.009765625,-13.5498046875,-1.0986328125,13.0902099609375,43.6871337890625,-23.35693359375
1758524844.2867825,-0.7119140625,0.21240234375,0.67236328125,1.3427734375,-13.427734375,-0.79345703125,13.0462646484375,43.5552978515625,-23.4283447265625
1758524844.2960665,-0.7119140625,0.21240234375,0.67236328125,1.3427734375,-13.427734375,-0.79345703125,13.0078125,43.428955078125,-23.499755859375
1758524844.306096,-0.6943359375,0.24560546875,0.65283203125,-14.46533203125,-7.01904296875,2.38037109375,12.8594970703125,43.3575439453125,-23.499755859375
1758524844.31659,-0.6943359375,0.24560546875,0.65283203125,-14.46533203125,-7.01904296875,2.38037109375,12.7166748046875,43.2861328125,-23.499755859375
1758524844.3259566,-0.697265625,0.27392578125,0.59814453125,-24.96337890625,-4.94384765625,5.126953125,12.5079345703125,43.231201171875,-23.4503173828125
1758524844.3360338,-0.697265625,0.27392578125,0.59814453125,-24.96337890625,-4.94384765625,5.126953125,12.3046875,43.17626953125,-23.3953857421875
1758524844.3465042,-0.76123046875,0.1474609375,0.6259765625,-31.18896484375,-0.6103515625,8.6669921875,12.0849609375,43.165283203125,-23.2855224609375
1758524844.3561149,-0.76123046875,0.1474609375,0.6259765625,-31.18896484375,-0.6103515625,8.6669921875,11.865234375,43.1488037109375,-23.1756591796875
1758524844.3660464,-0.84375,0.1279296875,0.5791015625,-20.6298828125,-0.732421875,8.97216796875,11.7498779296875,43.143310546875,-23.0657958984375
1758524844.3760595,-0.84375,0.1279296875,0.5791015625,-20.6298828125,-0.732421875,8.97216796875,11.6400146484375,43.143310546875,-22.9559326171875
1758524844.3867443,-0.91650390625,0.1044921875,0.5986328125,-8.48388671875,0.0,8.9111328125,11.6510009765625,43.1488037109375,-22.8570556640625
1758524844.396005,-0.91650390625,0.1044921875,0.5986328125,-8.48388671875,0.0,8.9111328125,11.656494140625,43.165283203125,-22.7581787109375
1758524844.4061103,-0.94384765625,0.1201171875,0.4990234375,8.60595703125,-0.54931640625,7.26318359375,11.8212890625,43.187255859375,-22.686767578125
1758524844.4162374,-0.94384765625,0.1201171875,0.4990234375,8.60595703125,-0.54931640625,7.26318359375,11.9805908203125,43.2147216796875,-22.620849609375
1758524844.4261553,-0.8623046875,0.2216796875,0.42529296875,7.50732421875,-0.244140625,6.04248046875,12.1234130859375,43.253173828125,-22.5714111328125
1758524844.4360914,-0.8623046875,0.2216796875,0.42529296875,7.50732421875,-0.244140625,6.04248046875,12.271728515625,43.297119140625,-22.5164794921875
1758524844.4465764,-0.78515625,0.2216796875,0.517578125,-9.46044921875,3.47900390625,5.4931640625,12.2607421875,43.3740234375,-22.4560546875
1758524844.456701,-0.78515625,0.2216796875,0.517578125,-9.46044921875,3.47900390625,5.4931640625,12.249755859375,43.4564208984375,-22.3956298828125
1758524844.4661856,-0.79443359375,0.14501953125,0.47119140625,-7.38525390625,6.53076171875,5.55419921875,12.2662353515625,43.57177734375,-22.32421875
1758524844.4768927,-0.79443359375,0.14501953125,0.47119140625,-7.38525390625,6.53076171875,5.55419921875,12.28271484375,43.6871337890625,-22.2528076171875
1758524844.486983,-0.765625,0.10009765625,0.5791015625,-6.34765625,7.6904296875,5.126953125,12.3101806640625,43.8134765625,-22.1868896484375
1758524844.496609,-0.765625,0.10009765625,0.5791015625,-6.34765625,7.6904296875,5.126953125,12.3321533203125,43.934326171875,-22.1209716796875
1758524844.5062373,-0.67578125,0.17822265625,0.64990234375,-11.16943359375,7.14111328125,2.9296875,12.28271484375,44.05517578125,-22.08251953125
1758524844.5164573,-0.67578125,0.17822265625,0.64990234375,-11.16943359375,7.14111328125,2.9296875,12.2332763671875,44.1705322265625,-22.049560546875
1758524844.5271575,-0.6435546875,0.212890625,0.77978515625,-19.10400390625,7.38525390625,2.0751953125,12.095947265625,44.2803955078125,-22.0166015625
1758524844.5369186,-0.6435546875,0.212890625,0.77978515625,-19.10400390625,7.38525390625,2.0751953125,11.9586181640625,44.3792724609375,-21.9781494140625
1758524844.5462513,-0.6376953125,0.15087890625,0.76318359375,-5.43212890625,6.40869140625,2.62451171875,11.9586181640625,44.461669921875,-21.9342041015625
1758524844.5568502,-0.6376953125,0.15087890625,0.76318359375,-5.43212890625,6.40869140625,2.62451171875,11.9586181640625,44.5440673828125,-21.8902587890625
1758524844.5665052,-0.6376953125,0.15087890625,0.76318359375,3.96728515625,3.23486328125,3.23486328125,12.052001953125,44.58251953125,-21.8463134765625
1758524844.5763948,-0.5888671875,0.13232421875,0.74658203125,3.96728515625,3.23486328125,3.23486328125,12.139892578125,44.615478515625,-21.796875
1758524844.5870771,-0.5888671875,0.13232421875,0.74658203125,1.3427734375,0.6103515625,2.44140625,12.183837890625,44.6209716796875,-21.763916015625
1758524844.5964618,-0.5615234375,0.13818359375,0.7431640625,1.3427734375,0.6103515625,2.44140625,12.227783203125,44.6209716796875,-21.73095703125
1758524844.606416,-0.5771484375,0.16162109375,0.908203125,-5.4931640625,-1.3427734375,2.13623046875,12.1893310546875,44.593505859375,-21.7034912109375
1758524844.6165972,-0.5771484375,0.16162109375,0.908203125,-5.4931640625,-1.3427734375,2.13623046875,12.1563720703125,44.5660400390625,-21.676025390625
1758524844.627171,-0.55224609375,0.1630859375,1.0107421875,-19.95849609375,-4.0283203125,2.8076171875,11.97509765625,44.49462890625,-21.6375732421875
1758524844.636328,-0.55224609375,0.1630859375,1.0107421875,-19.95849609375,-4.0283203125,2.8076171875,11.7938232421875,44.417724609375,-21.5936279296875
1758524844.6464953,-0.51904296875,0.0732421875,1.04443359375,-36.0107421875,-7.4462890625,2.99072265625,11.4422607421875,44.3023681640625,-21.55517578125
1758524844.657127,-0.51904296875,0.0732421875,1.04443359375,-36.0107421875,-7.4462890625,2.99072265625,11.0906982421875,44.176025390625,-21.5167236328125
1758524844.6665125,-0.47412109375,-0.0546875,0.90673828125,-14.95361328125,-9.033203125,1.8310546875,10.931396484375,44.0386962890625,-21.4947509765625
1758524844.6764367,-0.47412109375,-0.0546875,0.90673828125,-14.95361328125,-9.033203125,1.8310546875,10.7611083984375,43.890380859375,-21.478271484375
1758524844.6872022,-0.47119140625,0.24072265625,1.0009765625,6.4697265625,-11.65771484375,0.0,10.78857421875,43.7200927734375,-21.4892578125
1758524844.6970172,-0.47119140625,0.24072265625,1.0009765625,6.4697265625,-11.65771484375,0.0,10.821533203125,43.538818359375,-21.4837646484375
1758524844.7064872,-0.568359375,0.22216796875,1.02099609375,-8.6669921875,-11.71875,2.01416015625,10.7281494140625,43.3575439453125,-21.4508056640625
1758524844.7168243,-0.568359375,0.22216796875,1.02099609375,-8.6669921875,-11.71875,2.01416015625,10.634765625,43.1707763671875,-21.412353515625
1758524844.726502,-0.60595703125,0.0400390625,0.83740234375,-11.23046875,-14.6484375,1.15966796875,10.5029296875,42.95654296875,-21.3958740234375
1758524844.7364907,-0.60595703125,0.0400390625,0.83740234375,-11.23046875,-14.6484375,1.15966796875,10.3656005859375,42.7532958984375,-21.37939453125
1758524844.7469304,-0.67626953125,0.02197265625,0.828125,-7.14111328125,-14.58740234375,0.8544921875,10.26123046875,42.550048828125,-21.37939453125
1758524844.757153,-0.67626953125,0.02197265625,0.828125,-7.14111328125,-14.58740234375,0.8544921875,10.1568603515625,42.352294921875,-21.3848876953125
1758524844.7666764,-0.7685546875,0.01416015625,0.77880859375,17.76123046875,-15.80810546875,-0.91552734375,10.2777099609375,42.154541015625,-21.4288330078125
1758524844.7770164,-0.7685546875,0.01416015625,0.77880859375,17.76123046875,-15.80810546875,-0.91552734375,10.3985595703125,41.9622802734375,-21.478271484375
1758524844.7866824,-0.84375,0.15625,0.8466796875,29.35791015625,-17.51708984375,-2.197265625,10.6182861328125,41.7645263671875,-21.55517578125
1758524844.7971818,-0.84375,0.15625,0.8466796875,29.35791015625,-17.51708984375,-2.197265625,10.8380126953125,41.572265625,-21.6375732421875
1758524844.8066049,-0.833984375,0.20751953125,0.8076171875,16.54052734375,-19.04296875,-1.89208984375,10.931396484375,41.3690185546875,-21.719970703125
1758524844.8167076,-0.833984375,0.20751953125,0.8076171875,16.54052734375,-19.04296875,-1.89208984375,11.0302734375,41.1712646484375,-21.807861328125
1758524844.8272972,-0.72998046875,0.26171875,0.80419921875,-7.26318359375,-19.6533203125,-0.54931640625,10.909423828125,40.968017578125,-21.8682861328125
1758524844.836612,-0.72998046875,0.26171875,0.80419921875,-7.26318359375,-19.6533203125,-0.54931640625,10.7940673828125,40.770263671875,-21.9342041015625
1758524844.8467326,-0.62060546875,0.26171875,0.78173828125,-25.32958984375,-18.5546875,1.40380859375,10.5194091796875,40.5780029296875,-21.961669921875
1758524844.8574545,-0.62060546875,0.26171875,0.78173828125,-25.32958984375,-18.5546875,1.40380859375,10.2557373046875,40.3857421875,-21.983642578125
1758524844.8668263,-0.5546875,0.099609375,0.556640625,-22.8271484375,-13.7939453125,3.0517578125,10.04150390625,40.2374267578125,-21.97265625
