timestamp,acc_x,acc_y,acc_z,gyro_x,gyro_y,gyro_z,angle_x,angle_y,angle_z
1760967665.8692777,-0.70947265625,0.037109375,0.705078125,-7.080078125,0.1220703125,1.28173828125,2.010498046875,45.2032470703125,-55.689697265625
1760967665.8804984,-0.70947265625,0.037109375,0.705078125,-7.080078125,0.1220703125,1.28173828125,1.95556640625,45.2032470703125,-55.6732177734375
1760967665.8901446,-0.7041015625,0.02978515625,0.728515625,-10.1318359375,0.6103515625,1.77001953125,1.8841552734375,45.2032470703125,-55.645751953125
1760967665.900749,-0.7041015625,0.02978515625,0.728515625,-10.1318359375,0.6103515625,1.77001953125,1.8017578125,45.208740234375,-55.6182861328125
1760967665.9122515,-0.70361328125,0.0068359375,0.72802734375,-9.46044921875,0.8544921875,2.197265625,1.7303466796875,45.208740234375,-55.5853271484375
1760967665.9219441,-0.70361328125,0.0068359375,0.72802734375,-9.46044921875,0.8544921875,2.197265625,1.658935546875,45.2142333984375,-55.5523681640625
1760967665.9326377,-0.70263671875,-0.0009765625,0.70849609375,-6.8359375,0.732421875,2.3193359375,1.60400390625,45.2197265625,-55.513916015625
1760967665.9410665,-0.70263671875,-0.0009765625,0.70849609375,-6.8359375,0.732421875,2.3193359375,1.56005859375,45.2252197265625,-55.48095703125
1760967665.9495645,-0.7001953125,0.0009765625,0.7099609375,-2.5634765625,0.6103515625,2.25830078125,1.5325927734375,45.2252197265625,-55.447998046875
1760967665.959343,-0.7001953125,0.0009765625,0.7099609375,-2.5634765625,0.6103515625,2.25830078125,1.5325927734375,45.230712890625,-55.4150390625
1760967665.9694293,-0.701171875,0.013671875,0.72705078125,-1.03759765625,0.54931640625,2.13623046875,1.5325927734375,45.230712890625,-55.3875732421875
1760967665.979309,-0.701171875,0.013671875,0.72705078125,-1.03759765625,0.54931640625,2.13623046875,1.5435791015625,45.230712890625,-55.3546142578125
1760967665.9892738,-0.69677734375,0.03125,0.7294921875,-2.50244140625,0.67138671875,2.0751953125,1.549072265625,45.2362060546875,-55.3271484375
1760967665.9982855,-0.69677734375,0.03125,0.7294921875,-2.50244140625,0.67138671875,2.0751953125,1.5435791015625,45.2362060546875,-55.294189453125
1760967666.0083292,-0.701171875,0.03271484375,0.72119140625,-5.859375,0.67138671875,2.25830078125,1.5216064453125,45.2362060546875,-55.26123046875
1760967666.018296,-0.701171875,0.03271484375,0.72119140625,-5.859375,0.67138671875,2.25830078125,1.4886474609375,45.2362060546875,-55.228271484375
1760967666.0283937,-0.701171875,0.0205078125,0.7216796875,-6.591796875,0.67138671875,2.44140625,1.4501953125,45.2362060546875,-55.1898193359375
1760967666.0383506,-0.701171875,0.0205078125,0.7216796875,-6.591796875,0.67138671875,2.44140625,1.4117431640625,45.2362060546875,-55.1513671875
1760967666.0482888,-0.705078125,0.00830078125,0.70849609375,-6.7138671875,0.48828125,2.25830078125,1.3677978515625,45.2362060546875,-55.118408203125
1760967666.0583134,-0.705078125,0.00830078125,0.70849609375,-6.7138671875,0.48828125,2.25830078125,1.3238525390625,45.2362060546875,-55.0799560546875
1760967666.0683227,-0.70458984375,0.00830078125,0.7080078125,-5.0048828125,0.42724609375,1.89208984375,1.29638671875,45.2362060546875,-55.052490234375
1760967666.0783298,-0.70458984375,0.00830078125,0.7080078125,-5.0048828125,0.42724609375,1.89208984375,1.263427734375,45.2362060546875,-55.0250244140625
1760967666.0883236,-0.701171875,0.01806640625,0.7177734375,-5.06591796875,0.30517578125,1.8310546875,1.23046875,45.230712890625,-54.99755859375
1760967666.0983284,-0.701171875,0.01806640625,0.7177734375,-5.06591796875,0.30517578125,1.8310546875,1.2030029296875,45.230712890625,-54.964599609375
1760967666.108323,-0.6904296875,0.0263671875,0.7353515625,-5.37109375,0.0,1.8310546875,1.1700439453125,45.2252197265625,-54.9371337890625
1760967666.1183307,-0.6904296875,0.0263671875,0.7353515625,-5.37109375,0.0,1.8310546875,1.1370849609375,45.2197265625,-54.90966796875
1760967666.1283276,-0.70068359375,0.013671875,0.72412109375,-6.8359375,-0.244140625,1.8310546875,1.087646484375,45.208740234375,-54.8822021484375
1760967666.138334,-0.70068359375,0.013671875,0.72412109375,-6.8359375,-0.244140625,1.8310546875,1.0382080078125,45.2032470703125,-54.8492431640625
1760967666.1483417,-0.6943359375,0.0029296875,0.72119140625,-7.6904296875,-0.67138671875,1.77001953125,0.9832763671875,45.186767578125,-54.82177734375
1760967666.158353,-0.6943359375,0.0029296875,0.72119140625,-7.6904296875,-0.67138671875,1.77001953125,0.9228515625,45.17578125,-54.7943115234375
1760967666.1685112,-0.6962890625,0.02099609375,0.712890625,-6.9580078125,-0.91552734375,1.708984375,0.8734130859375,45.1593017578125,-54.766845703125
1760967666.1783855,-0.6962890625,0.02099609375,0.712890625,-6.9580078125,-0.91552734375,1.708984375,0.823974609375,45.142822265625,-54.7393798828125
1760967666.1883924,-0.697265625,0.0107421875,0.72705078125,-6.40869140625,-0.91552734375,1.52587890625,0.780029296875,45.1318359375,-54.7119140625
1760967666.198411,-0.697265625,0.0107421875,0.72705078125,-6.40869140625,-0.91552734375,1.52587890625,0.7305908203125,45.1153564453125,-54.68994140625
1760967666.2084193,-0.7001953125,0.0,0.7412109375,-8.056640625,-0.6103515625,1.953125,0.6756591796875,45.098876953125,-54.656982421875
1760967666.2184286,-0.7001953125,0.0,0.7412109375,-8.056640625,-0.6103515625,1.953125,0.615234375,45.087890625,-54.6295166015625
1760967666.228436,-0.70166015625,0.009765625,0.69677734375,-7.4462890625,-0.732421875,1.89208984375,0.560302734375,45.076904296875,-54.5965576171875
1760967666.2384439,-0.70166015625,0.009765625,0.69677734375,-7.4462890625,-0.732421875,1.89208984375,0.5108642578125,45.0604248046875,-54.569091796875
1760967666.2484696,-0.71875,0.001953125,0.7080078125,-4.69970703125,-0.67138671875,1.8310546875,0.4833984375,45.0494384765625,-54.5416259765625
1760967666.258479,-0.71875,0.001953125,0.7080078125,-4.69970703125,-0.67138671875,1.8310546875,0.4559326171875,45.0384521484375,-54.51416015625
1760967666.2684875,-0.7119140625,-0.00244140625,0.70166015625,-4.5166015625,-0.8544921875,1.708984375,0.428466796875,45.0274658203125,-54.4866943359375
1760967666.2785003,-0.7119140625,-0.00244140625,0.70166015625,-4.5166015625,-0.8544921875,1.708984375,0.4010009765625,45.0164794921875,-54.459228515625
1760967666.2885058,-0.71337890625,0.02001953125,0.69287109375,-5.615234375,-0.6103515625,1.89208984375,0.3680419921875,45.010986328125,-54.4317626953125
1760967666.2985232,-0.71337890625,0.02001953125,0.69287109375,-5.615234375,-0.6103515625,1.89208984375,0.3350830078125,45.0,-54.404296875
1760967666.3085241,-0.7294921875,0.01708984375,0.69384765625,-9.765625,-0.48828125,1.8310546875,0.2581787109375,44.9945068359375,-54.3768310546875
1760967666.3185244,-0.7294921875,0.01708984375,0.69384765625,-9.765625,-0.48828125,1.8310546875,0.1812744140625,44.989013671875,-54.349365234375
1760967666.3285553,-0.69921875,-0.01220703125,0.71826171875,-4.8828125,-0.9765625,1.46484375,0.15380859375,44.9835205078125,-54.327392578125
1760967666.3385642,-0.69921875,-0.01220703125,0.71826171875,-4.8828125,-0.9765625,1.46484375,0.120849609375,44.9725341796875,-54.305419921875
1760967666.3485713,-0.72021484375,-0.02783203125,0.72265625,-3.5400390625,-0.8544921875,1.52587890625,0.098876953125,44.9615478515625,-54.283447265625
1760967666.358595,-0.72021484375,-0.02783203125,0.72265625,-3.5400390625,-0.8544921875,1.52587890625,0.0823974609375,44.9560546875,-54.2669677734375
1760967666.368616,-0.72119140625,0.01318359375,0.66796875,-1.77001953125,-0.9765625,1.40380859375,0.076904296875,44.945068359375,-54.25048828125
1760967666.3786094,-0.72119140625,0.01318359375,0.66796875,-1.77001953125,-0.9765625,1.40380859375,0.076904296875,44.9395751953125,-54.2340087890625
1760967666.3886933,-0.72314453125,0.01806640625,0.693359375,-0.732421875,-1.3427734375,0.9765625,0.076904296875,44.9285888671875,-54.217529296875
1760967666.3986688,-0.72314453125,0.01806640625,0.693359375,-0.732421875,-1.3427734375,0.9765625,0.0823974609375,44.9176025390625,-54.20654296875
1760967666.4086852,-0.71435546875,-0.001953125,0.71240234375,-2.5634765625,-1.28173828125,0.8544921875,0.06591796875,44.9066162109375,-54.195556640625
1760967666.4186895,-0.71435546875,-0.001953125,0.71240234375,-2.5634765625,-1.28173828125,0.8544921875,0.054931640625,44.901123046875,-54.1845703125
1760967666.428696,-0.716796875,-0.00048828125,0.70556640625,-4.94384765625,-1.220703125,1.0986328125,0.0164794921875,44.89013671875,-54.1680908203125
1760967666.4386883,-0.716796875,-0.00048828125,0.70556640625,-4.94384765625,-1.220703125,1.0986328125,-0.0164794921875,44.879150390625,-54.151611328125
1760967666.4487066,-0.71728515625,-0.00146484375,0.697265625,-4.5166015625,-1.0986328125,1.28173828125,-0.0439453125,44.8736572265625,-54.1351318359375
1760967666.4591565,-0.71728515625,-0.00146484375,0.697265625,-4.5166015625,-1.0986328125,1.28173828125,-0.076904296875,44.8681640625,-54.11865234375
1760967666.4689271,-0.71484375,-0.0029296875,0.70751953125,-4.82177734375,-0.9765625,1.46484375,-0.10986328125,44.8626708984375,-54.1021728515625
1760967666.4788263,-0.71484375,-0.0029296875,0.70751953125,-4.82177734375,-0.9765625,1.46484375,-0.142822265625,44.857177734375,-54.085693359375
1760967666.488879,-0.7177734375,-0.0078125,0.69970703125,-4.638671875,-0.91552734375,1.5869140625,-0.1702880859375,44.8516845703125,-54.063720703125
1760967666.4987848,-0.7177734375,-0.0078125,0.69970703125,-4.638671875,-0.91552734375,1.5869140625,-0.19775390625,44.84619140625,-54.0472412109375
1760967666.509608,-0.72021484375,-0.00537109375,0.68994140625,-4.39453125,-0.91552734375,1.89208984375,-0.2252197265625,44.8406982421875,-54.019775390625
1760967666.518854,-0.72021484375,-0.00537109375,0.68994140625,-4.39453125,-0.91552734375,1.89208984375,-0.2471923828125,44.835205078125,-53.997802734375
1760967666.5289316,-0.71435546875,-0.00732421875,0.716796875,-4.2724609375,-0.91552734375,1.64794921875,-0.274658203125,44.8297119140625,-53.9813232421875
1760967666.538889,-0.71435546875,-0.00732421875,0.716796875,-4.2724609375,-0.91552734375,1.64794921875,-0.296630859375,44.82421875,-53.9593505859375
1760967666.5491962,-0.71484375,-0.00634765625,0.7041015625,-3.7841796875,-0.732421875,1.77001953125,-0.318603515625,44.82421875,-53.9373779296875
1760967666.5590525,-0.71484375,-0.00634765625,0.7041015625,-3.7841796875,-0.732421875,1.77001953125,-0.3350830078125,44.8187255859375,-53.9154052734375
1760967666.5690033,-0.7138671875,-0.00537109375,0.69482421875,-4.638671875,-0.54931640625,1.89208984375,-0.362548828125,44.8187255859375,-53.8934326171875
1760967666.5788915,-0.7138671875,-0.00537109375,0.69482421875,-4.638671875,-0.54931640625,1.89208984375,-0.3900146484375,44.8187255859375,-53.865966796875
1760967666.5893734,-0.71337890625,-0.00341796875,0.70556640625,-5.79833984375,-0.42724609375,1.953125,-0.428466796875,44.8187255859375,-53.843994140625
1760967666.5991144,-0.71337890625,-0.00341796875,0.70556640625,-5.79833984375,-0.42724609375,1.953125,-0.4669189453125,44.8187255859375,-53.8165283203125
1760967666.609044,-0.705078125,-0.0146484375,0.72216796875,-3.7841796875,-0.732421875,2.0751953125,-0.4833984375,44.813232421875,-53.7890625
1760967666.6196775,-0.705078125,-0.0146484375,0.72216796875,-3.7841796875,-0.732421875,2.0751953125,-0.4998779296875,44.8077392578125,-53.76708984375
1760967666.6292856,-0.7041015625,-0.01708984375,0.7099609375,-2.8076171875,-0.9765625,1.8310546875,-0.5108642578125,44.80224609375,-53.7451171875
1760967666.6390162,-0.7041015625,-0.01708984375,0.7099609375,-2.8076171875,-0.9765625,1.8310546875,-0.5218505859375,44.7967529296875,-53.7176513671875
1760967666.6495728,-0.70751953125,-0.00634765625,0.71240234375,-2.197265625,-1.220703125,1.5869140625,-0.52734375,44.7857666015625,-53.701171875
1760967666.6590278,-0.70751953125,-0.00634765625,0.71240234375,-2.197265625,-1.220703125,1.5869140625,-0.5328369140625,44.7747802734375,-53.67919921875
1760967666.669085,-0.70751953125,-0.00634765625,0.71240234375,-2.86865234375,-1.220703125,1.220703125,-0.54931640625,44.7637939453125,-53.668212890625
1760967666.6795967,-0.71240234375,0.0029296875,0.708984375,-2.86865234375,-1.220703125,1.220703125,-0.5657958984375,44.75830078125,-53.6517333984375
1760967666.6892369,-0.71923828125,0.005859375,0.69921875,-3.11279296875,-1.220703125,1.03759765625,-0.582275390625,44.747314453125,-53.6407470703125
1760967666.6990237,-0.71923828125,0.005859375,0.69921875,-3.11279296875,-1.220703125,1.03759765625,-0.604248046875,44.736328125,-53.624267578125
1760967666.7164388,-0.71826171875,-0.017578125,0.70849609375,-2.99072265625,-1.28173828125,0.79345703125,-0.626220703125,44.725341796875,-53.6187744140625
1760967666.7234855,-0.71826171875,-0.017578125,0.70849609375,-2.99072265625,-1.28173828125,0.79345703125,-0.6427001953125,44.7198486328125,-53.6077880859375
1760967666.7298908,-0.71875,-0.01123046875,0.68408203125,-0.54931640625,-1.46484375,0.30517578125,-0.648193359375,44.7088623046875,-53.6077880859375
1760967666.7395344,-0.71875,-0.01123046875,0.68408203125,-0.54931640625,-1.46484375,0.30517578125,-0.648193359375,44.6978759765625,-53.602294921875
1760967666.7495587,-0.71875,-0.01171875,0.701171875,2.38037109375,-1.5869140625,-0.06103515625,-0.626220703125,44.6868896484375,-53.6077880859375
1760967666.76324,-0.71875,-0.01171875,0.701171875,2.38037109375,-1.5869140625,-0.06103515625,-0.5987548828125,44.6759033203125,-53.61328125
1760967666.7697153,-0.71435546875,-0.00146484375,0.71728515625,0.91552734375,-1.40380859375,-0.244140625,-0.59326171875,44.6649169921875,-53.624267578125
1760967666.779081,-0.71435546875,-0.00146484375,0.71728515625,0.91552734375,-1.40380859375,-0.244140625,-0.5877685546875,44.659423828125,-53.6297607421875
1760967666.795962,-0.7138671875,0.0,0.71826171875,-1.708984375,-0.91552734375,-0.1220703125,-0.604248046875,44.6539306640625,-53.63525390625
1760967666.8030522,-0.7138671875,0.0,0.71826171875,-1.708984375,-0.91552734375,-0.1220703125,-0.6207275390625,44.6484375,-53.63525390625
1760967666.809744,-0.712890625,0.00146484375,0.68408203125,-3.47900390625,-0.9765625,-0.06103515625,-0.6536865234375,44.6429443359375,-53.6407470703125
1760967666.8192916,-0.712890625,0.00146484375,0.68408203125,-3.47900390625,-0.9765625,-0.06103515625,-0.6866455078125,44.637451171875,-53.6407470703125
1760967666.8339853,-0.71728515625,-0.0283203125,0.7197265625,-2.197265625,-0.79345703125,-0.06103515625,-0.7086181640625,44.6319580078125,-53.646240234375
1760967666.8402061,-0.71728515625,-0.0283203125,0.7197265625,-2.197265625,-0.79345703125,-0.06103515625,-0.7305908203125,44.6319580078125,-53.6517333984375
1760967666.8492491,-0.6982421875,-0.01513671875,0.70556640625,0.30517578125,-0.732421875,-0.18310546875,-0.7305908203125,44.62646484375,-53.6572265625
1760967666.8681,-0.6982421875,-0.01513671875,0.70556640625,0.30517578125,-0.732421875,-0.18310546875,-0.7305908203125,44.6209716796875,-53.6627197265625
1760967666.8767464,-0.70751953125,-0.009765625,0.73779296875,0.48828125,-0.67138671875,-0.1220703125,-0.72509765625,44.6209716796875,-53.668212890625
1760967666.8847902,-0.70751953125,-0.009765625,0.73779296875,0.48828125,-0.67138671875,-0.1220703125,-0.72509765625,44.615478515625,-53.6737060546875
1760967666.8917878,-0.69677734375,-0.009765625,0.71337890625,-1.5869140625,-0.42724609375,0.18310546875,-0.736083984375,44.6099853515625,-53.67919921875
1760967666.899622,-0.69677734375,-0.009765625,0.71337890625,-1.5869140625,-0.42724609375,0.18310546875,-0.7525634765625,44.6099853515625,-53.67919921875
1760967666.9120977,-0.6962890625,-0.00927734375,0.716796875,-1.8310546875,-0.48828125,0.244140625,-0.76904296875,44.6044921875,-53.67919921875
1760967666.920328,-0.6962890625,-0.00927734375,0.716796875,-1.8310546875,-0.48828125,0.244140625,-0.7855224609375,44.5989990234375,-53.67919921875
1760967666.9423409,-0.6962890625,-0.01123046875,0.71923828125,-0.67138671875,-0.732421875,0.06103515625,-0.791015625,44.593505859375,-53.67919921875
1760967666.9534016,-0.6962890625,-0.01123046875,0.71923828125,-0.67138671875,-0.732421875,0.06103515625,-0.7965087890625,44.5880126953125,-53.67919921875
1760967666.959913,-0.69775390625,-0.02099609375,0.72216796875,-0.244140625,-0.9765625,0.0,-0.7965087890625,44.5770263671875,-53.6846923828125
1760967666.9744225,-0.69775390625,-0.02099609375,0.72216796875,-0.244140625,-0.9765625,0.0,-0.802001953125,44.5660400390625,-53.690185546875
1760967666.9835553,-0.70166015625,-0.00341796875,0.71142578125,0.1220703125,-1.15966796875,-0.1220703125,-0.802001953125,44.5550537109375,-53.690185546875
1760967666.99238,-0.70166015625,-0.00341796875,0.71142578125,0.1220703125,-1.15966796875,-0.1220703125,-0.802001953125,44.5440673828125,-53.6956787109375
1760967667.0007455,-0.7060546875,-0.00048828125,0.71826171875,-0.732421875,-1.28173828125,-0.6103515625,-0.81298828125,44.527587890625,-53.7066650390625
1760967667.0145175,-0.7060546875,-0.00048828125,0.71826171875,-0.732421875,-1.28173828125,-0.6103515625,-0.8294677734375,44.5166015625,-53.7176513671875
1760967667.0216367,-0.7109375,-0.00439453125,0.7119140625,-0.67138671875,-1.40380859375,-0.79345703125,-0.8404541015625,44.505615234375,-53.7286376953125
1760967667.0281858,-0.7177734375,-0.01513671875,0.69482421875,-0.06103515625,-1.3427734375,-1.220703125,-0.8514404296875,44.4891357421875,-53.7451171875
1760967667.0343962,-0.7177734375,-0.01513671875,0.69482421875,-0.06103515625,-1.3427734375,-1.220703125,-0.8624267578125,44.4781494140625,-53.7615966796875
1760967667.0411956,-0.71728515625,-0.00732421875,0.71142578125,-0.18310546875,-1.220703125,-1.52587890625,-0.87890625,44.4671630859375,-53.7835693359375
1760967667.0613103,-0.71728515625,-0.00732421875,0.71142578125,-0.18310546875,-1.220703125,-1.52587890625,-0.8953857421875,44.4561767578125,-53.8055419921875
1760967667.070014,-0.7099609375,-0.00830078125,0.71728515625,-0.67138671875,-1.0986328125,-1.8310546875,-0.911865234375,44.45068359375,-53.8330078125
1760967667.0778112,-0.7099609375,-0.00830078125,0.71728515625,-0.67138671875,-1.0986328125,-1.8310546875,-0.933837890625,44.439697265625,-53.8604736328125
1760967667.0868356,-0.70849609375,-0.0087890625,0.69921875,0.30517578125,-1.03759765625,-1.89208984375,-0.955810546875,44.4287109375,-53.887939453125
1760967667.1018584,-0.70849609375,-0.0087890625,0.69921875,0.30517578125,-1.03759765625,-1.89208984375,-0.966796875,44.4232177734375,-53.9154052734375
1760967667.1091213,-0.71484375,-0.02294921875,0.70263671875,-0.06103515625,-1.03759765625,-1.708984375,-0.9832763671875,44.417724609375,-53.94287109375
1760967667.1175218,-0.71484375,-0.02294921875,0.70263671875,-0.06103515625,-1.03759765625,-1.708984375,-0.999755859375,44.40673828125,-53.96484375
1760967667.1239183,-0.7119140625,-0.02490234375,0.7158203125,0.1220703125,-0.91552734375,-1.52587890625,-1.0162353515625,44.4012451171875,-53.9923095703125
1760967667.1302497,-0.7119140625,-0.02490234375,0.7158203125,0.1220703125,-0.91552734375,-1.52587890625,-1.0272216796875,44.395751953125,-54.019775390625
1760967667.1569755,-0.701171875,-0.0224609375,0.70947265625,2.44140625,-0.8544921875,-1.46484375,-1.03271484375,44.3902587890625,-54.041748046875
1760967667.1634834,-0.701171875,-0.0224609375,0.70947265625,2.44140625,-0.8544921875,-1.46484375,-1.021728515625,44.384765625,-54.0692138671875
1760967667.1699555,-0.69970703125,-0.009765625,0.72607421875,2.3193359375,-1.03759765625,-1.64794921875,-1.0162353515625,44.3792724609375,-54.0966796875
1760967667.176505,-0.69970703125,-0.009765625,0.72607421875,2.3193359375,-1.03759765625,-1.64794921875,-1.0052490234375,44.373779296875,-54.1241455078125
1760967667.1832232,-0.701171875,0.00732421875,0.7197265625,1.03759765625,-1.0986328125,-2.01416015625,-1.0107421875,44.36279296875,-54.151611328125
1760967667.1932719,-0.701171875,0.00732421875,0.7197265625,1.03759765625,-1.0986328125,-2.01416015625,-1.0162353515625,44.351806640625,-54.1790771484375
1760967667.1999142,-0.701171875,0.00732421875,0.7197265625,-1.220703125,-0.9765625,-2.197265625,-1.0382080078125,44.3463134765625,-54.2120361328125
1760967667.209805,-0.70166015625,-0.00830078125,0.71484375,-1.220703125,-0.9765625,-2.197265625,-1.0711669921875,44.3353271484375,-54.239501953125
1760967667.22031,-0.70166015625,-0.0234375,0.73095703125,-2.0751953125,-0.91552734375,-2.0751953125,-1.1041259765625,44.329833984375,-54.2724609375
1760967667.2309587,-0.70166015625,-0.0234375,0.73095703125,-2.0751953125,-0.91552734375,-2.0751953125,-1.142578125,44.31884765625,-54.2999267578125
1760967667.2399528,-0.69873046875,-0.02392578125,0.70751953125,-1.03759765625,-0.91552734375,-1.953125,-1.1810302734375,44.3133544921875,-54.327392578125
1760967667.2503016,-0.69873046875,-0.02392578125,0.70751953125,-1.03759765625,-0.91552734375,-1.953125,-1.20849609375,44.3023681640625,-54.3603515625
1760967667.260161,-0.7080078125,-0.025390625,0.71435546875,-1.5869140625,-0.8544921875,-1.64794921875,-1.2359619140625,44.296875,-54.38232421875
1760967667.27031,-0.7080078125,-0.025390625,0.71435546875,-1.5869140625,-0.8544921875,-1.64794921875,-1.2689208984375,44.285888671875,-54.4097900390625
1760967667.283287,-0.7060546875,-0.01904296875,0.70556640625,-1.64794921875,-0.732421875,-1.52587890625,-1.3018798828125,44.2803955078125,-54.437255859375
1760967667.2910879,-0.7060546875,-0.01904296875,0.70556640625,-1.64794921875,-0.732421875,-1.52587890625,-1.3348388671875,44.27490234375,-54.459228515625
1760967667.2997901,-0.701171875,-0.02294921875,0.72216796875,-1.46484375,-0.6103515625,-1.3427734375,-1.3623046875,44.2694091796875,-54.481201171875
1760967667.310502,-0.701171875,-0.02294921875,0.72216796875,-1.46484375,-0.6103515625,-1.3427734375,-1.3897705078125,44.263916015625,-54.503173828125
1760967667.3197246,-0.68896484375,-0.02783203125,0.7314453125,-1.03759765625,-0.6103515625,-1.15966796875,-1.417236328125,44.2584228515625,-54.525146484375
1760967667.330915,-0.68896484375,-0.02783203125,0.7314453125,-1.03759765625,-0.6103515625,-1.15966796875,-1.439208984375,44.2529296875,-54.5416259765625
1760967667.356879,-0.6767578125,-0.029296875,0.7353515625,0.06103515625,-0.6103515625,-1.0986328125,-1.4556884765625,44.2474365234375,-54.55810546875
1760967667.3639517,-0.6767578125,-0.029296875,0.7353515625,0.06103515625,-0.6103515625,-1.0986328125,-1.4666748046875,44.241943359375,-54.580078125
1760967667.3874052,-0.67626953125,-0.02197265625,0.7509765625,0.67138671875,-0.79345703125,-1.28173828125,-1.47216796875,44.23095703125,-54.5965576171875
1760967667.3946424,-0.67626953125,-0.02197265625,0.7509765625,0.67138671875,-0.79345703125,-1.28173828125,-1.483154296875,44.219970703125,-54.613037109375
1760967667.4126282,-0.64013671875,-0.00390625,0.7509765625,0.6103515625,-0.9765625,-2.01416015625,-1.494140625,44.208984375,-54.6405029296875
1760967667.4197881,-0.64013671875,-0.00390625,0.7509765625,0.6103515625,-0.9765625,-2.01416015625,-1.505126953125,44.1925048828125,-54.66796875
1760967667.4315207,-0.66650390625,-0.00244140625,0.806640625,-2.3193359375,-0.91552734375,-1.77001953125,-1.5325927734375,44.176025390625,-54.68994140625
1760967667.440486,-0.66650390625,-0.00244140625,0.806640625,-2.3193359375,-0.91552734375,-1.77001953125,-1.571044921875,44.154052734375,-54.7064208984375
1760967667.4469767,-0.66796875,-0.0126953125,0.7314453125,-4.45556640625,-1.03759765625,-2.01416015625,-1.6204833984375,44.132080078125,-54.7283935546875
1760967667.4536452,-0.66796875,-0.0126953125,0.7314453125,-4.45556640625,-1.03759765625,-2.01416015625,-1.680908203125,44.1156005859375,-54.7503662109375
1760967667.4597507,-0.68896484375,-0.0400390625,0.7265625,-3.41796875,-0.91552734375,-2.0751953125,-1.73583984375,44.0936279296875,-54.7723388671875
1760967667.4674473,-0.68896484375,-0.0400390625,0.7265625,-3.41796875,-0.91552734375,-2.0751953125,-1.7852783203125,44.0716552734375,-54.7943115234375
1760967667.474629,-0.67919921875,-0.02685546875,0.7333984375,-2.99072265625,-1.0986328125,-1.953125,-1.834716796875,44.05517578125,-54.82177734375
1760967667.481749,-0.67919921875,-0.02685546875,0.7333984375,-2.99072265625,-1.0986328125,-1.953125,-1.8841552734375,44.033203125,-54.84375
1760967667.4943714,-0.67822265625,-0.0341796875,0.72900390625,-0.732421875,-1.3427734375,-2.3193359375,-1.922607421875,44.01123046875,-54.86572265625
1760967667.501342,-0.67822265625,-0.0341796875,0.72900390625,-0.732421875,-1.3427734375,-2.3193359375,-1.9500732421875,43.9892578125,-54.898681640625
1760967667.507736,-0.6904296875,-0.02734375,0.75146484375,1.40380859375,-1.28173828125,-2.44140625,-1.966552734375,43.96728515625,-54.9261474609375
1760967667.526877,-0.6904296875,-0.02734375,0.75146484375,1.40380859375,-1.28173828125,-2.44140625,-1.9720458984375,43.9453125,-54.95361328125
1760967667.5460982,-0.697265625,-0.02392578125,0.712890625,2.38037109375,-0.8544921875,-2.50244140625,-1.9775390625,43.9288330078125,-54.986572265625
1760967667.552354,-0.697265625,-0.02392578125,0.712890625,2.38037109375,-0.8544921875,-2.50244140625,-1.9775390625,43.912353515625,-55.01953125
1760967667.5794508,-0.708984375,-0.02392578125,0.70751953125,2.685546875,-0.54931640625,-2.9296875,-1.9775390625,43.8958740234375,-55.052490234375
1760967667.5939844,-0.708984375,-0.02392578125,0.70751953125,2.685546875,-0.54931640625,-2.9296875,-1.9775390625,43.890380859375,-55.0909423828125
1760967667.606501,-0.70458984375,-0.01953125,0.71240234375,1.220703125,-0.30517578125,-2.99072265625,-1.988525390625,43.87939453125,-55.1348876953125
1760967667.6288378,-0.70458984375,-0.01953125,0.71240234375,1.220703125,-0.30517578125,-2.99072265625,-1.99951171875,43.8739013671875,-55.17333984375
1760967667.643493,-0.69482421875,-0.03759765625,0.7216796875,1.220703125,0.0,-3.11279296875,-2.0159912109375,43.868408203125,-55.2117919921875
1760967667.6509857,-0.69482421875,-0.03759765625,0.7216796875,1.220703125,0.0,-3.11279296875,-2.0379638671875,43.868408203125,-55.2557373046875
1760967667.6570292,-0.703125,-0.03173828125,0.724609375,1.5869140625,0.244140625,-3.0517578125,-2.0489501953125,43.8629150390625,-55.2996826171875
1760967667.6734188,-0.703125,-0.03173828125,0.724609375,1.5869140625,0.244140625,-3.0517578125,-2.0654296875,43.868408203125,-55.3436279296875
1760967667.680099,-0.69677734375,-0.02685546875,0.72021484375,0.48828125,0.54931640625,-2.99072265625,-2.0819091796875,43.868408203125,-55.382080078125
1760967667.686811,-0.69677734375,-0.02685546875,0.72021484375,0.48828125,0.54931640625,-2.99072265625,-2.109375,43.8739013671875,-55.426025390625
1760967667.6932163,-0.70166015625,-0.0380859375,0.71533203125,-0.91552734375,0.79345703125,-2.74658203125,-2.1368408203125,43.87939453125,-55.4644775390625
1760967667.7015564,-0.70166015625,-0.0380859375,0.71533203125,-0.91552734375,0.79345703125,-2.74658203125,-2.17529296875,43.8848876953125,-55.5029296875
1760967667.7077982,-0.69970703125,-0.03759765625,0.7216796875,-0.42724609375,1.0986328125,-2.685546875,-2.208251953125,43.890380859375,-55.546875
1760967667.7192056,-0.69970703125,-0.03759765625,0.7216796875,-0.42724609375,1.0986328125,-2.685546875,-2.2412109375,43.9013671875,-55.5853271484375
1760967667.7256796,-0.69482421875,-0.0322265625,0.716796875,-0.18310546875,1.46484375,-2.74658203125,-2.2686767578125,43.912353515625,-55.623779296875
1760967667.7320836,-0.69482421875,-0.0322265625,0.716796875,-0.18310546875,1.46484375,-2.74658203125,-2.3016357421875,43.9288330078125,-55.667724609375
1760967667.7386591,-0.6953125,-0.0322265625,0.72998046875,2.8076171875,1.52587890625,-2.99072265625,-2.318115234375,43.9398193359375,-55.7061767578125
1760967667.752646,-0.6953125,-0.0322265625,0.72998046875,2.8076171875,1.52587890625,-2.99072265625,-2.318115234375,43.956298828125,-55.7501220703125
1760967667.759997,-0.70166015625,-0.0302734375,0.724609375,6.65283203125,1.15966796875,-3.5400390625,-2.3016357421875,43.96728515625,-55.799560546875
1760967667.7666736,-0.70166015625,-0.0302734375,0.724609375,6.65283203125,1.15966796875,-3.5400390625,-2.274169921875,43.978271484375,-55.8544921875
1760967667.7730944,-0.7060546875,-0.03076171875,0.7080078125,7.62939453125,0.67138671875,-4.21142578125,-2.2412109375,43.9837646484375,-55.909423828125
1760967667.7793283,-0.7060546875,-0.03076171875,0.7080078125,7.62939453125,0.67138671875,-4.21142578125,-2.208251953125,43.9892578125,-55.9698486328125
1760967667.7863753,-0.71337890625,-0.01513671875,0.70703125,6.77490234375,0.244140625,-4.82177734375,-2.1807861328125,43.9947509765625,-56.0302734375
1760967667.799679,-0.71337890625,-0.01513671875,0.70703125,6.77490234375,0.244140625,-4.82177734375,-2.1588134765625,43.9947509765625,-56.1016845703125
1760967667.8072908,-0.72021484375,-0.00634765625,0.712890625,3.11279296875,0.06103515625,-5.06591796875,-2.1588134765625,43.9947509765625,-56.1676025390625
1760967667.8135152,-0.72021484375,-0.00634765625,0.712890625,3.11279296875,0.06103515625,-5.06591796875,-2.17529296875,44.000244140625,-56.239013671875
1760967667.8212252,-0.734375,-0.0224609375,0.6767578125,1.52587890625,0.30517578125,-5.0048828125,-2.197265625,44.000244140625,-56.304931640625
1760967667.8278759,-0.734375,-0.0224609375,0.6767578125,1.52587890625,0.30517578125,-5.0048828125,-2.230224609375,44.0057373046875,-56.370849609375
1760967667.8419046,-0.73779296875,-0.0634765625,0.68017578125,3.60107421875,0.79345703125,-4.7607421875,-2.252197265625,44.0167236328125,-56.4422607421875
1760967667.8494751,-0.73779296875,-0.0634765625,0.68017578125,3.60107421875,0.79345703125,-4.7607421875,-2.26318359375,44.033203125,-56.5081787109375
1760967667.8560019,-0.72216796875,-0.07177734375,0.69384765625,7.87353515625,1.28173828125,-4.39453125,-2.252197265625,44.0496826171875,-56.57958984375
1760967667.8631442,-0.72216796875,-0.07177734375,0.69384765625,7.87353515625,1.28173828125,-4.39453125,-2.21923828125,44.066162109375,-56.6455078125
1760967667.8694959,-0.70751953125,-0.0390625,0.701171875,11.16943359375,1.52587890625,-4.39453125,-2.1697998046875,44.088134765625,-56.71142578125
1760967667.8761253,-0.70751953125,-0.0390625,0.701171875,11.16943359375,1.52587890625,-4.39453125,-2.109375,44.110107421875,-56.7828369140625
1760967667.8826163,-0.7021484375,-0.01123046875,0.73046875,9.521484375,1.52587890625,-4.39453125,-2.054443359375,44.132080078125,-56.854248046875
1760967667.8977234,-0.7021484375,-0.01123046875,0.73046875,9.521484375,1.52587890625,-4.39453125,-2.0050048828125,44.154052734375,-56.920166015625
1760967667.9042294,-0.6962890625,-0.0078125,0.7236328125,5.9814453125,1.64794921875,-4.33349609375,-1.9775390625,44.176025390625,-56.986083984375
1760967667.919308,-0.6962890625,-0.0078125,0.7236328125,5.9814453125,1.64794921875,-4.33349609375,-1.9610595703125,44.1925048828125,-57.052001953125
1760967667.9261236,-0.69140625,-0.02783203125,0.72802734375,4.7607421875,1.46484375,-4.21142578125,-1.95556640625,44.2144775390625,-57.1124267578125
1760967667.932562,-0.69140625,-0.02783203125,0.72802734375,4.7607421875,1.46484375,-4.21142578125,-1.9500732421875,44.23095703125,-57.1728515625
1760967667.9529672,-0.68798828125,-0.0283203125,0.72900390625,6.7138671875,1.28173828125,-4.5166015625,-1.9390869140625,44.241943359375,-57.23876953125
1760967667.960096,-0.68798828125,-0.0283203125,0.72900390625,6.7138671875,1.28173828125,-4.5166015625,-1.9171142578125,44.2584228515625,-57.3046875
1760967667.9693925,-0.68408203125,-0.02197265625,0.73486328125,9.21630859375,1.0986328125,-4.82177734375,-1.8841552734375,44.2694091796875,-57.37060546875
1760967667.9833791,-0.68408203125,-0.02197265625,0.73486328125,9.21630859375,1.0986328125,-4.82177734375,-1.8402099609375,44.27490234375,-57.4365234375
1760967667.9901998,-0.68603515625,-0.02392578125,0.74169921875,7.14111328125,1.03759765625,-5.18798828125,-1.812744140625,44.285888671875,-57.5079345703125
1760967668.0082967,-0.68603515625,-0.02392578125,0.74169921875,7.14111328125,1.03759765625,-5.18798828125,-1.790771484375,44.2913818359375,-57.579345703125
1760967668.0144742,-0.685546875,-0.01806640625,0.73095703125,6.28662109375,1.15966796875,-5.2490234375,-1.7852783203125,44.296875,-57.6507568359375
1760967668.0238996,-0.685546875,-0.01806640625,0.73095703125,6.28662109375,1.15966796875,-5.2490234375,-1.7742919921875,44.307861328125,-57.72216796875
1760967668.0310283,-0.6884765625,-0.01611328125,0.72998046875,4.69970703125,1.220703125,-5.0048828125,-1.7742919921875,44.3133544921875,-57.7880859375
1760967668.044578,-0.6884765625,-0.01611328125,0.72998046875,4.69970703125,1.220703125,-5.0048828125,-1.77978515625,44.31884765625,-57.8594970703125
1760967668.061092,-0.69189453125,-0.0224609375,0.72314453125,3.72314453125,0.9765625,-4.7607421875,-1.790771484375,44.3243408203125,-57.919921875
1760967668.0676863,-0.69189453125,-0.0224609375,0.72314453125,3.72314453125,0.9765625,-4.7607421875,-1.8017578125,44.329833984375,-57.98583984375
1760967668.0744708,-0.69775390625,-0.03515625,0.71484375,1.8310546875,0.79345703125,-4.21142578125,-1.82373046875,44.329833984375,-58.040771484375
1760967668.0813816,-0.69775390625,-0.03515625,0.71484375,1.8310546875,0.79345703125,-4.21142578125,-1.845703125,44.3353271484375,-58.095703125
1760967668.0970216,-0.7080078125,-0.04833984375,0.71728515625,0.67138671875,0.79345703125,-3.72314453125,-1.878662109375,44.3408203125,-58.150634765625
1760967668.1039057,-0.7080078125,-0.04833984375,0.71728515625,0.67138671875,0.79345703125,-3.72314453125,-1.91162109375,44.3463134765625,-58.2000732421875
1760967668.1141121,-0.716796875,-0.02978515625,0.6875,-0.18310546875,0.9765625,-3.2958984375,-1.9500732421875,44.351806640625,-58.24951171875
1760967668.120209,-0.716796875,-0.02978515625,0.6875,-0.18310546875,0.9765625,-3.2958984375,-1.9830322265625,44.3572998046875,-58.29345703125
1760967668.134329,-0.7119140625,-0.00732421875,0.7099609375,0.48828125,0.79345703125,-3.35693359375,-2.0159912109375,44.3682861328125,-58.3428955078125
1760967668.1407177,-0.7119140625,-0.00732421875,0.7099609375,0.48828125,0.79345703125,-3.35693359375,-2.04345703125,44.373779296875,-58.392333984375
1760967668.1580794,-0.70849609375,-0.02392578125,0.7138671875,-1.28173828125,0.6103515625,-3.11279296875,-2.08740234375,44.3792724609375,-58.4307861328125
1760967668.1646566,-0.70849609375,-0.02392578125,0.7138671875,-1.28173828125,0.6103515625,-3.11279296875,-2.13134765625,44.384765625,-58.4747314453125
1760967668.1740494,-0.69580078125,-0.03564453125,0.71875,-1.64794921875,0.30517578125,-2.99072265625,-2.17529296875,44.3902587890625,-58.51318359375
1760967668.1813908,-0.69580078125,-0.03564453125,0.71875,-1.64794921875,0.30517578125,-2.99072265625,-2.21923828125,44.3902587890625,-58.55712890625
1760967668.1950414,-0.71240234375,-0.04052734375,0.71435546875,-3.662109375,0.42724609375,-2.62451171875,-2.2796630859375,44.395751953125,-58.590087890625
1760967668.202274,-0.71240234375,-0.04052734375,0.71435546875,-3.662109375,0.42724609375,-2.62451171875,-2.3455810546875,44.4012451171875,-58.6285400390625
1760967668.2183907,-0.71240234375,-0.04052734375,0.71435546875,-2.685546875,0.3662109375,-2.50244140625,-2.39501953125,44.4012451171875,-58.6614990234375
1760967668.225247,-0.71533203125,-0.0224609375,0.68505859375,-2.685546875,0.3662109375,-2.50244140625,-2.4444580078125,44.40673828125,-58.6944580078125
1760967668.2325325,-0.72265625,-0.0517578125,0.7138671875,0.48828125,0.67138671875,-2.25830078125,-2.4664306640625,44.417724609375,-58.7274169921875
1760967668.2490497,-0.72265625,-0.0517578125,0.7138671875,0.48828125,0.67138671875,-2.25830078125,-2.48291015625,44.4232177734375,-58.7603759765625
1760967668.2556317,-0.728515625,-0.05126953125,0.697265625,0.18310546875,1.0986328125,-1.708984375,-2.4993896484375,44.439697265625,-58.787841796875
1760967668.2720091,-0.728515625,-0.05126953125,0.697265625,0.18310546875,1.0986328125,-1.708984375,-2.515869140625,44.45068359375,-58.809814453125
1760967668.27866,-0.72998046875,-0.02880859375,0.67626953125,0.91552734375,1.3427734375,-1.46484375,-2.52685546875,44.47265625,-58.8372802734375
1760967668.290436,-0.72998046875,-0.02880859375,0.67626953125,0.91552734375,1.3427734375,-1.46484375,-2.5323486328125,44.4891357421875,-58.8592529296875
1760967668.304863,-0.724609375,-0.02880859375,0.70068359375,0.732421875,1.3427734375,-1.40380859375,-2.5433349609375,44.5111083984375,-58.8812255859375
1760967668.310936,-0.724609375,-0.02880859375,0.70068359375,0.732421875,1.3427734375,-1.40380859375,-2.548828125,44.527587890625,-58.9031982421875
1760967668.320535,-0.716796875,-0.0419921875,0.70703125,1.28173828125,1.52587890625,-1.28173828125,-2.548828125,44.549560546875,-58.9251708984375
1760967668.3270624,-0.716796875,-0.0419921875,0.70703125,1.28173828125,1.52587890625,-1.28173828125,-2.5543212890625,44.571533203125,-58.941650390625
1760967668.3413196,-0.7177734375,-0.05615234375,0.697265625,2.50244140625,1.5869140625,-0.79345703125,-2.537841796875,44.593505859375,-58.9581298828125
1760967668.3577385,-0.7177734375,-0.05615234375,0.697265625,2.50244140625,1.5869140625,-0.79345703125,-2.52685546875,44.6099853515625,-58.974609375
1760967668.3654184,-0.7216796875,-0.0341796875,0.68994140625,2.25830078125,1.5869140625,-0.48828125,-2.515869140625,44.6319580078125,-58.985595703125
1760967668.3717508,-0.7216796875,-0.0341796875,0.68994140625,2.25830078125,1.5869140625,-0.48828125,-2.4993896484375,44.6539306640625,-58.99658203125
1760967668.3875027,-0.71923828125,-0.0283203125,0.69873046875,2.38037109375,1.52587890625,-0.3662109375,-2.48291015625,44.6759033203125,-59.007568359375
1760967668.3945515,-0.71923828125,-0.0283203125,0.69873046875,2.38037109375,1.52587890625,-0.3662109375,-2.4664306640625,44.6978759765625,-59.0185546875
1760967668.4112446,-0.71044921875,-0.037109375,0.71240234375,2.01416015625,1.3427734375,-0.18310546875,-2.449951171875,44.7198486328125,-59.0240478515625
1760967668.4180045,-0.71044921875,-0.037109375,0.71240234375,2.01416015625,1.3427734375,-0.18310546875,-2.43896484375,44.736328125,-59.029541015625
1760967668.4355695,-0.6923828125,-0.033203125,0.703125,2.99072265625,0.8544921875,-0.1220703125,-2.4114990234375,44.747314453125,-59.0350341796875
1760967668.4421103,-0.6923828125,-0.033203125,0.703125,2.99072265625,0.8544921875,-0.1220703125,-2.3895263671875,44.7637939453125,-59.04052734375
1760967668.449354,-0.70849609375,-0.03662109375,0.71826171875,2.0751953125,0.6103515625,0.06103515625,-2.3675537109375,44.769287109375,-59.0460205078125
1760967668.4580417,-0.70849609375,-0.03662109375,0.71826171875,2.0751953125,0.6103515625,0.06103515625,-2.35107421875,44.7802734375,-59.0460205078125
1760967668.4647806,-0.70849609375,-0.033203125,0.70849609375,1.28173828125,0.3662109375,0.30517578125,-2.340087890625,44.7857666015625,-59.0460205078125
1760967668.4804268,-0.70849609375,-0.033203125,0.70849609375,1.28173828125,0.3662109375,0.30517578125,-2.3291015625,44.791259765625,-59.04052734375
1760967668.4871228,-0.70166015625,-0.03466796875,0.71630859375,2.9296875,0.1220703125,0.30517578125,-2.296142578125,44.7967529296875,-59.04052734375
1760967668.4932418,-0.70166015625,-0.03466796875,0.71630859375,2.9296875,0.1220703125,0.30517578125,-2.2686767578125,44.7967529296875,-59.0350341796875
1760967668.5035434,-0.69287109375,-0.0322265625,0.7314453125,4.08935546875,-0.06103515625,0.30517578125,-2.230224609375,44.7967529296875,-59.0350341796875
1760967668.517545,-0.69287109375,-0.0322265625,0.7314453125,4.08935546875,-0.06103515625,0.30517578125,-2.186279296875,44.7967529296875,-59.029541015625
1760967668.5257967,-0.697265625,-0.02294921875,0.72265625,2.38037109375,-0.06103515625,0.42724609375,-2.164306640625,44.7967529296875,-59.0240478515625
1760967668.5349798,-0.697265625,-0.02294921875,0.72265625,2.38037109375,-0.06103515625,0.42724609375,-2.1368408203125,44.7967529296875,-59.0185546875
1760967668.5414186,-0.7080078125,-0.0166015625,0.71630859375,-0.3662109375,-0.1220703125,0.48828125,-2.142333984375,44.791259765625,-59.0130615234375
1760967668.5553734,-0.7080078125,-0.0166015625,0.71630859375,-0.3662109375,-0.1220703125,0.48828125,-2.142333984375,44.791259765625,-59.0020751953125
1760967668.5618448,-0.7138671875,-0.02587890625,0.708984375,-2.5634765625,0.06103515625,0.54931640625,-2.164306640625,44.791259765625,-58.99658203125
1760967668.580095,-0.7138671875,-0.02587890625,0.708984375,-2.5634765625,0.06103515625,0.54931640625,-2.1807861328125,44.791259765625,-58.985595703125
1760967668.5957239,-0.7060546875,-0.033203125,0.71337890625,-2.86865234375,0.244140625,0.54931640625,-2.208251953125,44.791259765625,-58.9801025390625
1760967668.6025321,-0.7060546875,-0.033203125,0.71337890625,-2.86865234375,0.244140625,0.54931640625,-2.230224609375,44.7967529296875,-58.9691162109375
1760967668.611491,-0.6953125,-0.02880859375,0.720703125,-1.708984375,0.18310546875,0.3662109375,-2.2467041015625,44.7967529296875,-58.963623046875
1760967668.6406457,-0.6953125,-0.02880859375,0.720703125,-1.708984375,0.18310546875,0.3662109375,-2.2576904296875,44.7967529296875,-58.9581298828125
1760967668.6476278,-0.69921875,-0.02294921875,0.7236328125,-1.28173828125,-0.18310546875,0.18310546875,-2.2686767578125,44.7967529296875,-58.95263671875
1760967668.6743631,-0.69921875,-0.02294921875,0.7236328125,-1.28173828125,-0.18310546875,0.18310546875,-2.2796630859375,44.791259765625,-58.9471435546875
1760967668.6823745,-0.70703125,-0.0302734375,0.69921875,-2.0751953125,-0.3662109375,0.30517578125,-2.3016357421875,44.7857666015625,-58.941650390625
1760967668.6905503,-0.70703125,-0.0302734375,0.69921875,-2.0751953125,-0.3662109375,0.30517578125,-2.318115234375,44.7802734375,-58.9361572265625
1760967668.6982505,-0.7041015625,-0.041015625,0.7275390625,-0.91552734375,-0.54931640625,0.3662109375,-2.3236083984375,44.7747802734375,-58.9306640625
1760967668.7216263,-0.7041015625,-0.041015625,0.7275390625,-0.91552734375,-0.54931640625,0.3662109375,-2.3291015625,44.769287109375,-58.9251708984375
1760967668.7288458,-0.69580078125,-0.03515625,0.7236328125,0.06103515625,-0.42724609375,0.48828125,-2.3236083984375,44.7637939453125,-58.9141845703125
1760967668.7547534,-0.69580078125,-0.03515625,0.7236328125,0.06103515625,-0.42724609375,0.48828125,-2.318115234375,44.7528076171875,-58.90869140625
1760967668.763552,-0.6953125,-0.01953125,0.72119140625,0.54931640625,-0.42724609375,0.3662109375,-2.3126220703125,44.747314453125,-58.897705078125
1760967668.771237,-0.6953125,-0.01953125,0.72119140625,0.54931640625,-0.42724609375,0.3662109375,-2.3016357421875,44.7418212890625,-58.8922119140625
1760967668.7792563,-0.68896484375,-0.02490234375,0.72265625,0.0,-0.6103515625,0.18310546875,-2.3016357421875,44.7308349609375,-58.88671875
1760967668.7873921,-0.68896484375,-0.02490234375,0.72265625,0.0,-0.6103515625,0.18310546875,-2.296142578125,44.725341796875,-58.8812255859375
1760967668.794073,-0.69775390625,-0.03662109375,0.73291015625,-0.9765625,-0.6103515625,0.30517578125,-2.30712890625,44.71435546875,-58.8702392578125
1760967668.8007972,-0.69775390625,-0.03662109375,0.73291015625,-0.9765625,-0.6103515625,0.30517578125,-2.3126220703125,44.703369140625,-58.86474609375
1760967668.8071222,-0.6962890625,-0.03369140625,0.708984375,0.18310546875,-0.79345703125,0.244140625,-2.30712890625,44.6923828125,-58.8592529296875
1760967668.8141747,-0.6962890625,-0.03369140625,0.708984375,0.18310546875,-0.79345703125,0.244140625,-2.3016357421875,44.681396484375,-58.8482666015625
1760967668.8208933,-0.7041015625,-0.0302734375,0.7158203125,0.6103515625,-0.8544921875,0.18310546875,-2.296142578125,44.67041015625,-58.8482666015625
1760967668.8291175,-0.7041015625,-0.0302734375,0.7158203125,0.6103515625,-0.8544921875,0.18310546875,-2.2906494140625,44.659423828125,-58.8427734375
1760967668.836415,-0.70361328125,-0.0244140625,0.71435546875,0.732421875,-0.91552734375,0.06103515625,-2.2796630859375,44.6484375,-58.8372802734375
1760967668.8436856,-0.70361328125,-0.0244140625,0.71435546875,0.732421875,-0.91552734375,0.06103515625,-2.274169921875,44.637451171875,-58.8372802734375
1760967668.8505523,-0.71826171875,-0.03173828125,0.720703125,0.54931640625,-0.79345703125,0.06103515625,-2.2686767578125,44.62646484375,-58.831787109375
1760967668.8583035,-0.71826171875,-0.03173828125,0.720703125,0.54931640625,-0.79345703125,0.06103515625,-2.26318359375,44.615478515625,-58.831787109375
1760967668.8660638,-0.734375,-0.025390625,0.677734375,0.79345703125,-0.42724609375,0.0,-2.2576904296875,44.6099853515625,-58.831787109375
1760967668.8744168,-0.734375,-0.025390625,0.677734375,0.79345703125,-0.42724609375,0.0,-2.2467041015625,44.6099853515625,-58.831787109375
1760967668.8819666,-0.71337890625,-0.02490234375,0.63330078125,1.0986328125,0.0,-0.18310546875,-2.2412109375,44.6099853515625,-58.8372802734375
1760967668.8887386,-0.71337890625,-0.02490234375,0.63330078125,1.0986328125,0.0,-0.18310546875,-2.230224609375,44.615478515625,-58.8372802734375
1760967668.8957498,-0.7001953125,-0.044921875,0.81787109375,3.23486328125,-0.42724609375,0.0,-2.197265625,44.615478515625,-58.8427734375
1760967668.9040203,-0.7001953125,-0.044921875,0.81787109375,3.23486328125,-0.42724609375,0.0,-2.1697998046875,44.6099853515625,-58.8427734375
1760967668.9114254,-0.66748046875,-0.0341796875,0.7138671875,0.06103515625,-0.1220703125,0.30517578125,-2.164306640625,44.6099853515625,-58.8372802734375
1760967668.920421,-0.66748046875,-0.0341796875,0.7138671875,0.06103515625,-0.1220703125,0.30517578125,-2.164306640625,44.6044921875,-58.8372802734375
1760967668.92802,-0.6875,-0.0224609375,0.72802734375,3.11279296875,-0.48828125,0.1220703125,-2.1368408203125,44.5989990234375,-58.831787109375
1760967668.9351397,-0.6875,-0.0224609375,0.72802734375,3.11279296875,-0.48828125,0.1220703125,-2.1038818359375,44.593505859375,-58.831787109375
1760967668.943608,-0.689453125,-0.02294921875,0.74365234375,-0.1220703125,-0.54931640625,0.48828125,-2.1038818359375,44.58251953125,-58.82080078125
1760967668.950853,-0.689453125,-0.02294921875,0.74365234375,-0.1220703125,-0.54931640625,0.48828125,-2.098388671875,44.571533203125,-58.8153076171875
1760967668.9583373,-0.693359375,-0.02490234375,0.7197265625,-0.06103515625,-0.6103515625,0.42724609375,-2.098388671875,44.560546875,-58.8043212890625
1760967668.9662526,-0.69970703125,-0.0341796875,0.70849609375,0.54931640625,-0.67138671875,0.48828125,-2.08740234375,44.5550537109375,-58.798828125
1760967668.9736862,-0.69970703125,-0.0341796875,0.70849609375,0.54931640625,-0.67138671875,0.48828125,-2.0819091796875,44.5440673828125,-58.787841796875
1760967668.9818046,-0.6962890625,-0.02294921875,0.72509765625,1.953125,-0.67138671875,0.244140625,-2.0654296875,44.5330810546875,-58.7823486328125
1760967668.9882739,-0.6962890625,-0.02294921875,0.72509765625,1.953125,-0.67138671875,0.244140625,-2.04345703125,44.5220947265625,-58.77685546875
1760967668.9957993,-0.6962890625,-0.02490234375,0.7294921875,1.64794921875,-0.54931640625,0.244140625,-2.0269775390625,44.5111083984375,-58.7713623046875
1760967669.0022428,-0.6962890625,-0.02490234375,0.7294921875,1.64794921875,-0.54931640625,0.244140625,-2.0050048828125,44.505615234375,-58.765869140625
1760967669.0116875,-0.69677734375,-0.02294921875,0.716796875,1.220703125,-0.6103515625,0.18310546875,-1.9940185546875,44.49462890625,-58.7603759765625
1760967669.0217404,-0.69677734375,-0.02294921875,0.716796875,1.220703125,-0.6103515625,0.18310546875,-1.9775390625,44.483642578125,-58.7603759765625
1760967669.0328941,-0.7001953125,-0.0234375,0.71240234375,0.30517578125,-0.732421875,0.1220703125,-1.9720458984375,44.4781494140625,-58.7548828125
1760967669.0421183,-0.7001953125,-0.0234375,0.71240234375,0.30517578125,-0.732421875,0.1220703125,-1.966552734375,44.4671630859375,-58.7548828125
1760967669.0520966,-0.69482421875,-0.02197265625,0.724609375,0.06103515625,-0.79345703125,0.0,-1.966552734375,44.4561767578125,-58.7493896484375
1760967669.0628936,-0.69482421875,-0.02197265625,0.724609375,0.06103515625,-0.79345703125,0.0,-1.966552734375,44.4451904296875,-58.7493896484375
1760967669.071886,-0.70361328125,-0.03466796875,0.728515625,0.18310546875,-0.732421875,-0.06103515625,-1.9610595703125,44.4342041015625,-58.7493896484375
1760967669.0830235,-0.70361328125,-0.03466796875,0.728515625,0.18310546875,-0.732421875,-0.06103515625,-1.9610595703125,44.4232177734375,-58.7493896484375
1760967669.0981212,-0.70703125,-0.02392578125,0.7041015625,0.0,-0.79345703125,-0.1220703125,-1.9610595703125,44.417724609375,-58.7493896484375
1760967669.1047382,-0.70703125,-0.02392578125,0.7041015625,0.0,-0.79345703125,-0.1220703125,-1.966552734375,44.40673828125,-58.7493896484375
1760967669.1124463,-0.71533203125,-0.0205078125,0.70361328125,-0.67138671875,-0.732421875,-0.1220703125,-1.9720458984375,44.395751953125,-58.7493896484375
1760967669.122868,-0.71533203125,-0.0205078125,0.70361328125,-0.67138671875,-0.732421875,-0.1220703125,-1.9775390625,44.3902587890625,-58.7548828125
1760967669.135284,-0.70947265625,-0.02880859375,0.708984375,-0.30517578125,-0.67138671875,0.0,-1.9830322265625,44.384765625,-58.7548828125
1760967669.1421647,-0.70947265625,-0.02880859375,0.708984375,-0.30517578125,-0.67138671875,0.0,-1.988525390625,44.3792724609375,-58.7548828125
1760967669.1518364,-0.71142578125,-0.03564453125,0.72119140625,0.67138671875,-0.6103515625,0.1220703125,-1.9830322265625,44.373779296875,-58.7548828125
1760967669.1688366,-0.71142578125,-0.03564453125,0.72119140625,0.67138671875,-0.6103515625,0.1220703125,-1.9775390625,44.3682861328125,-58.7548828125
1760967669.1789548,-0.71435546875,-0.02197265625,0.685546875,0.54931640625,-0.48828125,0.1220703125,-1.9720458984375,44.36279296875,-58.7548828125
1760967669.1866536,-0.71435546875,-0.02197265625,0.685546875,0.54931640625,-0.48828125,0.1220703125,-1.966552734375,44.36279296875,-58.7548828125
1760967669.1934323,-0.720703125,-0.02197265625,0.7060546875,1.15966796875,-0.42724609375,0.1220703125,-1.95556640625,44.3572998046875,-58.7548828125
1760967669.2024765,-0.720703125,-0.02197265625,0.7060546875,1.15966796875,-0.42724609375,0.1220703125,-1.944580078125,44.3572998046875,-58.7548828125
1760967669.2164118,-0.72314453125,-0.025390625,0.70849609375,0.79345703125,-0.30517578125,0.1220703125,-1.93359375,44.3572998046875,-58.7548828125
1760967669.224678,-0.72314453125,-0.025390625,0.70849609375,0.79345703125,-0.30517578125,0.1220703125,-1.9281005859375,44.3572998046875,-58.7548828125
1760967669.2319307,-0.716796875,-0.02392578125,0.67919921875,1.708984375,-0.30517578125,0.1220703125,-1.91162109375,44.36279296875,-58.7603759765625
1760967669.2527628,-0.716796875,-0.02392578125,0.67919921875,1.708984375,-0.30517578125,0.1220703125,-1.8951416015625,44.36279296875,-58.7603759765625
1760967669.2610862,-0.71630859375,-0.0126953125,0.716796875,1.03759765625,-0.48828125,0.0,-1.8841552734375,44.36279296875,-58.7603759765625
1760967669.2699978,-0.71630859375,-0.0126953125,0.716796875,1.03759765625,-0.48828125,0.0,-1.8731689453125,44.3682861328125,-58.765869140625
1760967669.2794185,-0.7138671875,-0.01904296875,0.7041015625,1.15966796875,-0.54931640625,-0.30517578125,-1.8621826171875,44.3682861328125,-58.7713623046875
1760967669.2959063,-0.7138671875,-0.01904296875,0.7041015625,1.15966796875,-0.54931640625,-0.30517578125,-1.856689453125,44.3682861328125,-58.77685546875
1760967669.3041985,-0.7099609375,-0.02880859375,0.69921875,2.50244140625,-0.67138671875,-0.42724609375,-1.8402099609375,44.3682861328125,-58.7823486328125
1760967669.3143399,-0.7099609375,-0.02880859375,0.69921875,2.50244140625,-0.67138671875,-0.42724609375,-1.8182373046875,44.36279296875,-58.7933349609375
1760967669.3225937,-0.70166015625,-0.03173828125,0.72607421875,2.5634765625,-0.6103515625,-0.30517578125,-1.7962646484375,44.36279296875,-58.798828125
1760967669.3316176,-0.70166015625,-0.03173828125,0.72607421875,2.5634765625,-0.6103515625,-0.30517578125,-1.7742919921875,44.36279296875,-58.8043212890625
1760967669.3455174,-0.69482421875,-0.01953125,0.7236328125,1.52587890625,-0.48828125,-0.06103515625,-1.7578125,44.36279296875,-58.8153076171875
1760967669.3544295,-0.69482421875,-0.01953125,0.7236328125,1.52587890625,-0.48828125,-0.06103515625,-1.746826171875,44.3572998046875,-58.8153076171875
1760967669.3627834,-0.68994140625,-0.01513671875,0.732421875,1.64794921875,-0.732421875,-0.1220703125,-1.7303466796875,44.3572998046875,-58.82080078125
1760967669.3707206,-0.68994140625,-0.01513671875,0.732421875,1.64794921875,-0.732421875,-0.1220703125,-1.7138671875,44.351806640625,-58.82080078125
1760967669.3786855,-0.68017578125,-0.01953125,0.73486328125,1.40380859375,-1.03759765625,-0.3662109375,-1.702880859375,44.3408203125,-58.8262939453125
1760967669.3916106,-0.68017578125,-0.01953125,0.73486328125,1.40380859375,-1.03759765625,-0.3662109375,-1.69189453125,44.329833984375,-58.831787109375
1760967669.4024677,-0.6826171875,-0.01708984375,0.7421875,1.46484375,-1.3427734375,-0.48828125,-1.680908203125,44.31884765625,-58.8372802734375
1760967669.4119253,-0.6826171875,-0.01708984375,0.7421875,1.46484375,-1.3427734375,-0.48828125,-1.669921875,44.3023681640625,-58.8427734375
1760967669.4194255,-0.68017578125,-0.0263671875,0.73828125,1.5869140625,-1.5869140625,-0.6103515625,-1.6644287109375,44.285888671875,-58.8482666015625
1760967669.4286542,-0.68017578125,-0.0263671875,0.73828125,1.5869140625,-1.5869140625,-0.6103515625,-1.6534423828125,44.2694091796875,-58.8592529296875
1760967669.4428298,-0.67822265625,-0.0166015625,0.73486328125,1.46484375,-1.64794921875,-0.67138671875,-1.6424560546875,44.2474365234375,-58.86474609375
1760967669.4511218,-0.67822265625,-0.0166015625,0.73486328125,1.46484375,-1.64794921875,-0.67138671875,-1.636962890625,44.2254638671875,-58.875732421875
1760967669.4592445,-0.68212890625,-0.01220703125,0.73828125,1.15966796875,-1.8310546875,-0.732421875,-1.6259765625,44.2034912109375,-58.8812255859375
1760967669.4671352,-0.68212890625,-0.01220703125,0.73828125,1.15966796875,-1.8310546875,-0.732421875,-1.6204833984375,44.1815185546875,-58.88671875
1760967669.4769847,-0.68408203125,-0.0185546875,0.73876953125,0.06103515625,-2.13623046875,-0.8544921875,-1.6204833984375,44.154052734375,-58.897705078125
1760967669.496481,-0.68408203125,-0.0185546875,0.73876953125,0.06103515625,-2.13623046875,-0.8544921875,-1.6314697265625,44.132080078125,-58.90869140625
1760967669.505008,-0.68505859375,-0.02197265625,0.72705078125,0.54931640625,-2.197265625,-0.9765625,-1.6314697265625,44.1046142578125,-58.9141845703125
1760967669.5124583,-0.68505859375,-0.02197265625,0.72705078125,0.54931640625,-2.197265625,-0.9765625,-1.636962890625,44.0771484375,-58.9251708984375
1760967669.5201976,-0.6826171875,-0.0263671875,0.73876953125,1.5869140625,-2.197265625,-1.03759765625,-1.6314697265625,44.0496826171875,-58.9361572265625
1760967669.5268397,-0.6826171875,-0.0263671875,0.73876953125,1.5869140625,-2.197265625,-1.03759765625,-1.6259765625,44.022216796875,-58.95263671875
1760967669.542455,-0.6767578125,-0.0185546875,0.74169921875,0.9765625,-2.197265625,-0.79345703125,-1.6204833984375,43.9947509765625,-58.9581298828125
1760967669.5496027,-0.6767578125,-0.0185546875,0.74169921875,0.9765625,-2.197265625,-0.79345703125,-1.6204833984375,43.96728515625,-58.9691162109375
1760967669.5559475,-0.66748046875,-0.01171875,0.74658203125,0.8544921875,-2.25830078125,-0.8544921875,-1.6204833984375,43.9398193359375,-58.9801025390625
1760967669.5628572,-0.66748046875,-0.01171875,0.74658203125,0.8544921875,-2.25830078125,-0.8544921875,-1.614990234375,43.9068603515625,-58.985595703125
1760967669.580815,-0.67529296875,-0.02099609375,0.74267578125,0.48828125,-2.197265625,-0.79345703125,-1.614990234375,43.87939453125,-58.9910888671875
1760967669.587823,-0.67529296875,-0.02099609375,0.74267578125,0.48828125,-2.197265625,-0.79345703125,-1.614990234375,43.8519287109375,-59.0020751953125
1760967669.595977,-0.68408203125,-0.02587890625,0.73876953125,1.15966796875,-2.13623046875,-0.6103515625,-1.614990234375,43.824462890625,-59.007568359375
1760967669.611592,-0.68408203125,-0.02587890625,0.73876953125,1.15966796875,-2.13623046875,-0.6103515625,-1.6094970703125,43.79150390625,-59.0130615234375
1760967669.6201417,-0.69384765625,-0.03076171875,0.72412109375,1.64794921875,-1.953125,-0.48828125,-1.5985107421875,43.76953125,-59.0185546875
1760967669.627127,-0.69384765625,-0.03076171875,0.72412109375,1.64794921875,-1.953125,-0.48828125,-1.5875244140625,43.7420654296875,-59.0240478515625
1760967669.6339855,-0.708984375,-0.02685546875,0.708984375,3.7841796875,-1.77001953125,-0.54931640625,-1.5655517578125,43.7200927734375,-59.029541015625
1760967669.6489537,-0.708984375,-0.02685546875,0.708984375,3.7841796875,-1.77001953125,-0.54931640625,-1.5325927734375,43.6981201171875,-59.04052734375
1760967669.6556716,-0.70068359375,-0.0107421875,0.697265625,4.82177734375,-2.0751953125,-0.91552734375,-1.4996337890625,43.6761474609375,-59.051513671875
1760967669.6628656,-0.70068359375,-0.0107421875,0.697265625,4.82177734375,-2.0751953125,-0.91552734375,-1.461181640625,43.6541748046875,-59.0625
1760967669.6729617,-0.70068359375,-0.0107421875,0.697265625,3.2958984375,-1.5869140625,-0.732421875,-1.42822265625,43.6376953125,-59.0789794921875
1760967669.6887932,-0.7275390625,-0.015625,0.71630859375,3.2958984375,-1.5869140625,-0.732421875,-1.4007568359375,43.6212158203125,-59.0899658203125
1760967669.6963823,-0.71533203125,-0.00732421875,0.70361328125,2.01416015625,-1.52587890625,-0.48828125,-1.38427734375,43.604736328125,-59.1009521484375
1760967669.7039368,-0.71533203125,-0.00732421875,0.70361328125,2.01416015625,-1.52587890625,-0.48828125,-1.3677978515625,43.59375,-59.1064453125
1760967669.7126997,-0.71533203125,-0.00732421875,0.70361328125,-0.48828125,-1.3427734375,-0.42724609375,-1.3623046875,43.582763671875,-59.117431640625
1760967669.7245436,-0.72607421875,-0.00830078125,0.703125,-0.48828125,-1.3427734375,-0.42724609375,-1.373291015625,43.5772705078125,-59.12841796875
1760967669.7424533,-0.712890625,-0.013671875,0.70849609375,-2.44140625,-1.46484375,-0.48828125,-1.3897705078125,43.5662841796875,-59.1339111328125
1760967669.752343,-0.712890625,-0.013671875,0.70849609375,-2.44140625,-1.46484375,-0.48828125,-1.417236328125,43.560791015625,-59.1448974609375
1760967669.759819,-0.70703125,-0.03369140625,0.71630859375,-1.220703125,-1.40380859375,-0.30517578125,-1.439208984375,43.5498046875,-59.150390625
1760967669.7684312,-0.70703125,-0.03369140625,0.71630859375,-1.220703125,-1.40380859375,-0.30517578125,-1.4556884765625,43.5443115234375,-59.161376953125
1760967669.787655,-0.69189453125,-0.04150390625,0.71875,0.79345703125,-1.40380859375,-0.1220703125,-1.4556884765625,43.538818359375,-59.1668701171875
1760967669.7961402,-0.69189453125,-0.04150390625,0.71875,0.79345703125,-1.40380859375,-0.1220703125,-1.4501953125,43.52783203125,-59.17236328125
1760967669.8065567,-0.69140625,-0.0185546875,0.72314453125,1.28173828125,-1.3427734375,-0.06103515625,-1.4447021484375,43.5223388671875,-59.183349609375
1760967669.8154883,-0.69140625,-0.0185546875,0.72314453125,1.28173828125,-1.3427734375,-0.06103515625,-1.4337158203125,43.5113525390625,-59.1888427734375
1760967669.8244019,-0.69482421875,0.00390625,0.73876953125,-1.3427734375,-1.46484375,-0.06103515625,-1.4337158203125,43.505859375,-59.1943359375
1760967669.8388937,-0.69482421875,0.00390625,0.73876953125,-1.3427734375,-1.46484375,-0.06103515625,-1.4501953125,43.494873046875,-59.1943359375
1760967669.8455918,-0.69140625,-0.01123046875,0.73681640625,-5.859375,-1.40380859375,0.06103515625,-1.483154296875,43.48388671875,-59.1998291015625
1760967669.8522358,-0.69140625,-0.01123046875,0.73681640625,-5.859375,-1.40380859375,0.06103515625,-1.5435791015625,43.472900390625,-59.1998291015625
1760967669.8593068,-0.68603515625,-0.02880859375,0.728515625,-5.43212890625,-1.40380859375,0.06103515625,-1.593017578125,43.4619140625,-59.1998291015625
1760967669.869649,-0.68603515625,-0.02880859375,0.728515625,-5.43212890625,-1.40380859375,0.06103515625,-1.64794921875,43.450927734375,-59.1998291015625
1760967669.8773053,-0.67919921875,-0.029296875,0.732421875,-2.197265625,-1.64794921875,-0.18310546875,-1.6864013671875,43.43994140625,-59.1998291015625
1760967669.8971443,-0.67919921875,-0.029296875,0.732421875,-2.197265625,-1.64794921875,-0.18310546875,-1.7083740234375,43.4234619140625,-59.205322265625
1760967669.907155,-0.6865234375,-0.0244140625,0.7353515625,-1.953125,-1.52587890625,-0.30517578125,-1.7303466796875,43.406982421875,-59.2108154296875
1760967669.9187136,-0.6865234375,-0.0244140625,0.7353515625,-1.953125,-1.52587890625,-0.30517578125,-1.7523193359375,43.39599609375,-59.21630859375
1760967669.926046,-0.6865234375,-0.0283203125,0.73388671875,-1.03759765625,-1.3427734375,-0.3662109375,-1.7633056640625,43.3795166015625,-59.2218017578125
1760967669.9351864,-0.6865234375,-0.0283203125,0.73388671875,-1.03759765625,-1.3427734375,-0.3662109375,-1.7742919921875,43.3685302734375,-59.227294921875
1760967669.9434278,-0.6826171875,-0.017578125,0.72900390625,0.06103515625,-1.28173828125,-0.48828125,-1.77978515625,43.3575439453125,-59.23828125
1760967669.9602296,-0.6826171875,-0.017578125,0.72900390625,0.06103515625,-1.28173828125,-0.48828125,-1.7852783203125,43.341064453125,-59.2437744140625
1760967669.9679043,-0.69384765625,-0.01953125,0.7265625,0.244140625,-1.220703125,-0.6103515625,-1.7852783203125,43.330078125,-59.2547607421875
1760967669.9790537,-0.69384765625,-0.01953125,0.7265625,0.244140625,-1.220703125,-0.6103515625,-1.790771484375,43.319091796875,-59.26025390625
1760967669.986566,-0.7001953125,-0.0322265625,0.716796875,0.3662109375,-1.15966796875,-0.42724609375,-1.7852783203125,43.30810546875,-59.271240234375
1760967669.9935403,-0.7001953125,-0.0322265625,0.716796875,0.3662109375,-1.15966796875,-0.42724609375,-1.7852783203125,43.297119140625,-59.2767333984375
1760967670.0101876,-0.7109375,-0.0400390625,0.70263671875,0.30517578125,-0.8544921875,-0.244140625,-1.7852783203125,43.2916259765625,-59.2822265625
1760967670.0194254,-0.7109375,-0.0400390625,0.70263671875,0.30517578125,-0.8544921875,-0.244140625,-1.790771484375,43.2861328125,-59.293212890625
1760967670.027547,-0.70068359375,-0.02099609375,0.69482421875,2.01416015625,-0.8544921875,-0.30517578125,-1.7742919921875,43.2861328125,-59.2987060546875
1760967670.0371563,-0.70068359375,-0.02099609375,0.69482421875,2.01416015625,-0.8544921875,-0.30517578125,-1.7578125,43.2806396484375,-59.3096923828125
1760967670.047507,-0.69287109375,-0.02783203125,0.7509765625,4.08935546875,-1.03759765625,-0.30517578125,-1.7193603515625,43.275146484375,-59.3206787109375
1760967670.0626373,-0.69287109375,-0.02783203125,0.7509765625,4.08935546875,-1.03759765625,-0.30517578125,-1.680908203125,43.2696533203125,-59.326171875
1760967670.0715232,-0.68505859375,-0.03271484375,0.7275390625,4.0283203125,-1.15966796875,0.0,-1.64794921875,43.2586669921875,-59.3316650390625
1760967670.0808573,-0.68505859375,-0.03271484375,0.7275390625,4.0283203125,-1.15966796875,0.0,-1.6094970703125,43.253173828125,-59.337158203125
1760967670.0911925,-0.69091796875,-0.0205078125,0.72265625,4.8828125,-1.28173828125,0.0,-1.56005859375,43.2421875,-59.3426513671875
1760967670.1055524,-0.69091796875,-0.0205078125,0.72265625,4.8828125,-1.28173828125,0.0,-1.51611328125,43.231201171875,-59.34814453125
1760967670.1145236,-0.69287109375,-0.01513671875,0.73193359375,2.38037109375,-1.220703125,0.244140625,-1.494140625,43.2257080078125,-59.3536376953125
1760967670.1210515,-0.69287109375,-0.01513671875,0.73193359375,2.38037109375,-1.220703125,0.244140625,-1.4666748046875,43.2147216796875,-59.3536376953125
1760967670.1315174,-0.69091796875,-0.0107421875,0.7265625,1.3427734375,-1.28173828125,0.244140625,-1.4556884765625,43.2037353515625,-59.3536376953125
1760967670.1423478,-0.69091796875,-0.0107421875,0.7265625,1.3427734375,-1.28173828125,0.244140625,-1.439208984375,43.1927490234375,-59.3536376953125
1760967670.156498,-0.69140625,-0.01318359375,0.72216796875,1.0986328125,-1.220703125,0.244140625,-1.42822265625,43.187255859375,-59.3536376953125
1760967670.1637068,-0.69140625,-0.01318359375,0.72216796875,1.0986328125,-1.220703125,0.244140625,-1.417236328125,43.17626953125,-59.3536376953125
1760967670.1706798,-0.68798828125,-0.02978515625,0.74072265625,1.220703125,-1.220703125,0.30517578125,-1.4007568359375,43.165283203125,-59.3536376953125
1760967670.177327,-0.68798828125,-0.02978515625,0.74072265625,1.220703125,-1.220703125,0.30517578125,-1.3897705078125,43.154296875,-59.3536376953125
1760967670.1846833,-0.6865234375,-0.02099609375,0.7265625,1.40380859375,-1.15966796875,0.42724609375,-1.373291015625,43.1488037109375,-59.3536376953125
1760967670.191449,-0.6865234375,-0.02099609375,0.7265625,1.40380859375,-1.15966796875,0.42724609375,-1.3568115234375,43.1378173828125,-59.3536376953125
1760967670.209364,-0.69482421875,-0.01171875,0.7236328125,2.25830078125,-1.0986328125,0.30517578125,-1.329345703125,43.13232421875,-59.3536376953125
1760967670.2292273,-0.69482421875,-0.01171875,0.7236328125,2.25830078125,-1.0986328125,0.30517578125,-1.307373046875,43.121337890625,-59.3536376953125
1760967670.2441769,-0.69384765625,-0.01220703125,0.73486328125,2.01416015625,-1.03759765625,0.18310546875,-1.285400390625,43.1158447265625,-59.3536376953125
1760967670.2571673,-0.69384765625,-0.01220703125,0.73486328125,2.01416015625,-1.03759765625,0.18310546875,-1.263427734375,43.1048583984375,-59.3536376953125
1760967670.279184,-0.6904296875,-0.017578125,0.72412109375,2.8076171875,-1.03759765625,0.1220703125,-1.2359619140625,43.099365234375,-59.359130859375
1760967670.2868814,-0.6904296875,-0.017578125,0.72412109375,2.8076171875,-1.03759765625,0.1220703125,-1.20849609375,43.08837890625,-59.359130859375
1760967670.3000515,-0.6884765625,-0.01708984375,0.7197265625,2.8076171875,-1.03759765625,0.06103515625,-1.1810302734375,43.0828857421875,-59.3646240234375
1760967670.316417,-0.6884765625,-0.01708984375,0.7197265625,2.8076171875,-1.03759765625,0.06103515625,-1.153564453125,43.077392578125,-59.3701171875
1760967670.3293025,-0.6875,-0.00732421875,0.7373046875,1.220703125,-0.9765625,0.1220703125,-1.142578125,43.06640625,-59.3701171875
1760967670.3361077,-0.6875,-0.00732421875,0.7373046875,1.220703125,-0.9765625,0.1220703125,-1.131591796875,43.0609130859375,-59.3701171875
1760967670.3434699,-0.68701171875,-0.01953125,0.75,0.54931640625,-0.79345703125,0.30517578125,-1.12060546875,43.055419921875,-59.3701171875
1760967670.3606012,-0.68701171875,-0.01953125,0.75,0.54931640625,-0.79345703125,0.30517578125,-1.1151123046875,43.0499267578125,-59.3701171875
1760967670.3705752,-0.68017578125,-0.01953125,0.7216796875,1.77001953125,-0.8544921875,0.30517578125,-1.0931396484375,43.04443359375,-59.3701171875
1760967670.3782644,-0.68017578125,-0.01953125,0.7216796875,1.77001953125,-0.8544921875,0.30517578125,-1.07666015625,43.033447265625,-59.3701171875
1760967670.3932219,-0.6796875,-0.0068359375,0.73193359375,2.44140625,-1.0986328125,0.30517578125,-1.0491943359375,43.0279541015625,-59.3701171875
1760967670.4023292,-0.6796875,-0.0068359375,0.73193359375,2.44140625,-1.0986328125,0.30517578125,-1.021728515625,43.0169677734375,-59.3701171875
1760967670.4101543,-0.67138671875,-0.01416015625,0.7568359375,2.86865234375,-1.220703125,0.244140625,-0.9942626953125,43.0059814453125,-59.3701171875
1760967670.416964,-0.67138671875,-0.01416015625,0.7568359375,2.86865234375,-1.220703125,0.244140625,-0.9613037109375,42.989501953125,-59.3701171875
1760967670.4244995,-0.67138671875,-0.0185546875,0.75341796875,2.01416015625,-1.15966796875,0.48828125,-0.9393310546875,42.978515625,-59.3646240234375
1760967670.4319067,-0.67138671875,-0.0185546875,0.75341796875,2.01416015625,-1.15966796875,0.48828125,-0.9173583984375,42.967529296875,-59.3646240234375
1760967670.439073,-0.6650390625,-0.01171875,0.74267578125,2.01416015625,-1.28173828125,0.48828125,-0.8953857421875,42.9510498046875,-59.359130859375
1760967670.445397,-0.6650390625,-0.01171875,0.74267578125,2.01416015625,-1.28173828125,0.48828125,-0.867919921875,42.9345703125,-59.359130859375
1760967670.4569666,-0.6611328125,-0.01171875,0.75732421875,2.62451171875,-1.46484375,0.42724609375,-0.8404541015625,42.9180908203125,-59.359130859375
1760967670.4643288,-0.6611328125,-0.01171875,0.75732421875,2.62451171875,-1.46484375,0.42724609375,-0.81298828125,42.901611328125,-59.3536376953125
1760967670.4719808,-0.65673828125,-0.00732421875,0.7607421875,4.39453125,-1.708984375,0.1220703125,-0.76904296875,42.879638671875,-59.3536376953125
1760967670.4794478,-0.65673828125,-0.00732421875,0.7607421875,4.39453125,-1.708984375,0.1220703125,-0.72509765625,42.857666015625,-59.3536376953125
1760967670.4875302,-0.6630859375,-0.00244140625,0.7568359375,4.0283203125,-1.77001953125,0.0,-0.6866455078125,42.835693359375,-59.359130859375
1760967670.499881,-0.6630859375,-0.00244140625,0.7568359375,4.0283203125,-1.77001953125,0.0,-0.648193359375,42.8082275390625,-59.359130859375
1760967670.5069542,-0.6572265625,0.0029296875,0.75927734375,2.197265625,-1.8310546875,-0.06103515625,-0.626220703125,42.7862548828125,-59.359130859375
1760967670.5154288,-0.6572265625,0.0029296875,0.75927734375,2.197265625,-1.8310546875,-0.06103515625,-0.604248046875,42.7587890625,-59.359130859375
1760967670.5216143,-0.65625,0.0048828125,0.75830078125,1.0986328125,-1.77001953125,-0.18310546875,-0.5987548828125,42.73681640625,-59.3646240234375
1760967670.5280733,-0.65625,0.0048828125,0.75830078125,1.0986328125,-1.77001953125,-0.18310546875,-0.5877685546875,42.7093505859375,-59.3646240234375
1760967670.5358949,-0.6494140625,-0.0068359375,0.7666015625,0.3662109375,-2.0751953125,-0.3662109375,-0.582275390625,42.681884765625,-59.3646240234375
1760967670.5596423,-0.6494140625,-0.0068359375,0.7666015625,0.3662109375,-2.0751953125,-0.3662109375,-0.582275390625,42.6544189453125,-59.3701171875
1760967670.5697918,-0.6337890625,-0.0029296875,0.7578125,0.91552734375,-2.197265625,-0.67138671875,-0.5767822265625,42.6214599609375,-59.3756103515625
1760967670.5867844,-0.6337890625,-0.0029296875,0.7578125,0.91552734375,-2.197265625,-0.67138671875,-0.5767822265625,42.593994140625,-59.3865966796875
1760967670.6106365,-0.63134765625,0.0,0.76318359375,1.708984375,-2.0751953125,-0.9765625,-0.5657958984375,42.56103515625,-59.39208984375
1760967670.6180782,-0.63134765625,0.0,0.76318359375,1.708984375,-2.0751953125,-0.9765625,-0.5548095703125,42.528076171875,-59.403076171875
1760967670.6406503,-0.62548828125,0.01220703125,0.78125,-1.40380859375,-2.3193359375,-1.3427734375,-0.582275390625,42.4951171875,-59.4195556640625
1760967670.6496274,-0.62548828125,0.01220703125,0.78125,-1.40380859375,-2.3193359375,-1.3427734375,-0.604248046875,42.462158203125,-59.4305419921875
1760967670.6564553,-0.63818359375,0.0166015625,0.79345703125,-6.77490234375,-2.5634765625,-1.3427734375,-0.68115234375,42.4237060546875,-59.4415283203125
1760967670.6639898,-0.63818359375,0.0166015625,0.79345703125,-6.77490234375,-2.5634765625,-1.3427734375,-0.7525634765625,42.3797607421875,-59.4525146484375
1760967670.670735,-0.716796875,-0.00439453125,0.7587890625,-9.1552734375,-2.50244140625,-1.03759765625,-0.845947265625,42.3468017578125,-59.4580078125
1760967670.6780562,-0.716796875,-0.00439453125,0.7587890625,-9.1552734375,-2.50244140625,-1.03759765625,-0.94482421875,42.308349609375,-59.4635009765625
1760967670.6845317,-0.7314453125,-0.00537109375,0.646484375,-14.95361328125,-1.953125,-0.9765625,-1.0931396484375,42.2808837890625,-59.468994140625
1760967670.690544,-0.7314453125,-0.00537109375,0.646484375,-14.95361328125,-1.953125,-0.9765625,-1.2469482421875,42.264404296875,-59.47998046875
1760967670.6976178,-0.7724609375,-0.02490234375,0.6767578125,-12.02392578125,-1.40380859375,-0.8544921875,-1.3677978515625,42.2479248046875,-59.490966796875
1760967670.7046535,-0.7724609375,-0.02490234375,0.6767578125,-12.02392578125,-1.40380859375,-0.8544921875,-1.4886474609375,42.242431640625,-59.501953125
1760967670.7152278,-0.7724609375,-0.02490234375,0.6767578125,-8.7890625,-0.732421875,-0.8544921875,-1.5765380859375,42.242431640625,-59.512939453125
1760967670.7223966,-0.7783203125,-0.02490234375,0.65087890625,-8.7890625,-0.732421875,-0.8544921875,-1.6644287109375,42.2479248046875,-59.5294189453125
1760967670.7289424,-0.76318359375,-0.04345703125,0.671875,-8.48388671875,-0.1220703125,-0.67138671875,-1.7523193359375,42.264404296875,-59.5404052734375
1760967670.7364051,-0.76318359375,-0.04345703125,0.671875,-8.48388671875,-0.1220703125,-0.67138671875,-1.8402099609375,42.2808837890625,-59.556884765625
1760967670.743299,-0.73388671875,-0.06005859375,0.68505859375,-4.0283203125,0.30517578125,-0.3662109375,-1.878662109375,42.3028564453125,-59.5733642578125
1760967670.7495072,-0.73388671875,-0.06005859375,0.68505859375,-4.0283203125,0.30517578125,-0.3662109375,-1.922607421875,42.3248291015625,-59.5843505859375
1760967670.7572324,-0.71533203125,-0.0322265625,0.69091796875,-0.244140625,0.3662109375,-0.30517578125,-1.9281005859375,42.352294921875,-59.600830078125
1760967670.7643225,-0.71533203125,-0.0322265625,0.69091796875,-0.244140625,0.3662109375,-0.30517578125,-1.93359375,42.374267578125,-59.6173095703125
1760967670.7713144,-0.68994140625,-0.0380859375,0.7333984375,3.173828125,0.244140625,-0.1220703125,-1.900634765625,42.396240234375,-59.6337890625
1760967670.779052,-0.68994140625,-0.0380859375,0.7333984375,3.173828125,0.244140625,-0.1220703125,-1.8731689453125,42.4127197265625,-59.644775390625
1760967670.7854652,-0.6640625,-0.0625,0.7607421875,5.67626953125,0.18310546875,0.30517578125,-1.8182373046875,42.42919921875,-59.65576171875
1760967670.7918034,-0.6640625,-0.0625,0.7607421875,5.67626953125,0.18310546875,0.30517578125,-1.7633056640625,42.4456787109375,-59.6612548828125
1760967670.799642,-0.6650390625,-0.037109375,0.744140625,7.9345703125,0.0,0.42724609375,-1.6864013671875,42.4566650390625,-59.6722412109375
1760967670.8065464,-0.6650390625,-0.037109375,0.744140625,7.9345703125,0.0,0.42724609375,-1.6094970703125,42.4676513671875,-59.677734375
1760967670.816506,-0.673828125,0.01416015625,0.7373046875,7.62939453125,-0.06103515625,0.1220703125,-1.5380859375,42.47314453125,-59.688720703125
1760967670.824542,-0.673828125,0.01416015625,0.7373046875,7.62939453125,-0.06103515625,0.1220703125,-1.461181640625,42.484130859375,-59.6942138671875
1760967670.833857,-0.67041015625,0.0009765625,0.76416015625,4.45556640625,-0.1220703125,0.0,-1.417236328125,42.484130859375,-59.69970703125
1760967670.844143,-0.67041015625,0.0009765625,0.76416015625,4.45556640625,-0.1220703125,0.0,-1.3787841796875,42.4896240234375,-59.7052001953125
1760967670.854062,-0.66552734375,-0.013671875,0.75732421875,1.15966796875,0.0,-0.18310546875,-1.3677978515625,42.4951171875,-59.7161865234375
1760967670.8696012,-0.669921875,-0.01025390625,0.73876953125,0.732421875,-0.06103515625,-0.48828125,-1.3623046875,42.4951171875,-59.7216796875
1760967670.8783467,-0.669921875,-0.01025390625,0.73876953125,0.732421875,-0.06103515625,-0.48828125,-1.3623046875,42.4951171875,-59.732666015625
1760967670.8845444,-0.669921875,-0.0107421875,0.74853515625,0.42724609375,-0.1220703125,-0.79345703125,-1.3623046875,42.5006103515625,-59.7491455078125
1760967670.9024696,-0.669921875,-0.0107421875,0.74853515625,0.42724609375,-0.1220703125,-0.79345703125,-1.3623046875,42.5006103515625,-59.7601318359375
1760967670.9091501,-0.666015625,-0.0244140625,0.7646484375,0.06103515625,-0.1220703125,-0.6103515625,-1.3677978515625,42.4951171875,-59.7711181640625
1760967670.9161928,-0.666015625,-0.0244140625,0.7646484375,0.06103515625,-0.1220703125,-0.6103515625,-1.373291015625,42.4951171875,-59.78759765625
1760967670.9310496,-0.669921875,-0.02001953125,0.7470703125,-0.1220703125,-0.06103515625,-0.54931640625,-1.3787841796875,42.4951171875,-59.798583984375
1760967670.9405296,-0.669921875,-0.02001953125,0.7470703125,-0.1220703125,-0.06103515625,-0.54931640625,-1.38427734375,42.4896240234375,-59.8040771484375
1760967670.947591,-0.67724609375,-0.005859375,0.73193359375,-0.8544921875,-0.18310546875,-0.6103515625,-1.395263671875,42.4896240234375,-59.8150634765625
1760967670.9542496,-0.67724609375,-0.005859375,0.73193359375,-0.8544921875,-0.18310546875,-0.6103515625,-1.40625,42.484130859375,-59.8260498046875
1760967670.9701583,-0.6826171875,-0.0205078125,0.74755859375,-2.0751953125,-0.1220703125,-0.48828125,-1.4227294921875,42.484130859375,-59.8370361328125
1760967670.9766874,-0.6826171875,-0.0205078125,0.74755859375,-2.0751953125,-0.1220703125,-0.48828125,-1.4501953125,42.4786376953125,-59.842529296875
1760967670.9851596,-0.6787109375,-0.0380859375,0.73974609375,-1.220703125,0.0,-0.30517578125,-1.4666748046875,42.4786376953125,-59.853515625
1760967671.0036988,-0.6787109375,-0.0380859375,0.73974609375,-1.220703125,0.0,-0.30517578125,-1.483154296875,42.4786376953125,-59.8590087890625
1760967671.0103486,-0.681640625,-0.0234375,0.72900390625,0.79345703125,0.0,-0.3662109375,-1.4886474609375,42.4786376953125,-59.8699951171875
1760967671.017226,-0.681640625,-0.0234375,0.72900390625,0.79345703125,0.0,-0.3662109375,-1.4886474609375,42.4786376953125,-59.87548828125
1760967671.025648,-0.68603515625,-0.00927734375,0.7373046875,1.03759765625,0.0,-0.3662109375,-1.483154296875,42.4786376953125,-59.886474609375
1760967671.0412884,-0.68603515625,-0.00927734375,0.7373046875,1.03759765625,0.0,-0.3662109375,-1.47216796875,42.4786376953125,-59.8919677734375
1760967671.0490656,-0.68212890625,-0.013671875,0.74072265625,0.1220703125,0.06103515625,-0.3662109375,-1.47216796875,42.4786376953125,-59.9029541015625
1760967671.0561697,-0.68212890625,-0.013671875,0.74072265625,0.1220703125,0.06103515625,-0.3662109375,-1.47216796875,42.4786376953125,-59.908447265625
1760967671.065114,-0.67626953125,-0.03076171875,0.74169921875,0.18310546875,0.18310546875,-0.244140625,-1.4776611328125,42.484130859375,-59.9139404296875
1760967671.0847797,-0.67626953125,-0.03076171875,0.74169921875,0.18310546875,0.18310546875,-0.244140625,-1.4776611328125,42.484130859375,-59.9249267578125
1760967671.0919662,-0.67578125,-0.02099609375,0.7412109375,0.732421875,0.244140625,-0.30517578125,-1.47216796875,42.4896240234375,-59.930419921875
1760967671.0983627,-0.67578125,-0.02099609375,0.7412109375,0.732421875,0.244140625,-0.30517578125,-1.47216796875,42.4896240234375,-59.9359130859375
1760967671.1205587,-0.6767578125,-0.01318359375,0.7412109375,0.54931640625,0.244140625,-0.30517578125,-1.4666748046875,42.4951171875,-59.9468994140625
1760967671.1308086,-0.6767578125,-0.01318359375,0.7412109375,0.54931640625,0.244140625,-0.30517578125,-1.4666748046875,42.4951171875,-59.952392578125
1760967671.168927,-0.67578125,-0.01708984375,0.7451171875,-0.18310546875,0.3662109375,-0.244140625,-1.4666748046875,42.4951171875,-59.96337890625
1760967671.1763666,-0.67578125,-0.01708984375,0.7451171875,-0.18310546875,0.3662109375,-0.244140625,-1.47216796875,42.5006103515625,-59.9688720703125
1760967671.1827536,-0.67041015625,-0.029296875,0.74853515625,-0.244140625,0.3662109375,-0.06103515625,-1.47216796875,42.506103515625,-59.974365234375
1760967671.2077086,-0.67041015625,-0.029296875,0.74853515625,-0.244140625,0.3662109375,-0.06103515625,-1.4776611328125,42.506103515625,-59.974365234375
1760967671.2145364,-0.671875,-0.02392578125,0.74755859375,0.732421875,0.30517578125,0.0,-1.4776611328125,42.5115966796875,-59.9798583984375
1760967671.2240877,-0.671875,-0.02392578125,0.74755859375,0.732421875,0.30517578125,0.0,-1.47216796875,42.5115966796875,-59.9853515625
1760967671.2341092,-0.6728515625,-0.01416015625,0.73876953125,1.40380859375,0.18310546875,0.06103515625,-1.461181640625,42.5115966796875,-59.9853515625
1760967671.2432337,-0.6728515625,-0.01416015625,0.73876953125,1.40380859375,0.18310546875,0.06103515625,-1.4447021484375,42.5115966796875,-59.9908447265625
1760967671.2646024,-0.67333984375,-0.0185546875,0.7451171875,1.5869140625,0.244140625,0.18310546875,-1.42822265625,42.5115966796875,-59.9908447265625
1760967671.27283,-0.67333984375,-0.0185546875,0.7451171875,1.5869140625,0.244140625,0.18310546875,-1.4117431640625,42.5115966796875,-59.9908447265625
1760967671.2791705,-0.669921875,-0.0283203125,0.75146484375,0.06103515625,0.42724609375,0.30517578125,-1.40625,42.51708984375,-59.9908447265625
1760967671.2855756,-0.669921875,-0.0283203125,0.75146484375,0.06103515625,0.42724609375,0.30517578125,-1.4007568359375,42.51708984375,-59.9908447265625
1760967671.293715,-0.6767578125,-0.0185546875,0.74169921875,1.64794921875,0.3662109375,0.30517578125,-1.3897705078125,42.51708984375,-59.9853515625
1760967671.3153298,-0.6767578125,-0.0185546875,0.74169921875,1.64794921875,0.3662109375,0.30517578125,-1.373291015625,42.5225830078125,-59.9853515625
1760967671.32209,-0.67724609375,-0.00537109375,0.73388671875,-0.9765625,0.244140625,0.244140625,-1.3677978515625,42.5225830078125,-59.9853515625
1760967671.3297036,-0.67724609375,-0.00537109375,0.73388671875,-0.9765625,0.244140625,0.244140625,-1.3787841796875,42.5225830078125,-59.9853515625
1760967671.3362746,-0.6767578125,-0.015625,0.74853515625,-0.732421875,0.244140625,0.18310546875,-1.38427734375,42.5225830078125,-59.9853515625
1760967671.342644,-0.6767578125,-0.015625,0.74853515625,-0.732421875,0.244140625,0.18310546875,-1.3897705078125,42.5225830078125,-59.9853515625
1760967671.3500412,-0.67529296875,-0.021484375,0.74609375,-0.6103515625,0.244140625,0.18310546875,-1.395263671875,42.5225830078125,-59.9853515625
1760967671.3776653,-0.67529296875,-0.021484375,0.74609375,-0.6103515625,0.244140625,0.18310546875,-1.4007568359375,42.528076171875,-59.9853515625
1760967671.384354,-0.673828125,-0.0146484375,0.73681640625,-0.42724609375,0.3662109375,0.06103515625,-1.4007568359375,42.528076171875,-59.9853515625
1760967671.3904564,-0.673828125,-0.0146484375,0.73681640625,-0.42724609375,0.3662109375,0.06103515625,-1.40625,42.528076171875,-59.9853515625
1760967671.3976831,-0.671875,-0.0126953125,0.75048828125,-1.15966796875,0.3662109375,0.06103515625,-1.4117431640625,42.5335693359375,-59.9853515625
1760967671.405171,-0.671875,-0.0126953125,0.75048828125,-1.15966796875,0.3662109375,0.06103515625,-1.4227294921875,42.5335693359375,-59.9853515625
1760967671.4303205,-0.66552734375,-0.0283203125,0.763671875,-1.03759765625,0.48828125,0.18310546875,-1.4337158203125,42.5335693359375,-59.9853515625
1760967671.439608,-0.66552734375,-0.0283203125,0.763671875,-1.03759765625,0.48828125,0.18310546875,-1.4447021484375,42.5390625,-59.9853515625
1760967671.4479833,-0.66015625,-0.029296875,0.75341796875,0.18310546875,0.48828125,0.244140625,-1.4447021484375,42.5390625,-59.9853515625
1760967671.4644084,-0.66015625,-0.029296875,0.75341796875,0.18310546875,0.48828125,0.244140625,-1.439208984375,42.5390625,-59.9853515625
1760967671.4726932,-0.6708984375,-0.01318359375,0.751953125,0.1220703125,0.42724609375,0.30517578125,-1.439208984375,42.5390625,-59.9798583984375
1760967671.481413,-0.6708984375,-0.01318359375,0.751953125,0.1220703125,0.42724609375,0.30517578125,-1.4337158203125,42.5390625,-59.9798583984375
1760967671.4953647,-0.66845703125,-0.0078125,0.7421875,-0.18310546875,0.42724609375,0.244140625,-1.4337158203125,42.5390625,-59.974365234375
1760967671.504592,-0.66845703125,-0.0078125,0.7421875,-0.18310546875,0.42724609375,0.244140625,-1.4337158203125,42.5390625,-59.974365234375
1760967671.5113795,-0.671875,-0.025390625,0.76025390625,-0.30517578125,0.244140625,0.3662109375,-1.4337158203125,42.5390625,-59.9688720703125
1760967671.5176015,-0.671875,-0.025390625,0.76025390625,-0.30517578125,0.244140625,0.3662109375,-1.42822265625,42.5390625,-59.9688720703125
1760967671.5247018,-0.6796875,-0.01708984375,0.732421875,-1.03759765625,0.06103515625,0.30517578125,-1.4337158203125,42.5335693359375,-59.96337890625
1760967671.540035,-0.6796875,-0.01708984375,0.732421875,-1.03759765625,0.06103515625,0.30517578125,-1.439208984375,42.5335693359375,-59.9578857421875
1760967671.5476034,-0.6767578125,-0.00927734375,0.71435546875,1.89208984375,-0.1220703125,-0.1220703125,-1.439208984375,42.528076171875,-59.9578857421875
1760967671.554996,-0.6767578125,-0.00927734375,0.71435546875,1.89208984375,-0.1220703125,-0.1220703125,-1.417236328125,42.5225830078125,-59.96337890625
1760967671.5621855,-0.666015625,-0.02734375,0.7626953125,3.23486328125,-0.18310546875,-0.30517578125,-1.395263671875,42.5225830078125,-59.96337890625
1760967671.5782907,-0.666015625,-0.02734375,0.7626953125,3.23486328125,-0.18310546875,-0.30517578125,-1.3623046875,42.51708984375,-59.974365234375
1760967671.589028,-0.65966796875,-0.021484375,0.76611328125,1.953125,-0.18310546875,-0.244140625,-1.34033203125,42.5115966796875,-59.9798583984375
1760967671.5971282,-0.65966796875,-0.021484375,0.76611328125,1.953125,-0.18310546875,-0.244140625,-1.3238525390625,42.506103515625,-59.9853515625
1760967671.6045663,-0.65673828125,-0.01123046875,0.75244140625,1.77001953125,-0.30517578125,-0.18310546875,-1.307373046875,42.5006103515625,-59.9853515625
1760967671.6207829,-0.65673828125,-0.01123046875,0.75244140625,1.77001953125,-0.30517578125,-0.18310546875,-1.2908935546875,42.4896240234375,-59.9908447265625
1760967671.628868,-0.66455078125,-0.01220703125,0.76025390625,0.67138671875,-0.3662109375,-0.18310546875,-1.285400390625,42.484130859375,-59.996337890625
1760967671.6366377,-0.66455078125,-0.01220703125,0.76025390625,0.67138671875,-0.3662109375,-0.18310546875,-1.2799072265625,42.47314453125,-59.996337890625
1760967671.6430607,-0.66650390625,-0.015625,0.7578125,0.30517578125,-0.42724609375,-0.244140625,-1.2744140625,42.462158203125,-60.0018310546875
1760967671.658384,-0.66650390625,-0.015625,0.7578125,0.30517578125,-0.42724609375,-0.244140625,-1.2744140625,42.4566650390625,-60.0018310546875
1760967671.665463,-0.6728515625,-0.0224609375,0.732421875,0.42724609375,-0.30517578125,-0.244140625,-1.2744140625,42.4456787109375,-60.00732421875
1760967671.673395,-0.6728515625,-0.0224609375,0.732421875,0.42724609375,-0.30517578125,-0.244140625,-1.2689208984375,42.4346923828125,-60.0128173828125
1760967671.6802511,-0.67236328125,-0.02001953125,0.7421875,2.86865234375,-0.48828125,-0.42724609375,-1.2579345703125,42.42919921875,-60.018310546875
1760967671.6883645,-0.67236328125,-0.02001953125,0.7421875,2.86865234375,-0.48828125,-0.42724609375,-1.2359619140625,42.418212890625,-60.0238037109375
1760967671.7035742,-0.67578125,-0.017578125,0.73388671875,3.35693359375,-0.3662109375,-0.48828125,-1.20849609375,42.4127197265625,-60.0347900390625
1760967671.7118018,-0.67578125,-0.017578125,0.73388671875,3.35693359375,-0.3662109375,-0.48828125,-1.1810302734375,42.4072265625,-60.040283203125
1760967671.7192178,-0.67529296875,-0.0048828125,0.7451171875,3.35693359375,-0.30517578125,-0.67138671875,-1.153564453125,42.396240234375,-60.05126953125
1760967671.7369802,-0.67529296875,-0.0048828125,0.7451171875,3.35693359375,-0.30517578125,-0.67138671875,-1.1260986328125,42.3907470703125,-60.062255859375
1760967671.7450528,-0.6787109375,-0.00146484375,0.75244140625,1.28173828125,-0.18310546875,-0.6103515625,-1.109619140625,42.3907470703125,-60.0732421875
1760967671.7536526,-0.6787109375,-0.00146484375,0.75244140625,1.28173828125,-0.18310546875,-0.6103515625,-1.1041259765625,42.38525390625,-60.084228515625
1760967671.7887225,-0.67333984375,-0.013671875,0.72900390625,-1.03759765625,-0.06103515625,-0.30517578125,-1.1041259765625,42.3797607421875,-60.0897216796875
1760967671.8007846,-0.67333984375,-0.013671875,0.72900390625,-1.03759765625,-0.06103515625,-0.30517578125,-1.1151123046875,42.3797607421875,-60.09521484375
1760967671.8072958,-0.65966796875,-0.03076171875,0.75830078125,0.48828125,-0.18310546875,-0.18310546875,-1.12060546875,42.374267578125,-60.1007080078125
1760967671.8169253,-0.65966796875,-0.03076171875,0.75830078125,0.48828125,-0.18310546875,-0.18310546875,-1.1151123046875,42.3687744140625,-60.106201171875
1760967671.8232772,-0.65576171875,-0.02783203125,0.76318359375,2.01416015625,-0.18310546875,-0.1220703125,-1.109619140625,42.3687744140625,-60.106201171875
1760967671.8324232,-0.65576171875,-0.02783203125,0.76318359375,2.01416015625,-0.18310546875,-0.1220703125,-1.087646484375,42.36328125,-60.1116943359375
1760967671.8401656,-0.66064453125,-0.01611328125,0.76318359375,2.99072265625,-0.244140625,-0.06103515625,-1.065673828125,42.352294921875,-60.1171875
1760967671.8545122,-0.66064453125,-0.01611328125,0.76318359375,2.99072265625,-0.244140625,-0.06103515625,-1.0382080078125,42.3468017578125,-60.1226806640625
1760967671.861294,-0.66845703125,0.0,0.7373046875,2.5634765625,-0.30517578125,0.0,-1.0162353515625,42.34130859375,-60.128173828125
1760967671.8788116,-0.66845703125,0.0,0.7373046875,2.5634765625,-0.30517578125,0.0,-0.98876953125,42.330322265625,-60.128173828125
1760967671.8854258,-0.6728515625,-0.00537109375,0.75146484375,2.13623046875,-0.30517578125,0.06103515625,-0.9722900390625,42.3248291015625,-60.128173828125
1760967671.8923488,-0.6728515625,-0.00537109375,0.75146484375,2.13623046875,-0.30517578125,0.06103515625,-0.9503173828125,42.3193359375,-60.1336669921875
1760967671.9021282,-0.6611328125,0.0,0.755859375,0.67138671875,-0.54931640625,-0.18310546875,-0.94482421875,42.308349609375,-60.1336669921875
1760967671.9155734,-0.6611328125,0.0,0.755859375,0.67138671875,-0.54931640625,-0.18310546875,-0.9393310546875,42.29736328125,-60.13916015625
1760967671.9227989,-0.673828125,-0.015625,0.75,-1.15966796875,-0.48828125,0.0,-0.9503173828125,42.2918701171875,-60.13916015625
1760967671.9452612,-0.673828125,-0.015625,0.75,-1.15966796875,-0.48828125,0.0,-0.9613037109375,42.2808837890625,-60.13916015625
1760967671.959726,-0.6806640625,-0.02685546875,0.74365234375,-1.0986328125,-0.54931640625,0.0,-0.9722900390625,42.2698974609375,-60.13916015625
1760967671.9739027,-0.6806640625,-0.02685546875,0.74365234375,-1.0986328125,-0.54931640625,0.0,-0.9832763671875,42.264404296875,-60.1446533203125
1760967671.9812624,-0.68994140625,-0.01171875,0.72314453125,-0.79345703125,-0.30517578125,0.06103515625,-0.98876953125,42.2589111328125,-60.1446533203125
1760967671.9964356,-0.68994140625,-0.01171875,0.72314453125,-0.79345703125,-0.30517578125,0.06103515625,-0.999755859375,42.25341796875,-60.150146484375
1760967672.003546,-0.689453125,-0.00634765625,0.7333984375,-0.18310546875,-0.244140625,0.06103515625,-0.999755859375,42.25341796875,-60.150146484375
1760967672.0117803,-0.689453125,-0.00634765625,0.7333984375,-0.18310546875,-0.244140625,0.06103515625,-0.999755859375,42.2479248046875,-60.150146484375
1760967672.0179129,-0.685546875,-0.005859375,0.7275390625,-1.40380859375,-0.06103515625,0.1220703125,-1.0162353515625,42.25341796875,-60.1556396484375
1760967672.0318286,-0.685546875,-0.005859375,0.7275390625,-1.40380859375,-0.06103515625,0.1220703125,-1.0272216796875,42.25341796875,-60.1556396484375
1760967672.0402524,-0.685546875,-0.005859375,0.7275390625,-1.708984375,-0.06103515625,0.42724609375,-1.0382080078125,42.25341796875,-60.150146484375
1760967672.0465078,-0.68115234375,-0.0283203125,0.7529296875,-1.708984375,-0.06103515625,0.42724609375,-1.0546875,42.25341796875,-60.150146484375
1760967672.0533514,-0.68017578125,-0.02490234375,0.74267578125,-1.28173828125,0.1220703125,0.67138671875,-1.0601806640625,42.25341796875,-60.1446533203125
1760967672.0597792,-0.68017578125,-0.02490234375,0.74267578125,-1.28173828125,0.1220703125,0.67138671875,-1.065673828125,42.2589111328125,-60.13916015625
1760967672.0663598,-0.67822265625,-0.00146484375,0.71875,0.30517578125,0.06103515625,0.48828125,-1.0601806640625,42.2589111328125,-60.13916015625
1760967672.0781343,-0.67822265625,-0.00146484375,0.71875,0.30517578125,0.06103515625,0.48828125,-1.0546875,42.264404296875,-60.13916015625
1760967672.0847297,-0.68115234375,-0.015625,0.7568359375,0.48828125,0.06103515625,0.54931640625,-1.043701171875,42.264404296875,-60.1336669921875
1760967672.0920894,-0.68115234375,-0.015625,0.7568359375,0.48828125,0.06103515625,0.54931640625,-1.03271484375,42.2698974609375,-60.128173828125
1760967672.098406,-0.6474609375,-0.02001953125,0.734375,0.67138671875,-0.06103515625,0.48828125,-1.021728515625,42.2698974609375,-60.128173828125
1760967672.1061702,-0.6474609375,-0.02001953125,0.734375,0.67138671875,-0.06103515625,0.48828125,-1.0107421875,42.2698974609375,-60.1226806640625
1760967672.1378593,-0.66357421875,-0.01171875,0.78466796875,1.40380859375,0.0,0.42724609375,-0.9942626953125,42.264404296875,-60.1226806640625
1760967672.1442294,-0.66357421875,-0.01171875,0.78466796875,1.40380859375,0.0,0.42724609375,-0.977783203125,42.264404296875,-60.1226806640625
1760967672.1502392,-0.6650390625,-0.00390625,0.7509765625,-0.244140625,-0.244140625,0.6103515625,-0.977783203125,42.2589111328125,-60.1171875
1760967672.1731932,-0.6650390625,-0.00390625,0.7509765625,-0.244140625,-0.244140625,0.6103515625,-0.9722900390625,42.25341796875,-60.1116943359375
1760967672.1861641,-0.66796875,-0.00732421875,0.72314453125,-0.48828125,-0.30517578125,0.3662109375,-0.9722900390625,42.2479248046875,-60.106201171875
1760967672.2072213,-0.66796875,-0.00732421875,0.72314453125,-0.48828125,-0.30517578125,0.3662109375,-0.977783203125,42.2479248046875,-60.106201171875
1760967672.2136335,-0.6787109375,-0.0224609375,0.7646484375,0.6103515625,-0.18310546875,0.30517578125,-0.966796875,42.242431640625,-60.1007080078125
1760967672.2205427,-0.6787109375,-0.0224609375,0.7646484375,0.6103515625,-0.18310546875,0.30517578125,-0.955810546875,42.2369384765625,-60.1007080078125
1760967672.2281237,-0.671875,-0.01171875,0.73486328125,0.67138671875,-0.244140625,0.18310546875,-0.9503173828125,42.2369384765625,-60.106201171875
1760967672.235163,-0.671875,-0.01171875,0.73486328125,0.67138671875,-0.244140625,0.18310546875,-0.9393310546875,42.2314453125,-60.106201171875
1760967672.2431166,-0.681640625,-0.0068359375,0.73486328125,3.84521484375,-0.244140625,0.0,-0.9063720703125,42.2259521484375,-60.1116943359375
1760967672.2494287,-0.681640625,-0.0068359375,0.73486328125,3.84521484375,-0.244140625,0.0,-0.867919921875,42.2259521484375,-60.1116943359375
1760967672.2559998,-0.68408203125,-0.01025390625,0.73828125,3.72314453125,-0.06103515625,-0.06103515625,-0.8294677734375,42.2259521484375,-60.1171875
1760967672.2643013,-0.68408203125,-0.01025390625,0.73828125,3.72314453125,-0.06103515625,-0.06103515625,-0.791015625,42.2259521484375,-60.1226806640625
1760967672.2709656,-0.67578125,-0.01513671875,0.73486328125,2.197265625,0.1220703125,0.0,-0.7745361328125,42.2259521484375,-60.128173828125
1760967672.2778103,-0.67578125,-0.01513671875,0.73486328125,2.197265625,0.1220703125,0.0,-0.7525634765625,42.2259521484375,-60.1336669921875
1760967672.2865915,-0.67578125,-0.0078125,0.74072265625,1.64794921875,0.244140625,0.0,-0.736083984375,42.2314453125,-60.13916015625
1760967672.2931604,-0.67578125,-0.0078125,0.74072265625,1.64794921875,0.244140625,0.0,-0.7196044921875,42.2314453125,-60.1446533203125
1760967672.2999578,-0.673828125,-0.00341796875,0.76318359375,0.79345703125,0.244140625,0.0,-0.714111328125,42.2369384765625,-60.1446533203125
1760967672.3068056,-0.673828125,-0.00341796875,0.76318359375,0.79345703125,0.244140625,0.0,-0.7086181640625,42.2369384765625,-60.150146484375
1760967672.3135989,-0.66015625,-0.0068359375,0.7470703125,-0.18310546875,0.244140625,0.0,-0.7086181640625,42.242431640625,-60.1556396484375
1760967672.3224165,-0.66015625,-0.0068359375,0.7470703125,-0.18310546875,0.244140625,0.0,-0.7086181640625,42.242431640625,-60.1556396484375
1760967672.3293347,-0.658203125,-0.0126953125,0.75048828125,0.67138671875,0.18310546875,0.0,-0.703125,42.242431640625,-60.1611328125
1760967672.3364983,-0.658203125,-0.0126953125,0.75048828125,0.67138671875,0.18310546875,0.0,-0.6976318359375,42.242431640625,-60.1666259765625
1760967672.3433828,-0.65966796875,-0.001953125,0.763671875,0.79345703125,0.1220703125,0.0,-0.692138671875,42.242431640625,-60.1666259765625
1760967672.3506145,-0.65966796875,-0.001953125,0.763671875,0.79345703125,0.1220703125,0.0,-0.68115234375,42.2369384765625,-60.172119140625
1760967672.3676598,-0.6728515625,-0.0009765625,0.74609375,-0.54931640625,0.18310546875,-0.1220703125,-0.6866455078125,42.2369384765625,-60.172119140625
1760967672.3762789,-0.6728515625,-0.0009765625,0.74609375,-0.54931640625,0.18310546875,-0.1220703125,-0.692138671875,42.2369384765625,-60.1776123046875
1760967672.3848004,-0.67041015625,-0.00634765625,0.734375,-1.28173828125,0.1220703125,-0.30517578125,-0.7086181640625,42.2369384765625,-60.18310546875
1760967672.403852,-0.67041015625,-0.00634765625,0.734375,-1.28173828125,0.1220703125,-0.30517578125,-0.72509765625,42.2314453125,-60.1885986328125
1760967672.412226,-0.677734375,-0.0048828125,0.7412109375,-1.5869140625,0.18310546875,-0.30517578125,-0.7415771484375,42.2314453125,-60.1995849609375
1760967672.4204862,-0.677734375,-0.0048828125,0.7412109375,-1.5869140625,0.18310546875,-0.30517578125,-0.758056640625,42.2314453125,-60.205078125
1760967672.428754,-0.67626953125,0.001953125,0.73095703125,-1.0986328125,0.18310546875,-0.42724609375,-0.76904296875,42.2369384765625,-60.2105712890625
1760967672.4471397,-0.67626953125,0.001953125,0.73095703125,-1.0986328125,0.18310546875,-0.42724609375,-0.7855224609375,42.2369384765625,-60.2215576171875
1760967672.4535542,-0.6904296875,-0.00537109375,0.728515625,-1.953125,0.3662109375,-0.42724609375,-0.802001953125,42.2369384765625,-60.22705078125
1760967672.4606645,-0.6904296875,-0.00537109375,0.728515625,-1.953125,0.3662109375,-0.42724609375,-0.823974609375,42.242431640625,-60.238037109375
1760967672.478903,-0.701171875,-0.00439453125,0.7470703125,-3.47900390625,0.18310546875,-0.18310546875,-0.85693359375,42.2479248046875,-60.238037109375
1760967672.4854286,-0.701171875,-0.00439453125,0.7470703125,-3.47900390625,0.18310546875,-0.18310546875,-0.889892578125,42.2479248046875,-60.2435302734375
1760967672.4929817,-0.70166015625,-0.00244140625,0.71435546875,-6.16455078125,0.30517578125,-0.3662109375,-0.955810546875,42.25341796875,-60.2490234375
1760967672.5000553,-0.70166015625,-0.00244140625,0.71435546875,-6.16455078125,0.30517578125,-0.3662109375,-1.0162353515625,42.2589111328125,-60.260009765625
1760967672.506763,-0.70458984375,-0.0224609375,0.7041015625,-6.77490234375,0.18310546875,-0.244140625,-1.0821533203125,42.2698974609375,-60.2655029296875
1760967672.5218978,-0.70458984375,-0.0224609375,0.7041015625,-6.77490234375,0.18310546875,-0.244140625,-1.1480712890625,42.275390625,-60.27099609375
1760967672.52901,-0.69775390625,-0.03076171875,0.7275390625,-4.638671875,0.18310546875,-0.1220703125,-1.1920166015625,42.2808837890625,-60.2764892578125
1760967672.5354018,-0.69775390625,-0.03076171875,0.7275390625,-4.638671875,0.18310546875,-0.1220703125,-1.2359619140625,42.2918701171875,-60.281982421875
1760967672.5420651,-0.69482421875,-0.037109375,0.7392578125,-3.0517578125,0.48828125,0.42724609375,-1.263427734375,42.3028564453125,-60.281982421875
1760967672.5586236,-0.69482421875,-0.037109375,0.7392578125,-3.0517578125,0.48828125,0.42724609375,-1.2908935546875,42.3138427734375,-60.2874755859375
1760967672.5655022,-0.69775390625,-0.01123046875,0.708984375,-3.662109375,0.79345703125,0.91552734375,-1.318359375,42.330322265625,-60.281982421875
1760967672.5726779,-0.69775390625,-0.01123046875,0.708984375,-3.662109375,0.79345703125,0.91552734375,-1.3458251953125,42.3468017578125,-60.2764892578125
1760967672.5787733,-0.6884765625,-0.015625,0.744140625,-3.72314453125,0.9765625,1.220703125,-1.373291015625,42.36328125,-60.2655029296875
1760967672.5855715,-0.6884765625,-0.015625,0.744140625,-3.72314453125,0.9765625,1.220703125,-1.395263671875,42.3797607421875,-60.2545166015625
1760967672.6006026,-0.6806640625,-0.0205078125,0.7392578125,-4.5166015625,0.9765625,1.40380859375,-1.42822265625,42.396240234375,-60.2435302734375
1760967672.607391,-0.6806640625,-0.0205078125,0.7392578125,-4.5166015625,0.9765625,1.40380859375,-1.461181640625,42.4072265625,-60.2325439453125
1760967672.6144414,-0.6708984375,-0.0244140625,0.7353515625,-4.21142578125,0.732421875,1.40380859375,-1.4886474609375,42.4237060546875,-60.216064453125
1760967672.621489,-0.6708984375,-0.0244140625,0.7353515625,-4.21142578125,0.732421875,1.40380859375,-1.51611328125,42.4346923828125,-60.205078125
1760967672.6282783,-0.6845703125,-0.015625,0.755859375,-4.33349609375,0.79345703125,1.40380859375,-1.549072265625,42.4456787109375,-60.1885986328125
1760967672.6377604,-0.6845703125,-0.015625,0.755859375,-4.33349609375,0.79345703125,1.40380859375,-1.5765380859375,42.4566650390625,-60.1776123046875
1760967672.6449428,-0.69384765625,-0.00927734375,0.71875,-4.8828125,0.91552734375,1.28173828125,-1.6094970703125,42.4676513671875,-60.1611328125
1760967672.6528246,-0.69384765625,-0.00927734375,0.71875,-4.8828125,0.91552734375,1.28173828125,-1.64794921875,42.484130859375,-60.150146484375
1760967672.6590042,-0.6923828125,-0.03125,0.71728515625,-3.662109375,0.9765625,1.0986328125,-1.669921875,42.4951171875,-60.13916015625
1760967672.666238,-0.6923828125,-0.03125,0.71728515625,-3.662109375,0.9765625,1.0986328125,-1.6973876953125,42.5115966796875,-60.128173828125
1760967672.6744018,-0.6865234375,-0.03125,0.73876953125,-2.44140625,1.40380859375,0.8544921875,-1.7138671875,42.528076171875,-60.1226806640625
1760967672.6818695,-0.6865234375,-0.03125,0.73876953125,-2.44140625,1.40380859375,0.8544921875,-1.7303466796875,42.550048828125,-60.1171875
1760967672.6883757,-0.69384765625,-0.0146484375,0.74072265625,-1.708984375,1.5869140625,0.79345703125,-1.7413330078125,42.5665283203125,-60.1116943359375
1760967672.6964786,-0.69384765625,-0.0146484375,0.74072265625,-1.708984375,1.5869140625,0.79345703125,-1.746826171875,42.5885009765625,-60.1116943359375
1760967672.7030559,-0.66357421875,-0.009765625,0.7197265625,-1.8310546875,1.52587890625,0.1220703125,-1.7633056640625,42.60498046875,-60.1116943359375
1760967672.7097175,-0.66357421875,-0.009765625,0.7197265625,-1.8310546875,1.52587890625,0.1220703125,-1.77978515625,42.626953125,-60.1171875
1760967672.7170835,-0.68212890625,-0.01904296875,0.7822265625,-3.90625,1.77001953125,0.42724609375,-1.812744140625,42.6434326171875,-60.1116943359375
1760967672.724048,-0.68212890625,-0.01904296875,0.7822265625,-3.90625,1.77001953125,0.42724609375,-1.845703125,42.659912109375,-60.1116943359375
1760967672.7402124,-0.6552734375,-0.029296875,0.74755859375,-3.90625,2.01416015625,0.244140625,-1.878662109375,42.681884765625,-60.106201171875
1760967672.7469451,-0.6552734375,-0.029296875,0.74755859375,-3.90625,2.01416015625,0.244140625,-1.9171142578125,42.6983642578125,-60.106201171875
1760967672.7531476,-0.66259765625,-0.04052734375,0.75634765625,-2.3193359375,2.25830078125,0.42724609375,-1.93359375,42.7203369140625,-60.106201171875
1760967672.7611823,-0.66943359375,-0.0224609375,0.76513671875,-1.52587890625,2.62451171875,0.48828125,-1.9500732421875,42.7423095703125,-60.106201171875
1760967672.7676487,-0.66943359375,-0.0224609375,0.76513671875,-1.52587890625,2.62451171875,0.48828125,-1.9610595703125,42.7642822265625,-60.1007080078125
1760967672.7776108,-0.6708984375,-0.0244140625,0.74609375,-3.35693359375,2.8076171875,0.6103515625,-1.9775390625,42.7862548828125,-60.09521484375
1760967672.7948449,-0.6708984375,-0.0244140625,0.74609375,-3.35693359375,2.8076171875,0.6103515625,-2.0050048828125,42.813720703125,-60.0897216796875
1760967672.8034053,-0.6845703125,-0.02294921875,0.74609375,-3.173828125,2.99072265625,0.732421875,-2.032470703125,42.835693359375,-60.084228515625
1760967672.810493,-0.6845703125,-0.02294921875,0.74609375,-3.173828125,2.99072265625,0.732421875,-2.054443359375,42.8631591796875,-60.0787353515625
1760967672.823883,-0.6884765625,-0.02587890625,0.69140625,-3.662109375,3.41796875,0.67138671875,-2.0819091796875,42.890625,-60.0732421875
1760967672.8307047,-0.6884765625,-0.02587890625,0.69140625,-3.662109375,3.41796875,0.67138671875,-2.1148681640625,42.923583984375,-60.0677490234375
1760967672.8387856,-0.6904296875,-0.03564453125,0.75537109375,-2.86865234375,3.35693359375,0.79345703125,-2.1368408203125,42.95654296875,-60.062255859375
1760967672.8463712,-0.6904296875,-0.03564453125,0.75537109375,-2.86865234375,3.35693359375,0.79345703125,-2.1588134765625,42.9840087890625,-60.0567626953125
1760967672.8581789,-0.67333984375,-0.02490234375,0.736328125,-3.23486328125,3.41796875,0.79345703125,-2.186279296875,43.0169677734375,-60.05126953125
1760967672.8716142,-0.67333984375,-0.02490234375,0.736328125,-3.23486328125,3.41796875,0.79345703125,-2.208251953125,43.0499267578125,-60.0457763671875
1760967672.8794801,-0.68408203125,-0.0234375,0.732421875,-5.4931640625,3.0517578125,0.9765625,-2.2412109375,43.077392578125,-60.0347900390625
1760967672.8866737,-0.68408203125,-0.0234375,0.732421875,-5.4931640625,3.0517578125,0.9765625,-2.2906494140625,43.1048583984375,-60.029296875
1760967672.8965735,-0.67578125,-0.02001953125,0.72705078125,-4.33349609375,2.5634765625,0.79345703125,-2.3291015625,43.13232421875,-60.018310546875
1760967672.9129326,-0.67578125,-0.02001953125,0.72705078125,-4.33349609375,2.5634765625,0.79345703125,-2.362060546875,43.154296875,-60.00732421875
1760967672.9212224,-0.6787109375,-0.048828125,0.75146484375,-4.5166015625,2.5634765625,0.732421875,-2.4005126953125,43.17626953125,-60.0018310546875
1760967672.9292157,-0.6787109375,-0.048828125,0.75146484375,-4.5166015625,2.5634765625,0.732421875,-2.4334716796875,43.1982421875,-59.996337890625
1760967672.9366627,-0.68359375,-0.03076171875,0.73291015625,-4.2724609375,2.685546875,1.03759765625,-2.471923828125,43.22021484375,-59.9908447265625
1760967672.947467,-0.68359375,-0.03076171875,0.73291015625,-4.2724609375,2.685546875,1.03759765625,-2.5048828125,43.2476806640625,-59.9798583984375
1760967672.9641247,-0.68359375,-0.01806640625,0.72998046875,-4.69970703125,2.685546875,0.8544921875,-2.537841796875,43.2696533203125,-59.9688720703125
1760967672.9726336,-0.68359375,-0.01806640625,0.72998046875,-4.69970703125,2.685546875,0.8544921875,-2.5762939453125,43.2916259765625,-59.9578857421875
1760967672.9796944,-0.68115234375,-0.02294921875,0.75048828125,-5.859375,2.62451171875,0.8544921875,-2.6202392578125,43.319091796875,-59.952392578125
1760967672.996263,-0.68115234375,-0.02294921875,0.75048828125,-5.859375,2.62451171875,0.8544921875,-2.669677734375,43.341064453125,-59.94140625
1760967673.0045993,-0.673828125,-0.0390625,0.72998046875,-6.7138671875,2.197265625,0.67138671875,-2.7191162109375,43.3575439453125,-59.930419921875
1760967673.013572,-0.673828125,-0.0390625,0.72998046875,-6.7138671875,2.197265625,0.67138671875,-2.779541015625,43.3795166015625,-59.9249267578125
1760967673.0205343,-0.68017578125,-0.0498046875,0.74169921875,-3.662109375,1.8310546875,0.3662109375,-2.823486328125,43.3905029296875,-59.91943359375
1760967673.0290332,-0.68017578125,-0.0498046875,0.74169921875,-3.662109375,1.8310546875,0.3662109375,-2.8564453125,43.406982421875,-59.91943359375
1760967673.0416524,-0.6748046875,-0.04638671875,0.7294921875,0.54931640625,1.40380859375,-0.244140625,-2.867431640625,43.41796875,-59.91943359375
1760967673.050623,-0.6748046875,-0.04638671875,0.7294921875,0.54931640625,1.40380859375,-0.244140625,-2.867431640625,43.428955078125,-59.9249267578125
1760967673.0572126,-0.6787109375,-0.03662109375,0.7333984375,1.0986328125,1.220703125,-0.54931640625,-2.8619384765625,43.4344482421875,-59.930419921875
1760967673.0685883,-0.6787109375,-0.03662109375,0.7333984375,1.0986328125,1.220703125,-0.54931640625,-2.8564453125,43.43994140625,-59.94140625
1760967673.0827928,-0.6787109375,-0.03076171875,0.7490234375,0.0,0.9765625,-0.42724609375,-2.8509521484375,43.4454345703125,-59.952392578125
1760967673.0905137,-0.6787109375,-0.03076171875,0.7490234375,0.0,0.9765625,-0.42724609375,-2.8564453125,43.450927734375,-59.9578857421875
1760967673.0973105,-0.685546875,-0.03857421875,0.7294921875,-0.18310546875,0.91552734375,-0.3662109375,-2.8619384765625,43.4564208984375,-59.9688720703125
1760967673.107358,-0.685546875,-0.03857421875,0.7294921875,-0.18310546875,0.91552734375,-0.3662109375,-2.867431640625,43.4619140625,-59.974365234375
1760967673.1169024,-0.69482421875,-0.029296875,0.71044921875,-0.42724609375,0.8544921875,-0.1220703125,-2.8729248046875,43.4619140625,-59.9798583984375
1760967673.130669,-0.69482421875,-0.029296875,0.71044921875,-0.42724609375,0.8544921875,-0.1220703125,-2.8729248046875,43.4674072265625,-59.9853515625
1760967673.1387656,-0.69921875,-0.0302734375,0.7294921875,0.42724609375,1.15966796875,-0.3662109375,-2.87841796875,43.4783935546875,-59.9908447265625
1760967673.147996,-0.69921875,-0.0302734375,0.7294921875,0.42724609375,1.15966796875,-0.3662109375,-2.8729248046875,43.48388671875,-59.996337890625
1760967673.1585112,-0.6953125,-0.04833984375,0.7275390625,0.18310546875,1.52587890625,-0.30517578125,-2.8729248046875,43.494873046875,-60.00732421875
1760967673.1726327,-0.6953125,-0.04833984375,0.7275390625,0.18310546875,1.52587890625,-0.30517578125,-2.87841796875,43.5113525390625,-60.0128173828125
1760967673.1804461,-0.6962890625,-0.0478515625,0.72021484375,0.6103515625,1.8310546875,0.0,-2.8729248046875,43.5223388671875,-60.018310546875
1760967673.1873882,-0.6962890625,-0.0478515625,0.72021484375,0.6103515625,1.8310546875,0.0,-2.867431640625,43.5443115234375,-60.0238037109375
1760967673.1971478,-0.70556640625,-0.0283203125,0.7158203125,-0.244140625,1.953125,0.1220703125,-2.867431640625,43.560791015625,-60.029296875
1760967673.213483,-0.70556640625,-0.0283203125,0.7158203125,-0.244140625,1.953125,0.1220703125,-2.8729248046875,43.5772705078125,-60.0347900390625
1760967673.2200065,-0.7119140625,-0.03369140625,0.71630859375,-1.15966796875,2.197265625,0.244140625,-2.87841796875,43.5992431640625,-60.040283203125
1760967673.2271237,-0.7119140625,-0.03369140625,0.71630859375,-1.15966796875,2.197265625,0.244140625,-2.889404296875,43.6212158203125,-60.040283203125
1760967673.2370317,-0.7138671875,-0.04638671875,0.70068359375,-0.30517578125,2.62451171875,0.48828125,-2.8948974609375,43.648681640625,-60.0457763671875
1760967673.2562459,-0.7138671875,-0.04638671875,0.70068359375,-0.30517578125,2.62451171875,0.48828125,-2.8948974609375,43.6761474609375,-60.0457763671875
1760967673.2637935,-0.72021484375,-0.04833984375,0.70654296875,0.48828125,3.173828125,0.6103515625,-2.889404296875,43.7091064453125,-60.0457763671875
1760967673.271926,-0.72021484375,-0.04833984375,0.70654296875,0.48828125,3.173828125,0.6103515625,-2.87841796875,43.7420654296875,-60.0457763671875
1760967673.280058,-0.72314453125,-0.04052734375,0.6953125,2.99072265625,3.84521484375,0.732421875,-2.8619384765625,43.780517578125,-60.05126953125
1760967673.2884312,-0.72314453125,-0.04052734375,0.6953125,2.99072265625,3.84521484375,0.732421875,-2.8289794921875,43.824462890625,-60.05126953125
1760967673.3028896,-0.7216796875,-0.03662109375,0.70361328125,2.99072265625,4.150390625,1.03759765625,-2.79052734375,43.8739013671875,-60.05126953125
1760967673.312186,-0.7216796875,-0.03662109375,0.70361328125,2.99072265625,4.150390625,1.03759765625,-2.757568359375,43.9178466796875,-60.0457763671875
1760967673.319909,-0.71435546875,-0.0458984375,0.70361328125,4.638671875,4.39453125,1.220703125,-2.713623046875,43.96728515625,-60.0457763671875
1760967673.3293815,-0.71435546875,-0.0458984375,0.70361328125,4.638671875,4.39453125,1.220703125,-2.65869140625,44.0167236328125,-60.040283203125
1760967673.3423772,-0.70458984375,-0.041015625,0.705078125,7.01904296875,4.45556640625,1.220703125,-2.5982666015625,44.066162109375,-60.0347900390625
1760967673.3501174,-0.70458984375,-0.041015625,0.705078125,7.01904296875,4.45556640625,1.220703125,-2.5213623046875,44.12109375,-60.029296875
1760967673.3588402,-0.70751953125,-0.025390625,0.71630859375,5.79833984375,4.39453125,1.28173828125,-2.449951171875,44.1705322265625,-60.029296875
1760967673.3774426,-0.70751953125,-0.025390625,0.71630859375,5.79833984375,4.39453125,1.28173828125,-2.384033203125,44.2144775390625,-60.0238037109375
1760967673.3839018,-0.7109375,-0.02490234375,0.7255859375,2.99072265625,4.45556640625,1.46484375,-2.3345947265625,44.263916015625,-60.018310546875
1760967673.3904688,-0.7109375,-0.02490234375,0.7255859375,2.99072265625,4.45556640625,1.46484375,-2.296142578125,44.3133544921875,-60.00732421875
1760967673.39793,-0.7099609375,-0.02490234375,0.70458984375,1.03759765625,4.57763671875,1.64794921875,-2.26318359375,44.36279296875,-59.996337890625
1760967673.4135976,-0.7099609375,-0.02490234375,0.70458984375,1.03759765625,4.57763671875,1.64794921875,-2.2412109375,44.4122314453125,-59.9853515625
1760967673.4209323,-0.71142578125,-0.01953125,0.70263671875,0.6103515625,4.57763671875,1.46484375,-2.2247314453125,44.461669921875,-59.974365234375
1760967673.427326,-0.71142578125,-0.01953125,0.70263671875,0.6103515625,4.57763671875,1.46484375,-2.208251953125,44.5111083984375,-59.96337890625
1760967673.437616,-0.71533203125,-0.02685546875,0.7099609375,1.708984375,4.57763671875,1.28173828125,-2.186279296875,44.560546875,-59.9578857421875
1760967673.4638839,-0.71533203125,-0.02685546875,0.7099609375,1.708984375,4.57763671875,1.28173828125,-2.1588134765625,44.6044921875,-59.9468994140625
1760967673.4714313,-0.71533203125,-0.02685546875,0.7099609375,3.2958984375,4.7607421875,1.15966796875,-2.1258544921875,44.6539306640625,-59.94140625
1760967673.4776437,-0.7177734375,-0.044921875,0.70849609375,3.2958984375,4.7607421875,1.15966796875,-2.08740234375,44.7088623046875,-59.9359130859375
1760967673.4954467,-0.720703125,-0.0224609375,0.68359375,3.7841796875,4.82177734375,1.03759765625,-2.04345703125,44.75830078125,-59.930419921875
1760967673.5161006,-0.720703125,-0.0224609375,0.68359375,3.7841796875,4.82177734375,1.03759765625,-1.99951171875,44.8077392578125,-59.930419921875
1760967673.5224705,-0.7197265625,-0.0029296875,0.6923828125,2.62451171875,4.7607421875,0.6103515625,-1.966552734375,44.857177734375,-59.930419921875
1760967673.5297573,-0.7197265625,-0.0029296875,0.6923828125,2.62451171875,4.7607421875,0.6103515625,-1.9390869140625,44.912109375,-59.930419921875
1760967673.542534,-0.7060546875,-0.02490234375,0.72314453125,1.708984375,4.45556640625,0.244140625,-1.91162109375,44.9615478515625,-59.9359130859375
1760967673.5497987,-0.7060546875,-0.02490234375,0.72314453125,1.708984375,4.45556640625,0.244140625,-1.8951416015625,45.0054931640625,-59.9359130859375
1760967673.5566106,-0.68603515625,-0.03173828125,0.7275390625,2.197265625,3.7841796875,0.0,-1.878662109375,45.0494384765625,-59.9468994140625
1760967673.565064,-0.68603515625,-0.03173828125,0.7275390625,2.197265625,3.7841796875,0.0,-1.856689453125,45.087890625,-59.952392578125
1760967673.5713415,-0.6767578125,-0.01416015625,0.72705078125,3.47900390625,2.99072265625,-0.30517578125,-1.834716796875,45.120849609375,-59.96337890625
1760967673.5778034,-0.6767578125,-0.01416015625,0.72705078125,3.47900390625,2.99072265625,-0.30517578125,-1.8072509765625,45.142822265625,-59.974365234375
1760967673.5849533,-0.689453125,-0.00634765625,0.7333984375,4.39453125,2.50244140625,-0.91552734375,-1.7742919921875,45.1702880859375,-59.9853515625
1760967673.5933344,-0.689453125,-0.00634765625,0.7333984375,4.39453125,2.50244140625,-0.91552734375,-1.7413330078125,45.186767578125,-60.0018310546875
1760967673.6067967,-0.66650390625,-0.01220703125,0.7392578125,2.8076171875,1.46484375,-1.220703125,-1.7138671875,45.2032470703125,-60.0238037109375
1760967673.614218,-0.66650390625,-0.01220703125,0.7392578125,2.8076171875,1.46484375,-1.220703125,-1.6973876953125,45.208740234375,-60.040283203125
1760967673.6216197,-0.6875,-0.01513671875,0.74169921875,-1.28173828125,1.0986328125,-1.40380859375,-1.702880859375,45.2142333984375,-60.0567626953125
1760967673.628871,-0.6875,-0.01513671875,0.74169921875,-1.28173828125,1.0986328125,-1.40380859375,-1.7303466796875,45.2142333984375,-60.0787353515625
1760967673.6373713,-0.6826171875,-0.0361328125,0.7275390625,0.0,0.732421875,-1.220703125,-1.746826171875,45.2142333984375,-60.09521484375
1760967673.655937,-0.6826171875,-0.0361328125,0.7275390625,0.0,0.732421875,-1.220703125,-1.7578125,45.2142333984375,-60.1171875
1760967673.6626072,-0.685546875,-0.025390625,0.72265625,1.28173828125,0.48828125,-1.15966796875,-1.7633056640625,45.208740234375,-60.1336669921875
1760967673.670062,-0.685546875,-0.025390625,0.72265625,1.28173828125,0.48828125,-1.15966796875,-1.7633056640625,45.2032470703125,-60.150146484375
1760967673.6774237,-0.685546875,-0.025390625,0.72265625,2.8076171875,0.06103515625,-1.0986328125,-1.7578125,45.1922607421875,-60.1666259765625
1760967673.687776,-0.68115234375,-0.02490234375,0.7412109375,2.8076171875,0.06103515625,-1.0986328125,-1.7413330078125,45.186767578125,-60.18310546875
1760967673.7040026,-0.68994140625,-0.03369140625,0.7333984375,3.5400390625,0.0,-0.8544921875,-1.7138671875,45.17578125,-60.194091796875
1760967673.7113087,-0.68994140625,-0.03369140625,0.7333984375,3.5400390625,0.0,-0.8544921875,-1.6864013671875,45.164794921875,-60.2105712890625
1760967673.718761,-0.70849609375,-0.01513671875,0.6923828125,1.89208984375,0.0,-0.54931640625,-1.6754150390625,45.15380859375,-60.2215576171875
1760967673.7287326,-0.70849609375,-0.01513671875,0.6923828125,1.89208984375,0.0,-0.54931640625,-1.6644287109375,45.142822265625,-60.22705078125
1760967673.7482255,-0.7353515625,-0.00390625,0.69921875,-0.9765625,0.3662109375,-0.3662109375,-1.6754150390625,45.142822265625,-60.238037109375
1760967673.7560496,-0.7353515625,-0.00390625,0.69921875,-0.9765625,0.3662109375,-0.3662109375,-1.69189453125,45.1373291015625,-60.2435302734375
1760967673.7680547,-0.75439453125,-0.00244140625,0.6787109375,-5.7373046875,0.8544921875,-0.06103515625,-1.746826171875,45.142822265625,-60.2490234375
1760967673.775094,-0.75439453125,-0.00244140625,0.6787109375,-5.7373046875,0.8544921875,-0.06103515625,-1.8017578125,45.15380859375,-60.2490234375
1760967673.7820132,-0.7822265625,-0.021484375,0.607421875,-11.77978515625,1.77001953125,0.67138671875,-1.91162109375,45.1702880859375,-60.2435302734375
1760967673.7974293,-0.7822265625,-0.021484375,0.607421875,-11.77978515625,1.77001953125,0.67138671875,-2.021484375,45.1922607421875,-60.238037109375
1760967673.8048131,-0.7451171875,-0.04541015625,0.70458984375,-7.01904296875,0.91552734375,0.54931640625,-2.0819091796875,45.208740234375,-60.238037109375
1760967673.8139157,-0.7451171875,-0.04541015625,0.70458984375,-7.01904296875,0.91552734375,0.54931640625,-2.142333984375,45.2252197265625,-60.2325439453125
1760967673.8206732,-0.7431640625,-0.02392578125,0.66552734375,-6.53076171875,1.5869140625,0.6103515625,-2.2027587890625,45.252685546875,-60.2325439453125
1760967673.839091,-0.7431640625,-0.02392578125,0.66552734375,-6.53076171875,1.5869140625,0.6103515625,-2.2576904296875,45.274658203125,-60.2325439453125
1760967673.8458261,-0.748046875,-0.03369140625,0.662109375,-5.2490234375,1.46484375,0.732421875,-2.3016357421875,45.296630859375,-60.2325439453125
1760967673.8571138,-0.748046875,-0.03369140625,0.662109375,-5.2490234375,1.46484375,0.732421875,-2.3455810546875,45.3240966796875,-60.22705078125
1760967673.8649726,-0.7431640625,-0.03125,0.681640625,-7.99560546875,1.64794921875,1.28173828125,-2.4114990234375,45.3515625,-60.2215576171875
1760967673.8836966,-0.7431640625,-0.03125,0.681640625,-7.99560546875,1.64794921875,1.28173828125,-2.4774169921875,45.3790283203125,-60.2105712890625
1760967673.89337,-0.74365234375,-0.0185546875,0.68603515625,-10.1318359375,1.77001953125,1.52587890625,-2.5653076171875,45.406494140625,-60.1995849609375
1760967673.9038117,-0.74365234375,-0.0185546875,0.68603515625,-10.1318359375,1.77001953125,1.52587890625,-2.647705078125,45.4339599609375,-60.18310546875
