timestamp,acc_x,acc_y,acc_z,gyro_x,gyro_y,gyro_z,angle_x,angle_y,angle_z
1760836647.8172436,-0.515625,-0.00439453125,0.85693359375,1.0986328125,-0.30517578125,-0.67138671875,-0.1483154296875,31.190185546875,-95.6085205078125
1760836647.8259552,-0.52001953125,0.00927734375,0.8583984375,0.8544921875,-0.3662109375,-0.54931640625,-0.142822265625,31.1846923828125,-95.614013671875
1760836647.8378553,-0.52001953125,0.00927734375,0.8583984375,0.8544921875,-0.3662109375,-0.54931640625,-0.1373291015625,31.17919921875,-95.6195068359375
1760836647.8501873,-0.52099609375,-0.00341796875,0.8564453125,-0.1220703125,-0.30517578125,-0.42724609375,-0.142822265625,31.17919921875,-95.625
1760836647.8619657,-0.52099609375,-0.00341796875,0.8564453125,-0.1220703125,-0.30517578125,-0.42724609375,-0.1483154296875,31.1737060546875,-95.6304931640625
1760836647.871177,-0.51953125,-0.0087890625,0.85498046875,0.6103515625,-0.244140625,-0.30517578125,-0.142822265625,31.1737060546875,-95.6304931640625
1760836647.8799136,-0.51953125,-0.0087890625,0.85498046875,0.6103515625,-0.244140625,-0.30517578125,-0.1373291015625,31.168212890625,-95.635986328125
1760836647.8885567,-0.51806640625,0.0009765625,0.85791015625,1.0986328125,-0.1220703125,-0.3662109375,-0.1263427734375,31.168212890625,-95.635986328125
1760836647.8972945,-0.51806640625,0.0009765625,0.85791015625,1.0986328125,-0.1220703125,-0.3662109375,-0.120849609375,31.168212890625,-95.6414794921875
1760836647.905444,-0.517578125,0.00244140625,0.859375,0.18310546875,0.0,-0.244140625,-0.120849609375,31.168212890625,-95.64697265625
1760836647.9144351,-0.517578125,0.00244140625,0.859375,0.18310546875,0.0,-0.244140625,-0.120849609375,31.168212890625,-95.64697265625
1760836647.9236593,-0.5166015625,-0.0009765625,0.8583984375,-0.18310546875,0.0,-0.06103515625,-0.120849609375,31.168212890625,-95.64697265625
1760836647.9336884,-0.5166015625,-0.0009765625,0.8583984375,-0.18310546875,0.0,-0.06103515625,-0.120849609375,31.168212890625,-95.64697265625
1760836647.9437268,-0.5166015625,-0.005859375,0.86083984375,-0.18310546875,-0.06103515625,0.06103515625,-0.1263427734375,31.168212890625,-95.64697265625
1760836647.953798,-0.5166015625,-0.005859375,0.86083984375,-0.18310546875,-0.06103515625,0.06103515625,-0.1263427734375,31.1627197265625,-95.6414794921875
1760836647.9637027,-0.5146484375,-0.00830078125,0.85888671875,0.3662109375,-0.1220703125,0.06103515625,-0.120849609375,31.1627197265625,-95.6414794921875
1760836647.9736786,-0.5126953125,-0.00341796875,0.86181640625,1.0986328125,-0.18310546875,0.0,-0.1153564453125,31.1627197265625,-95.6414794921875
1760836647.9870605,-0.5126953125,-0.00341796875,0.86181640625,1.0986328125,-0.18310546875,0.0,-0.1043701171875,31.1572265625,-95.6414794921875
1760836647.994048,-0.5205078125,0.00537109375,0.8564453125,1.15966796875,-0.1220703125,0.06103515625,-0.0933837890625,31.1572265625,-95.6414794921875
1760836648.0037682,-0.5205078125,0.00537109375,0.8564453125,1.15966796875,-0.1220703125,0.06103515625,-0.0823974609375,31.1572265625,-95.6414794921875
1760836648.0138693,-0.52880859375,0.001953125,0.8515625,0.244140625,0.0,0.06103515625,-0.0714111328125,31.1517333984375,-95.6414794921875
1760836648.023773,-0.52880859375,0.001953125,0.8515625,0.244140625,0.0,0.06103515625,-0.0714111328125,31.1517333984375,-95.635986328125
1760836648.0337682,-0.52734375,0.00146484375,0.85302734375,0.0,0.1220703125,0.1220703125,-0.0714111328125,31.1572265625,-95.635986328125
1760836648.0437799,-0.52734375,0.00146484375,0.85302734375,0.0,0.1220703125,0.1220703125,-0.06591796875,31.1572265625,-95.6304931640625
1760836648.053805,-0.5205078125,-0.00048828125,0.85888671875,0.3662109375,0.18310546875,0.1220703125,-0.06591796875,31.1572265625,-95.6304931640625
1760836648.0638046,-0.5205078125,-0.00048828125,0.85888671875,0.3662109375,0.18310546875,0.1220703125,-0.0604248046875,31.1627197265625,-95.6304931640625
1760836648.0738094,-0.521484375,0.001953125,0.8564453125,0.244140625,0.244140625,0.0,-0.054931640625,31.1627197265625,-95.625
1760836648.083812,-0.521484375,0.001953125,0.8564453125,0.244140625,0.244140625,0.0,-0.054931640625,31.168212890625,-95.625
1760836648.0938165,-0.52734375,0.0048828125,0.8515625,0.48828125,0.6103515625,0.0,-0.0494384765625,31.1737060546875,-95.625
1760836648.1038268,-0.52734375,0.0048828125,0.8515625,0.48828125,0.6103515625,0.0,-0.0439453125,31.17919921875,-95.625
1760836648.11388,-0.5302734375,0.0048828125,0.85595703125,-0.18310546875,1.03759765625,-0.244140625,-0.0439453125,31.190185546875,-95.625
1760836648.1238818,-0.5302734375,0.0048828125,0.85595703125,-0.18310546875,1.03759765625,-0.244140625,-0.0439453125,31.201171875,-95.625
1760836648.133915,-0.5244140625,0.00244140625,0.85986328125,-0.79345703125,1.3427734375,-0.54931640625,-0.054931640625,31.2176513671875,-95.6304931640625
1760836648.1439106,-0.5244140625,0.00244140625,0.85986328125,-0.79345703125,1.3427734375,-0.54931640625,-0.0604248046875,31.2286376953125,-95.635986328125
1760836648.1539204,-0.51513671875,-0.00048828125,0.86279296875,-0.67138671875,1.46484375,-0.6103515625,-0.0714111328125,31.2451171875,-95.6414794921875
1760836648.16393,-0.51513671875,-0.00048828125,0.86279296875,-0.67138671875,1.46484375,-0.6103515625,-0.0823974609375,31.2615966796875,-95.64697265625
1760836648.1739476,-0.509765625,-0.0048828125,0.86474609375,-0.48828125,1.46484375,-0.67138671875,-0.087890625,31.2725830078125,-95.6524658203125
1760836648.1839523,-0.509765625,-0.0048828125,0.86474609375,-0.48828125,1.46484375,-0.67138671875,-0.098876953125,31.2890625,-95.657958984375
1760836648.1939666,-0.51611328125,0.00537109375,0.85888671875,-0.732421875,1.46484375,-0.48828125,-0.1043701171875,31.3055419921875,-95.6634521484375
1760836648.203978,-0.51611328125,0.00537109375,0.85888671875,-0.732421875,1.46484375,-0.48828125,-0.1153564453125,31.3165283203125,-95.6689453125
1760836648.213996,-0.521484375,0.001953125,0.8583984375,-1.64794921875,1.40380859375,-0.30517578125,-0.1318359375,31.3330078125,-95.6689453125
1760836648.2240036,-0.521484375,0.001953125,0.8583984375,-1.64794921875,1.40380859375,-0.30517578125,-0.1483154296875,31.343994140625,-95.6744384765625
1760836648.2340155,-0.5263671875,-0.005859375,0.853515625,-1.953125,1.52587890625,-0.18310546875,-0.164794921875,31.35498046875,-95.6744384765625
1760836648.2440295,-0.5263671875,-0.005859375,0.853515625,-1.953125,1.52587890625,-0.18310546875,-0.1812744140625,31.3714599609375,-95.6744384765625
1760836648.2540295,-0.521484375,-0.00439453125,0.85302734375,-1.3427734375,1.708984375,-0.18310546875,-0.19775390625,31.387939453125,-95.6744384765625
1760836648.264071,-0.521484375,-0.00439453125,0.85302734375,-1.3427734375,1.708984375,-0.18310546875,-0.2142333984375,31.4044189453125,-95.679931640625
1760836648.274055,-0.52294921875,-0.0048828125,0.86279296875,-0.54931640625,1.708984375,-0.42724609375,-0.2252197265625,31.4208984375,-95.679931640625
1760836648.2840607,-0.52294921875,-0.0048828125,0.86279296875,-0.54931640625,1.708984375,-0.42724609375,-0.230712890625,31.4373779296875,-95.6854248046875
1760836648.2940736,-0.52197265625,-0.001953125,0.85302734375,0.0,1.708984375,-0.67138671875,-0.2362060546875,31.453857421875,-95.69091796875
1760836648.3040764,-0.52197265625,-0.001953125,0.85302734375,0.0,1.708984375,-0.67138671875,-0.24169921875,31.4703369140625,-95.6964111328125
1760836648.3141177,-0.52001953125,-0.00390625,0.8564453125,1.15966796875,1.8310546875,-0.9765625,-0.2362060546875,31.48681640625,-95.7073974609375
1760836648.3241203,-0.52001953125,-0.00390625,0.8564453125,1.15966796875,1.8310546875,-0.9765625,-0.230712890625,31.5032958984375,-95.7183837890625
1760836648.3341355,-0.5185546875,-0.00439453125,0.86083984375,1.0986328125,2.01416015625,-1.220703125,-0.2252197265625,31.519775390625,-95.7293701171875
1760836648.3441484,-0.5185546875,-0.00439453125,0.86083984375,1.0986328125,2.01416015625,-1.220703125,-0.2252197265625,31.5362548828125,-95.7403564453125
1760836648.3542738,-0.5244140625,0.0048828125,0.8525390625,1.0986328125,2.197265625,-1.28173828125,-0.2197265625,31.5582275390625,-95.7568359375
1760836648.3643048,-0.5244140625,0.0048828125,0.8525390625,1.0986328125,2.197265625,-1.28173828125,-0.2142333984375,31.5802001953125,-95.767822265625
1760836648.374294,-0.525390625,-0.001953125,0.857421875,0.1220703125,2.38037109375,-1.3427734375,-0.2197265625,31.5966796875,-95.7843017578125
1760836648.3842778,-0.525390625,-0.001953125,0.857421875,0.1220703125,2.38037109375,-1.3427734375,-0.2252197265625,31.61865234375,-95.7952880859375
1760836648.3942668,-0.5205078125,-0.0078125,0.8525390625,1.40380859375,2.38037109375,-1.5869140625,-0.2252197265625,31.640625,-95.811767578125
1760836648.4042773,-0.5205078125,-0.0078125,0.8525390625,1.40380859375,2.38037109375,-1.5869140625,-0.2197265625,31.66259765625,-95.8282470703125
1760836648.4144793,-0.51611328125,-0.0048828125,0.86474609375,2.74658203125,2.197265625,-1.89208984375,-0.208740234375,31.6845703125,-95.8502197265625
1760836648.4244895,-0.51611328125,-0.0048828125,0.86474609375,2.74658203125,2.197265625,-1.89208984375,-0.1922607421875,31.70654296875,-95.8721923828125
1760836648.4343395,-0.52294921875,-0.0068359375,0.85205078125,2.8076171875,1.953125,-2.13623046875,-0.17578125,31.7230224609375,-95.8941650390625
1760836648.4443958,-0.52294921875,-0.0068359375,0.85205078125,2.8076171875,1.953125,-2.13623046875,-0.164794921875,31.739501953125,-95.921630859375
1760836648.4543216,-0.52490234375,0.0068359375,0.84765625,3.0517578125,1.64794921875,-2.01416015625,-0.1483154296875,31.7559814453125,-95.943603515625
1760836648.4653637,-0.52490234375,0.0068359375,0.84765625,3.0517578125,1.64794921875,-2.01416015625,-0.1318359375,31.7669677734375,-95.965576171875
1760836648.47449,-0.51416015625,-0.0009765625,0.85986328125,3.5400390625,1.15966796875,-1.953125,-0.10986328125,31.783447265625,-95.987548828125
1760836648.4843385,-0.51416015625,-0.0009765625,0.85986328125,3.5400390625,1.15966796875,-1.953125,-0.087890625,31.7889404296875,-96.009521484375
1760836648.4944406,-0.51123046875,-0.0107421875,0.8603515625,3.60107421875,0.79345703125,-2.13623046875,-0.06591796875,31.79443359375,-96.031494140625
1760836648.5043938,-0.51123046875,-0.0107421875,0.8603515625,3.60107421875,0.79345703125,-2.13623046875,-0.0439453125,31.7999267578125,-96.0589599609375
1760836648.5145757,-0.525390625,0.0068359375,0.84814453125,3.35693359375,0.67138671875,-2.0751953125,-0.02197265625,31.805419921875,-96.0809326171875
1760836648.5245225,-0.525390625,0.0068359375,0.84814453125,3.35693359375,0.67138671875,-2.0751953125,0.0,31.8109130859375,-96.1083984375
1760836648.534709,-0.53125,0.0078125,0.85546875,1.953125,0.48828125,-1.77001953125,0.0054931640625,31.8109130859375,-96.13037109375
1760836648.5446172,-0.53125,0.0078125,0.85546875,1.953125,0.48828125,-1.77001953125,0.0164794921875,31.8109130859375,-96.1468505859375
1760836648.5548255,-0.52978515625,-0.00439453125,0.84814453125,2.0751953125,0.18310546875,-1.708984375,0.0274658203125,31.81640625,-96.1688232421875
1760836648.5646992,-0.52978515625,-0.00439453125,0.84814453125,2.0751953125,0.18310546875,-1.708984375,0.032958984375,31.81640625,-96.185302734375
1760836648.575121,-0.5341796875,-0.00341796875,0.8486328125,2.9296875,0.06103515625,-1.89208984375,0.0494384765625,31.8109130859375,-96.207275390625
1760836648.584587,-0.5341796875,-0.00341796875,0.8486328125,2.9296875,0.06103515625,-1.89208984375,0.06591796875,31.8109130859375,-96.229248046875
1760836648.594782,-0.55615234375,0.01220703125,0.84326171875,1.40380859375,0.18310546875,-1.708984375,0.076904296875,31.8109130859375,-96.251220703125
1760836648.6044934,-0.55615234375,0.01220703125,0.84326171875,1.40380859375,0.18310546875,-1.708984375,0.076904296875,31.81640625,-96.273193359375
1760836648.615437,-0.560546875,0.00927734375,0.8271484375,-0.18310546875,0.79345703125,-1.46484375,0.076904296875,31.8218994140625,-96.2896728515625
1760836648.6247756,-0.560546875,0.00927734375,0.8271484375,-0.18310546875,0.79345703125,-1.46484375,0.06591796875,31.8328857421875,-96.3006591796875
1760836648.6354523,-0.541015625,-0.0048828125,0.84423828125,-1.03759765625,1.40380859375,-1.3427734375,0.0494384765625,31.8438720703125,-96.317138671875
1760836648.6446311,-0.541015625,-0.0048828125,0.84423828125,-1.03759765625,1.40380859375,-1.3427734375,0.032958984375,31.8658447265625,-96.3336181640625
1760836648.6546752,-0.5244140625,-0.00927734375,0.86328125,-0.06103515625,1.46484375,-1.220703125,0.0164794921875,31.88232421875,-96.3446044921875
1760836648.664584,-0.5244140625,-0.00927734375,0.86328125,-0.06103515625,1.46484375,-1.220703125,0.010986328125,31.8988037109375,-96.361083984375
1760836648.6747015,-0.52294921875,0.00048828125,0.85546875,0.30517578125,1.3427734375,-1.0986328125,0.0054931640625,31.915283203125,-96.3720703125
1760836648.6875439,-0.52294921875,0.00048828125,0.85546875,0.30517578125,1.3427734375,-1.0986328125,0.0,31.92626953125,-96.383056640625
1760836648.6947074,-0.53125,0.0029296875,0.84716796875,0.244140625,1.52587890625,-0.91552734375,0.0,31.9427490234375,-96.3995361328125
1760836648.7046227,-0.53125,0.0029296875,0.84716796875,0.244140625,1.52587890625,-0.91552734375,0.0,31.959228515625,-96.405029296875
1760836648.7148843,-0.53125,0.00244140625,0.8525390625,-0.732421875,1.89208984375,-0.79345703125,-0.010986328125,31.9757080078125,-96.416015625
1760836648.7246304,-0.53125,0.00244140625,0.8525390625,-0.732421875,1.89208984375,-0.79345703125,-0.02197265625,31.9976806640625,-96.427001953125
1760836648.73465,-0.53125,0.0029296875,0.85498046875,-1.953125,1.953125,-0.54931640625,-0.0384521484375,32.01416015625,-96.4324951171875
1760836648.744899,-0.53125,0.0029296875,0.85498046875,-1.953125,1.953125,-0.54931640625,-0.0604248046875,32.0361328125,-96.43798828125
1760836648.7556255,-0.5341796875,-0.00048828125,0.84375,-2.3193359375,1.89208984375,-0.3662109375,-0.0823974609375,32.0526123046875,-96.4434814453125
1760836648.7648568,-0.5341796875,-0.00048828125,0.84375,-2.3193359375,1.89208984375,-0.3662109375,-0.10986328125,32.0745849609375,-96.4434814453125
1760836648.774982,-0.533203125,-0.0087890625,0.849609375,-1.89208984375,1.89208984375,-0.244140625,-0.1318359375,32.091064453125,-96.4434814453125
1760836648.7846606,-0.533203125,-0.0087890625,0.849609375,-1.89208984375,1.89208984375,-0.244140625,-0.1483154296875,32.1075439453125,-96.448974609375
1760836648.79546,-0.5341796875,-0.005859375,0.849609375,-1.3427734375,1.5869140625,-0.06103515625,-0.164794921875,32.1295166015625,-96.448974609375
1760836648.805463,-0.5341796875,-0.005859375,0.849609375,-1.3427734375,1.5869140625,-0.06103515625,-0.1812744140625,32.1405029296875,-96.448974609375
1760836648.816222,-0.529296875,-0.00341796875,0.8466796875,-0.79345703125,1.220703125,0.1220703125,-0.1922607421875,32.156982421875,-96.448974609375
1760836648.8258514,-0.529296875,-0.00341796875,0.8466796875,-0.79345703125,1.220703125,0.1220703125,-0.19775390625,32.16796875,-96.4434814453125
1760836648.8374617,-0.52783203125,-0.00830078125,0.8515625,-0.42724609375,0.9765625,0.0,-0.2032470703125,32.178955078125,-96.4434814453125
1760836648.855333,-0.52783203125,-0.00830078125,0.8515625,-0.42724609375,0.9765625,0.0,-0.208740234375,32.18994140625,-96.4434814453125
1760836648.8695495,-0.52392578125,-0.005859375,0.8505859375,-0.79345703125,0.732421875,-0.1220703125,-0.2142333984375,32.1954345703125,-96.4434814453125
1760836648.8765483,-0.52392578125,-0.005859375,0.8505859375,-0.79345703125,0.732421875,-0.1220703125,-0.2197265625,32.200927734375,-96.4434814453125
1760836648.8847437,-0.53564453125,-0.0048828125,0.84619140625,0.18310546875,0.30517578125,0.0,-0.2252197265625,32.2064208984375,-96.4434814453125
1760836648.8931377,-0.53564453125,-0.0048828125,0.84619140625,0.18310546875,0.30517578125,0.0,-0.2252197265625,32.2064208984375,-96.4434814453125
1760836648.9009366,-0.54736328125,0.0009765625,0.84130859375,0.67138671875,-0.18310546875,0.1220703125,-0.2197265625,32.2064208984375,-96.4434814453125
1760836648.9157267,-0.54736328125,0.0009765625,0.84130859375,0.67138671875,-0.18310546875,0.1220703125,-0.2142333984375,32.200927734375,-96.4434814453125
1760836648.937441,-0.54736328125,-0.0068359375,0.83642578125,0.54931640625,-0.48828125,0.18310546875,-0.2032470703125,32.200927734375,-96.43798828125
1760836648.9478312,-0.54736328125,-0.0068359375,0.83642578125,0.54931640625,-0.48828125,0.18310546875,-0.19775390625,32.1954345703125,-96.43798828125
1760836648.954444,-0.546875,-0.00439453125,0.84033203125,0.91552734375,-0.54931640625,0.0,-0.1922607421875,32.18994140625,-96.4324951171875
1760836648.9691947,-0.546875,-0.00439453125,0.84033203125,0.91552734375,-0.54931640625,0.0,-0.1812744140625,32.18994140625,-96.4324951171875
1760836648.975722,-0.541015625,-0.0078125,0.8447265625,2.197265625,-0.54931640625,-0.06103515625,-0.164794921875,32.1844482421875,-96.4324951171875
1760836649.0063179,-0.541015625,-0.0078125,0.8447265625,2.197265625,-0.54931640625,-0.06103515625,-0.1483154296875,32.1844482421875,-96.43798828125
1760836649.0138159,-0.5322265625,0.00390625,0.85009765625,1.28173828125,-0.3662109375,-0.244140625,-0.1373291015625,32.178955078125,-96.43798828125
1760836649.020394,-0.5322265625,0.00390625,0.85009765625,1.28173828125,-0.3662109375,-0.244140625,-0.1263427734375,32.178955078125,-96.4434814453125
1760836649.0274441,-0.529296875,-0.001953125,0.8525390625,1.52587890625,-0.3662109375,-0.3662109375,-0.1153564453125,32.1734619140625,-96.448974609375
1760836649.034206,-0.529296875,-0.001953125,0.8525390625,1.52587890625,-0.3662109375,-0.3662109375,-0.098876953125,32.1734619140625,-96.4544677734375
1760836649.0407434,-0.533203125,-0.00439453125,0.849609375,3.7841796875,-0.30517578125,-0.3662109375,-0.06591796875,32.1734619140625,-96.4544677734375
1760836649.047853,-0.533203125,-0.00439453125,0.849609375,3.7841796875,-0.30517578125,-0.3662109375,-0.032958984375,32.16796875,-96.4599609375
1760836649.0715315,-0.533203125,0.00146484375,0.8525390625,3.84521484375,-0.244140625,-0.48828125,0.0,32.16796875,-96.470947265625
1760836649.0784793,-0.533203125,0.00146484375,0.8525390625,3.84521484375,-0.244140625,-0.48828125,0.032958984375,32.1624755859375,-96.4764404296875
1760836649.0850885,-0.53466796875,0.00439453125,0.84423828125,2.74658203125,0.0,-0.6103515625,0.054931640625,32.16796875,-96.48193359375
1760836649.09256,-0.53466796875,0.00439453125,0.84423828125,2.74658203125,0.0,-0.6103515625,0.076904296875,32.16796875,-96.492919921875
1760836649.1176815,-0.54248046875,0.00439453125,0.84765625,2.197265625,0.1220703125,-0.67138671875,0.0933837890625,32.16796875,-96.4984130859375
1760836649.12466,-0.54248046875,0.00439453125,0.84765625,2.197265625,0.1220703125,-0.67138671875,0.10986328125,32.16796875,-96.50390625
1760836649.1325898,-0.544921875,0.00537109375,0.84375,2.0751953125,0.30517578125,-0.67138671875,0.1263427734375,32.1734619140625,-96.514892578125
1760836649.1389651,-0.544921875,0.00537109375,0.84375,2.0751953125,0.30517578125,-0.67138671875,0.142822265625,32.178955078125,-96.5203857421875
1760836649.1453073,-0.54638671875,0.0048828125,0.84033203125,1.89208984375,0.54931640625,-0.732421875,0.1593017578125,32.1844482421875,-96.5313720703125
1760836649.151809,-0.54638671875,0.0048828125,0.84033203125,1.89208984375,0.54931640625,-0.732421875,0.1702880859375,32.1954345703125,-96.536865234375
1760836649.1744597,-0.5390625,0.00390625,0.84912109375,1.03759765625,0.79345703125,-0.732421875,0.17578125,32.200927734375,-96.5423583984375
1760836649.1811342,-0.5390625,0.00390625,0.84912109375,1.03759765625,0.79345703125,-0.732421875,0.1812744140625,32.2119140625,-96.5533447265625
1760836649.1875892,-0.54248046875,0.00732421875,0.845703125,0.244140625,0.91552734375,-0.732421875,0.1812744140625,32.222900390625,-96.558837890625
1760836649.1940985,-0.54248046875,0.00732421875,0.845703125,0.244140625,0.91552734375,-0.732421875,0.17578125,32.23388671875,-96.56982421875
1760836649.2004204,-0.541015625,0.0068359375,0.84423828125,0.18310546875,1.220703125,-0.79345703125,0.17578125,32.2503662109375,-96.5753173828125
1760836649.207854,-0.541015625,0.0068359375,0.84423828125,0.18310546875,1.220703125,-0.79345703125,0.1702880859375,32.2613525390625,-96.5863037109375
1760836649.2319596,-0.53515625,-0.00390625,0.84765625,0.3662109375,1.708984375,-0.91552734375,0.1702880859375,32.2833251953125,-96.591796875
1760836649.2386594,-0.53515625,-0.00390625,0.84765625,0.3662109375,1.708984375,-0.91552734375,0.1702880859375,32.2998046875,-96.602783203125
1760836649.2456677,-0.5341796875,0.00439453125,0.853515625,0.3662109375,2.0751953125,-0.8544921875,0.164794921875,32.32177734375,-96.61376953125
1760836649.2603757,-0.5341796875,0.00439453125,0.853515625,0.3662109375,2.0751953125,-0.8544921875,0.164794921875,32.34375,-96.6192626953125
1760836649.2678773,-0.53466796875,0.00244140625,0.849609375,0.48828125,2.0751953125,-0.54931640625,0.164794921875,32.36572265625,-96.624755859375
1760836649.2755408,-0.53466796875,0.00244140625,0.849609375,0.48828125,2.0751953125,-0.54931640625,0.1702880859375,32.3876953125,-96.6302490234375
1760836649.2824209,-0.53857421875,0.0,0.84423828125,0.6103515625,2.01416015625,-0.48828125,0.1702880859375,32.4041748046875,-96.6357421875
1760836649.2898142,-0.53857421875,0.0,0.84423828125,0.6103515625,2.01416015625,-0.48828125,0.17578125,32.4261474609375,-96.6412353515625
1760836649.2964017,-0.53662109375,-0.00537109375,0.84033203125,1.0986328125,2.13623046875,-0.42724609375,0.1812744140625,32.4481201171875,-96.646728515625
1760836649.3029356,-0.53662109375,-0.00537109375,0.84033203125,1.0986328125,2.13623046875,-0.42724609375,0.1922607421875,32.4700927734375,-96.6522216796875
1760836649.3109808,-0.54541015625,0.0048828125,0.8505859375,1.0986328125,1.953125,-0.244140625,0.19775390625,32.486572265625,-96.65771484375
1760836649.325499,-0.54541015625,0.0048828125,0.8505859375,1.0986328125,1.953125,-0.244140625,0.208740234375,32.508544921875,-96.65771484375
1760836649.3328912,-0.5380859375,0.00537109375,0.837890625,1.5869140625,1.5869140625,-0.06103515625,0.2197265625,32.51953125,-96.65771484375
1760836649.3394153,-0.5380859375,0.00537109375,0.837890625,1.5869140625,1.5869140625,-0.06103515625,0.2362060546875,32.5360107421875,-96.6632080078125
1760836649.3470876,-0.541015625,0.00830078125,0.84130859375,1.0986328125,1.28173828125,-0.1220703125,0.2471923828125,32.552490234375,-96.6632080078125
1760836649.3537095,-0.541015625,0.00830078125,0.84130859375,1.0986328125,1.28173828125,-0.1220703125,0.2581787109375,32.5634765625,-96.6632080078125
1760836649.3602455,-0.53662109375,0.00244140625,0.84814453125,0.48828125,0.91552734375,-0.244140625,0.2581787109375,32.574462890625,-96.668701171875
1760836649.3683324,-0.53662109375,0.00244140625,0.84814453125,0.48828125,0.91552734375,-0.244140625,0.263671875,32.5799560546875,-96.668701171875
1760836649.375291,-0.5380859375,0.0078125,0.8466796875,0.91552734375,0.30517578125,-0.42724609375,0.2691650390625,32.58544921875,-96.6741943359375
1760836649.3856869,-0.5380859375,0.0078125,0.8466796875,0.91552734375,0.30517578125,-0.42724609375,0.274658203125,32.58544921875,-96.6796875
1760836649.403861,-0.54296875,0.001953125,0.8427734375,2.25830078125,-0.1220703125,-0.6103515625,0.296630859375,32.58544921875,-96.690673828125
1760836649.4175925,-0.54296875,0.001953125,0.8427734375,2.25830078125,-0.1220703125,-0.6103515625,0.3131103515625,32.58544921875,-96.6961669921875
1760836649.4240575,-0.54248046875,0.01708984375,0.8369140625,1.3427734375,-0.1220703125,-0.79345703125,0.318603515625,32.5799560546875,-96.7071533203125
1760836649.4308925,-0.54248046875,0.01708984375,0.8369140625,1.3427734375,-0.1220703125,-0.79345703125,0.32958984375,32.5799560546875,-96.712646484375
1760836649.4386787,-0.54443359375,0.0107421875,0.841796875,0.30517578125,-0.244140625,-0.79345703125,0.32958984375,32.5799560546875,-96.7236328125
1760836649.4455135,-0.54443359375,0.0107421875,0.841796875,0.30517578125,-0.244140625,-0.79345703125,0.32958984375,32.5799560546875,-96.7291259765625
1760836649.4562547,-0.53857421875,0.0,0.84521484375,0.732421875,-0.48828125,-0.79345703125,0.32958984375,32.574462890625,-96.7401123046875
1760836649.4656906,-0.53857421875,0.0,0.84521484375,0.732421875,-0.48828125,-0.79345703125,0.3350830078125,32.5689697265625,-96.74560546875
1760836649.475616,-0.54296875,0.005859375,0.84912109375,1.708984375,-0.732421875,-0.91552734375,0.3460693359375,32.5634765625,-96.756591796875
1760836649.502429,-0.54296875,0.005859375,0.84912109375,1.708984375,-0.732421875,-0.91552734375,0.3570556640625,32.552490234375,-96.767578125
1760836649.5107927,-0.5400390625,0.0087890625,0.83935546875,0.79345703125,-0.48828125,-0.91552734375,0.3570556640625,32.552490234375,-96.778564453125
1760836649.5174227,-0.5400390625,0.0087890625,0.83935546875,0.79345703125,-0.48828125,-0.91552734375,0.362548828125,32.5469970703125,-96.78955078125
1760836649.523653,-0.54833984375,0.00732421875,0.8447265625,-0.67138671875,-0.1220703125,-0.732421875,0.3515625,32.5469970703125,-96.7950439453125
1760836649.5403254,-0.54833984375,0.00732421875,0.8447265625,-0.67138671875,-0.1220703125,-0.732421875,0.340576171875,32.5469970703125,-96.8060302734375
1760836649.5469885,-0.548828125,0.0048828125,0.841796875,-0.6103515625,0.06103515625,-0.42724609375,0.32958984375,32.5469970703125,-96.8060302734375
1760836649.5536213,-0.548828125,0.0048828125,0.841796875,-0.6103515625,0.06103515625,-0.42724609375,0.3240966796875,32.552490234375,-96.8115234375
1760836649.5601485,-0.5419921875,0.00146484375,0.84375,-0.9765625,0.42724609375,-0.244140625,0.3131103515625,32.5579833984375,-96.8170166015625
1760836649.5727618,-0.5419921875,0.00146484375,0.84375,-0.9765625,0.42724609375,-0.244140625,0.3021240234375,32.5634765625,-96.8170166015625
1760836649.580196,-0.5419921875,0.00390625,0.8466796875,-1.46484375,0.67138671875,0.0,0.28564453125,32.5689697265625,-96.8170166015625
1760836649.5942383,-0.5419921875,0.00390625,0.8466796875,-1.46484375,0.67138671875,0.0,0.274658203125,32.574462890625,-96.8115234375
1760836649.6012235,-0.54296875,-0.00634765625,0.84326171875,-0.30517578125,0.732421875,0.244140625,0.2691650390625,32.58544921875,-96.8115234375
1760836649.6144452,-0.54296875,-0.00634765625,0.84326171875,-0.30517578125,0.732421875,0.244140625,0.2691650390625,32.5909423828125,-96.8060302734375
1760836649.6271367,-0.54296875,0.0068359375,0.84912109375,-0.54931640625,0.79345703125,0.3662109375,0.263671875,32.6019287109375,-96.800537109375
1760836649.6343205,-0.54296875,0.0068359375,0.84912109375,-0.54931640625,0.79345703125,0.3662109375,0.263671875,32.6129150390625,-96.800537109375
1760836649.6460793,-0.5400390625,0.00927734375,0.8408203125,-1.5869140625,1.03759765625,0.54931640625,0.252685546875,32.6239013671875,-96.78955078125
1760836649.658581,-0.5400390625,0.00927734375,0.8408203125,-1.5869140625,1.03759765625,0.54931640625,0.2362060546875,32.6348876953125,-96.7840576171875
1760836649.6660132,-0.53955078125,0.00341796875,0.84326171875,-1.77001953125,1.220703125,0.67138671875,0.2252197265625,32.6458740234375,-96.778564453125
1760836649.677012,-0.53955078125,0.00341796875,0.84326171875,-1.77001953125,1.220703125,0.67138671875,0.2142333984375,32.6568603515625,-96.767578125
1760836649.6838992,-0.53955078125,0.00244140625,0.85009765625,-1.52587890625,1.0986328125,0.6103515625,0.2032470703125,32.6678466796875,-96.7620849609375
1760836649.6914225,-0.53955078125,0.00244140625,0.85009765625,-1.52587890625,1.0986328125,0.6103515625,0.1922607421875,32.6788330078125,-96.7510986328125
1760836649.6981516,-0.54296875,0.00390625,0.8408203125,-1.46484375,0.9765625,0.48828125,0.1812744140625,32.6898193359375,-96.74560546875
1760836649.709882,-0.54296875,0.00390625,0.8408203125,-1.46484375,0.9765625,0.48828125,0.1702880859375,32.7008056640625,-96.7401123046875
1760836649.7167654,-0.54833984375,0.00341796875,0.8369140625,-1.77001953125,0.9765625,0.42724609375,0.15380859375,32.706298828125,-96.734619140625
1760836649.7262735,-0.54833984375,0.00341796875,0.8369140625,-1.77001953125,0.9765625,0.42724609375,0.142822265625,32.71728515625,-96.7291259765625
1760836649.7356539,-0.541015625,-0.00341796875,0.8447265625,-0.67138671875,0.8544921875,0.30517578125,0.1373291015625,32.728271484375,-96.7236328125
1760836649.745705,-0.541015625,-0.00341796875,0.8447265625,-0.67138671875,0.8544921875,0.30517578125,0.1318359375,32.7337646484375,-96.7181396484375
1760836649.75655,-0.54443359375,0.0048828125,0.8427734375,-0.3662109375,0.6103515625,0.0,0.1263427734375,32.7447509765625,-96.7181396484375
1760836649.7656825,-0.54443359375,0.0048828125,0.8427734375,-0.3662109375,0.6103515625,0.0,0.1263427734375,32.750244140625,-96.7181396484375
1760836649.7776008,-0.54443359375,0.00439453125,0.833984375,-0.244140625,0.30517578125,-0.06103515625,0.120849609375,32.750244140625,-96.7181396484375
1760836649.7866535,-0.54443359375,0.00439453125,0.833984375,-0.244140625,0.30517578125,-0.06103515625,0.120849609375,32.7557373046875,-96.7181396484375
1760836649.7957723,-0.54541015625,0.00390625,0.84619140625,-0.06103515625,0.0,-0.18310546875,0.120849609375,32.7557373046875,-96.7181396484375
1760836649.80983,-0.54541015625,0.00390625,0.84619140625,-0.06103515625,0.0,-0.18310546875,0.120849609375,32.7557373046875,-96.7181396484375
1760836649.8164454,-0.544921875,0.00439453125,0.84130859375,0.0,-0.1220703125,-0.30517578125,0.1153564453125,32.7557373046875,-96.7236328125
1760836649.8258152,-0.544921875,0.00439453125,0.84130859375,0.0,-0.1220703125,-0.30517578125,0.1153564453125,32.7557373046875,-96.7236328125
1760836649.8451655,-0.546875,0.00927734375,0.83740234375,-0.91552734375,0.06103515625,-0.42724609375,0.1043701171875,32.7557373046875,-96.7291259765625
1760836649.8559973,-0.546875,0.00927734375,0.83740234375,-0.91552734375,0.06103515625,-0.42724609375,0.0933837890625,32.7557373046875,-96.7291259765625
1760836649.8628495,-0.5478515625,0.00341796875,0.8388671875,-1.64794921875,0.244140625,-0.42724609375,0.076904296875,32.76123046875,-96.734619140625
1760836649.8693914,-0.5478515625,0.00341796875,0.8388671875,-1.64794921875,0.244140625,-0.42724609375,0.0604248046875,32.7667236328125,-96.734619140625
1760836649.8761842,-0.53955078125,-0.0087890625,0.84765625,-0.91552734375,0.30517578125,-0.42724609375,0.0494384765625,32.7667236328125,-96.7401123046875
1760836649.894159,-0.53955078125,-0.0087890625,0.84765625,-0.91552734375,0.30517578125,-0.42724609375,0.0384521484375,32.772216796875,-96.74560546875
1760836649.9009352,-0.541015625,-0.0009765625,0.84765625,0.0,0.30517578125,-0.30517578125,0.032958984375,32.7777099609375,-96.74560546875
1760836649.9079847,-0.541015625,-0.0009765625,0.84765625,0.0,0.30517578125,-0.30517578125,0.032958984375,32.7777099609375,-96.7510986328125
1760836649.9157515,-0.54638671875,-0.00390625,0.84033203125,0.18310546875,0.48828125,0.0,0.032958984375,32.783203125,-96.7510986328125
1760836649.926245,-0.54638671875,-0.00390625,0.84033203125,0.18310546875,0.48828125,0.0,0.0384521484375,32.7886962890625,-96.74560546875
1760836649.9438636,-0.54931640625,0.00146484375,0.8349609375,-0.1220703125,0.79345703125,0.1220703125,0.0384521484375,32.7996826171875,-96.74560546875
1760836649.9553022,-0.54931640625,0.00146484375,0.8349609375,-0.1220703125,0.79345703125,0.1220703125,0.0384521484375,32.80517578125,-96.74560546875
1760836649.9622304,-0.53759765625,-0.0029296875,0.85009765625,-0.1220703125,0.8544921875,0.244140625,0.0384521484375,32.816162109375,-96.7401123046875
1760836649.980878,-0.53759765625,-0.0029296875,0.85009765625,-0.1220703125,0.8544921875,0.244140625,0.0384521484375,32.8271484375,-96.7401123046875
1760836649.9963017,-0.5361328125,-0.00244140625,0.84814453125,0.0,0.79345703125,0.30517578125,0.0384521484375,32.8326416015625,-96.734619140625
1760836650.0053608,-0.5390625,0.0029296875,0.84228515625,0.42724609375,0.67138671875,0.244140625,0.0439453125,32.838134765625,-96.7291259765625
1760836650.0286098,-0.5390625,0.0029296875,0.84228515625,0.42724609375,0.67138671875,0.244140625,0.0494384765625,32.8436279296875,-96.7291259765625
1760836650.0350268,-0.54833984375,0.0068359375,0.84326171875,0.18310546875,0.732421875,0.1220703125,0.0494384765625,32.84912109375,-96.7236328125
1760836650.044116,-0.54833984375,0.0068359375,0.84326171875,0.18310546875,0.732421875,0.1220703125,0.054931640625,32.860107421875,-96.7236328125
1760836650.058767,-0.5498046875,0.00537109375,0.8369140625,-0.3662109375,0.732421875,0.06103515625,0.054931640625,32.8656005859375,-96.7236328125
1760836650.0756824,-0.5498046875,0.00537109375,0.8369140625,-0.3662109375,0.732421875,0.06103515625,0.0494384765625,32.87109375,-96.7181396484375
1760836650.082275,-0.5478515625,0.00146484375,0.83837890625,-0.9765625,0.732421875,0.06103515625,0.0439453125,32.8765869140625,-96.7181396484375
1760836650.0898962,-0.5478515625,0.00146484375,0.83837890625,-0.9765625,0.732421875,0.06103515625,0.0384521484375,32.8875732421875,-96.7181396484375
1760836650.0973678,-0.5419921875,-0.00048828125,0.84228515625,-0.244140625,0.42724609375,0.0,0.032958984375,32.89306640625,-96.7181396484375
1760836650.1141078,-0.5419921875,-0.00048828125,0.84228515625,-0.244140625,0.42724609375,0.0,0.0274658203125,32.8985595703125,-96.712646484375
1760836650.122697,-0.54150390625,-0.00048828125,0.84521484375,0.8544921875,0.06103515625,-0.1220703125,0.032958984375,32.8985595703125,-96.712646484375
1760836650.1300275,-0.54150390625,-0.00048828125,0.84521484375,0.8544921875,0.06103515625,-0.1220703125,0.0384521484375,32.8985595703125,-96.7181396484375
1760836650.1393313,-0.5458984375,0.0068359375,0.8388671875,0.1220703125,0.0,-0.244140625,0.0439453125,32.8985595703125,-96.7181396484375
1760836650.1541302,-0.5458984375,0.0068359375,0.8388671875,0.1220703125,0.0,-0.244140625,0.0439453125,32.8985595703125,-96.7181396484375
1760836650.160716,-0.5478515625,0.00537109375,0.8359375,-0.30517578125,0.18310546875,-0.18310546875,0.0439453125,32.8985595703125,-96.7236328125
1760836650.1694996,-0.5478515625,0.00537109375,0.8359375,-0.30517578125,0.18310546875,-0.18310546875,0.0384521484375,32.904052734375,-96.7236328125
1760836650.1788273,-0.54736328125,-0.00146484375,0.83935546875,-0.30517578125,0.244140625,-0.1220703125,0.0384521484375,32.904052734375,-96.7236328125
1760836650.1864595,-0.54736328125,-0.00146484375,0.83935546875,-0.30517578125,0.244140625,-0.1220703125,0.032958984375,32.9095458984375,-96.7236328125
1760836650.1937137,-0.533203125,-0.00146484375,0.84521484375,0.1220703125,0.06103515625,-0.1220703125,0.032958984375,32.9095458984375,-96.7236328125
1760836650.2012017,-0.533203125,-0.00146484375,0.84521484375,0.1220703125,0.06103515625,-0.1220703125,0.032958984375,32.9095458984375,-96.7291259765625
1760836650.2075284,-0.5302734375,-0.00146484375,0.857421875,0.48828125,-0.1220703125,-0.18310546875,0.032958984375,32.9095458984375,-96.7291259765625
1760836650.2142298,-0.5302734375,-0.00146484375,0.857421875,0.48828125,-0.1220703125,-0.18310546875,0.0384521484375,32.9095458984375,-96.7291259765625
1760836650.221315,-0.53271484375,-0.00439453125,0.84228515625,1.52587890625,-0.3662109375,-0.18310546875,0.0494384765625,32.904052734375,-96.734619140625
1760836650.2321575,-0.53271484375,-0.00439453125,0.84228515625,1.52587890625,-0.3662109375,-0.18310546875,0.0604248046875,32.8985595703125,-96.7401123046875
1760836650.2412891,-0.53857421875,0.0,0.84765625,1.46484375,-0.42724609375,-0.1220703125,0.076904296875,32.89306640625,-96.7401123046875
1760836650.2490392,-0.53857421875,0.0,0.84765625,1.46484375,-0.42724609375,-0.1220703125,0.087890625,32.8875732421875,-96.74560546875
1760836650.256838,-0.54248046875,0.00048828125,0.845703125,1.220703125,-0.54931640625,0.06103515625,0.098876953125,32.8765869140625,-96.74560546875
1760836650.2646182,-0.54248046875,0.00048828125,0.845703125,1.220703125,-0.54931640625,0.06103515625,0.1153564453125,32.87109375,-96.74560546875
1760836650.2734787,-0.54443359375,-0.00048828125,0.8388671875,1.0986328125,-0.54931640625,0.244140625,0.1263427734375,32.8656005859375,-96.74560546875
1760836650.280979,-0.54443359375,-0.00048828125,0.8388671875,1.0986328125,-0.54931640625,0.244140625,0.1373291015625,32.8546142578125,-96.74560546875
1760836650.2897325,-0.54150390625,0.00341796875,0.8447265625,0.8544921875,-0.48828125,0.3662109375,0.1483154296875,32.84912109375,-96.7401123046875
1760836650.2974832,-0.54150390625,0.00341796875,0.8447265625,0.8544921875,-0.48828125,0.3662109375,0.1593017578125,32.8436279296875,-96.7401123046875
1760836650.306719,-0.544921875,0.0068359375,0.8486328125,0.6103515625,-0.48828125,0.6103515625,0.1702880859375,32.838134765625,-96.734619140625
1760836650.317305,-0.544921875,0.0068359375,0.8486328125,0.6103515625,-0.48828125,0.6103515625,0.17578125,32.8326416015625,-96.7291259765625
1760836650.3269591,-0.54443359375,0.0,0.8388671875,0.48828125,-0.42724609375,0.732421875,0.186767578125,32.8271484375,-96.7181396484375
1760836650.3368452,-0.54443359375,0.0,0.8388671875,0.48828125,-0.42724609375,0.732421875,0.19775390625,32.8216552734375,-96.712646484375
1760836650.3465247,-0.55224609375,0.001953125,0.837890625,0.42724609375,-0.18310546875,0.79345703125,0.2032470703125,32.816162109375,-96.70166015625
1760836650.3572621,-0.55224609375,0.001953125,0.837890625,0.42724609375,-0.18310546875,0.79345703125,0.2142333984375,32.816162109375,-96.6961669921875
1760836650.3716173,-0.54736328125,0.00927734375,0.845703125,-0.42724609375,0.06103515625,0.79345703125,0.2197265625,32.816162109375,-96.6851806640625
1760836650.3788497,-0.54736328125,0.00927734375,0.845703125,-0.42724609375,0.06103515625,0.79345703125,0.2197265625,32.816162109375,-96.6796875
1760836650.3882225,-0.54833984375,0.00390625,0.8427734375,-0.91552734375,0.244140625,0.91552734375,0.2142333984375,32.816162109375,-96.668701171875
1760836650.3978393,-0.54833984375,0.00390625,0.8427734375,-0.91552734375,0.244140625,0.91552734375,0.2142333984375,32.8216552734375,-96.65771484375
1760836650.4147413,-0.54541015625,0.00830078125,0.83544921875,-1.40380859375,0.54931640625,0.91552734375,0.208740234375,32.8271484375,-96.646728515625
1760836650.4217677,-0.54541015625,0.00830078125,0.83544921875,-1.40380859375,0.54931640625,0.91552734375,0.19775390625,32.8326416015625,-96.6412353515625
1760836650.4294746,-0.5439453125,0.00439453125,0.85009765625,-1.220703125,0.67138671875,0.91552734375,0.1922607421875,32.838134765625,-96.6302490234375
1760836650.4401302,-0.5439453125,0.00439453125,0.85009765625,-1.220703125,0.67138671875,0.91552734375,0.186767578125,32.8436279296875,-96.6192626953125
1760836650.455474,-0.55029296875,0.00146484375,0.84033203125,-0.79345703125,0.54931640625,0.91552734375,0.1812744140625,32.84912109375,-96.6082763671875
1760836650.4631836,-0.55029296875,0.00146484375,0.84033203125,-0.79345703125,0.54931640625,0.91552734375,0.1812744140625,32.860107421875,-96.5972900390625
1760836650.470116,-0.548828125,0.00732421875,0.8349609375,-0.9765625,0.6103515625,0.79345703125,0.1812744140625,32.8656005859375,-96.5863037109375
1760836650.477806,-0.548828125,0.00732421875,0.8349609375,-0.9765625,0.6103515625,0.79345703125,0.17578125,32.87109375,-96.5753173828125
1760836650.4931614,-0.54248046875,0.0009765625,0.84521484375,-1.15966796875,0.6103515625,0.732421875,0.1702880859375,32.8765869140625,-96.56982421875
1760836650.503448,-0.54248046875,0.0009765625,0.84521484375,-1.15966796875,0.6103515625,0.732421875,0.164794921875,32.882080078125,-96.558837890625
1760836650.510535,-0.537109375,0.0048828125,0.8447265625,-1.28173828125,0.42724609375,0.67138671875,0.1593017578125,32.8875732421875,-96.5533447265625
1760836650.520459,-0.537109375,0.0048828125,0.8447265625,-1.28173828125,0.42724609375,0.67138671875,0.1483154296875,32.89306640625,-96.5423583984375
1760836650.538836,-0.546875,0.0009765625,0.8388671875,-0.91552734375,0.244140625,0.732421875,0.142822265625,32.8985595703125,-96.5313720703125
1760836650.5519361,-0.546875,0.0009765625,0.8388671875,-0.91552734375,0.244140625,0.732421875,0.1373291015625,32.8985595703125,-96.52587890625
1760836650.5605469,-0.55517578125,-0.00048828125,0.8359375,-0.1220703125,0.18310546875,0.79345703125,0.1373291015625,32.8985595703125,-96.514892578125
1760836650.5701008,-0.55517578125,-0.00048828125,0.8359375,-0.1220703125,0.18310546875,0.79345703125,0.142822265625,32.904052734375,-96.50390625
1760836650.5894687,-0.560546875,0.00634765625,0.83154296875,0.0,0.244140625,0.8544921875,0.1483154296875,32.904052734375,-96.492919921875
1760836650.5999987,-0.560546875,0.00634765625,0.83154296875,0.0,0.244140625,0.8544921875,0.15380859375,32.9095458984375,-96.48193359375
1760836650.6185775,-0.5556640625,0.00439453125,0.83349609375,-0.732421875,0.48828125,0.8544921875,0.1593017578125,32.9150390625,-96.470947265625
1760836650.639591,-0.5556640625,0.00439453125,0.83349609375,-0.732421875,0.48828125,0.8544921875,0.15380859375,32.9205322265625,-96.4599609375
1760836650.648574,-0.55126953125,0.00732421875,0.84033203125,-1.52587890625,0.79345703125,0.8544921875,0.1483154296875,32.9315185546875,-96.448974609375
1760836650.6576216,-0.55126953125,0.00732421875,0.84033203125,-1.52587890625,0.79345703125,0.8544921875,0.142822265625,32.9425048828125,-96.43798828125
1760836650.6650095,-0.54638671875,0.00537109375,0.83837890625,-2.01416015625,0.9765625,0.8544921875,0.1318359375,32.9534912109375,-96.427001953125
1760836650.6740513,-0.54638671875,0.00537109375,0.83837890625,-2.01416015625,0.9765625,0.8544921875,0.1153564453125,32.9644775390625,-96.416015625
1760836650.6911356,-0.541015625,-0.001953125,0.8447265625,-1.40380859375,1.03759765625,0.79345703125,0.1043701171875,32.9754638671875,-96.405029296875
1760836650.69898,-0.541015625,-0.001953125,0.8447265625,-1.40380859375,1.03759765625,0.79345703125,0.098876953125,32.9864501953125,-96.39404296875
1760836650.708692,-0.5390625,0.00048828125,0.84814453125,-0.54931640625,0.8544921875,0.67138671875,0.0933837890625,32.9974365234375,-96.3885498046875
1760836650.715431,-0.5390625,0.00048828125,0.84814453125,-0.54931640625,0.8544921875,0.67138671875,0.0933837890625,33.0084228515625,-96.3775634765625
1760836650.7227304,-0.537109375,0.0029296875,0.84228515625,-0.244140625,0.79345703125,0.6103515625,0.0933837890625,33.013916015625,-96.3720703125
1760836650.7367668,-0.537109375,0.0029296875,0.84228515625,-0.244140625,0.79345703125,0.6103515625,0.098876953125,33.0194091796875,-96.3665771484375
1760836650.7462633,-0.541015625,0.00244140625,0.84326171875,-0.18310546875,0.732421875,0.48828125,0.098876953125,33.0303955078125,-96.3555908203125
1760836650.7534962,-0.541015625,0.00244140625,0.84326171875,-0.18310546875,0.732421875,0.48828125,0.098876953125,33.035888671875,-96.35009765625
1760836650.7602124,-0.54638671875,-0.00146484375,0.84375,0.42724609375,0.54931640625,0.30517578125,0.1043701171875,33.0413818359375,-96.3446044921875
1760836650.7696717,-0.54638671875,-0.00146484375,0.84375,0.42724609375,0.54931640625,0.30517578125,0.10986328125,33.046875,-96.3446044921875
1760836650.7930045,-0.546875,0.00634765625,0.83984375,0.6103515625,0.48828125,0.06103515625,0.1153564453125,33.046875,-96.3446044921875
1760836650.800764,-0.546875,0.00634765625,0.83984375,0.6103515625,0.48828125,0.06103515625,0.1263427734375,33.0523681640625,-96.3446044921875
1760836650.8091702,-0.5390625,0.0078125,0.84130859375,-0.30517578125,0.48828125,0.06103515625,0.1263427734375,33.057861328125,-96.3446044921875
1760836650.8310847,-0.5390625,0.0078125,0.84130859375,-0.30517578125,0.48828125,0.06103515625,0.1263427734375,33.0633544921875,-96.3446044921875
1760836650.8440669,-0.54541015625,0.00146484375,0.84130859375,0.1220703125,0.244140625,0.06103515625,0.1263427734375,33.0633544921875,-96.3446044921875
1760836650.8577287,-0.54541015625,0.00146484375,0.84130859375,0.1220703125,0.244140625,0.06103515625,0.1263427734375,33.0633544921875,-96.3446044921875
1760836650.864785,-0.55078125,-0.00244140625,0.84033203125,0.244140625,0.0,0.0,0.1318359375,33.0633544921875,-96.3446044921875
1760836650.8718922,-0.55078125,-0.00244140625,0.84033203125,0.244140625,0.0,0.0,0.1318359375,33.0633544921875,-96.3446044921875
1760836650.89687,-0.55078125,0.00146484375,0.83056640625,0.91552734375,-0.1220703125,-0.1220703125,0.1373291015625,33.0633544921875,-96.3446044921875
1760836650.910423,-0.55078125,0.00146484375,0.83056640625,0.91552734375,-0.1220703125,-0.1220703125,0.1483154296875,33.0633544921875,-96.35009765625
1760836650.9185104,-0.5517578125,0.0048828125,0.84423828125,0.8544921875,-0.3662109375,0.0,0.15380859375,33.057861328125,-96.35009765625
1760836650.9253602,-0.5517578125,0.0048828125,0.84423828125,0.8544921875,-0.3662109375,0.0,0.164794921875,33.057861328125,-96.35009765625
1760836650.934179,-0.5576171875,0.00634765625,0.83056640625,1.0986328125,-0.6103515625,0.06103515625,0.17578125,33.0523681640625,-96.35009765625
1760836650.9531047,-0.5576171875,0.00634765625,0.83056640625,1.0986328125,-0.6103515625,0.06103515625,0.186767578125,33.046875,-96.35009765625
1760836650.9595354,-0.55517578125,-0.0009765625,0.83154296875,1.40380859375,-0.42724609375,0.0,0.19775390625,33.0413818359375,-96.35009765625
1760836650.9666786,-0.55517578125,-0.0009765625,0.83154296875,1.40380859375,-0.42724609375,0.0,0.208740234375,33.0413818359375,-96.35009765625
1760836650.9748528,-0.55322265625,0.0068359375,0.84033203125,0.8544921875,-0.30517578125,-0.06103515625,0.2197265625,33.035888671875,-96.35009765625
1760836650.9813192,-0.55322265625,0.0068359375,0.84033203125,0.8544921875,-0.30517578125,-0.06103515625,0.230712890625,33.035888671875,-96.35009765625
1760836650.9988,-0.5537109375,0.01220703125,0.83544921875,0.67138671875,-0.244140625,0.06103515625,0.2362060546875,33.035888671875,-96.35009765625
1760836651.0052607,-0.5537109375,0.01220703125,0.83544921875,0.67138671875,-0.244140625,0.06103515625,0.2471923828125,33.035888671875,-96.35009765625
1760836651.0121505,-0.55224609375,0.005859375,0.83984375,-0.06103515625,-0.06103515625,0.06103515625,0.2471923828125,33.035888671875,-96.35009765625
1760836651.0208192,-0.55224609375,0.005859375,0.83984375,-0.06103515625,-0.06103515625,0.06103515625,0.2471923828125,33.035888671875,-96.35009765625
1760836651.0350094,-0.552734375,0.001953125,0.837890625,0.0,0.0,0.06103515625,0.252685546875,33.035888671875,-96.35009765625
1760836651.0449634,-0.552734375,0.001953125,0.837890625,0.0,0.0,0.06103515625,0.252685546875,33.0413818359375,-96.35009765625
1760836651.0565262,-0.54931640625,0.00537109375,0.8330078125,0.6103515625,0.244140625,0.06103515625,0.252685546875,33.0413818359375,-96.35009765625
1760836651.0710375,-0.54931640625,0.00537109375,0.8330078125,0.6103515625,0.244140625,0.06103515625,0.263671875,33.046875,-96.35009765625
1760836651.0797129,-0.5478515625,0.0087890625,0.84619140625,0.06103515625,0.42724609375,0.0,0.263671875,33.0523681640625,-96.35009765625
1760836651.0864694,-0.5478515625,0.0087890625,0.84619140625,0.06103515625,0.42724609375,0.0,0.263671875,33.057861328125,-96.35009765625
1760836651.093293,-0.5439453125,0.00048828125,0.8427734375,-0.06103515625,0.3662109375,-0.06103515625,0.263671875,33.0633544921875,-96.3555908203125
1760836651.100902,-0.5439453125,0.00048828125,0.8427734375,-0.06103515625,0.3662109375,-0.06103515625,0.263671875,33.06884765625,-96.3555908203125
1760836651.1076555,-0.53955078125,0.0029296875,0.8408203125,0.9765625,0.3662109375,-0.18310546875,0.2691650390625,33.0743408203125,-96.3555908203125
1760836651.1226172,-0.53955078125,0.0029296875,0.8408203125,0.9765625,0.3662109375,-0.18310546875,0.2801513671875,33.0743408203125,-96.361083984375
1760836651.1293964,-0.5517578125,0.00830078125,0.84326171875,1.15966796875,0.18310546875,-0.1220703125,0.2911376953125,33.079833984375,-96.361083984375
1760836651.136607,-0.5517578125,0.00830078125,0.84326171875,1.15966796875,0.18310546875,-0.1220703125,0.3021240234375,33.079833984375,-96.3665771484375
1760836651.1443136,-0.55224609375,0.0146484375,0.83251953125,0.244140625,0.18310546875,0.0,0.3076171875,33.0853271484375,-96.3665771484375
1760836651.151227,-0.55224609375,0.0146484375,0.83251953125,0.244140625,0.18310546875,0.0,0.3076171875,33.0853271484375,-96.3665771484375
1760836651.1591787,-0.55224609375,0.01318359375,0.83740234375,-1.15966796875,0.1220703125,0.1220703125,0.296630859375,33.0853271484375,-96.361083984375
1760836651.1732764,-0.55224609375,0.01318359375,0.83740234375,-1.15966796875,0.1220703125,0.1220703125,0.2911376953125,33.0908203125,-96.361083984375
1760836651.181261,-0.55419921875,0.0107421875,0.83544921875,-1.3427734375,0.18310546875,0.244140625,0.2801513671875,33.0908203125,-96.3555908203125
1760836651.1882563,-0.55419921875,0.0107421875,0.83544921875,-1.3427734375,0.18310546875,0.244140625,0.2691650390625,33.0963134765625,-96.3555908203125
1760836651.194981,-0.5498046875,-0.00146484375,0.83544921875,-1.220703125,0.30517578125,0.18310546875,0.2581787109375,33.101806640625,-96.35009765625
1760836651.202128,-0.5498046875,-0.00146484375,0.83544921875,-1.220703125,0.30517578125,0.18310546875,0.252685546875,33.101806640625,-96.35009765625
1760836651.2151423,-0.55517578125,0.00341796875,0.8388671875,-1.03759765625,0.48828125,0.18310546875,0.24169921875,33.1072998046875,-96.3446044921875
1760836651.2238116,-0.55517578125,0.00341796875,0.8388671875,-1.03759765625,0.48828125,0.18310546875,0.2362060546875,33.1182861328125,-96.3446044921875
1760836651.230297,-0.5498046875,0.0048828125,0.83740234375,-0.67138671875,0.54931640625,0.30517578125,0.230712890625,33.123779296875,-96.339111328125
1760836651.2368336,-0.5498046875,0.0048828125,0.83740234375,-0.67138671875,0.54931640625,0.30517578125,0.2252197265625,33.1292724609375,-96.3336181640625
1760836651.245583,-0.55078125,0.00537109375,0.83984375,-1.52587890625,0.8544921875,0.244140625,0.2142333984375,33.1402587890625,-96.3336181640625
1760836651.252416,-0.55078125,0.00537109375,0.83984375,-1.52587890625,0.8544921875,0.244140625,0.2032470703125,33.1512451171875,-96.328125
1760836651.26841,-0.56689453125,0.00146484375,0.83447265625,-1.0986328125,1.0986328125,0.30517578125,0.1922607421875,33.1622314453125,-96.3226318359375
1760836651.2746465,-0.56689453125,0.00146484375,0.83447265625,-1.0986328125,1.0986328125,0.30517578125,0.186767578125,33.1732177734375,-96.3226318359375
1760836651.282502,-0.56005859375,-0.00048828125,0.82373046875,-0.9765625,1.40380859375,0.18310546875,0.17578125,33.189697265625,-96.317138671875
1760836651.28944,-0.56005859375,-0.00048828125,0.82373046875,-0.9765625,1.40380859375,0.18310546875,0.1702880859375,33.2061767578125,-96.317138671875
1760836651.3012054,-0.5576171875,0.00244140625,0.8388671875,-1.03759765625,1.52587890625,0.1220703125,0.1593017578125,33.22265625,-96.317138671875
1760836651.3115191,-0.5576171875,0.00244140625,0.8388671875,-1.03759765625,1.52587890625,0.1220703125,0.15380859375,33.2391357421875,-96.3116455078125
1760836651.3352852,-0.54931640625,0.00048828125,0.83837890625,-0.67138671875,1.40380859375,0.1220703125,0.1483154296875,33.255615234375,-96.3116455078125
1760836651.342508,-0.54931640625,0.00048828125,0.83837890625,-0.67138671875,1.40380859375,0.1220703125,0.142822265625,33.2720947265625,-96.3116455078125
1760836651.3498003,-0.54833984375,0.0068359375,0.84130859375,-0.42724609375,1.28173828125,0.0,0.1373291015625,33.28857421875,-96.3116455078125
1760836651.3573785,-0.54833984375,0.0068359375,0.84130859375,-0.42724609375,1.28173828125,0.0,0.1318359375,33.299560546875,-96.3116455078125
1760836651.3654196,-0.55126953125,0.00634765625,0.83251953125,-1.03759765625,1.46484375,-0.06103515625,0.1263427734375,33.3160400390625,-96.317138671875
1760836651.3812501,-0.55126953125,0.00634765625,0.83251953125,-1.03759765625,1.46484375,-0.06103515625,0.1153564453125,33.33251953125,-96.317138671875
1760836651.3884432,-0.55517578125,0.0,0.83349609375,-1.46484375,1.64794921875,-0.18310546875,0.098876953125,33.3489990234375,-96.317138671875
1760836651.3968103,-0.55517578125,0.0,0.83349609375,-1.46484375,1.64794921875,-0.18310546875,0.0823974609375,33.365478515625,-96.3226318359375
1760836651.406126,-0.55615234375,0.001953125,0.83740234375,-0.91552734375,1.64794921875,-0.18310546875,0.076904296875,33.3819580078125,-96.3226318359375
1760836651.4130306,-0.55615234375,0.001953125,0.83740234375,-0.91552734375,1.64794921875,-0.18310546875,0.06591796875,33.4039306640625,-96.328125
1760836651.422118,-0.55615234375,0.00146484375,0.83544921875,-0.732421875,1.64794921875,-0.244140625,0.054931640625,33.42041015625,-96.328125
1760836651.4302359,-0.55615234375,0.00146484375,0.83544921875,-0.732421875,1.64794921875,-0.244140625,0.0494384765625,33.4368896484375,-96.3336181640625
1760836651.437375,-0.55322265625,0.00439453125,0.8349609375,-0.54931640625,1.64794921875,-0.30517578125,0.0439453125,33.453369140625,-96.339111328125
1760836651.4475951,-0.55322265625,0.00439453125,0.8349609375,-0.54931640625,1.64794921875,-0.30517578125,0.0384521484375,33.4698486328125,-96.3446044921875
1760836651.455818,-0.56201171875,0.0,0.82861328125,-0.9765625,1.708984375,-0.244140625,0.0274658203125,33.486328125,-96.3446044921875
1760836651.4715803,-0.56201171875,0.0,0.82861328125,-0.9765625,1.708984375,-0.244140625,0.0164794921875,33.5028076171875,-96.35009765625
1760836651.4806225,-0.56103515625,-0.0009765625,0.83251953125,-0.42724609375,1.708984375,-0.18310546875,0.010986328125,33.5247802734375,-96.3555908203125
1760836651.4897654,-0.56103515625,-0.0009765625,0.83251953125,-0.42724609375,1.708984375,-0.18310546875,0.0054931640625,33.541259765625,-96.3555908203125
1760836651.497612,-0.56494140625,0.00244140625,0.82861328125,-0.79345703125,1.77001953125,-0.18310546875,0.0,33.5577392578125,-96.361083984375
1760836651.505324,-0.56494140625,0.00244140625,0.82861328125,-0.79345703125,1.77001953125,-0.18310546875,-0.0054931640625,33.5797119140625,-96.361083984375
1760836651.5151978,-0.5615234375,0.00244140625,0.82177734375,-0.18310546875,1.8310546875,-0.18310546875,-0.0054931640625,33.6016845703125,-96.361083984375
1760836651.5227203,-0.5615234375,0.00244140625,0.82177734375,-0.18310546875,1.8310546875,-0.18310546875,-0.010986328125,33.6181640625,-96.3665771484375
1760836651.530015,-0.55908203125,-0.00146484375,0.83984375,-0.18310546875,1.8310546875,-0.18310546875,-0.010986328125,33.64013671875,-96.3665771484375
1760836651.5372174,-0.55908203125,-0.00146484375,0.83984375,-0.18310546875,1.8310546875,-0.18310546875,-0.0164794921875,33.6566162109375,-96.3665771484375
1760836651.544295,-0.55615234375,0.001953125,0.8291015625,-0.06103515625,1.77001953125,-0.3662109375,-0.0164794921875,33.6785888671875,-96.3720703125
1760836651.5525038,-0.55615234375,0.001953125,0.8291015625,-0.06103515625,1.77001953125,-0.3662109375,-0.0164794921875,33.695068359375,-96.3775634765625
1760836651.560876,-0.5546875,0.00048828125,0.83447265625,0.0,1.5869140625,-0.48828125,-0.02197265625,33.7115478515625,-96.383056640625
1760836651.5677931,-0.5546875,0.00048828125,0.83447265625,0.0,1.5869140625,-0.48828125,-0.02197265625,33.72802734375,-96.3885498046875
1760836651.5762568,-0.5576171875,0.0009765625,0.833984375,-0.3662109375,1.3427734375,-0.6103515625,-0.032958984375,33.7445068359375,-96.39404296875
1760836651.5836413,-0.5576171875,0.0009765625,0.833984375,-0.3662109375,1.3427734375,-0.6103515625,-0.0384521484375,33.7554931640625,-96.3995361328125
1760836651.5923903,-0.5576171875,0.0,0.82861328125,0.30517578125,1.0986328125,-0.67138671875,-0.0384521484375,33.7664794921875,-96.4105224609375
1760836651.602219,-0.5576171875,0.0,0.82861328125,0.30517578125,1.0986328125,-0.67138671875,-0.0384521484375,33.7774658203125,-96.416015625
1760836651.6172357,-0.55615234375,0.0,0.8369140625,0.30517578125,0.732421875,-0.67138671875,-0.0384521484375,33.7884521484375,-96.427001953125
1760836651.6256735,-0.55615234375,0.0,0.8369140625,0.30517578125,0.732421875,-0.67138671875,-0.0384521484375,33.7939453125,-96.4324951171875
1760836651.641963,-0.55810546875,0.00634765625,0.8251953125,0.0,0.48828125,-0.67138671875,-0.0439453125,33.7994384765625,-96.4434814453125
1760836651.6547217,-0.55810546875,0.00634765625,0.8251953125,0.0,0.48828125,-0.67138671875,-0.0494384765625,33.804931640625,-96.448974609375
1760836651.6610007,-0.5546875,-0.0048828125,0.82958984375,0.6103515625,0.1220703125,-0.732421875,-0.0439453125,33.804931640625,-96.4599609375
1760836651.667418,-0.5546875,-0.0048828125,0.82958984375,0.6103515625,0.1220703125,-0.732421875,-0.0439453125,33.804931640625,-96.4654541015625
1760836651.6791773,-0.5556640625,0.00390625,0.83740234375,0.91552734375,-0.1220703125,-0.79345703125,-0.0384521484375,33.804931640625,-96.4764404296875
1760836651.6855066,-0.5556640625,0.00390625,0.83740234375,0.91552734375,-0.1220703125,-0.79345703125,-0.032958984375,33.804931640625,-96.4874267578125
1760836651.6920335,-0.55078125,0.005859375,0.83251953125,0.3662109375,-0.244140625,-0.91552734375,-0.0384521484375,33.7994384765625,-96.4984130859375
1760836651.7088208,-0.55078125,0.005859375,0.83251953125,0.3662109375,-0.244140625,-0.91552734375,-0.0384521484375,33.7994384765625,-96.5093994140625
1760836651.715634,-0.5498046875,0.0,0.83349609375,0.0,-0.18310546875,-0.9765625,-0.0439453125,33.7994384765625,-96.5203857421875
1760836651.7285044,-0.5498046875,0.0,0.83349609375,0.0,-0.18310546875,-0.9765625,-0.0494384765625,33.7939453125,-96.5313720703125
1760836651.737998,-0.5478515625,-0.00341796875,0.84814453125,0.30517578125,-0.3662109375,-0.9765625,-0.0494384765625,33.7884521484375,-96.5423583984375
1760836651.7444217,-0.5478515625,-0.00341796875,0.84814453125,0.30517578125,-0.3662109375,-0.9765625,-0.054931640625,33.782958984375,-96.5533447265625
1760836651.7527115,-0.548828125,0.001953125,0.83251953125,0.67138671875,-0.48828125,-1.03759765625,-0.054931640625,33.7774658203125,-96.5643310546875
1760836651.7684991,-0.548828125,0.001953125,0.83251953125,0.67138671875,-0.48828125,-1.03759765625,-0.054931640625,33.77197265625,-96.5753173828125
1760836651.7751355,-0.55322265625,0.0,0.83935546875,-0.06103515625,-0.3662109375,-1.03759765625,-0.0604248046875,33.7664794921875,-96.591796875
1760836651.782145,-0.55322265625,0.0,0.83935546875,-0.06103515625,-0.3662109375,-1.03759765625,-0.06591796875,33.760986328125,-96.602783203125
1760836651.7890546,-0.548828125,0.00244140625,0.83056640625,-1.03759765625,-0.244140625,-0.79345703125,-0.0823974609375,33.7554931640625,-96.6082763671875
1760836651.8031256,-0.548828125,0.00244140625,0.83056640625,-1.03759765625,-0.244140625,-0.79345703125,-0.098876953125,33.75,-96.6192626953125
1760836651.82064,-0.55712890625,0.0,0.84326171875,-1.220703125,-0.30517578125,-0.48828125,-0.10986328125,33.75,-96.624755859375
1760836651.8306339,-0.55712890625,0.0,0.84326171875,-1.220703125,-0.30517578125,-0.48828125,-0.1263427734375,33.7445068359375,-96.6302490234375
1760836651.8375378,-0.5498046875,-0.01025390625,0.83447265625,-1.0986328125,-0.3662109375,-0.42724609375,-0.1373291015625,33.739013671875,-96.6357421875
1760836651.8438797,-0.5498046875,-0.01025390625,0.83447265625,-1.0986328125,-0.3662109375,-0.42724609375,-0.15380859375,33.7335205078125,-96.6357421875
1760836651.85859,-0.55517578125,-0.00048828125,0.8408203125,-1.220703125,-0.244140625,-0.42724609375,-0.164794921875,33.72802734375,-96.6412353515625
1760836651.8662076,-0.55517578125,-0.00048828125,0.8408203125,-1.220703125,-0.244140625,-0.42724609375,-0.1812744140625,33.7225341796875,-96.646728515625
1760836651.8743918,-0.568359375,-0.00439453125,0.8291015625,-1.77001953125,-0.1220703125,-0.06103515625,-0.19775390625,33.7225341796875,-96.646728515625
1760836651.882693,-0.568359375,-0.00439453125,0.8291015625,-1.77001953125,-0.1220703125,-0.06103515625,-0.2142333984375,33.717041015625,-96.646728515625
1760836651.8911781,-0.5615234375,-0.009765625,0.8232421875,-1.3427734375,0.1220703125,0.1220703125,-0.2252197265625,33.7225341796875,-96.646728515625
1760836651.9078648,-0.5615234375,-0.009765625,0.8232421875,-1.3427734375,0.1220703125,0.1220703125,-0.24169921875,33.7225341796875,-96.646728515625
1760836651.916629,-0.5615234375,-0.0087890625,0.8359375,-1.0986328125,0.3662109375,0.244140625,-0.2471923828125,33.72802734375,-96.6412353515625
1760836651.9246788,-0.5615234375,-0.0087890625,0.8359375,-1.0986328125,0.3662109375,0.244140625,-0.2581787109375,33.72802734375,-96.6412353515625
1760836651.9335577,-0.55712890625,-0.00146484375,0.83251953125,-1.15966796875,0.42724609375,0.42724609375,-0.2691650390625,33.7335205078125,-96.6357421875
1760836651.9492984,-0.55712890625,-0.00146484375,0.83251953125,-1.15966796875,0.42724609375,0.42724609375,-0.274658203125,33.739013671875,-96.6357421875
1760836651.9566352,-0.55859375,-0.00927734375,0.83251953125,-0.6103515625,0.54931640625,0.48828125,-0.2801513671875,33.7445068359375,-96.6302490234375
1760836651.9635003,-0.55859375,-0.00927734375,0.83251953125,-0.6103515625,0.54931640625,0.48828125,-0.2801513671875,33.75,-96.624755859375
1760836651.970848,-0.5595703125,-0.00244140625,0.8349609375,-0.79345703125,0.6103515625,0.48828125,-0.28564453125,33.7554931640625,-96.6192626953125
1760836651.9865105,-0.5595703125,-0.00244140625,0.8349609375,-0.79345703125,0.6103515625,0.48828125,-0.2911376953125,33.760986328125,-96.61376953125
1760836651.9943938,-0.56640625,-0.00146484375,0.8212890625,-1.03759765625,0.54931640625,0.54931640625,-0.296630859375,33.7664794921875,-96.6082763671875
1760836652.0012329,-0.56640625,-0.00146484375,0.8212890625,-1.03759765625,0.54931640625,0.54931640625,-0.3021240234375,33.7774658203125,-96.602783203125
1760836652.009244,-0.55712890625,-0.0068359375,0.83447265625,-0.79345703125,0.30517578125,0.54931640625,-0.3076171875,33.7774658203125,-96.5972900390625
1760836652.0205474,-0.55712890625,-0.0068359375,0.83447265625,-0.79345703125,0.30517578125,0.54931640625,-0.3131103515625,33.782958984375,-96.5863037109375
1760836652.0358205,-0.5478515625,-0.00927734375,0.833984375,-0.42724609375,-0.06103515625,0.42724609375,-0.3131103515625,33.782958984375,-96.5863037109375
1760836652.0445123,-0.54345703125,-0.001953125,0.8388671875,0.54931640625,-0.67138671875,0.3662109375,-0.3131103515625,33.7774658203125,-96.580810546875
1760836652.051916,-0.54345703125,-0.001953125,0.8388671875,0.54931640625,-0.67138671875,0.3662109375,-0.3021240234375,33.77197265625,-96.5753173828125
1760836652.0629337,-0.5517578125,-0.0078125,0.83837890625,0.48828125,-1.28173828125,0.3662109375,-0.296630859375,33.760986328125,-96.56982421875
1760836652.07048,-0.5517578125,-0.0078125,0.83837890625,0.48828125,-1.28173828125,0.3662109375,-0.2911376953125,33.75,-96.56982421875
1760836652.0864933,-0.560546875,-0.0009765625,0.8291015625,0.18310546875,-1.52587890625,0.30517578125,-0.28564453125,33.7335205078125,-96.5643310546875
1760836652.0931015,-0.560546875,-0.0009765625,0.8291015625,0.18310546875,-1.52587890625,0.30517578125,-0.2801513671875,33.717041015625,-96.5643310546875
1760836652.100058,-0.54931640625,-0.00048828125,0.83203125,-0.244140625,-1.40380859375,0.30517578125,-0.2801513671875,33.7005615234375,-96.558837890625
1760836652.1088393,-0.54931640625,-0.00048828125,0.83203125,-0.244140625,-1.40380859375,0.30517578125,-0.2801513671875,33.6895751953125,-96.5533447265625
1760836652.1180584,-0.55224609375,-0.00146484375,0.833984375,-0.18310546875,-1.40380859375,0.30517578125,-0.2801513671875,33.673095703125,-96.5533447265625
1760836652.1332855,-0.55224609375,-0.00146484375,0.833984375,-0.18310546875,-1.40380859375,0.30517578125,-0.2801513671875,33.662109375,-96.5478515625
1760836652.1406596,-0.5576171875,-0.00244140625,0.83935546875,-1.0986328125,-1.40380859375,0.244140625,-0.2801513671875,33.6456298828125,-96.5423583984375
1760836652.148025,-0.5576171875,-0.00244140625,0.83935546875,-1.0986328125,-1.40380859375,0.244140625,-0.2911376953125,33.6346435546875,-96.5423583984375
1760836652.168169,-0.55517578125,-0.00439453125,0.8369140625,-1.220703125,-1.52587890625,0.18310546875,-0.3021240234375,33.6181640625,-96.536865234375
1760836652.1768866,-0.55517578125,-0.00439453125,0.8369140625,-1.220703125,-1.52587890625,0.18310546875,-0.3131103515625,33.6016845703125,-96.536865234375
1760836652.1869085,-0.55126953125,-0.00732421875,0.837890625,-1.5869140625,-1.52587890625,0.244140625,-0.3240966796875,33.585205078125,-96.5313720703125
1760836652.1944056,-0.55126953125,-0.00732421875,0.837890625,-1.5869140625,-1.52587890625,0.244140625,-0.3350830078125,33.5687255859375,-96.5313720703125
1760836652.2015657,-0.56103515625,0.0,0.8369140625,-1.953125,-1.46484375,0.48828125,-0.3515625,33.5577392578125,-96.52587890625
1760836652.209273,-0.56103515625,0.0,0.8369140625,-1.953125,-1.46484375,0.48828125,-0.3680419921875,33.541259765625,-96.5203857421875
1760836652.2244897,-0.56494140625,0.0,0.83203125,-2.38037109375,-1.40380859375,0.732421875,-0.384521484375,33.5302734375,-96.514892578125
1760836652.2319298,-0.56494140625,0.0,0.83203125,-2.38037109375,-1.40380859375,0.732421875,-0.4010009765625,33.5137939453125,-96.50390625
1760836652.238603,-0.57568359375,-0.00390625,0.8134765625,-2.74658203125,-0.9765625,0.91552734375,-0.41748046875,33.5028076171875,-96.492919921875
1760836652.2480743,-0.57568359375,-0.00390625,0.8134765625,-2.74658203125,-0.9765625,0.91552734375,-0.439453125,33.497314453125,-96.48193359375
1760836652.2589052,-0.5673828125,-0.0087890625,0.8349609375,-2.99072265625,-0.48828125,0.9765625,-0.46142578125,33.4918212890625,-96.4654541015625
1760836652.2762175,-0.5673828125,-0.0087890625,0.8349609375,-2.99072265625,-0.48828125,0.9765625,-0.4833984375,33.4918212890625,-96.4544677734375
1760836652.292064,-0.5712890625,-0.01171875,0.82666015625,-1.953125,-0.244140625,0.9765625,-0.4998779296875,33.4918212890625,-96.4434814453125
1760836652.2999222,-0.5712890625,-0.01171875,0.82666015625,-1.953125,-0.244140625,0.9765625,-0.5108642578125,33.4918212890625,-96.4324951171875
1760836652.3066266,-0.56884765625,-0.0126953125,0.81640625,-0.79345703125,0.18310546875,0.732421875,-0.516357421875,33.497314453125,-96.4215087890625
1760836652.3146038,-0.56884765625,-0.0126953125,0.81640625,-0.79345703125,0.18310546875,0.732421875,-0.5218505859375,33.5028076171875,-96.4105224609375
1760836652.3223612,-0.53955078125,-0.00244140625,0.8486328125,-1.3427734375,0.30517578125,0.54931640625,-0.52734375,33.50830078125,-96.405029296875
1760836652.3366928,-0.53955078125,-0.00244140625,0.8486328125,-1.3427734375,0.30517578125,0.54931640625,-0.538330078125,33.5137939453125,-96.39404296875
1760836652.344523,-0.55517578125,-0.015625,0.84228515625,-0.30517578125,0.0,0.48828125,-0.538330078125,33.519287109375,-96.3885498046875
1760836652.3516314,-0.55517578125,-0.015625,0.84228515625,-0.30517578125,0.0,0.48828125,-0.538330078125,33.5247802734375,-96.383056640625
1760836652.3594549,-0.54052734375,-0.0087890625,0.8310546875,0.3662109375,-0.1220703125,0.3662109375,-0.538330078125,33.5247802734375,-96.3775634765625
1760836652.3684697,-0.54052734375,-0.0087890625,0.8310546875,0.3662109375,-0.1220703125,0.3662109375,-0.5328369140625,33.5247802734375,-96.3720703125
1760836652.3839302,-0.54296875,0.0009765625,0.85546875,-0.1220703125,-0.18310546875,0.244140625,-0.52734375,33.5247802734375,-96.3720703125
1760836652.3911963,-0.54296875,0.0009765625,0.85546875,-0.1220703125,-0.18310546875,0.244140625,-0.52734375,33.519287109375,-96.3665771484375
1760836652.3983145,-0.54931640625,-0.00439453125,0.84326171875,1.40380859375,-0.244140625,0.1220703125,-0.516357421875,33.519287109375,-96.3665771484375
1760836652.4100876,-0.54931640625,-0.00439453125,0.84326171875,1.40380859375,-0.244140625,0.1220703125,-0.50537109375,33.5137939453125,-96.361083984375
1760836652.4210773,-0.5576171875,-0.00341796875,0.83056640625,0.3662109375,0.48828125,-0.244140625,-0.494384765625,33.5137939453125,-96.361083984375
1760836652.4360466,-0.5576171875,-0.00341796875,0.83056640625,0.3662109375,0.48828125,-0.244140625,-0.494384765625,33.519287109375,-96.361083984375
1760836652.44382,-0.572265625,0.001953125,0.833984375,-1.5869140625,1.52587890625,-0.48828125,-0.4998779296875,33.5302734375,-96.3665771484375
1760836652.4518876,-0.572265625,0.001953125,0.833984375,-1.5869140625,1.52587890625,-0.48828125,-0.516357421875,33.5467529296875,-96.3720703125
1760836652.45912,-0.5791015625,-0.00439453125,0.8349609375,-1.03759765625,2.3193359375,-0.3662109375,-0.5328369140625,33.563232421875,-96.3775634765625
1760836652.474826,-0.5791015625,-0.00439453125,0.8349609375,-1.03759765625,2.3193359375,-0.3662109375,-0.5438232421875,33.5906982421875,-96.3775634765625
1760836652.4823012,-0.5712890625,-0.00439453125,0.82568359375,-0.732421875,3.23486328125,-0.42724609375,-0.5548095703125,33.6181640625,-96.383056640625
1760836652.489928,-0.5712890625,-0.00439453125,0.82568359375,-0.732421875,3.23486328125,-0.42724609375,-0.560302734375,33.651123046875,-96.383056640625
1760836652.4986937,-0.57763671875,-0.001953125,0.83642578125,-1.5869140625,4.150390625,-0.42724609375,-0.5767822265625,33.695068359375,-96.3885498046875
1760836652.5099576,-0.57763671875,-0.001953125,0.83642578125,-1.5869140625,4.150390625,-0.42724609375,-0.59326171875,33.739013671875,-96.39404296875
1760836652.523398,-0.56787109375,-0.00439453125,0.822265625,-2.50244140625,5.126953125,-0.1220703125,-0.615234375,33.782958984375,-96.39404296875
1760836652.5312233,-0.56787109375,-0.00439453125,0.822265625,-2.50244140625,5.126953125,-0.1220703125,-0.63720703125,33.837890625,-96.39404296875
1760836652.5384448,-0.56689453125,-0.00537109375,0.82861328125,-3.41796875,5.92041015625,0.0,-0.6646728515625,33.8983154296875,-96.3885498046875
1760836652.5486054,-0.56689453125,-0.00537109375,0.82861328125,-3.41796875,5.92041015625,0.0,-0.6976318359375,33.958740234375,-96.3885498046875
1760836652.5591395,-0.57763671875,-0.013671875,0.83203125,-2.44140625,6.28662109375,0.06103515625,-0.72509765625,34.0191650390625,-96.3885498046875
1760836652.576218,-0.57763671875,-0.013671875,0.83203125,-2.44140625,6.28662109375,0.06103515625,-0.7470703125,34.0850830078125,-96.383056640625
1760836652.5868013,-0.58740234375,-0.01171875,0.81298828125,-2.25830078125,6.7138671875,0.1220703125,-0.76904296875,34.1510009765625,-96.383056640625
1760836652.5938163,-0.58740234375,-0.01171875,0.81298828125,-2.25830078125,6.7138671875,0.1220703125,-0.791015625,34.2169189453125,-96.3775634765625
1760836652.6010292,-0.58642578125,-0.02001953125,0.80224609375,-2.25830078125,7.32421875,0.1220703125,-0.8074951171875,34.2938232421875,-96.3775634765625
1760836652.6093268,-0.58642578125,-0.02001953125,0.80224609375,-2.25830078125,7.32421875,0.1220703125,-0.8294677734375,34.365234375,-96.3775634765625
1760836652.6253898,-0.59130859375,-0.02197265625,0.82568359375,-0.48828125,7.568359375,-0.06103515625,-0.845947265625,34.4476318359375,-96.3775634765625
1760836652.6330528,-0.59130859375,-0.02197265625,0.82568359375,-0.48828125,7.568359375,-0.06103515625,-0.8514404296875,34.5245361328125,-96.3775634765625
1760836652.6397235,-0.580078125,-0.02587890625,0.81884765625,3.23486328125,7.568359375,-0.54931640625,-0.8404541015625,34.6014404296875,-96.383056640625
1760836652.6494186,-0.580078125,-0.02587890625,0.81884765625,3.23486328125,7.568359375,-0.54931640625,-0.81298828125,34.6783447265625,-96.39404296875
1760836652.658895,-0.572265625,-0.017578125,0.81640625,4.150390625,7.87353515625,-1.28173828125,-0.780029296875,34.7607421875,-96.4105224609375
1760836652.674526,-0.572265625,-0.017578125,0.81640625,4.150390625,7.87353515625,-1.28173828125,-0.7525634765625,34.837646484375,-96.427001953125
1760836652.6823242,-0.5703125,-0.0068359375,0.810546875,2.86865234375,7.568359375,-1.52587890625,-0.7305908203125,34.9200439453125,-96.448974609375
1760836652.6889026,-0.5703125,-0.0068359375,0.810546875,2.86865234375,7.568359375,-1.52587890625,-0.714111328125,34.991455078125,-96.4654541015625
1760836652.70106,-0.5712890625,0.0087890625,0.826171875,1.28173828125,6.2255859375,-1.28173828125,-0.703125,35.0628662109375,-96.4874267578125
1760836652.7106268,-0.5712890625,0.0087890625,0.826171875,1.28173828125,6.2255859375,-1.28173828125,-0.703125,35.123291015625,-96.50390625
1760836652.7240622,-0.57275390625,-0.00537109375,0.8427734375,6.7138671875,4.638671875,-1.46484375,-0.670166015625,35.17822265625,-96.5203857421875
1760836652.7335615,-0.57275390625,-0.00537109375,0.8427734375,6.7138671875,4.638671875,-1.46484375,-0.615234375,35.22216796875,-96.536865234375
1760836652.7409976,-0.564453125,-0.0087890625,0.82275390625,9.21630859375,4.82177734375,-3.0517578125,-0.54931640625,35.26611328125,-96.5643310546875
1760836652.7598429,-0.564453125,-0.0087890625,0.82275390625,9.21630859375,4.82177734375,-3.0517578125,-0.4833984375,35.31005859375,-96.602783203125
1760836652.7688494,-0.58935546875,0.0341796875,0.794921875,3.84521484375,6.34765625,-4.33349609375,-0.4449462890625,35.364990234375,-96.646728515625
1760836652.775351,-0.58935546875,0.0341796875,0.794921875,3.84521484375,6.34765625,-4.33349609375,-0.4339599609375,35.4254150390625,-96.6961669921875
1760836652.7821264,-0.60693359375,0.03369140625,0.779296875,-5.31005859375,7.2021484375,-4.45556640625,-0.472412109375,35.4913330078125,-96.7510986328125
1760836652.7896285,-0.60693359375,0.03369140625,0.779296875,-5.31005859375,7.2021484375,-4.45556640625,-0.54931640625,35.562744140625,-96.7950439453125
1760836652.8048315,-0.6142578125,0.01025390625,0.79736328125,-11.41357421875,6.2255859375,-3.72314453125,-0.6591796875,35.628662109375,-96.8389892578125
1760836652.8123915,-0.6142578125,0.01025390625,0.79736328125,-11.41357421875,6.2255859375,-3.72314453125,-0.791015625,35.6890869140625,-96.87744140625
1760836652.823204,-0.5595703125,-0.0380859375,0.81982421875,-9.1552734375,3.84521484375,-3.173828125,-0.911865234375,35.7440185546875,-96.910400390625
1760836652.829932,-0.5595703125,-0.0380859375,0.81982421875,-9.1552734375,3.84521484375,-3.173828125,-1.021728515625,35.782470703125,-96.943359375
1760836652.8408306,-0.533203125,-0.05322265625,0.8525390625,-3.47900390625,1.46484375,-3.662109375,-1.1041259765625,35.804443359375,-96.9818115234375
1760836652.8564062,-0.533203125,-0.05322265625,0.8525390625,-3.47900390625,1.46484375,-3.662109375,-1.16455078125,35.8154296875,-97.020263671875
1760836652.863539,-0.53564453125,-0.02294921875,0.83203125,-0.18310546875,0.06103515625,-4.638671875,-1.20849609375,35.8154296875,-97.0697021484375
1760836652.8712158,-0.53564453125,-0.02294921875,0.83203125,-0.18310546875,0.06103515625,-4.638671875,-1.241455078125,35.8099365234375,-97.1246337890625
1760836652.8807354,-0.56787109375,-0.0048828125,0.81884765625,-1.52587890625,-0.3662109375,-5.2490234375,-1.285400390625,35.7989501953125,-97.18505859375
1760836652.898276,-0.56787109375,-0.0048828125,0.81884765625,-1.52587890625,-0.3662109375,-5.2490234375,-1.3348388671875,35.7879638671875,-97.2454833984375
1760836652.905095,-0.599609375,-0.0087890625,0.8056640625,-2.50244140625,-0.79345703125,-5.18798828125,-1.3897705078125,35.7769775390625,-97.305908203125
1760836652.912265,-0.599609375,-0.0087890625,0.8056640625,-2.50244140625,-0.79345703125,-5.18798828125,-1.4447021484375,35.760498046875,-97.36083984375
1760836652.9282525,-0.61083984375,-0.00732421875,0.794921875,-3.90625,-1.0986328125,-4.7607421875,-1.5106201171875,35.7440185546875,-97.415771484375
1760836652.9352493,-0.61083984375,-0.00732421875,0.794921875,-3.90625,-1.0986328125,-4.7607421875,-1.5765380859375,35.7275390625,-97.4652099609375
1760836652.9417367,-0.61572265625,-0.00537109375,0.78955078125,-8.85009765625,-1.28173828125,-4.39453125,-1.669921875,35.716552734375,-97.5146484375
1760836652.9494398,-0.61572265625,-0.00537109375,0.78955078125,-8.85009765625,-1.28173828125,-4.39453125,-1.7852783203125,35.7000732421875,-97.5640869140625
1760836652.9603257,-0.6171875,-0.00634765625,0.80322265625,-11.3525390625,-1.64794921875,-4.08935546875,-1.9061279296875,35.6890869140625,-97.6025390625
1760836652.9693944,-0.6171875,-0.00634765625,0.80322265625,-11.3525390625,-1.64794921875,-4.08935546875,-2.04345703125,35.672607421875,-97.6409912109375
1760836652.9863834,-0.611328125,-0.02294921875,0.7939453125,-12.20703125,-1.708984375,-4.39453125,-2.1807861328125,35.6561279296875,-97.6849365234375
1760836652.9936748,-0.611328125,-0.02294921875,0.7939453125,-12.20703125,-1.708984375,-4.39453125,-2.3236083984375,35.6451416015625,-97.723388671875
1760836653.001598,-0.61474609375,-0.0546875,0.7900390625,-9.58251953125,-1.15966796875,-5.37109375,-2.4609375,35.6341552734375,-97.7728271484375
1760836653.0106475,-0.61474609375,-0.0546875,0.7900390625,-9.58251953125,-1.15966796875,-5.37109375,-2.581787109375,35.6231689453125,-97.8277587890625
1760836653.0273526,-0.603515625,-0.0693359375,0.80078125,-4.21142578125,-0.30517578125,-6.591796875,-2.691650390625,35.6231689453125,-97.88818359375
1760836653.0343802,-0.603515625,-0.0693359375,0.80078125,-4.21142578125,-0.30517578125,-6.591796875,-2.7740478515625,35.6231689453125,-97.965087890625
1760836653.0423663,-0.5927734375,-0.07080078125,0.802734375,0.3662109375,0.54931640625,-7.26318359375,-2.8399658203125,35.628662109375,-98.0419921875
1760836653.0505,-0.5927734375,-0.07080078125,0.802734375,0.3662109375,0.54931640625,-7.26318359375,-2.8839111328125,35.6341552734375,-98.1243896484375
1760836653.0663412,-0.57568359375,-0.0458984375,0.8232421875,2.197265625,1.03759765625,-7.32421875,-2.92236328125,35.6451416015625,-98.206787109375
1760836653.07273,-0.57568359375,-0.0458984375,0.8232421875,2.197265625,1.03759765625,-7.32421875,-2.9498291015625,35.6561279296875,-98.294677734375
1760836653.0792725,-0.57177734375,-0.04443359375,0.8271484375,1.953125,0.8544921875,-7.14111328125,-2.9827880859375,35.6671142578125,-98.3770751953125
1760836653.0889137,-0.57177734375,-0.04443359375,0.8271484375,1.953125,0.8544921875,-7.14111328125,-3.01025390625,35.672607421875,-98.45947265625
1760836653.104938,-0.5849609375,-0.046875,0.8076171875,1.03759765625,0.18310546875,-6.591796875,-3.0487060546875,35.672607421875,-98.536376953125
1760836653.1144025,-0.5849609375,-0.046875,0.8076171875,1.03759765625,0.18310546875,-6.591796875,-3.0816650390625,35.6781005859375,-98.61328125
1760836653.124037,-0.60595703125,-0.0390625,0.79736328125,-0.30517578125,-0.54931640625,-5.7373046875,-3.1256103515625,35.6671142578125,-98.67919921875
1760836653.1309786,-0.60595703125,-0.0390625,0.79736328125,-0.30517578125,-0.54931640625,-5.7373046875,-3.1695556640625,35.6671142578125,-98.7396240234375
1760836653.1582038,-0.591796875,-0.05908203125,0.78857421875,-1.89208984375,-1.220703125,-4.638671875,-3.218994140625,35.6561279296875,-98.7890625
1760836653.166929,-0.591796875,-0.05908203125,0.78857421875,-1.89208984375,-1.220703125,-4.638671875,-3.2684326171875,35.6451416015625,-98.843994140625
1760836653.1892595,-0.5654296875,-0.08056640625,0.82080078125,0.0,-2.13623046875,-3.5400390625,-3.2904052734375,35.6231689453125,-98.876953125
1760836653.1963942,-0.5654296875,-0.08056640625,0.82080078125,0.0,-2.13623046875,-3.5400390625,-3.31787109375,35.6011962890625,-98.9208984375
1760836653.204155,-0.55810546875,-0.07373046875,0.8193359375,4.08935546875,-3.0517578125,-2.62451171875,-3.2958984375,35.57373046875,-98.9483642578125
1760836653.2108643,-0.55810546875,-0.07373046875,0.8193359375,4.08935546875,-3.0517578125,-2.62451171875,-3.2794189453125,35.540771484375,-98.975830078125
1760836653.217246,-0.56591796875,-0.068359375,0.82080078125,6.65283203125,-3.5400390625,-2.0751953125,-3.22998046875,35.5078125,-98.997802734375
1760836653.2323408,-0.56591796875,-0.068359375,0.82080078125,6.65283203125,-3.5400390625,-2.0751953125,-3.1805419921875,35.4693603515625,-99.0252685546875
1760836653.240993,-0.57763671875,-0.05322265625,0.822265625,6.04248046875,-3.60107421875,-1.708984375,-3.1365966796875,35.430908203125,-99.041748046875
1760836653.2476344,-0.57763671875,-0.05322265625,0.822265625,6.04248046875,-3.60107421875,-1.708984375,-3.0926513671875,35.3924560546875,-99.063720703125
1760836653.2644894,-0.58447265625,-0.0283203125,0.8115234375,3.11279296875,-3.35693359375,-0.9765625,-3.0706787109375,35.3594970703125,-99.07470703125
1760836653.2719007,-0.58447265625,-0.0283203125,0.8115234375,3.11279296875,-3.35693359375,-0.9765625,-3.0487060546875,35.3265380859375,-99.0802001953125
1760836653.2815747,-0.58203125,-0.03857421875,0.814453125,1.220703125,-3.11279296875,-0.30517578125,-3.043212890625,35.299072265625,-99.0802001953125
1760836653.2883599,-0.58203125,-0.03857421875,0.814453125,1.220703125,-3.11279296875,-0.30517578125,-3.0322265625,35.26611328125,-99.0802001953125
1760836653.306872,-0.572265625,-0.06005859375,0.828125,1.220703125,-3.11279296875,0.1220703125,-3.021240234375,35.2386474609375,-99.07470703125
1760836653.314193,-0.572265625,-0.06005859375,0.828125,1.220703125,-3.11279296875,0.1220703125,-3.01025390625,35.2056884765625,-99.0692138671875
1760836653.3219635,-0.5732421875,-0.052734375,0.82373046875,2.3193359375,-2.99072265625,0.54931640625,-2.9827880859375,35.17822265625,-99.0582275390625
1760836653.3374865,-0.5732421875,-0.052734375,0.82373046875,2.3193359375,-2.99072265625,0.54931640625,-2.9608154296875,35.1507568359375,-99.052734375
1760836653.345169,-0.580078125,-0.037109375,0.81103515625,-0.3662109375,-2.62451171875,1.15966796875,-2.9608154296875,35.123291015625,-99.0362548828125
1760836653.3530688,-0.580078125,-0.037109375,0.81103515625,-0.3662109375,-2.62451171875,1.15966796875,-2.955322265625,35.101318359375,-99.0142822265625
1760836653.3600898,-0.5849609375,-0.0458984375,0.8232421875,-1.40380859375,-2.62451171875,1.89208984375,-2.9608154296875,35.0738525390625,-98.9923095703125
1760836653.3676617,-0.5849609375,-0.0458984375,0.8232421875,-1.40380859375,-2.62451171875,1.89208984375,-2.9608154296875,35.0518798828125,-98.96484375
1760836653.388444,-0.56982421875,-0.0576171875,0.81787109375,-0.30517578125,-2.685546875,2.13623046875,-2.9498291015625,35.0244140625,-98.9373779296875
1760836653.3991172,-0.56982421875,-0.0576171875,0.81787109375,-0.30517578125,-2.685546875,2.13623046875,-2.9388427734375,35.00244140625,-98.909912109375
1760836653.4064019,-0.56982421875,-0.04150390625,0.8271484375,-0.6103515625,-2.5634765625,2.3193359375,-2.933349609375,34.98046875,-98.876953125
1760836653.415093,-0.56982421875,-0.04150390625,0.8271484375,-0.6103515625,-2.5634765625,2.3193359375,-2.9278564453125,34.9530029296875,-98.8494873046875
1760836653.4358041,-0.5615234375,-0.03564453125,0.82421875,-2.44140625,-2.62451171875,2.74658203125,-2.933349609375,34.9310302734375,-98.8165283203125
1760836653.4447963,-0.5615234375,-0.03564453125,0.82421875,-2.44140625,-2.62451171875,2.74658203125,-2.9388427734375,34.903564453125,-98.778076171875
1760836653.4526103,-0.5166015625,-0.06982421875,0.82470703125,-0.8544921875,-2.86865234375,2.8076171875,-2.9278564453125,34.8760986328125,-98.7451171875
1760836653.460558,-0.5166015625,-0.06982421875,0.82470703125,-0.8544921875,-2.86865234375,2.8076171875,-2.92236328125,34.8486328125,-98.7066650390625
1760836653.4691343,-0.4931640625,-0.0654296875,0.91650390625,2.5634765625,-4.150390625,2.8076171875,-2.87841796875,34.7991943359375,-98.6737060546875
1760836653.480746,-0.4931640625,-0.0654296875,0.91650390625,2.5634765625,-4.150390625,2.8076171875,-2.83447265625,34.7552490234375,-98.6407470703125
1760836653.4890623,-0.52392578125,-0.05419921875,0.82861328125,4.94384765625,-5.4931640625,2.74658203125,-2.7685546875,34.6893310546875,-98.6077880859375
1760836653.4962606,-0.52392578125,-0.05419921875,0.82861328125,4.94384765625,-5.4931640625,2.74658203125,-2.7081298828125,34.62890625,-98.5748291015625
1760836653.5028338,-0.53955078125,-0.03955078125,0.8408203125,6.16455078125,-6.103515625,3.0517578125,-2.625732421875,34.5574951171875,-98.5418701171875
1760836653.5100489,-0.53955078125,-0.03955078125,0.8408203125,6.16455078125,-6.103515625,3.0517578125,-2.548828125,34.4915771484375,-98.5089111328125
1760836653.5191221,-0.5751953125,-0.02978515625,0.84912109375,3.90625,-6.591796875,3.2958984375,-2.4884033203125,34.4146728515625,-98.4649658203125
1760836653.534701,-0.5751953125,-0.02978515625,0.84912109375,3.90625,-6.591796875,3.2958984375,-2.4334716796875,34.34326171875,-98.426513671875
1760836653.5413225,-0.55615234375,-0.013671875,0.80615234375,2.44140625,-6.16455078125,3.60107421875,-2.384033203125,34.27734375,-98.382568359375
1760836653.5496657,-0.55615234375,-0.013671875,0.80615234375,2.44140625,-6.16455078125,3.60107421875,-2.3345947265625,34.21142578125,-98.338623046875
1760836653.5636854,-0.57470703125,-0.02099609375,0.84619140625,-1.40380859375,-5.67626953125,3.60107421875,-2.3291015625,34.156494140625,-98.294677734375
1760836653.5704923,-0.57470703125,-0.02099609375,0.84619140625,-1.40380859375,-5.67626953125,3.60107421875,-2.318115234375,34.0960693359375,-98.2452392578125
1760836653.5770595,-0.5595703125,-0.033203125,0.82177734375,-3.60107421875,-5.18798828125,3.90625,-2.3236083984375,34.0411376953125,-98.19580078125
1760836653.583166,-0.5595703125,-0.033203125,0.82177734375,-3.60107421875,-5.18798828125,3.90625,-2.3345947265625,33.99169921875,-98.1463623046875
1760836653.5898204,-0.5673828125,-0.03759765625,0.826171875,-3.23486328125,-4.8828125,4.08935546875,-2.340087890625,33.9422607421875,-98.096923828125
1760836653.6035633,-0.5673828125,-0.03759765625,0.826171875,-3.23486328125,-4.8828125,4.08935546875,-2.3455810546875,33.892822265625,-98.0419921875
1760836653.6103673,-0.5703125,-0.04736328125,0.8349609375,-0.79345703125,-4.82177734375,4.45556640625,-2.3236083984375,33.848876953125,-97.987060546875
1760836653.6173851,-0.5703125,-0.04736328125,0.8349609375,-0.79345703125,-4.82177734375,4.45556640625,-2.3016357421875,33.804931640625,-97.93212890625
1760836653.6239989,-0.572265625,-0.04150390625,0.8291015625,0.91552734375,-4.39453125,4.5166015625,-2.26318359375,33.760986328125,-97.877197265625
1760836653.6303284,-0.572265625,-0.04150390625,0.8291015625,0.91552734375,-4.39453125,4.5166015625,-2.2247314453125,33.7225341796875,-97.822265625
1760836653.6399724,-0.56787109375,-0.03369140625,0.81884765625,-0.67138671875,-3.35693359375,4.5166015625,-2.2027587890625,33.6895751953125,-97.767333984375
1760836653.658883,-0.56787109375,-0.03369140625,0.81884765625,-0.67138671875,-3.35693359375,4.5166015625,-2.1807861328125,33.662109375,-97.7178955078125
1760836653.6653857,-0.5703125,-0.02783203125,0.82421875,-1.0986328125,-2.44140625,4.638671875,-2.164306640625,33.6456298828125,-97.6629638671875
1760836653.6716573,-0.5703125,-0.02783203125,0.82421875,-1.0986328125,-2.44140625,4.638671875,-2.1478271484375,33.6236572265625,-97.6080322265625
1760836653.6795747,-0.5625,-0.02783203125,0.83837890625,-0.67138671875,-1.89208984375,4.94384765625,-2.120361328125,33.6126708984375,-97.547607421875
1760836653.69943,-0.5625,-0.02783203125,0.83837890625,-0.67138671875,-1.89208984375,4.94384765625,-2.098388671875,33.59619140625,-97.4871826171875
1760836653.7067153,-0.5654296875,-0.02294921875,0.830078125,-1.77001953125,-1.40380859375,5.2490234375,-2.0819091796875,33.5906982421875,-97.4267578125
1760836653.71489,-0.5654296875,-0.02294921875,0.830078125,-1.77001953125,-1.40380859375,5.2490234375,-2.0654296875,33.5797119140625,-97.36083984375
1760836653.7219517,-0.556640625,-0.02197265625,0.8310546875,-3.5400390625,-0.91552734375,5.43212890625,-2.0654296875,33.5797119140625,-97.294921875
1760836653.739526,-0.556640625,-0.02197265625,0.8310546875,-3.5400390625,-0.91552734375,5.43212890625,-2.0654296875,33.57421875,-97.22900390625
1760836653.7470438,-0.556640625,-0.02880859375,0.83544921875,-4.45556640625,-0.732421875,5.43212890625,-2.0709228515625,33.5687255859375,-97.1630859375
1760836653.7534933,-0.556640625,-0.02880859375,0.83544921875,-4.45556640625,-0.732421875,5.43212890625,-2.0819091796875,33.5687255859375,-97.09716796875
1760836653.7678468,-0.5537109375,-0.03125,0.837890625,-3.84521484375,-0.732421875,5.2490234375,-2.0819091796875,33.563232421875,-97.0367431640625
1760836653.7748353,-0.5537109375,-0.03125,0.837890625,-3.84521484375,-0.732421875,5.2490234375,-2.08740234375,33.563232421875,-96.976318359375
1760836653.7829711,-0.5458984375,-0.03564453125,0.8369140625,-2.13623046875,-0.732421875,5.06591796875,-2.076416015625,33.5577392578125,-96.9158935546875
1760836653.790229,-0.5458984375,-0.03564453125,0.8369140625,-2.13623046875,-0.732421875,5.06591796875,-2.0654296875,33.55224609375,-96.85546875
1760836653.8076658,-0.54443359375,-0.0283203125,0.828125,-3.47900390625,-0.732421875,4.69970703125,-2.0654296875,33.55224609375,-96.800537109375
1760836653.8163772,-0.54443359375,-0.0283203125,0.828125,-3.47900390625,-0.732421875,4.69970703125,-2.0709228515625,33.5467529296875,-96.74560546875
1760836653.824578,-0.544921875,-0.02783203125,0.8466796875,-2.50244140625,-1.15966796875,4.5166015625,-2.0654296875,33.5357666015625,-96.690673828125
1760836653.8313947,-0.544921875,-0.02783203125,0.8466796875,-2.50244140625,-1.15966796875,4.5166015625,-2.0599365234375,33.5247802734375,-96.6412353515625
1760836653.840389,-0.552734375,-0.02978515625,0.84619140625,-0.8544921875,-1.77001953125,4.21142578125,-2.04345703125,33.50830078125,-96.591796875
1760836653.8568301,-0.552734375,-0.02978515625,0.84619140625,-0.8544921875,-1.77001953125,4.21142578125,-2.021484375,33.4918212890625,-96.5423583984375
1760836653.8665903,-0.556640625,-0.0234375,0.82958984375,-0.42724609375,-2.01416015625,3.90625,-1.99951171875,33.475341796875,-96.4984130859375
1760836653.8737364,-0.556640625,-0.0234375,0.82958984375,-0.42724609375,-2.01416015625,3.90625,-1.9775390625,33.453369140625,-96.448974609375
1760836653.8802006,-0.5595703125,-0.02099609375,0.826171875,-0.91552734375,-2.0751953125,3.72314453125,-1.9610595703125,33.4368896484375,-96.405029296875
1760836653.8966002,-0.5595703125,-0.02099609375,0.826171875,-0.91552734375,-2.0751953125,3.72314453125,-1.944580078125,33.42041015625,-96.361083984375
1760836653.9043756,-0.55908203125,-0.033203125,0.83935546875,0.732421875,-2.197265625,3.41796875,-1.9171142578125,33.3984375,-96.3226318359375
1760836653.9106772,-0.55908203125,-0.033203125,0.83935546875,0.732421875,-2.197265625,3.41796875,-1.8841552734375,33.3819580078125,-96.2786865234375
1760836653.9421372,-0.55517578125,-0.03369140625,0.8359375,3.11279296875,-2.3193359375,2.8076171875,-1.834716796875,33.3599853515625,-96.2457275390625
1760836653.956487,-0.55517578125,-0.03369140625,0.8359375,3.11279296875,-2.3193359375,2.8076171875,-1.7852783203125,33.3380126953125,-96.2127685546875
1760836653.9642146,-0.56201171875,-0.0205078125,0.830078125,2.8076171875,-1.8310546875,2.197265625,-1.746826171875,33.321533203125,-96.1907958984375
1760836653.970946,-0.56201171875,-0.0205078125,0.830078125,2.8076171875,-1.8310546875,2.197265625,-1.702880859375,33.310546875,-96.163330078125
1760836653.9905212,-0.56591796875,-0.01318359375,0.82373046875,1.52587890625,-1.3427734375,1.8310546875,-1.6754150390625,33.299560546875,-96.141357421875
1760836653.9970665,-0.56591796875,-0.01318359375,0.82373046875,1.52587890625,-1.3427734375,1.8310546875,-1.64794921875,33.28857421875,-96.119384765625
1760836654.0045176,-0.564453125,-0.01318359375,0.8369140625,1.40380859375,-1.15966796875,1.64794921875,-1.6259765625,33.2830810546875,-96.1029052734375
1760836654.0120456,-0.564453125,-0.01318359375,0.8369140625,1.40380859375,-1.15966796875,1.64794921875,-1.5985107421875,33.2720947265625,-96.0809326171875
1760836654.0185416,-0.56787109375,-0.017578125,0.83203125,2.38037109375,-1.28173828125,1.40380859375,-1.5655517578125,33.2666015625,-96.064453125
1760836654.0376294,-0.56787109375,-0.017578125,0.83203125,2.38037109375,-1.28173828125,1.40380859375,-1.5325927734375,33.255615234375,-96.0479736328125
1760836654.0445595,-0.5654296875,-0.01708984375,0.82470703125,2.50244140625,-1.0986328125,0.8544921875,-1.4996337890625,33.2501220703125,-96.0369873046875
1760836654.0511718,-0.5654296875,-0.01708984375,0.82470703125,2.50244140625,-1.0986328125,0.8544921875,-1.47216796875,33.24462890625,-96.0260009765625
1760836654.0665498,-0.56298828125,-0.00927734375,0.8330078125,1.77001953125,-0.732421875,0.30517578125,-1.4501953125,33.2391357421875,-96.0260009765625
1760836654.081229,-0.56298828125,-0.00927734375,0.8330078125,1.77001953125,-0.732421875,0.30517578125,-1.42822265625,33.2391357421875,-96.0205078125
1760836654.0878627,-0.56591796875,-0.0146484375,0.82958984375,2.13623046875,-0.48828125,-0.30517578125,-1.4117431640625,33.2391357421875,-96.0260009765625
1760836654.0947068,-0.56591796875,-0.0146484375,0.82958984375,2.13623046875,-0.48828125,-0.30517578125,-1.3897705078125,33.2391357421875,-96.0260009765625
1760836654.1029322,-0.56884765625,-0.02001953125,0.82177734375,1.708984375,-0.1220703125,-0.9765625,-1.3787841796875,33.24462890625,-96.0369873046875
1760836654.1096795,-0.56884765625,-0.02001953125,0.82177734375,1.708984375,-0.1220703125,-0.9765625,-1.3677978515625,33.24462890625,-96.0479736328125
1760836654.1292627,-0.56591796875,-0.00927734375,0.83154296875,0.79345703125,0.0,-1.220703125,-1.3677978515625,33.2501220703125,-96.0589599609375
1760836654.1362433,-0.56591796875,-0.00927734375,0.83154296875,0.79345703125,0.0,-1.220703125,-1.3623046875,33.255615234375,-96.075439453125
1760836654.1429634,-0.572265625,-0.0107421875,0.81787109375,1.40380859375,0.06103515625,-1.15966796875,-1.3568115234375,33.2666015625,-96.08642578125
1760836654.1578717,-0.55859375,-0.01904296875,0.8359375,-0.8544921875,0.18310546875,-1.46484375,-1.3623046875,33.2720947265625,-96.1029052734375
1760836654.1705604,-0.55859375,-0.01904296875,0.8359375,-0.8544921875,0.18310546875,-1.46484375,-1.3787841796875,33.277587890625,-96.119384765625
1760836654.1774924,-0.5673828125,-0.009765625,0.83056640625,-0.9765625,0.0,-1.40380859375,-1.395263671875,33.2830810546875,-96.1358642578125
1760836654.1838183,-0.5673828125,-0.009765625,0.83056640625,-0.9765625,0.0,-1.40380859375,-1.4117431640625,33.28857421875,-96.15234375
1760836654.198196,-0.5556640625,-0.025390625,0.822265625,-0.91552734375,-0.06103515625,-1.28173828125,-1.42822265625,33.2940673828125,-96.163330078125
1760836654.2129595,-0.5556640625,-0.025390625,0.822265625,-0.91552734375,-0.06103515625,-1.28173828125,-1.4447021484375,33.299560546875,-96.1798095703125
1760836654.219683,-0.54931640625,-0.02294921875,0.84326171875,-0.9765625,-0.18310546875,-1.40380859375,-1.461181640625,33.3050537109375,-96.1962890625
1760836654.2277174,-0.54931640625,-0.02294921875,0.84326171875,-0.9765625,-0.18310546875,-1.40380859375,-1.4776611328125,33.3050537109375,-96.207275390625
1760836654.246847,-0.5419921875,-0.02880859375,0.84423828125,-0.48828125,-0.6103515625,-1.46484375,-1.494140625,33.3050537109375,-96.2237548828125
1760836654.2536294,-0.5419921875,-0.02880859375,0.84423828125,-0.48828125,-0.6103515625,-1.46484375,-1.505126953125,33.299560546875,-96.240234375
1760836654.260666,-0.5576171875,-0.0224609375,0.83642578125,0.732421875,-1.0986328125,-1.220703125,-1.51611328125,33.2940673828125,-96.2567138671875
1760836654.2808115,-0.5576171875,-0.0224609375,0.83642578125,0.732421875,-1.0986328125,-1.220703125,-1.51611328125,33.28857421875,-96.273193359375
1760836654.287567,-0.55810546875,-0.021484375,0.82373046875,0.67138671875,-0.9765625,-1.28173828125,-1.51611328125,33.277587890625,-96.2896728515625
1760836654.29552,-0.55810546875,-0.021484375,0.82373046875,0.67138671875,-0.9765625,-1.28173828125,-1.51611328125,33.2720947265625,-96.3006591796875
1760836654.301935,-0.53857421875,-0.02197265625,0.84033203125,-0.67138671875,-0.79345703125,-1.40380859375,-1.5216064453125,33.2666015625,-96.317138671875
1760836654.3221724,-0.53857421875,-0.02197265625,0.84033203125,-0.67138671875,-0.79345703125,-1.40380859375,-1.5380859375,33.2611083984375,-96.3336181640625
1760836654.3284948,-0.53955078125,-0.02880859375,0.84912109375,1.52587890625,-1.220703125,-1.28173828125,-1.5435791015625,33.2501220703125,-96.35009765625
1760836654.3353941,-0.53955078125,-0.02880859375,0.84912109375,1.52587890625,-1.220703125,-1.28173828125,-1.5325927734375,33.2391357421875,-96.3665771484375
1760836654.342042,-0.54833984375,-0.02783203125,0.84375,2.50244140625,-1.28173828125,-1.220703125,-1.5216064453125,33.2281494140625,-96.383056640625
1760836654.357571,-0.54833984375,-0.02783203125,0.84375,2.50244140625,-1.28173828125,-1.220703125,-1.505126953125,33.2171630859375,-96.3995361328125
1760836654.3695726,-0.55419921875,-0.01123046875,0.83837890625,1.0986328125,-1.03759765625,-1.15966796875,-1.494140625,33.2061767578125,-96.416015625
1760836654.3764677,-0.55419921875,-0.01123046875,0.83837890625,1.0986328125,-1.03759765625,-1.15966796875,-1.494140625,33.1951904296875,-96.427001953125
1760836654.3841283,-0.5419921875,-0.01904296875,0.83154296875,-0.3662109375,-0.8544921875,-0.79345703125,-1.494140625,33.1842041015625,-96.43798828125
1760836654.4042273,-0.5419921875,-0.01904296875,0.83154296875,-0.3662109375,-0.8544921875,-0.79345703125,-1.505126953125,33.1787109375,-96.448974609375
1760836654.4106114,-0.5361328125,-0.03173828125,0.8515625,0.42724609375,-0.91552734375,-0.6103515625,-1.505126953125,33.167724609375,-96.4599609375
1760836654.4177363,-0.5361328125,-0.03173828125,0.8515625,0.42724609375,-0.91552734375,-0.6103515625,-1.505126953125,33.1622314453125,-96.4654541015625
1760836654.4248087,-0.541015625,-0.02587890625,0.85107421875,1.0986328125,-0.9765625,-0.732421875,-1.505126953125,33.1512451171875,-96.470947265625
1760836654.439355,-0.541015625,-0.02587890625,0.85107421875,1.0986328125,-0.9765625,-0.732421875,-1.4996337890625,33.1402587890625,-96.48193359375
1760836654.4508028,-0.54150390625,-0.0166015625,0.83984375,0.732421875,-0.9765625,-0.732421875,-1.494140625,33.1292724609375,-96.492919921875
1760836654.4573,-0.54150390625,-0.0166015625,0.83984375,0.732421875,-0.9765625,-0.732421875,-1.4886474609375,33.1182861328125,-96.50390625
1760836654.4768379,-0.541015625,-0.02197265625,0.833984375,-0.06103515625,-0.9765625,-0.54931640625,-1.4886474609375,33.1072998046875,-96.5093994140625
1760836654.4833257,-0.541015625,-0.02197265625,0.833984375,-0.06103515625,-0.9765625,-0.54931640625,-1.494140625,33.0963134765625,-96.514892578125
1760836654.4896743,-0.5478515625,-0.02294921875,0.8466796875,0.6103515625,-1.28173828125,-0.42724609375,-1.494140625,33.079833984375,-96.52587890625
1760836654.5008976,-0.5478515625,-0.02294921875,0.8466796875,0.6103515625,-1.28173828125,-0.42724609375,-1.494140625,33.06884765625,-96.5313720703125
1760836654.516387,-0.54833984375,-0.0234375,0.83935546875,1.77001953125,-1.46484375,-0.42724609375,-1.483154296875,33.0523681640625,-96.536865234375
1760836654.5280862,-0.54833984375,-0.0234375,0.83935546875,1.77001953125,-1.46484375,-0.42724609375,-1.4666748046875,33.0413818359375,-96.5423583984375
1760836654.534522,-0.54052734375,-0.0126953125,0.83837890625,0.0,-1.28173828125,-0.54931640625,-1.461181640625,33.02490234375,-96.5478515625
1760836654.541836,-0.54052734375,-0.0126953125,0.83837890625,0.0,-1.28173828125,-0.54931640625,-1.4666748046875,33.013916015625,-96.5533447265625
1760836654.564052,-0.5439453125,-0.017578125,0.845703125,-0.732421875,-1.15966796875,-0.48828125,-1.47216796875,32.9974365234375,-96.558837890625
1760836654.571845,-0.5439453125,-0.017578125,0.845703125,-0.732421875,-1.15966796875,-0.48828125,-1.483154296875,32.9864501953125,-96.5643310546875
1760836654.578253,-0.548828125,-0.02587890625,0.83740234375,-0.54931640625,-1.220703125,-0.42724609375,-1.4886474609375,32.9754638671875,-96.56982421875
1760836654.585137,-0.548828125,-0.02587890625,0.83740234375,-0.54931640625,-1.220703125,-0.42724609375,-1.4996337890625,32.958984375,-96.5753173828125
1760836654.6044073,-0.54052734375,-0.0234375,0.83837890625,-0.3662109375,-1.15966796875,-0.3662109375,-1.505126953125,32.947998046875,-96.5753173828125
1760836654.610778,-0.54052734375,-0.0234375,0.83837890625,-0.3662109375,-1.15966796875,-0.3662109375,-1.5106201171875,32.93701171875,-96.580810546875
1760836654.617801,-0.5380859375,-0.01611328125,0.8564453125,0.06103515625,-1.3427734375,-0.244140625,-1.5106201171875,32.926025390625,-96.5863037109375
1760836654.625324,-0.5380859375,-0.01611328125,0.8564453125,0.06103515625,-1.3427734375,-0.244140625,-1.5106201171875,32.9095458984375,-96.5863037109375
1760836654.6415246,-0.5419921875,-0.02880859375,0.83740234375,0.0,-1.28173828125,-0.48828125,-1.51611328125,32.8985595703125,-96.591796875
1760836654.652267,-0.5419921875,-0.02880859375,0.83740234375,0.0,-1.28173828125,-0.48828125,-1.51611328125,32.882080078125,-96.5972900390625
1760836654.6586728,-0.53466796875,-0.01953125,0.84326171875,-0.732421875,-0.9765625,-0.54931640625,-1.5216064453125,32.87109375,-96.602783203125
1760836654.6671727,-0.53466796875,-0.01953125,0.84326171875,-0.732421875,-0.9765625,-0.54931640625,-1.5325927734375,32.860107421875,-96.6082763671875
1760836654.6815841,-0.54345703125,-0.025390625,0.85009765625,0.732421875,-1.03759765625,-0.30517578125,-1.5380859375,32.84912109375,-96.6082763671875
1760836654.688158,-0.54345703125,-0.025390625,0.85009765625,0.732421875,-1.03759765625,-0.30517578125,-1.5325927734375,32.838134765625,-96.61376953125
1760836654.6956048,-0.5380859375,-0.02734375,0.84326171875,0.1220703125,-1.03759765625,-0.18310546875,-1.527099609375,32.8271484375,-96.61376953125
1760836654.7026584,-0.5380859375,-0.02734375,0.84326171875,0.1220703125,-1.03759765625,-0.18310546875,-1.527099609375,32.816162109375,-96.6192626953125
1760836654.7160497,-0.546875,-0.01513671875,0.8408203125,-0.42724609375,-0.9765625,-0.06103515625,-1.5325927734375,32.80517578125,-96.6192626953125
1760836654.7236428,-0.546875,-0.01513671875,0.8408203125,-0.42724609375,-0.9765625,-0.06103515625,-1.5325927734375,32.794189453125,-96.6192626953125
1760836654.730667,-0.55517578125,-0.021484375,0.8349609375,-0.9765625,-0.79345703125,0.1220703125,-1.5380859375,32.7886962890625,-96.6192626953125
1760836654.7407565,-0.55517578125,-0.021484375,0.8349609375,-0.9765625,-0.79345703125,0.1220703125,-1.549072265625,32.7777099609375,-96.61376953125
1760836654.7519472,-0.5634765625,-0.02099609375,0.83154296875,-1.708984375,-0.42724609375,0.1220703125,-1.56005859375,32.772216796875,-96.61376953125
1760836654.7601447,-0.5634765625,-0.02099609375,0.83154296875,-1.708984375,-0.42724609375,0.1220703125,-1.5765380859375,32.772216796875,-96.6082763671875
1760836654.7685602,-0.55810546875,-0.02197265625,0.83642578125,-2.0751953125,-0.1220703125,0.18310546875,-1.593017578125,32.772216796875,-96.6082763671875
1760836654.7815614,-0.55810546875,-0.02197265625,0.83642578125,-2.0751953125,-0.1220703125,0.18310546875,-1.614990234375,32.772216796875,-96.602783203125
1760836654.788403,-0.55517578125,-0.01708984375,0.83642578125,-2.01416015625,0.1220703125,0.244140625,-1.6314697265625,32.772216796875,-96.5972900390625
1760836654.7952316,-0.55517578125,-0.01708984375,0.83642578125,-2.01416015625,0.1220703125,0.244140625,-1.64794921875,32.7777099609375,-96.5972900390625
1760836654.8024685,-0.55615234375,-0.02392578125,0.83642578125,-2.62451171875,0.42724609375,0.06103515625,-1.669921875,32.783203125,-96.591796875
1760836654.8160126,-0.55615234375,-0.02392578125,0.83642578125,-2.62451171875,0.42724609375,0.06103515625,-1.69189453125,32.794189453125,-96.591796875
1760836654.822316,-0.546875,-0.029296875,0.83349609375,-3.23486328125,0.67138671875,0.0,-1.7193603515625,32.7996826171875,-96.5863037109375
1760836654.8336012,-0.546875,-0.029296875,0.83349609375,-3.23486328125,0.67138671875,0.0,-1.7523193359375,32.8106689453125,-96.5863037109375
1760836654.841314,-0.529296875,-0.0322265625,0.853515625,-2.44140625,0.54931640625,0.18310546875,-1.77978515625,32.8216552734375,-96.5863037109375
1760836654.850016,-0.529296875,-0.0322265625,0.853515625,-2.44140625,0.54931640625,0.18310546875,-1.8017578125,32.8271484375,-96.580810546875
1760836654.863544,-0.533203125,-0.0283203125,0.8525390625,-1.5869140625,0.244140625,0.3662109375,-1.8182373046875,32.8326416015625,-96.5753173828125
1760836654.8722823,-0.533203125,-0.0283203125,0.8525390625,-1.5869140625,0.244140625,0.3662109375,-1.8292236328125,32.838134765625,-96.5753173828125
1760836654.8791404,-0.5400390625,-0.01904296875,0.83837890625,-2.197265625,0.06103515625,0.30517578125,-1.845703125,32.838134765625,-96.56982421875
1760836654.892502,-0.5400390625,-0.01904296875,0.83837890625,-2.197265625,0.06103515625,0.30517578125,-1.86767578125,32.838134765625,-96.5643310546875
1760836654.9050002,-0.53955078125,-0.025390625,0.84521484375,-3.0517578125,0.06103515625,0.30517578125,-1.8896484375,32.838134765625,-96.558837890625
1760836654.9242663,-0.53955078125,-0.025390625,0.84521484375,-3.0517578125,0.06103515625,0.30517578125,-1.9171142578125,32.838134765625,-96.5533447265625
1760836654.9390829,-0.5302734375,-0.0302734375,0.84375,-3.662109375,0.1220703125,0.244140625,-1.944580078125,32.838134765625,-96.5478515625
1760836654.9462855,-0.5302734375,-0.0302734375,0.84375,-3.662109375,0.1220703125,0.244140625,-1.9775390625,32.838134765625,-96.5478515625
1760836654.9538386,-0.529296875,-0.03564453125,0.85693359375,-1.28173828125,-0.18310546875,0.30517578125,-1.99951171875,32.838134765625,-96.5423583984375
1760836654.9722078,-0.529296875,-0.03564453125,0.85693359375,-1.28173828125,-0.18310546875,0.30517578125,-2.010498046875,32.838134765625,-96.536865234375
1760836654.9842308,-0.5341796875,-0.03955078125,0.84423828125,0.30517578125,-0.54931640625,0.0,-2.0159912109375,32.8271484375,-96.536865234375
1760836655.0028048,-0.5341796875,-0.03955078125,0.84423828125,0.30517578125,-0.54931640625,0.0,-2.010498046875,32.8216552734375,-96.536865234375
1760836655.0178967,-0.54443359375,-0.03125,0.8388671875,0.54931640625,-0.67138671875,-0.18310546875,-2.0050048828125,32.816162109375,-96.536865234375
1760836655.0271235,-0.54443359375,-0.03125,0.8388671875,0.54931640625,-0.67138671875,-0.18310546875,-2.0050048828125,32.80517578125,-96.536865234375
1760836655.0494652,-0.548828125,-0.033203125,0.84326171875,2.3193359375,-0.79345703125,-0.18310546875,-1.988525390625,32.794189453125,-96.5423583984375
1760836655.0579104,-0.548828125,-0.033203125,0.84326171875,2.3193359375,-0.79345703125,-0.18310546875,-1.966552734375,32.7886962890625,-96.5423583984375
1760836655.0779297,-0.5625,-0.02685546875,0.833984375,2.62451171875,-0.67138671875,-0.30517578125,-1.944580078125,32.7777099609375,-96.5478515625
1760836655.0845096,-0.5625,-0.02685546875,0.833984375,2.62451171875,-0.67138671875,-0.30517578125,-1.922607421875,32.772216796875,-96.5533447265625
1760836655.0952628,-0.5703125,-0.01611328125,0.828125,1.89208984375,-0.18310546875,-0.42724609375,-1.900634765625,32.7667236328125,-96.558837890625
1760836655.1015697,-0.5703125,-0.01611328125,0.828125,1.89208984375,-0.18310546875,-0.42724609375,-1.8841552734375,32.7667236328125,-96.5643310546875
1760836655.1238573,-0.548828125,-0.02099609375,0.81591796875,-0.8544921875,0.3662109375,-0.54931640625,-1.8841552734375,32.772216796875,-96.5643310546875
1760836655.135986,-0.548828125,-0.02099609375,0.81591796875,-0.8544921875,0.3662109375,-0.54931640625,-1.8951416015625,32.7777099609375,-96.5753173828125
1760836655.1427758,-0.52587890625,-0.03515625,0.88720703125,-0.6103515625,0.0,-0.42724609375,-1.9061279296875,32.783203125,-96.5753173828125
1760836655.1610677,-0.52587890625,-0.03515625,0.88720703125,-0.6103515625,0.0,-0.42724609375,-1.91162109375,32.783203125,-96.580810546875
1760836655.1699042,-0.53271484375,-0.033203125,0.83349609375,2.5634765625,-0.6103515625,-0.54931640625,-1.9061279296875,32.783203125,-96.5863037109375
1760836655.1880715,-0.53271484375,-0.033203125,0.83349609375,2.5634765625,-0.6103515625,-0.54931640625,-1.8841552734375,32.7777099609375,-96.591796875
1760836655.195791,-0.54052734375,-0.01953125,0.84130859375,2.0751953125,-0.6103515625,-1.03759765625,-1.86767578125,32.7667236328125,-96.602783203125
1760836655.2323935,-0.54052734375,-0.01953125,0.84130859375,2.0751953125,-0.6103515625,-1.03759765625,-1.8511962890625,32.76123046875,-96.61376953125
1760836655.2406316,-0.54052734375,-0.02294921875,0.8466796875,0.18310546875,-0.67138671875,-1.03759765625,-1.845703125,32.7557373046875,-96.624755859375
1760836655.2473352,-0.54052734375,-0.02294921875,0.8466796875,0.18310546875,-0.67138671875,-1.03759765625,-1.8511962890625,32.750244140625,-96.6357421875
1760836655.254168,-0.537109375,-0.0322265625,0.84033203125,1.64794921875,-0.91552734375,-0.9765625,-1.8511962890625,32.7392578125,-96.646728515625
1760836655.2732172,-0.537109375,-0.0322265625,0.84033203125,1.64794921875,-0.91552734375,-0.9765625,-1.8402099609375,32.728271484375,-96.65771484375
1760836655.280146,-0.53955078125,-0.02587890625,0.8515625,1.708984375,-1.15966796875,-1.28173828125,-1.8292236328125,32.71728515625,-96.6741943359375
1760836655.2900171,-0.53955078125,-0.02587890625,0.8515625,1.708984375,-1.15966796875,-1.28173828125,-1.8182373046875,32.706298828125,-96.6851806640625
1760836655.2980921,-0.5439453125,-0.02001953125,0.83544921875,0.30517578125,-1.3427734375,-1.220703125,-1.8182373046875,32.6953125,-96.70166015625
1760836655.3054788,-0.5439453125,-0.02001953125,0.83544921875,0.30517578125,-1.3427734375,-1.220703125,-1.82373046875,32.6788330078125,-96.712646484375
1760836655.3144727,-0.5390625,-0.02685546875,0.84130859375,0.0,-1.28173828125,-0.9765625,-1.8292236328125,32.6678466796875,-96.7236328125
1760836655.3284144,-0.5390625,-0.02685546875,0.84130859375,0.0,-1.28173828125,-0.9765625,-1.834716796875,32.6513671875,-96.734619140625
1760836655.3355286,-0.54443359375,-0.03125,0.84912109375,0.06103515625,-1.46484375,-0.8544921875,-1.834716796875,32.640380859375,-96.74560546875
1760836655.3457246,-0.54443359375,-0.03125,0.84912109375,0.06103515625,-1.46484375,-0.8544921875,-1.8402099609375,32.6239013671875,-96.756591796875
1760836655.362021,-0.53271484375,-0.02685546875,0.8427734375,0.67138671875,-1.64794921875,-0.732421875,-1.8402099609375,32.607421875,-96.7620849609375
1760836655.3703926,-0.53271484375,-0.02685546875,0.8427734375,0.67138671875,-1.64794921875,-0.732421875,-1.834716796875,32.5909423828125,-96.7730712890625
1760836655.3773766,-0.5361328125,-0.0302734375,0.84912109375,0.1220703125,-1.5869140625,-0.6103515625,-1.8402099609375,32.574462890625,-96.778564453125
1760836655.3874652,-0.5361328125,-0.0302734375,0.84912109375,0.1220703125,-1.5869140625,-0.6103515625,-1.8402099609375,32.5579833984375,-96.7840576171875
1760836655.394224,-0.5361328125,-0.02880859375,0.84765625,0.30517578125,-1.46484375,-0.48828125,-1.8402099609375,32.5469970703125,-96.78955078125
1760836655.404899,-0.5361328125,-0.02880859375,0.84765625,0.30517578125,-1.46484375,-0.48828125,-1.8402099609375,32.530517578125,-96.7950439453125
1760836655.411434,-0.53564453125,-0.03076171875,0.85107421875,1.52587890625,-1.3427734375,-0.3662109375,-1.8292236328125,32.5140380859375,-96.800537109375
1760836655.4202788,-0.53564453125,-0.03076171875,0.85107421875,1.52587890625,-1.3427734375,-0.3662109375,-1.8182373046875,32.5030517578125,-96.8060302734375
1760836655.435594,-0.5322265625,-0.02685546875,0.84521484375,0.67138671875,-1.0986328125,-0.244140625,-1.812744140625,32.4920654296875,-96.8060302734375
1760836655.4426186,-0.5322265625,-0.02685546875,0.84521484375,0.67138671875,-1.0986328125,-0.244140625,-1.8072509765625,32.4810791015625,-96.8115234375
1760836655.4535098,-0.533203125,-0.0234375,0.853515625,0.0,-1.03759765625,0.0,-1.8072509765625,32.4700927734375,-96.8115234375
1760836655.4752185,-0.533203125,-0.0234375,0.853515625,0.0,-1.03759765625,0.0,-1.8072509765625,32.4591064453125,-96.8060302734375
1760836655.4834974,-0.54931640625,-0.02783203125,0.84716796875,2.0751953125,-1.03759765625,0.1220703125,-1.7852783203125,32.4481201171875,-96.8060302734375
1760836655.4996462,-0.54931640625,-0.02783203125,0.84716796875,2.0751953125,-1.03759765625,0.1220703125,-1.7633056640625,32.4371337890625,-96.8060302734375
1760836655.507519,-0.55078125,-0.029296875,0.82958984375,0.8544921875,-0.6103515625,-0.1220703125,-1.7578125,32.431640625,-96.8060302734375
1760836655.5213833,-0.55078125,-0.029296875,0.82958984375,0.8544921875,-0.6103515625,-0.1220703125,-1.746826171875,32.4261474609375,-96.8060302734375
1760836655.5283356,-0.55078125,-0.0166015625,0.84130859375,-0.48828125,-0.18310546875,-0.06103515625,-1.7523193359375,32.4261474609375,-96.8060302734375
1760836655.5471563,-0.55078125,-0.0166015625,0.84130859375,-0.48828125,-0.18310546875,-0.06103515625,-1.7578125,32.4261474609375,-96.8060302734375
1760836655.5535374,-0.54345703125,-0.0283203125,0.84765625,-0.1220703125,-0.244140625,0.244140625,-1.7578125,32.4261474609375,-96.8060302734375
1760836655.5646136,-0.54345703125,-0.0283203125,0.84765625,-0.1220703125,-0.244140625,0.244140625,-1.7578125,32.420654296875,-96.800537109375
1760836655.5737994,-0.548828125,-0.02734375,0.84326171875,0.54931640625,-0.244140625,0.244140625,-1.7523193359375,32.420654296875,-96.800537109375
1760836655.5812852,-0.548828125,-0.02734375,0.84326171875,0.54931640625,-0.244140625,0.244140625,-1.746826171875,32.420654296875,-96.7950439453125
1760836655.5948896,-0.5419921875,-0.0244140625,0.8369140625,0.0,0.06103515625,0.1220703125,-1.746826171875,32.4261474609375,-96.7950439453125
1760836655.6023896,-0.5419921875,-0.0244140625,0.8369140625,0.0,0.06103515625,0.1220703125,-1.746826171875,32.4261474609375,-96.78955078125
1760836655.6127412,-0.53857421875,-0.02197265625,0.84619140625,-1.0986328125,0.3662109375,0.244140625,-1.7523193359375,32.431640625,-96.78955078125
1760836655.6419008,-0.53857421875,-0.02197265625,0.84619140625,-1.0986328125,0.3662109375,0.244140625,-1.7633056640625,32.4371337890625,-96.7840576171875
1760836655.6615107,-0.53564453125,-0.0302734375,0.84814453125,-0.1220703125,0.3662109375,0.18310546875,-1.7633056640625,32.442626953125,-96.7840576171875
1760836655.6701167,-0.53564453125,-0.0302734375,0.84814453125,-0.1220703125,0.3662109375,0.18310546875,-1.7633056640625,32.4481201171875,-96.7840576171875
1760836655.6856952,-0.53857421875,-0.0234375,0.84716796875,0.18310546875,0.244140625,0.18310546875,-1.7578125,32.45361328125,-96.778564453125
1760836655.7019725,-0.53857421875,-0.0234375,0.84716796875,0.18310546875,0.244140625,0.18310546875,-1.7578125,32.4591064453125,-96.778564453125
1760836655.7084086,-0.53515625,-0.02392578125,0.84765625,-0.18310546875,0.3662109375,0.1220703125,-1.7578125,32.4591064453125,-96.778564453125
1760836655.7224433,-0.53515625,-0.02392578125,0.84765625,-0.18310546875,0.3662109375,0.1220703125,-1.7578125,32.464599609375,-96.7730712890625
1760836655.7302616,-0.5341796875,-0.02978515625,0.84423828125,-0.48828125,0.42724609375,0.18310546875,-1.7633056640625,32.4700927734375,-96.7730712890625
1760836655.7385292,-0.5341796875,-0.02978515625,0.84423828125,-0.48828125,0.42724609375,0.18310546875,-1.768798828125,32.4755859375,-96.7730712890625
1760836655.745786,-0.53662109375,-0.02392578125,0.85107421875,0.42724609375,0.3662109375,0.3662109375,-1.7578125,32.4810791015625,-96.767578125
1760836655.7530432,-0.53662109375,-0.02392578125,0.85107421875,0.42724609375,0.3662109375,0.3662109375,-1.7523193359375,32.4810791015625,-96.7620849609375
1760836655.7703457,-0.537109375,-0.0224609375,0.84619140625,-0.1220703125,0.30517578125,0.244140625,-1.7523193359375,32.486572265625,-96.756591796875
1760836655.7783742,-0.537109375,-0.0224609375,0.84619140625,-0.1220703125,0.30517578125,0.244140625,-1.7523193359375,32.486572265625,-96.756591796875
1760836655.7862382,-0.537109375,-0.02783203125,0.84423828125,-1.15966796875,0.48828125,0.06103515625,-1.7633056640625,32.4920654296875,-96.756591796875
1760836655.7939928,-0.537109375,-0.02783203125,0.84423828125,-1.15966796875,0.48828125,0.06103515625,-1.7742919921875,32.49755859375,-96.756591796875
1760836655.8086169,-0.53662109375,-0.03515625,0.84375,0.79345703125,0.48828125,0.18310546875,-1.7633056640625,32.5030517578125,-96.7510986328125
1760836655.8153687,-0.53662109375,-0.03515625,0.84375,0.79345703125,0.48828125,0.18310546875,-1.7578125,32.508544921875,-96.7510986328125
1760836655.8221195,-0.533203125,-0.0341796875,0.8486328125,1.8310546875,0.30517578125,0.06103515625,-1.7413330078125,32.508544921875,-96.7510986328125
1760836655.829205,-0.533203125,-0.0341796875,0.8486328125,1.8310546875,0.30517578125,0.06103515625,-1.7193603515625,32.5140380859375,-96.7510986328125
1760836655.8353534,-0.53857421875,-0.02099609375,0.845703125,2.0751953125,0.0,0.244140625,-1.702880859375,32.508544921875,-96.7510986328125
1760836655.848878,-0.53857421875,-0.02099609375,0.845703125,2.0751953125,0.0,0.244140625,-1.680908203125,32.508544921875,-96.74560546875
1760836655.85537,-0.5478515625,-0.0224609375,0.83837890625,1.708984375,-0.1220703125,0.42724609375,-1.658935546875,32.508544921875,-96.74560546875
1760836655.8624969,-0.5478515625,-0.0224609375,0.83837890625,1.708984375,-0.1220703125,0.42724609375,-1.6424560546875,32.508544921875,-96.7401123046875
1760836655.8692071,-0.5458984375,-0.02783203125,0.83740234375,1.89208984375,0.0,0.42724609375,-1.6204833984375,32.508544921875,-96.734619140625
1760836655.8754075,-0.5458984375,-0.02783203125,0.83740234375,1.89208984375,0.0,0.42724609375,-1.5985107421875,32.508544921875,-96.7291259765625
1760836655.8903928,-0.53662109375,-0.017578125,0.84716796875,2.13623046875,0.0,0.244140625,-1.5765380859375,32.508544921875,-96.7291259765625
1760836655.8969784,-0.53662109375,-0.017578125,0.84716796875,2.13623046875,0.0,0.244140625,-1.5545654296875,32.508544921875,-96.7236328125
1760836655.9040785,-0.53271484375,-0.0224609375,0.84814453125,2.50244140625,-0.1220703125,0.0,-1.5325927734375,32.508544921875,-96.7291259765625
1760836655.9104116,-0.53271484375,-0.0224609375,0.84814453125,2.50244140625,-0.1220703125,0.0,-1.5106201171875,32.508544921875,-96.7291259765625
1760836655.916919,-0.53466796875,-0.01806640625,0.84423828125,2.197265625,-0.244140625,-0.244140625,-1.4886474609375,32.5030517578125,-96.7291259765625
1760836655.9377618,-0.53466796875,-0.01806640625,0.84423828125,2.197265625,-0.244140625,-0.244140625,-1.4666748046875,32.5030517578125,-96.734619140625
1760836655.946401,-0.53271484375,-0.0146484375,0.85107421875,1.3427734375,-0.48828125,-0.18310546875,-1.4556884765625,32.49755859375,-96.734619140625
1760836655.9532418,-0.53271484375,-0.0146484375,0.85107421875,1.3427734375,-0.48828125,-0.18310546875,-1.4447021484375,32.4920654296875,-96.7401123046875
1760836655.9595175,-0.54248046875,-0.0205078125,0.845703125,0.79345703125,-0.79345703125,0.0,-1.439208984375,32.4810791015625,-96.7401123046875
1760836655.9661982,-0.54248046875,-0.0205078125,0.845703125,0.79345703125,-0.79345703125,0.0,-1.42822265625,32.4755859375,-96.7401123046875
1760836655.9891949,-0.5439453125,-0.01904296875,0.84375,1.15966796875,-0.91552734375,0.06103515625,-1.417236328125,32.464599609375,-96.734619140625
1760836655.995765,-0.5439453125,-0.01904296875,0.84375,1.15966796875,-0.91552734375,0.06103515625,-1.40625,32.4591064453125,-96.734619140625
1760836656.0036798,-0.53515625,-0.01611328125,0.8388671875,0.30517578125,-0.79345703125,0.0,-1.4007568359375,32.4481201171875,-96.734619140625
1760836656.010242,-0.53515625,-0.01611328125,0.8388671875,0.30517578125,-0.79345703125,0.0,-1.395263671875,32.442626953125,-96.734619140625
1760836656.0165856,-0.53466796875,-0.02099609375,0.85400390625,0.06103515625,-0.67138671875,-0.1220703125,-1.395263671875,32.4371337890625,-96.734619140625
1760836656.0393958,-0.53466796875,-0.02099609375,0.85400390625,0.06103515625,-0.67138671875,-0.1220703125,-1.395263671875,32.431640625,-96.734619140625
