timestamp,acc_x,acc_y,acc_z,gyro_x,gyro_y,gyro_z,angle_x,angle_y,angle_z
1758786254.6604812,0.0,0.0,0.0,0.0,0.0,0.0,29.0423583984375,36.2274169921875,163.45458984375
1758786254.6712148,-0.58837890625,0.39599609375,0.70458984375,0.42724609375,-0.42724609375,-0.79345703125,29.0423583984375,36.221923828125,163.443603515625
1758786254.6816792,-0.58837890625,0.39599609375,0.70458984375,0.42724609375,-0.42724609375,-0.79345703125,29.0423583984375,36.221923828125,163.4381103515625
1758786254.6910274,-0.59228515625,0.39501953125,0.70263671875,0.1220703125,-0.3662109375,-0.732421875,29.036865234375,36.221923828125,163.4271240234375
1758786254.7009633,-0.59228515625,0.39501953125,0.70263671875,0.1220703125,-0.3662109375,-0.732421875,29.036865234375,36.221923828125,163.4161376953125
1758786254.7111907,-0.58984375,0.39697265625,0.70263671875,0.0,-0.3662109375,-0.732421875,29.0313720703125,36.221923828125,163.41064453125
1758786254.7219768,-0.58984375,0.39697265625,0.70263671875,0.0,-0.3662109375,-0.732421875,29.02587890625,36.221923828125,163.399658203125
1758786254.7296247,-0.5869140625,0.39306640625,0.70654296875,-0.244140625,-0.42724609375,-0.67138671875,29.0203857421875,36.2164306640625,163.3941650390625
1758786254.7396607,-0.5869140625,0.39306640625,0.70654296875,-0.244140625,-0.42724609375,-0.67138671875,29.014892578125,36.2164306640625,163.3831787109375
1758786254.749307,-0.58837890625,0.39208984375,0.708984375,0.1220703125,-0.48828125,-0.6103515625,29.0093994140625,36.2164306640625,163.377685546875
1758786254.7593539,-0.58837890625,0.39208984375,0.708984375,0.1220703125,-0.48828125,-0.6103515625,29.0093994140625,36.2109375,163.36669921875
1758786254.7693467,-0.58740234375,0.39453125,0.70166015625,0.06103515625,-0.6103515625,-0.48828125,29.00390625,36.2054443359375,163.3612060546875
1758786254.7793784,-0.58740234375,0.39453125,0.70166015625,0.06103515625,-0.6103515625,-0.48828125,29.00390625,36.2054443359375,163.355712890625
1758786254.7893713,-0.58837890625,0.3974609375,0.705078125,-0.3662109375,-0.6103515625,-0.48828125,28.992919921875,36.199951171875,163.3502197265625
1758786254.8026905,-0.58837890625,0.3974609375,0.705078125,-0.3662109375,-0.6103515625,-0.48828125,28.9874267578125,36.1944580078125,163.3392333984375
1758786254.8093505,-0.58837890625,0.3935546875,0.708984375,-0.42724609375,-0.54931640625,-0.48828125,28.9764404296875,36.1944580078125,163.333740234375
1758786254.8193617,-0.58837890625,0.3935546875,0.708984375,-0.42724609375,-0.54931640625,-0.48828125,28.970947265625,36.18896484375,163.3282470703125
1758786254.829817,-0.58740234375,0.39306640625,0.71044921875,-0.18310546875,-0.48828125,-0.42724609375,28.9654541015625,36.1834716796875,163.32275390625
1758786254.839477,-0.58740234375,0.39306640625,0.71044921875,-0.18310546875,-0.48828125,-0.42724609375,28.9599609375,36.1834716796875,163.3172607421875
1758786254.8493752,-0.5859375,0.39501953125,0.70654296875,0.06103515625,-0.54931640625,-0.48828125,28.9599609375,36.177978515625,163.3062744140625
1758786254.8593855,-0.5859375,0.39501953125,0.70654296875,0.06103515625,-0.54931640625,-0.48828125,28.9544677734375,36.177978515625,163.30078125
1758786254.8694,-0.58203125,0.39306640625,0.7060546875,0.1220703125,-0.732421875,-0.48828125,28.9544677734375,36.1724853515625,163.2952880859375
1758786254.8793948,-0.58203125,0.39306640625,0.7060546875,0.1220703125,-0.732421875,-0.48828125,28.948974609375,36.1669921875,163.2843017578125
1758786254.8894117,-0.58203125,0.3955078125,0.712890625,0.0,-0.9765625,-0.54931640625,28.9434814453125,36.156005859375,163.2733154296875
1758786254.899423,-0.58203125,0.3955078125,0.712890625,0.0,-0.9765625,-0.54931640625,28.93798828125,36.1505126953125,163.2623291015625
1758786254.9094415,-0.5810546875,0.39697265625,0.70556640625,0.0,-1.46484375,-0.67138671875,28.927001953125,36.1395263671875,163.245849609375
1758786254.9194224,-0.5810546875,0.39697265625,0.70556640625,0.0,-1.46484375,-0.67138671875,28.9215087890625,36.1285400390625,163.23486328125
1758786254.9301894,-0.58447265625,0.39453125,0.7021484375,-0.1220703125,-2.13623046875,-0.732421875,28.9105224609375,36.112060546875,163.212890625
1758786254.9396875,-0.58447265625,0.39453125,0.7021484375,-0.1220703125,-2.13623046875,-0.732421875,28.8995361328125,36.0955810546875,163.19091796875
1758786254.9494653,-0.5859375,0.39501953125,0.7021484375,-0.732421875,-2.44140625,-0.732421875,28.8775634765625,36.0736083984375,163.1689453125
1758786254.9594665,-0.57275390625,0.39404296875,0.71533203125,-1.28173828125,-2.38037109375,-0.79345703125,28.8555908203125,36.05712890625,163.14697265625
1758786254.9694772,-0.57275390625,0.39404296875,0.71533203125,-1.28173828125,-2.38037109375,-0.79345703125,28.8336181640625,36.03515625,163.125
1758786254.979487,-0.572265625,0.3984375,0.74169921875,0.06103515625,-1.46484375,-1.220703125,28.817138671875,36.024169921875,163.10302734375
1758786254.9894962,-0.572265625,0.3984375,0.74169921875,0.06103515625,-1.46484375,-1.220703125,28.80615234375,36.01318359375,163.0810546875
1758786254.9995058,-0.552734375,0.39501953125,0.744140625,0.6103515625,-1.220703125,-1.40380859375,28.795166015625,36.002197265625,163.05908203125
1758786255.0095093,-0.552734375,0.39501953125,0.744140625,0.6103515625,-1.220703125,-1.40380859375,28.7896728515625,35.9967041015625,163.037109375
1758786255.0201325,-0.54931640625,0.388671875,0.73828125,0.8544921875,-1.8310546875,-1.40380859375,28.7841796875,35.980224609375,163.0096435546875
1758786255.0295358,-0.54931640625,0.388671875,0.73828125,0.8544921875,-1.8310546875,-1.40380859375,28.773193359375,35.96923828125,162.9766845703125
1758786255.0395482,-0.5322265625,0.37841796875,0.7392578125,1.15966796875,-2.44140625,-1.220703125,28.7677001953125,35.947265625,162.9437255859375
1758786255.0495508,-0.5322265625,0.37841796875,0.7392578125,1.15966796875,-2.44140625,-1.220703125,28.76220703125,35.9197998046875,162.9107666015625
1758786255.0595515,-0.5234375,0.37646484375,0.76318359375,4.45556640625,-3.11279296875,-1.28173828125,28.7677001953125,35.892333984375,162.872314453125
1758786255.0695915,-0.5234375,0.37646484375,0.76318359375,4.45556640625,-3.11279296875,-1.28173828125,28.7896728515625,35.859375,162.828369140625
1758786255.0795588,-0.50634765625,0.37890625,0.779296875,9.70458984375,-3.41796875,-1.64794921875,28.8336181640625,35.826416015625,162.7789306640625
1758786255.089591,-0.50634765625,0.37890625,0.779296875,9.70458984375,-3.41796875,-1.64794921875,28.8995361328125,35.79345703125,162.7239990234375
1758786255.0995858,-0.509765625,0.38818359375,0.80810546875,15.2587890625,-4.0283203125,-1.708984375,28.992919921875,35.74951171875,162.6690673828125
1758786255.1095946,-0.509765625,0.38818359375,0.80810546875,15.2587890625,-4.0283203125,-1.708984375,29.1082763671875,35.70556640625,162.608642578125
1758786255.1196103,-0.52685546875,0.376953125,0.7841796875,15.9912109375,-4.7607421875,-1.3427734375,29.2291259765625,35.6561279296875,162.542724609375
1758786255.1296265,-0.52685546875,0.376953125,0.7841796875,15.9912109375,-4.7607421875,-1.3427734375,29.344482421875,35.6011962890625,162.4822998046875
1758786255.1396132,-0.5595703125,0.41162109375,0.73779296875,11.962890625,-5.2490234375,-1.40380859375,29.443359375,35.5462646484375,162.4163818359375
1758786255.150442,-0.5595703125,0.41162109375,0.73779296875,11.962890625,-5.2490234375,-1.40380859375,29.520263671875,35.4913330078125,162.344970703125
1758786255.1596262,-0.57275390625,0.421875,0.68359375,10.3759765625,-5.31005859375,-1.46484375,29.5916748046875,35.430908203125,162.279052734375
1758786255.1698892,-0.57275390625,0.421875,0.68359375,10.3759765625,-5.31005859375,-1.46484375,29.6575927734375,35.3814697265625,162.2186279296875
1758786255.1796377,-0.57763671875,0.4296875,0.6806640625,9.8876953125,-5.2490234375,-1.28173828125,29.7235107421875,35.3265380859375,162.158203125
1758786255.1899388,-0.57763671875,0.4296875,0.6806640625,9.8876953125,-5.2490234375,-1.28173828125,29.783935546875,35.277099609375,162.0977783203125
1758786255.1997974,-0.5654296875,0.41650390625,0.6884765625,7.14111328125,-5.18798828125,-1.03759765625,29.8388671875,35.2276611328125,162.04833984375
1758786255.2098937,-0.5654296875,0.41650390625,0.6884765625,7.14111328125,-5.18798828125,-1.03759765625,29.8828125,35.17822265625,161.9989013671875
1758786255.2197042,-0.564453125,0.416015625,0.7216796875,0.48828125,-5.7373046875,-0.67138671875,29.893798828125,35.1287841796875,161.949462890625
1758786255.2306368,-0.564453125,0.416015625,0.7216796875,0.48828125,-5.7373046875,-0.67138671875,29.871826171875,35.0738525390625,161.9000244140625
1758786255.240094,-0.57666015625,0.4287109375,0.74609375,-4.0283203125,-6.591796875,-0.18310546875,29.8223876953125,35.013427734375,161.8560791015625
1758786255.250088,-0.57666015625,0.4287109375,0.74609375,-4.0283203125,-6.591796875,-0.18310546875,29.7564697265625,34.9530029296875,161.806640625
1758786255.2600892,-0.57763671875,0.40869140625,0.72998046875,-7.62939453125,-7.26318359375,-0.244140625,29.674072265625,34.8870849609375,161.7572021484375
1758786255.2699692,-0.57763671875,0.40869140625,0.72998046875,-7.62939453125,-7.26318359375,-0.244140625,29.5697021484375,34.8211669921875,161.707763671875
1758786255.2800045,-0.55908203125,0.41796875,0.71044921875,-13.00048828125,-7.6904296875,0.06103515625,29.4378662109375,34.749755859375,161.663818359375
1758786255.2899313,-0.55908203125,0.41796875,0.71044921875,-13.00048828125,-7.6904296875,0.06103515625,29.2840576171875,34.6783447265625,161.619873046875
1758786255.300584,-0.54443359375,0.42333984375,0.70556640625,-17.2119140625,-7.080078125,0.30517578125,29.11376953125,34.6124267578125,161.575927734375
1758786255.3098505,-0.54443359375,0.42333984375,0.70556640625,-17.2119140625,-7.080078125,0.30517578125,28.927001953125,34.5465087890625,161.5374755859375
1758786255.319997,-0.541015625,0.42626953125,0.73486328125,-21.728515625,-7.26318359375,0.244140625,28.7127685546875,34.47509765625,161.5045166015625
1758786255.3305986,-0.541015625,0.42626953125,0.73486328125,-21.728515625,-7.26318359375,0.244140625,28.4820556640625,34.4091796875,161.466064453125
1758786255.3409395,-0.5380859375,0.41259765625,0.76708984375,-21.66748046875,-6.8359375,0.1220703125,28.2513427734375,34.3377685546875,161.4276123046875
1758786255.349958,-0.5380859375,0.41259765625,0.76708984375,-21.66748046875,-6.8359375,0.1220703125,28.026123046875,34.2718505859375,161.38916015625
1758786255.3602533,-0.5302734375,0.37451171875,0.7314453125,-18.61572265625,-6.4697265625,0.0,27.8118896484375,34.21142578125,161.3507080078125
1758786255.3705802,-0.5302734375,0.37451171875,0.7314453125,-18.61572265625,-6.4697265625,0.0,27.61962890625,34.1455078125,161.312255859375
1758786255.379979,-0.513671875,0.35595703125,0.75634765625,-15.0146484375,-6.77490234375,-0.48828125,27.4383544921875,34.0850830078125,161.2738037109375
1758786255.3899767,-0.513671875,0.35595703125,0.75634765625,-15.0146484375,-6.77490234375,-0.48828125,27.26806640625,34.0191650390625,161.2298583984375
1758786255.4006908,-0.5302734375,0.35693359375,0.78564453125,-10.92529296875,-6.591796875,-1.15966796875,27.1197509765625,33.958740234375,161.1859130859375
1758786255.409951,-0.5302734375,0.35693359375,0.78564453125,-10.92529296875,-6.591796875,-1.15966796875,26.993408203125,33.8983154296875,161.136474609375
1758786255.4200997,-0.53466796875,0.353515625,0.7939453125,-5.43212890625,-6.89697265625,-2.38037109375,26.883544921875,33.837890625,161.0760498046875
1758786255.4310532,-0.53466796875,0.353515625,0.7939453125,-5.43212890625,-6.89697265625,-2.38037109375,26.795654296875,33.7774658203125,161.0101318359375
1758786255.4416234,-0.54931640625,0.353515625,0.77490234375,0.0,-6.65283203125,-2.44140625,26.7352294921875,33.7225341796875,160.9442138671875
1758786255.4507036,-0.54931640625,0.353515625,0.77490234375,0.0,-6.65283203125,-2.44140625,26.69677734375,33.6676025390625,160.8782958984375
1758786255.4607267,-0.5849609375,0.36865234375,0.78564453125,3.662109375,-6.9580078125,-3.35693359375,26.6802978515625,33.6126708984375,160.806884765625
1758786255.4710565,-0.5849609375,0.36865234375,0.78564453125,3.662109375,-6.9580078125,-3.35693359375,26.6748046875,33.563232421875,160.7354736328125
1758786255.481721,-0.60009765625,0.3994140625,0.79296875,2.0751953125,-6.77490234375,-4.2724609375,26.6583251953125,33.5137939453125,160.653076171875
1758786255.490698,-0.60009765625,0.3994140625,0.79296875,2.0751953125,-6.77490234375,-4.2724609375,26.630859375,33.4698486328125,160.576171875
1758786255.5007362,-0.55615234375,0.4208984375,0.77001953125,-5.37109375,-6.65283203125,-4.21142578125,26.56494140625,33.4259033203125,160.4937744140625
1758786255.510959,-0.55615234375,0.4208984375,0.77001953125,-5.37109375,-6.65283203125,-4.21142578125,26.4715576171875,33.3819580078125,160.4168701171875
1758786255.5218706,-0.5107421875,0.40625,0.70947265625,-15.19775390625,-6.34765625,-3.72314453125,26.3287353515625,33.3380126953125,160.345458984375
1758786255.53008,-0.5107421875,0.40625,0.70947265625,-15.19775390625,-6.34765625,-3.72314453125,26.1419677734375,33.2940673828125,160.2740478515625
1758786255.5402296,-0.50732421875,0.35595703125,0.7470703125,-21.05712890625,-5.67626953125,-3.41796875,25.927734375,33.255615234375,160.2081298828125
1758786255.550823,-0.50732421875,0.35595703125,0.7470703125,-21.05712890625,-5.67626953125,-3.41796875,25.6915283203125,33.211669921875,160.147705078125
1758786255.5602078,-0.4873046875,0.326171875,0.7509765625,-19.04296875,-4.69970703125,-3.0517578125,25.46630859375,33.1787109375,160.0872802734375
1758786255.570085,-0.4873046875,0.326171875,0.7509765625,-19.04296875,-4.69970703125,-3.0517578125,25.2520751953125,33.1402587890625,160.0323486328125
1758786255.5802572,-0.49609375,0.32861328125,0.79443359375,-10.7421875,-4.150390625,-2.50244140625,25.081787109375,33.1072998046875,159.98291015625
1758786255.5909956,-0.49609375,0.32861328125,0.79443359375,-10.7421875,-4.150390625,-2.50244140625,24.949951171875,33.0743408203125,159.9334716796875
1758786255.6002548,-0.55126953125,0.3310546875,0.77001953125,-3.173828125,-3.2958984375,-2.50244140625,24.862060546875,33.046875,159.884033203125
1758786255.610086,-0.55126953125,0.3310546875,0.77001953125,-3.173828125,-3.2958984375,-2.50244140625,24.80712890625,33.0194091796875,159.840087890625
1758786255.6208618,-0.55859375,0.3486328125,0.7763671875,3.23486328125,-3.23486328125,-2.86865234375,24.78515625,32.9974365234375,159.796142578125
1758786255.6306581,-0.55859375,0.3486328125,0.7763671875,3.23486328125,-3.23486328125,-2.86865234375,24.796142578125,32.9754638671875,159.752197265625
1758786255.6402683,-0.5771484375,0.33447265625,0.78466796875,12.6953125,-2.13623046875,-3.0517578125,24.85107421875,32.958984375,159.708251953125
1758786255.6502812,-0.5771484375,0.33447265625,0.78466796875,12.6953125,-2.13623046875,-3.0517578125,24.949951171875,32.947998046875,159.664306640625
1758786255.660892,-0.55859375,0.31494140625,0.7705078125,21.05712890625,-1.953125,-3.41796875,25.0927734375,32.9425048828125,159.6258544921875
1758786255.6702733,-0.55859375,0.31494140625,0.7705078125,21.05712890625,-1.953125,-3.41796875,25.2740478515625,32.93701171875,159.5819091796875
1758786255.6802776,-0.5146484375,0.32373046875,0.79052734375,27.52685546875,-1.46484375,-3.47900390625,25.4827880859375,32.93701171875,159.5379638671875
1758786255.6902304,-0.5146484375,0.32373046875,0.79052734375,27.52685546875,-1.46484375,-3.47900390625,25.7244873046875,32.93701171875,159.4940185546875
1758786255.7010617,-0.48291015625,0.353515625,0.76953125,27.77099609375,-1.3427734375,-3.2958984375,25.9661865234375,32.93701171875,159.4500732421875
1758786255.7102373,-0.48291015625,0.353515625,0.76953125,27.77099609375,-1.3427734375,-3.2958984375,26.2078857421875,32.93701171875,159.4061279296875
1758786255.7206843,-0.4697265625,0.38037109375,0.74365234375,25.87890625,-0.48828125,-2.50244140625,26.4385986328125,32.93701171875,159.36767578125
1758786255.730309,-0.4697265625,0.38037109375,0.74365234375,25.87890625,-0.48828125,-2.50244140625,26.6693115234375,32.93701171875,159.334716796875
1758786255.7404559,-0.46044921875,0.39892578125,0.7275390625,23.37646484375,-0.42724609375,-1.953125,26.8890380859375,32.9315185546875,159.3017578125
1758786255.7503805,-0.46044921875,0.39892578125,0.7275390625,23.37646484375,-0.42724609375,-1.953125,27.0977783203125,32.926025390625,159.268798828125
1758786255.7610826,-0.46240234375,0.40576171875,0.79150390625,15.44189453125,0.0,-1.0986328125,27.2735595703125,32.9205322265625,159.246826171875
1758786255.770273,-0.46240234375,0.40576171875,0.79150390625,15.44189453125,0.0,-1.0986328125,27.4053955078125,32.9150390625,159.2193603515625
1758786255.780393,-0.46240234375,0.40576171875,0.79150390625,3.2958984375,-0.30517578125,-0.244140625,27.48779296875,32.8985595703125,159.1973876953125
1758786255.7911134,-0.46923828125,0.412109375,0.802734375,3.2958984375,-0.30517578125,-0.244140625,27.5042724609375,32.882080078125,159.180908203125
1758786255.8004587,-0.51318359375,0.39404296875,0.728515625,-10.009765625,0.0,0.244140625,27.4603271484375,32.860107421875,159.1644287109375
1758786255.8103025,-0.51318359375,0.39404296875,0.728515625,-10.009765625,0.0,0.244140625,27.35595703125,32.8436279296875,159.14794921875
1758786255.820394,-0.509765625,0.41064453125,0.75439453125,-17.2119140625,-1.03759765625,0.18310546875,27.213134765625,32.8216552734375,159.136962890625
1758786255.8321211,-0.509765625,0.41064453125,0.75439453125,-17.2119140625,-1.03759765625,0.18310546875,27.037353515625,32.7996826171875,159.1204833984375
1758786255.8413265,-0.50244140625,0.38427734375,0.78564453125,-6.77490234375,-1.0986328125,0.732421875,26.91650390625,32.772216796875,159.10400390625
1758786255.8503864,-0.50244140625,0.38427734375,0.78564453125,-6.77490234375,-1.0986328125,0.732421875,26.8505859375,32.7447509765625,159.0985107421875
1758786255.8604274,-0.4931640625,0.3076171875,0.7578125,5.2490234375,-0.79345703125,1.220703125,26.839599609375,32.71728515625,159.0875244140625
1758786255.8709648,-0.4931640625,0.3076171875,0.7578125,5.2490234375,-0.79345703125,1.220703125,26.89453125,32.6898193359375,159.0875244140625
1758786255.8804626,-0.533203125,0.26025390625,0.75244140625,13.97705078125,-1.03759765625,1.0986328125,26.9879150390625,32.662353515625,159.08203125
1758786255.890339,-0.533203125,0.26025390625,0.75244140625,13.97705078125,-1.03759765625,1.0986328125,27.1197509765625,32.640380859375,159.0765380859375
1758786255.9006581,-0.55908203125,0.314453125,0.7431640625,28.80859375,-1.28173828125,0.91552734375,27.3175048828125,32.6129150390625,159.071044921875
1758786255.9112968,-0.55908203125,0.314453125,0.7431640625,28.80859375,-1.28173828125,0.91552734375,27.586669921875,32.5909423828125,159.071044921875
1758786255.9206033,-0.5693359375,0.376953125,0.802734375,31.73828125,-1.3427734375,0.3662109375,27.872314453125,32.574462890625,159.06005859375
1758786255.9305687,-0.5693359375,0.376953125,0.802734375,31.73828125,-1.3427734375,0.3662109375,28.1634521484375,32.552490234375,159.0545654296875
1758786255.9419029,-0.595703125,0.431640625,0.7939453125,11.04736328125,-2.38037109375,0.8544921875,28.3502197265625,32.530517578125,159.0435791015625
1758786255.9506948,-0.595703125,0.431640625,0.7939453125,11.04736328125,-2.38037109375,0.8544921875,28.4381103515625,32.5030517578125,159.0380859375
1758786255.9606674,-0.65625,0.51318359375,0.78515625,-8.1787109375,-3.0517578125,1.46484375,28.4326171875,32.4755859375,159.0325927734375
1758786255.9713562,-0.65625,0.51318359375,0.78515625,-8.1787109375,-3.0517578125,1.46484375,28.3392333984375,32.442626953125,159.0325927734375
1758786255.9809315,-0.6767578125,0.53515625,0.802734375,-17.2119140625,-3.5400390625,1.5869140625,28.201904296875,32.40966796875,159.0380859375
1758786255.9905632,-0.6767578125,0.53515625,0.802734375,-17.2119140625,-3.5400390625,1.5869140625,28.026123046875,32.376708984375,159.0435791015625
1758786256.0007312,-0.625,0.4345703125,0.75830078125,-32.71484375,-4.21142578125,1.15966796875,27.7789306640625,32.3382568359375,159.0435791015625
1758786256.01129,-0.625,0.4345703125,0.75830078125,-32.71484375,-4.21142578125,1.15966796875,27.4493408203125,32.3052978515625,159.049072265625
1758786256.0205991,-0.5556640625,0.37255859375,0.701171875,-41.93115234375,-4.33349609375,1.5869140625,27.081298828125,32.266845703125,159.0545654296875
1758786256.0304914,-0.5556640625,0.37255859375,0.701171875,-41.93115234375,-4.33349609375,1.5869140625,26.6693115234375,32.23388671875,159.0655517578125
1758786256.041439,-0.48876953125,0.35302734375,0.66455078125,-32.77587890625,-4.08935546875,1.15966796875,26.30126953125,32.200927734375,159.071044921875
1758786256.0507243,-0.48876953125,0.35302734375,0.66455078125,-32.77587890625,-4.08935546875,1.15966796875,25.982666015625,32.16796875,159.08203125
1758786256.0606992,-0.4658203125,0.3193359375,0.685546875,-18.73779296875,-2.9296875,0.30517578125,25.8013916015625,32.1514892578125,159.0875244140625
1758786256.0709035,-0.4658203125,0.3193359375,0.685546875,-18.73779296875,-2.9296875,0.30517578125,25.6201171875,32.1295166015625,159.093017578125
1758786256.081275,-0.4619140625,0.32177734375,0.751953125,-7.26318359375,-1.8310546875,-0.06103515625,25.55419921875,32.1240234375,159.093017578125
1758786256.0914617,-0.4619140625,0.32177734375,0.751953125,-7.26318359375,-1.8310546875,-0.06103515625,25.48828125,32.113037109375,159.0985107421875
1758786256.1007962,-0.4775390625,0.3544921875,0.76416015625,4.57763671875,-1.0986328125,-0.42724609375,25.5322265625,32.1075439453125,159.093017578125
1758786256.111444,-0.4775390625,0.3544921875,0.76416015625,4.57763671875,-1.0986328125,-0.42724609375,25.5816650390625,32.0965576171875,159.093017578125
1758786256.120734,-0.5,0.39404296875,0.74267578125,3.2958984375,-0.79345703125,-0.18310546875,25.6146240234375,32.091064453125,159.0875244140625
1758786256.1324668,-0.5,0.39404296875,0.74267578125,3.2958984375,-0.79345703125,-0.18310546875,25.653076171875,32.0855712890625,159.0875244140625
1758786256.1422987,-0.54931640625,0.427734375,0.73486328125,0.67138671875,-0.6103515625,-1.40380859375,25.6585693359375,32.0855712890625,159.0765380859375
1758786256.1509752,-0.54931640625,0.427734375,0.73486328125,0.67138671875,-0.6103515625,-1.40380859375,25.6640625,32.0855712890625,159.0655517578125
1758786256.160832,-0.646484375,0.43798828125,0.77685546875,3.47900390625,-1.52587890625,-1.0986328125,25.7025146484375,32.080078125,159.06005859375
1758786256.1718128,-0.646484375,0.43798828125,0.77685546875,3.47900390625,-1.52587890625,-1.0986328125,25.740966796875,32.0745849609375,159.049072265625
1758786256.1808815,-0.7373046875,0.43115234375,0.8310546875,1.15966796875,-2.50244140625,-1.77001953125,25.7464599609375,32.069091796875,159.0325927734375
1758786256.1908178,-0.7373046875,0.43115234375,0.8310546875,1.15966796875,-2.50244140625,-1.77001953125,25.751953125,32.0635986328125,159.0216064453125
1758786256.2008858,-0.69970703125,0.3955078125,0.8427734375,-6.04248046875,-4.45556640625,-2.62451171875,25.675048828125,32.047119140625,158.994140625
1758786256.21169,-0.69970703125,0.3955078125,0.8427734375,-6.04248046875,-4.45556640625,-2.62451171875,25.59814453125,32.0361328125,158.9666748046875
1758786256.2208364,-0.59130859375,0.3369140625,0.7119140625,-10.68115234375,-4.8828125,-2.25830078125,25.4718017578125,32.0196533203125,158.9447021484375
1758786256.2307734,-0.59130859375,0.3369140625,0.7119140625,-10.68115234375,-4.8828125,-2.25830078125,25.3509521484375,32.003173828125,158.92822265625
1758786256.2414107,-0.47802734375,0.3154296875,0.64501953125,-11.3525390625,-5.0048828125,-1.8310546875,25.2191162109375,31.981201171875,158.90625
1758786256.2509646,-0.47802734375,0.3154296875,0.64501953125,-11.3525390625,-5.0048828125,-1.8310546875,25.0927734375,31.959228515625,158.8897705078125
1758786256.2608984,-0.4091796875,0.31298828125,0.6904296875,-5.43212890625,-3.7841796875,-1.15966796875,25.0323486328125,31.9482421875,158.88427734375
1758786256.2716293,-0.4091796875,0.31298828125,0.6904296875,-5.43212890625,-3.7841796875,-1.15966796875,24.9664306640625,31.9317626953125,158.873291015625
1758786256.2810092,-0.37744140625,0.31982421875,0.7578125,-6.28662109375,-2.50244140625,-0.18310546875,24.906005859375,31.915283203125,158.873291015625
1758786256.290804,-0.37744140625,0.31982421875,0.7578125,-6.28662109375,-2.50244140625,-0.18310546875,24.840087890625,31.8988037109375,158.8677978515625
1758786256.3014996,-0.42822265625,0.38525390625,0.83642578125,-12.451171875,-2.99072265625,0.732421875,24.71923828125,31.8658447265625,158.8623046875
1758786256.311141,-0.42822265625,0.38525390625,0.83642578125,-12.451171875,-2.99072265625,0.732421875,24.5928955078125,31.827392578125,158.8568115234375
1758786256.320918,-0.54736328125,0.36279296875,0.84375,-2.99072265625,-3.96728515625,-0.42724609375,24.554443359375,31.7889404296875,158.8348388671875
1758786256.3309052,-0.54736328125,0.36279296875,0.84375,-2.99072265625,-3.96728515625,-0.42724609375,24.5159912109375,31.75048828125,158.8128662109375
1758786256.3414838,-0.56884765625,0.27978515625,0.76806640625,2.3193359375,-4.33349609375,-1.5869140625,24.521484375,31.7120361328125,158.7744140625
1758786256.3508582,-0.56884765625,0.27978515625,0.76806640625,2.3193359375,-4.33349609375,-1.5869140625,24.521484375,31.6790771484375,158.741455078125
1758786256.361063,-0.60888671875,0.33935546875,0.67919921875,-2.50244140625,-3.0517578125,-1.953125,24.4775390625,31.66259765625,158.7139892578125
1758786256.371667,-0.60888671875,0.33935546875,0.67919921875,-2.50244140625,-3.0517578125,-1.953125,24.43359375,31.6461181640625,158.697509765625
1758786256.3810227,-0.6376953125,0.4833984375,0.76611328125,4.0283203125,-4.21142578125,-2.25830078125,24.45556640625,31.629638671875,158.6700439453125
1758786256.390988,-0.6376953125,0.4833984375,0.76611328125,4.0283203125,-4.21142578125,-2.25830078125,24.4830322265625,31.607666015625,158.642578125
1758786256.4013858,-0.626953125,0.46044921875,0.771484375,-4.39453125,-3.7841796875,-1.03759765625,24.43359375,31.5911865234375,158.6370849609375
1758786256.410958,-0.626953125,0.46044921875,0.771484375,-4.39453125,-3.7841796875,-1.03759765625,24.3896484375,31.57470703125,158.631591796875
1758786256.421053,-0.5849609375,0.3876953125,0.76171875,-24.0478515625,-5.0048828125,0.3662109375,24.1534423828125,31.541748046875,158.6370849609375
1758786256.4317634,-0.5849609375,0.3876953125,0.76171875,-24.0478515625,-5.0048828125,0.3662109375,23.917236328125,31.5087890625,158.6480712890625
1758786256.4415455,-0.53173828125,0.3115234375,0.71630859375,-23.4375,-4.45556640625,1.3427734375,23.697509765625,31.475830078125,158.66455078125
1758786256.4509223,-0.53173828125,0.3115234375,0.71630859375,-23.4375,-4.45556640625,1.3427734375,23.477783203125,31.44287109375,158.6865234375
1758786256.461086,-0.4912109375,0.2998046875,0.712890625,-18.61572265625,-4.39453125,2.01416015625,23.3074951171875,31.409912109375,158.7139892578125
1758786256.472163,-0.4912109375,0.2998046875,0.712890625,-18.61572265625,-4.39453125,2.01416015625,23.13720703125,31.376953125,158.741455078125
1758786256.4810252,-0.4921875,0.2890625,0.7734375,-12.02392578125,-3.41796875,2.5634765625,23.038330078125,31.3494873046875,158.7744140625
1758786256.4909737,-0.4921875,0.2890625,0.7734375,-12.02392578125,-3.41796875,2.5634765625,22.9339599609375,31.322021484375,158.807373046875
1758786256.501864,-0.4794921875,0.2822265625,0.802734375,8.72802734375,-3.72314453125,1.8310546875,23.0328369140625,31.2890625,158.829345703125
1758786256.5115123,-0.4794921875,0.2822265625,0.802734375,8.72802734375,-3.72314453125,1.8310546875,23.126220703125,31.256103515625,158.8458251953125
1758786256.5210345,-0.4814453125,0.28515625,0.8046875,16.29638671875,-4.5166015625,1.40380859375,23.2855224609375,31.212158203125,158.8568115234375
1758786256.5318785,-0.4814453125,0.28515625,0.8046875,16.29638671875,-4.5166015625,1.40380859375,23.44482421875,31.1737060546875,158.8623046875
1758786256.5411406,-0.44287109375,0.34716796875,0.79248046875,10.498046875,-5.31005859375,0.6103515625,23.5382080078125,31.124267578125,158.851318359375
1758786256.5510545,-0.44287109375,0.34716796875,0.79248046875,10.498046875,-5.31005859375,0.6103515625,23.6260986328125,31.0693359375,158.84033203125
1758786256.5616555,-0.47705078125,0.3828125,0.85546875,7.080078125,-5.859375,0.30517578125,23.6810302734375,31.014404296875,158.818359375
1758786256.5712051,-0.47705078125,0.3828125,0.85546875,7.080078125,-5.859375,0.30517578125,23.741455078125,30.9539794921875,158.79638671875
1758786256.5811827,-0.51611328125,0.33740234375,0.81787109375,7.14111328125,-5.7373046875,-0.42724609375,23.7908935546875,30.8990478515625,158.7689208984375
1758786256.59109,-0.51611328125,0.33740234375,0.81787109375,7.14111328125,-5.7373046875,-0.42724609375,23.84033203125,30.849609375,158.7359619140625
1758786256.6017272,-0.494140625,0.3349609375,0.8173828125,3.173828125,-6.28662109375,-0.79345703125,23.851318359375,30.7891845703125,158.7030029296875
1758786256.611118,-0.494140625,0.3349609375,0.8173828125,3.173828125,-6.28662109375,-0.79345703125,23.8568115234375,30.728759765625,158.66455078125
1758786256.6212506,-0.4716796875,0.3408203125,0.77880859375,2.5634765625,-5.0048828125,-1.3427734375,23.8568115234375,30.684814453125,158.631591796875
1758786256.631993,-0.4716796875,0.3408203125,0.77880859375,2.5634765625,-5.0048828125,-1.3427734375,23.8623046875,30.640869140625,158.5931396484375
1758786256.6413271,-0.4599609375,0.322265625,0.7958984375,5.7373046875,-5.55419921875,-2.197265625,23.88427734375,30.5914306640625,158.543701171875
1758786256.6511414,-0.4599609375,0.322265625,0.7958984375,5.7373046875,-5.55419921875,-2.197265625,23.9117431640625,30.5474853515625,158.4942626953125
1758786256.6612444,-0.4755859375,0.3134765625,0.81103515625,5.126953125,-5.06591796875,-2.3193359375,23.9337158203125,30.5035400390625,158.44482421875
1758786256.6717086,-0.4755859375,0.3134765625,0.81103515625,5.126953125,-5.06591796875,-2.3193359375,23.9501953125,30.4595947265625,158.40087890625
1758786256.6818485,-0.4892578125,0.33984375,0.79443359375,7.8125,-4.94384765625,-2.44140625,23.994140625,30.421142578125,158.3514404296875
1758786256.6910827,-0.4892578125,0.33984375,0.79443359375,7.8125,-4.94384765625,-2.44140625,24.0435791015625,30.377197265625,158.302001953125
1758786256.7011938,-0.47265625,0.35107421875,0.79345703125,8.11767578125,-5.18798828125,-2.99072265625,24.0875244140625,30.3387451171875,158.2470703125
1758786256.7121594,-0.47265625,0.35107421875,0.79345703125,8.11767578125,-5.18798828125,-2.99072265625,24.1314697265625,30.2947998046875,158.192138671875
1758786256.7213418,-0.4736328125,0.3486328125,0.80712890625,-3.84521484375,-4.57763671875,-2.8076171875,24.06005859375,30.25634765625,158.1427001953125
1758786256.7319536,-0.4736328125,0.3486328125,0.80712890625,-3.84521484375,-4.57763671875,-2.8076171875,23.9886474609375,30.223388671875,158.09326171875
1758786256.7414737,-0.47607421875,0.37744140625,0.765625,-9.1552734375,-3.96728515625,-2.62451171875,23.873291015625,30.1904296875,158.0438232421875
1758786256.752025,-0.47607421875,0.37744140625,0.765625,-9.1552734375,-3.96728515625,-2.62451171875,23.75244140625,30.157470703125,157.9998779296875
1758786256.7611969,-0.47509765625,0.337890625,0.79931640625,1.64794921875,-4.39453125,-3.23486328125,23.741455078125,30.12451171875,157.9449462890625
1758786256.7713516,-0.47509765625,0.337890625,0.79931640625,1.64794921875,-4.39453125,-3.23486328125,23.73046875,30.091552734375,157.8955078125
1758786256.7811975,-0.47509765625,0.337890625,0.79931640625,9.1552734375,-4.94384765625,-2.0751953125,23.79638671875,30.047607421875,157.8460693359375
1758786256.7921817,-0.47900390625,0.32861328125,0.84814453125,9.1552734375,-4.94384765625,-2.0751953125,23.8623046875,30.003662109375,157.8021240234375
1758786256.8011734,-0.46484375,0.3642578125,0.8017578125,10.7421875,-4.82177734375,-1.64794921875,23.9447021484375,29.959716796875,157.763671875
1758786256.8112433,-0.46484375,0.3642578125,0.8017578125,10.7421875,-4.82177734375,-1.64794921875,24.027099609375,29.9102783203125,157.7197265625
1758786256.8218117,-0.458984375,0.3984375,0.73193359375,11.5966796875,-4.21142578125,-0.6103515625,24.1259765625,29.8663330078125,157.6922607421875
1758786256.8318894,-0.458984375,0.3984375,0.73193359375,11.5966796875,-4.21142578125,-0.6103515625,24.2303466796875,29.827880859375,157.664794921875
1758786256.8417633,-0.43994140625,0.41064453125,0.73828125,11.77978515625,-3.0517578125,-0.42724609375,24.3402099609375,29.794921875,157.642822265625
1758786256.8514504,-0.43994140625,0.41064453125,0.73828125,11.77978515625,-3.0517578125,-0.42724609375,24.4500732421875,29.7564697265625,157.620849609375
1758786256.8618135,-0.45166015625,0.39013671875,0.8212890625,4.82177734375,-2.25830078125,0.0,24.4940185546875,29.72900390625,157.60986328125
1758786256.8715262,-0.45166015625,0.39013671875,0.8212890625,4.82177734375,-2.25830078125,0.0,24.54345703125,29.7015380859375,157.5933837890625
1758786256.881294,-0.4736328125,0.37890625,0.857421875,-13.12255859375,-3.11279296875,0.0,24.4061279296875,29.6630859375,157.5714111328125
1758786256.8922126,-0.4736328125,0.37890625,0.857421875,-13.12255859375,-3.11279296875,0.0,24.2742919921875,29.6246337890625,157.554931640625
1758786256.9017303,-0.4541015625,0.376953125,0.80810546875,-24.84130859375,-3.2958984375,0.1220703125,24.0216064453125,29.5806884765625,157.532958984375
1758786256.9112413,-0.4541015625,0.376953125,0.80810546875,-24.84130859375,-3.2958984375,0.1220703125,23.7744140625,29.5367431640625,157.5164794921875
1758786256.922028,-0.45947265625,0.353515625,0.7998046875,-19.83642578125,-3.7841796875,0.244140625,23.57666015625,29.4927978515625,157.4945068359375
1758786256.9320652,-0.45947265625,0.353515625,0.7998046875,-19.83642578125,-3.7841796875,0.244140625,23.37890625,29.443359375,157.4725341796875
1758786256.9412358,-0.45751953125,0.31103515625,0.7978515625,-12.6953125,-3.41796875,0.48828125,23.2525634765625,29.3994140625,157.4560546875
1758786256.9520392,-0.45751953125,0.31103515625,0.7978515625,-12.6953125,-3.41796875,0.48828125,23.126220703125,29.3609619140625,157.445068359375
1758786256.961438,-0.482421875,0.28955078125,0.78076171875,-11.90185546875,-2.9296875,0.06103515625,23.00537109375,29.322509765625,157.4285888671875
1758786256.9714541,-0.482421875,0.28955078125,0.78076171875,-11.90185546875,-2.9296875,0.06103515625,22.884521484375,29.28955078125,157.412109375
1758786256.9813359,-0.52685546875,0.3330078125,0.85302734375,-12.0849609375,-3.35693359375,0.0,22.7581787109375,29.2510986328125,157.401123046875
1758786256.9920685,-0.52685546875,0.3330078125,0.85302734375,-12.0849609375,-3.35693359375,0.0,22.6318359375,29.2181396484375,157.39013671875
1758786257.0013356,-0.55615234375,0.326171875,0.8974609375,-21.17919921875,-3.7841796875,-0.79345703125,22.412109375,29.1796875,157.3681640625
1758786257.011522,-0.55615234375,0.326171875,0.8974609375,-21.17919921875,-3.7841796875,-0.79345703125,22.1868896484375,29.146728515625,157.34619140625
1758786257.0218925,-0.5625,0.3681640625,0.8896484375,-27.77099609375,-5.55419921875,-0.79345703125,21.9012451171875,29.0972900390625,157.32421875
1758786257.032179,-0.5625,0.3681640625,0.8896484375,-27.77099609375,-5.55419921875,-0.79345703125,21.610107421875,29.0533447265625,157.2967529296875
1758786257.041721,-0.5341796875,0.35546875,0.8037109375,-20.93505859375,-5.67626953125,-0.91552734375,21.390380859375,29.00390625,157.2747802734375
1758786257.0516634,-0.5341796875,0.35546875,0.8037109375,-20.93505859375,-5.67626953125,-0.91552734375,21.1761474609375,28.9544677734375,157.2528076171875
1758786257.0619268,-0.5703125,0.26318359375,0.6787109375,-29.1748046875,-5.43212890625,-2.62451171875,20.8685302734375,28.9215087890625,157.2198486328125
1758786257.0716655,-0.5703125,0.26318359375,0.6787109375,-29.1748046875,-5.43212890625,-2.62451171875,20.5609130859375,28.89404296875,157.1868896484375
1758786257.081462,-0.53271484375,0.28955078125,0.8046875,-34.11865234375,-5.859375,-2.62451171875,20.2093505859375,28.861083984375,157.1649169921875
1758786257.092211,-0.53271484375,0.28955078125,0.8046875,-34.11865234375,-5.859375,-2.62451171875,19.852294921875,28.828125,157.137451171875
1758786257.10179,-0.52197265625,0.326171875,0.8359375,-29.4189453125,-6.04248046875,-2.44140625,19.5501708984375,28.795166015625,157.115478515625
1758786257.1116056,-0.52197265625,0.326171875,0.8359375,-29.4189453125,-6.04248046875,-2.44140625,19.2425537109375,28.76220703125,157.0880126953125
1758786257.121471,-0.4990234375,0.34375,0.794921875,-30.8837890625,-6.65283203125,-2.685546875,18.929443359375,28.71826171875,157.060546875
1758786257.132612,-0.4990234375,0.34375,0.794921875,-30.8837890625,-6.65283203125,-2.685546875,18.61083984375,28.6798095703125,157.0330810546875
1758786257.1415036,-0.45263671875,0.35791015625,0.8095703125,-34.72900390625,-6.591796875,-2.86865234375,18.25927734375,28.6358642578125,157.0001220703125
1758786257.151629,-0.45263671875,0.35791015625,0.8095703125,-34.72900390625,-6.591796875,-2.86865234375,17.9132080078125,28.5919189453125,156.9671630859375
1758786257.1622503,-0.4560546875,0.31494140625,0.86572265625,-33.87451171875,-6.53076171875,-2.197265625,17.578125,28.5479736328125,156.939697265625
1758786257.1722746,-0.4560546875,0.31494140625,0.86572265625,-33.87451171875,-6.53076171875,-2.197265625,17.24853515625,28.49853515625,156.9122314453125
1758786257.1814997,-0.453125,0.25390625,0.8623046875,-41.6259765625,-5.67626953125,-1.77001953125,16.842041015625,28.45458984375,156.884765625
1758786257.1919494,-0.4482421875,0.25048828125,0.8291015625,-39.0625,-5.67626953125,-2.44140625,16.446533203125,28.41064453125,156.8572998046875
1758786257.202247,-0.4482421875,0.25048828125,0.8291015625,-39.0625,-5.67626953125,-2.44140625,16.06201171875,28.36669921875,156.8243408203125
1758786257.2116764,-0.44189453125,0.1923828125,0.8427734375,-26.18408203125,-5.2490234375,-2.44140625,15.7379150390625,28.32275390625,156.7913818359375
1758786257.221508,-0.44189453125,0.1923828125,0.8427734375,-26.18408203125,-5.2490234375,-2.44140625,15.479736328125,28.27880859375,156.7584228515625
1758786257.2324948,-0.41162109375,0.1298828125,0.86767578125,-10.7421875,-5.37109375,-3.7841796875,15.29296875,28.2403564453125,156.719970703125
1758786257.2417712,-0.41162109375,0.1298828125,0.86767578125,-10.7421875,-5.37109375,-3.7841796875,15.172119140625,28.1964111328125,156.6705322265625
1758786257.2516758,-0.42626953125,0.1494140625,0.8759765625,7.14111328125,-5.43212890625,-4.39453125,15.13916015625,28.1524658203125,156.6156005859375
1758786257.2619529,-0.42626953125,0.1494140625,0.8759765625,7.14111328125,-5.43212890625,-4.39453125,15.18310546875,28.1085205078125,156.55517578125
1758786257.2723727,-0.45458984375,0.18359375,0.8994140625,29.47998046875,-5.126953125,-5.79833984375,15.3369140625,28.070068359375,156.4892578125
1758786257.281602,-0.45458984375,0.18359375,0.8994140625,29.47998046875,-5.126953125,-5.79833984375,15.589599609375,28.0316162109375,156.412353515625
1758786257.2917793,-0.4853515625,0.2626953125,0.8974609375,36.31591796875,-6.40869140625,-5.55419921875,15.875244140625,27.9876708984375,156.33544921875
1758786257.3021703,-0.4853515625,0.2626953125,0.8974609375,36.31591796875,-6.40869140625,-5.55419921875,16.1993408203125,27.938232421875,156.258544921875
1758786257.3118377,-0.5244140625,0.30419921875,0.88818359375,36.07177734375,-6.53076171875,-5.79833984375,16.512451171875,27.8887939453125,156.181640625
1758786257.3217096,-0.5244140625,0.30419921875,0.88818359375,36.07177734375,-6.53076171875,-5.79833984375,16.8255615234375,27.83935546875,156.104736328125
1758786257.3324306,-0.50927734375,0.2587890625,0.89453125,26.123046875,-6.7138671875,-6.4697265625,17.0892333984375,27.79541015625,156.0223388671875
1758786257.3416662,-0.50927734375,0.2587890625,0.89453125,26.123046875,-6.7138671875,-6.4697265625,17.303466796875,27.75146484375,155.93994140625
1758786257.3525593,-0.46044921875,0.275390625,0.85693359375,14.5263671875,-6.28662109375,-5.79833984375,17.4517822265625,27.70751953125,155.863037109375
1758786257.3622026,-0.46044921875,0.275390625,0.85693359375,14.5263671875,-6.28662109375,-5.79833984375,17.5506591796875,27.66357421875,155.7861328125
1758786257.3717895,-0.44921875,0.26025390625,0.74072265625,1.8310546875,-3.35693359375,-6.04248046875,17.589111328125,27.6361083984375,155.7147216796875
1758786257.3817482,-0.44921875,0.26025390625,0.74072265625,1.8310546875,-3.35693359375,-6.04248046875,17.567138671875,27.6251220703125,155.6488037109375
1758786257.3925283,-0.46142578125,0.30810546875,0.73876953125,-12.939453125,-1.15966796875,-6.04248046875,17.4737548828125,27.6251220703125,155.58837890625
1758786257.4018066,-0.46142578125,0.30810546875,0.73876953125,-12.939453125,-1.15966796875,-6.04248046875,17.314453125,27.6361083984375,155.533447265625
1758786257.4118118,-0.43505859375,0.30419921875,0.8427734375,-16.90673828125,0.79345703125,-7.26318359375,17.1331787109375,27.6580810546875,155.478515625
1758786257.4217079,-0.43505859375,0.30419921875,0.8427734375,-16.90673828125,0.79345703125,-7.26318359375,16.9354248046875,27.6910400390625,155.41259765625
1758786257.4327052,-0.42626953125,0.26708984375,0.912109375,-13.671875,2.13623046875,-7.87353515625,16.754150390625,27.7294921875,155.3466796875
1758786257.441738,-0.42626953125,0.26708984375,0.912109375,-13.671875,2.13623046875,-7.87353515625,16.58935546875,27.7679443359375,155.2752685546875
1758786257.451823,-0.45654296875,0.20947265625,0.90625,-4.45556640625,3.2958984375,-8.30078125,16.468505859375,27.8118896484375,155.1983642578125
1758786257.4617682,-0.45654296875,0.20947265625,0.90625,-4.45556640625,3.2958984375,-8.30078125,16.3916015625,27.8668212890625,155.1214599609375
1758786257.4727137,-0.439453125,0.19384765625,0.849609375,-2.74658203125,3.84521484375,-9.1552734375,16.3201904296875,27.916259765625,155.0390625
1758786257.481785,-0.439453125,0.19384765625,0.849609375,-2.74658203125,3.84521484375,-9.1552734375,16.2542724609375,27.9766845703125,154.951171875
1758786257.491969,-0.51220703125,0.177734375,0.8271484375,1.46484375,5.06591796875,-11.29150390625,16.1993408203125,28.0426025390625,154.8577880859375
1758786257.501885,-0.51220703125,0.177734375,0.8271484375,1.46484375,5.06591796875,-11.29150390625,16.160888671875,28.1195068359375,154.75341796875
1758786257.5127149,-0.50390625,0.17626953125,0.82470703125,18.6767578125,6.9580078125,-12.20703125,16.204833984375,28.2073974609375,154.6490478515625
1758786257.5219092,-0.50390625,0.17626953125,0.82470703125,18.6767578125,6.9580078125,-12.20703125,16.3311767578125,28.3062744140625,154.544677734375
1758786257.532047,-0.46533203125,0.18701171875,0.943359375,30.57861328125,7.32421875,-13.12255859375,16.512451171875,28.41064453125,154.434814453125
1758786257.5422952,-0.46533203125,0.18701171875,0.943359375,30.57861328125,7.32421875,-13.12255859375,16.7486572265625,28.5150146484375,154.3194580078125
1758786257.5526416,-0.43896484375,0.18603515625,0.88232421875,32.71484375,7.568359375,-13.97705078125,16.9903564453125,28.619384765625,154.1986083984375
1758786257.5619183,-0.43896484375,0.18603515625,0.88232421875,32.71484375,7.568359375,-13.97705078125,17.2320556640625,28.729248046875,154.0667724609375
1758786257.5720458,-0.41259765625,0.1640625,0.796875,39.36767578125,7.4462890625,-15.5029296875,17.5067138671875,28.8336181640625,153.929443359375
1758786257.5830367,-0.41259765625,0.1640625,0.796875,39.36767578125,7.4462890625,-15.5029296875,17.8033447265625,28.9434814453125,153.7811279296875
1758786257.5920382,-0.462890625,0.21044921875,0.83349609375,54.931640625,7.75146484375,-15.7470703125,18.1768798828125,29.0533447265625,153.6328125
1758786257.6018746,-0.462890625,0.21044921875,0.83349609375,54.931640625,7.75146484375,-15.7470703125,18.6273193359375,29.168701171875,153.4844970703125
1758786257.6120434,-0.521484375,0.29638671875,0.947265625,58.2275390625,5.55419921875,-15.93017578125,19.0887451171875,29.2730712890625,153.3306884765625
1758786257.622653,-0.521484375,0.29638671875,0.947265625,58.2275390625,5.55419921875,-15.93017578125,19.566650390625,29.366455078125,153.17138671875
1758786257.6322567,-0.5263671875,0.36181640625,0.95458984375,46.2646484375,3.173828125,-15.19775390625,19.9786376953125,29.4488525390625,153.0120849609375
1758786257.6426523,-0.5263671875,0.36181640625,0.95458984375,46.2646484375,3.173828125,-15.19775390625,20.335693359375,29.520263671875,152.852783203125
1758786257.6527393,-0.48291015625,0.37841796875,0.8642578125,20.44677734375,1.220703125,-13.7939453125,20.56640625,29.5806884765625,152.6934814453125
1758786257.6623142,-0.48291015625,0.37841796875,0.8642578125,20.44677734375,1.220703125,-13.7939453125,20.67626953125,29.630126953125,152.5341796875
1758786257.6721025,-0.458984375,0.35302734375,0.798828125,-4.8828125,0.8544921875,-11.90185546875,20.6707763671875,29.674072265625,152.3858642578125
1758786257.6820698,-0.458984375,0.35302734375,0.798828125,-4.8828125,0.8544921875,-11.90185546875,20.5389404296875,29.7125244140625,152.2430419921875
1758786257.6928747,-0.4404296875,0.3232421875,0.7734375,-20.5078125,0.54931640625,-10.498046875,20.3411865234375,29.7454833984375,152.1112060546875
1758786257.7019339,-0.4404296875,0.3232421875,0.7734375,-20.5078125,0.54931640625,-10.498046875,20.072021484375,29.77294921875,151.98486328125
1758786257.7122045,-0.43994140625,0.29638671875,0.765625,-24.5361328125,1.40380859375,-8.48388671875,19.79736328125,29.8004150390625,151.864013671875
1758786257.7223601,-0.43994140625,0.29638671875,0.765625,-24.5361328125,1.40380859375,-8.48388671875,19.5062255859375,29.827880859375,151.7596435546875
1758786257.732768,-0.49755859375,0.26123046875,0.80126953125,-7.8125,0.79345703125,-8.544921875,19.2974853515625,29.8553466796875,151.6552734375
1758786257.7420137,-0.49755859375,0.26123046875,0.80126953125,-7.8125,0.79345703125,-8.544921875,19.1766357421875,29.8773193359375,151.54541015625
1758786257.7522507,-0.48486328125,0.2080078125,0.8251953125,-1.3427734375,-0.3662109375,-8.6669921875,19.083251953125,29.8992919921875,151.435546875
1758786257.7628024,-0.48486328125,0.2080078125,0.8251953125,-1.3427734375,-0.3662109375,-8.6669921875,19.017333984375,29.915771484375,151.32568359375
1758786257.7721758,-0.4794921875,0.17822265625,0.77392578125,-2.197265625,0.06103515625,-8.9111328125,18.9459228515625,29.937744140625,151.2103271484375
1758786257.782656,-0.4794921875,0.17822265625,0.77392578125,-2.197265625,0.06103515625,-8.9111328125,18.8690185546875,29.959716796875,151.1004638671875
1758786257.7928178,-0.49853515625,0.19970703125,0.8076171875,2.0751953125,-0.48828125,-10.1318359375,18.80859375,29.981689453125,150.985107421875
1758786257.801983,-0.49853515625,0.19970703125,0.8076171875,2.0751953125,-0.48828125,-10.1318359375,18.7591552734375,30.003662109375,150.8587646484375
1758786257.812194,-0.5380859375,0.3046875,0.80322265625,6.77490234375,-0.54931640625,-8.97216796875,18.74267578125,30.025634765625,150.743408203125
1758786257.8226373,-0.5380859375,0.3046875,0.80322265625,6.77490234375,-0.54931640625,-8.97216796875,18.7481689453125,30.047607421875,150.633544921875
1758786257.8322499,-0.57177734375,0.36181640625,0.78173828125,1.64794921875,-0.67138671875,-8.1787109375,18.7371826171875,30.069580078125,150.5291748046875
1758786257.8421557,-0.57177734375,0.36181640625,0.78173828125,1.64794921875,-0.67138671875,-8.1787109375,18.7042236328125,30.091552734375,150.4302978515625
1758786257.8525577,-0.6103515625,0.318359375,0.7734375,-10.80322265625,-1.5869140625,-8.056640625,18.6163330078125,30.1080322265625,150.3314208984375
1758786257.8626864,-0.6103515625,0.318359375,0.7734375,-10.80322265625,-1.5869140625,-8.056640625,18.4625244140625,30.1300048828125,150.238037109375
1758786257.872224,-0.583984375,0.2802734375,0.89013671875,-22.03369140625,-2.197265625,-7.14111328125,18.25927734375,30.1409912109375,150.150146484375
1758786257.8821692,-0.583984375,0.2802734375,0.89013671875,-22.03369140625,-2.197265625,-7.14111328125,18.006591796875,30.1519775390625,150.062255859375
1758786257.8928623,-0.5634765625,0.2734375,0.787109375,-26.9775390625,-2.38037109375,-6.4697265625,17.7264404296875,30.1629638671875,149.9798583984375
1758786257.9022424,-0.5634765625,0.2734375,0.787109375,-26.9775390625,-2.38037109375,-6.4697265625,17.42431640625,30.1739501953125,149.9029541015625
1758786257.912338,-0.56396484375,0.228515625,0.7841796875,-19.83642578125,-2.99072265625,-6.77490234375,17.16064453125,30.179443359375,149.8260498046875
1758786257.9227686,-0.56396484375,0.228515625,0.7841796875,-19.83642578125,-2.99072265625,-6.77490234375,16.929931640625,30.1849365234375,149.74365234375
1758786257.9329028,-0.57763671875,0.2041015625,0.74609375,-12.39013671875,-2.197265625,-6.7138671875,16.7376708984375,30.1959228515625,149.6722412109375
1758786257.9425042,-0.57763671875,0.2041015625,0.74609375,-12.39013671875,-2.197265625,-6.7138671875,16.578369140625,30.2069091796875,149.600830078125
1758786257.9530962,-0.56494140625,0.201171875,0.77099609375,-5.31005859375,-1.5869140625,-6.591796875,16.4630126953125,30.2288818359375,149.5294189453125
1758786257.9623625,-0.56494140625,0.201171875,0.77099609375,-5.31005859375,-1.5869140625,-6.591796875,16.3751220703125,30.2508544921875,149.468994140625
1758786257.972397,-0.56640625,0.2216796875,0.8076171875,2.9296875,-2.01416015625,-6.65283203125,16.3311767578125,30.2728271484375,149.403076171875
1758786257.9839103,-0.56640625,0.2216796875,0.8076171875,2.9296875,-2.01416015625,-6.65283203125,16.3201904296875,30.2947998046875,149.337158203125
1758786257.992872,-0.55908203125,0.2626953125,0.85107421875,2.8076171875,-2.74658203125,-6.34765625,16.314697265625,30.311279296875,149.2657470703125
1758786258.002288,-0.55908203125,0.2626953125,0.85107421875,2.8076171875,-2.74658203125,-6.34765625,16.3037109375,30.322265625,149.1998291015625
1758786258.0124838,-0.513671875,0.26611328125,0.833984375,-2.50244140625,-3.60107421875,-6.28662109375,16.270751953125,30.3277587890625,149.12841796875
1758786258.0228593,-0.513671875,0.26611328125,0.833984375,-2.50244140625,-3.60107421875,-6.28662109375,16.2103271484375,30.3277587890625,149.051513671875
1758786258.0323398,-0.4658203125,0.24267578125,0.8173828125,-8.6669921875,-3.11279296875,-5.859375,16.1224365234375,30.3277587890625,148.9801025390625
1758786258.0422444,-0.4658203125,0.24267578125,0.8173828125,-8.6669921875,-3.11279296875,-5.859375,16.0015869140625,30.3277587890625,148.9031982421875
1758786258.0531957,-0.45654296875,0.205078125,0.77734375,-9.94873046875,-2.44140625,-5.18798828125,15.8807373046875,30.3277587890625,148.831787109375
1758786258.0622675,-0.45654296875,0.205078125,0.77734375,-9.94873046875,-2.44140625,-5.18798828125,15.75439453125,30.3277587890625,148.765869140625
1758786258.0723486,-0.45654296875,0.205078125,0.77734375,-3.5400390625,-1.220703125,-5.2490234375,15.6610107421875,30.3277587890625,148.6944580078125
1758786258.0829246,-0.45068359375,0.208984375,0.78369140625,-3.5400390625,-1.220703125,-5.2490234375,15.5950927734375,30.3387451171875,148.6285400390625
1758786258.092468,-0.47998046875,0.2021484375,0.82470703125,9.82666015625,-0.1220703125,-5.4931640625,15.6005859375,30.3497314453125,148.55712890625
1758786258.1022022,-0.47998046875,0.2021484375,0.82470703125,9.82666015625,-0.1220703125,-5.4931640625,15.6719970703125,30.3717041015625,148.4857177734375
1758786258.1123674,-0.51123046875,0.1884765625,0.7783203125,23.49853515625,1.28173828125,-6.16455078125,15.8038330078125,30.3936767578125,148.4088134765625
1758786258.1229491,-0.51123046875,0.1884765625,0.7783203125,23.49853515625,1.28173828125,-6.16455078125,16.007080078125,30.4266357421875,148.33740234375
1758786258.132364,-0.55078125,0.2021484375,0.89599609375,31.43310546875,0.244140625,-6.7138671875,16.2432861328125,30.4595947265625,148.260498046875
1758786258.1423037,-0.55078125,0.2021484375,0.89599609375,31.43310546875,0.244140625,-6.7138671875,16.512451171875,30.4815673828125,148.1781005859375
1758786258.1526992,-0.5859375,0.22802734375,0.97900390625,36.2548828125,-0.67138671875,-6.16455078125,16.8035888671875,30.5035400390625,148.095703125
1758786258.1630206,-0.5859375,0.22802734375,0.97900390625,36.2548828125,-0.67138671875,-6.16455078125,17.1112060546875,30.52001953125,148.0133056640625
1758786258.1723573,-0.5439453125,0.2275390625,0.91015625,31.982421875,-1.77001953125,-5.79833984375,17.40234375,30.5255126953125,147.930908203125
1758786258.1833239,-0.5439453125,0.2275390625,0.91015625,31.982421875,-1.77001953125,-5.79833984375,17.666015625,30.531005859375,147.85400390625
1758786258.192491,-0.4912109375,0.2412109375,0.77978515625,27.34375,-1.28173828125,-4.8828125,17.9132080078125,30.5364990234375,147.777099609375
1758786258.2023048,-0.4912109375,0.2412109375,0.77978515625,27.34375,-1.28173828125,-4.8828125,18.1329345703125,30.5364990234375,147.711181640625
1758786258.2124913,-0.46484375,0.212890625,0.76025390625,30.517578125,-1.40380859375,-4.57763671875,18.3746337890625,30.5419921875,147.6397705078125
1758786258.2229726,-0.46484375,0.212890625,0.76025390625,30.517578125,-1.40380859375,-4.57763671875,18.6273193359375,30.5474853515625,147.5738525390625
1758786258.2325265,-0.4482421875,0.20458984375,0.81884765625,40.22216796875,-0.48828125,-3.90625,18.9349365234375,30.552978515625,147.513427734375
1758786258.2423484,-0.4482421875,0.20458984375,0.81884765625,40.22216796875,-0.48828125,-3.90625,19.2864990234375,30.5584716796875,147.45849609375
1758786258.2531068,-0.46240234375,0.2236328125,0.8271484375,48.7060546875,-0.9765625,-4.638671875,19.6820068359375,30.56396484375,147.392578125
1758786258.262604,-0.46240234375,0.2236328125,0.8271484375,48.7060546875,-0.9765625,-4.638671875,20.1104736328125,30.5694580078125,147.32666015625
1758786258.2724674,-0.43408203125,0.2744140625,0.86474609375,47.05810546875,-2.3193359375,-4.8828125,20.5224609375,30.5694580078125,147.249755859375
1758786258.2823563,-0.43408203125,0.2744140625,0.86474609375,47.05810546875,-2.3193359375,-4.8828125,20.928955078125,30.5584716796875,147.1673583984375
1758786258.2930813,-0.42333984375,0.34912109375,0.86572265625,33.935546875,-2.99072265625,-4.5166015625,21.26953125,30.5419921875,147.0849609375
1758786258.302409,-0.42333984375,0.34912109375,0.86572265625,33.935546875,-2.99072265625,-4.5166015625,21.544189453125,30.52001953125,146.9970703125
1758786258.312538,-0.38427734375,0.3603515625,0.818359375,26.06201171875,-3.173828125,-4.7607421875,21.741943359375,30.4925537109375,146.9036865234375
1758786258.32265,-0.38427734375,0.3603515625,0.818359375,26.06201171875,-3.173828125,-4.7607421875,21.9451904296875,30.465087890625,146.810302734375
1758786258.3329718,-0.361328125,0.3193359375,0.78759765625,23.49853515625,-2.86865234375,-4.39453125,22.1209716796875,30.4376220703125,146.7169189453125
1758786258.342362,-0.361328125,0.3193359375,0.78759765625,23.49853515625,-2.86865234375,-4.39453125,22.30224609375,30.4046630859375,146.6180419921875
1758786258.3525546,-0.36669921875,0.30029296875,0.8193359375,13.61083984375,-2.25830078125,-5.06591796875,22.3846435546875,30.3826904296875,146.5191650390625
1758786258.3631728,-0.36669921875,0.30029296875,0.8193359375,13.61083984375,-2.25830078125,-5.06591796875,22.4615478515625,30.355224609375,146.414794921875
1758786258.372804,-0.37353515625,0.3115234375,0.8125,9.46044921875,-1.708984375,-5.7373046875,22.5,30.333251953125,146.304931640625
1758786258.3824935,-0.37353515625,0.3115234375,0.8125,9.46044921875,-1.708984375,-5.7373046875,22.5384521484375,30.3167724609375,146.195068359375
1758786258.3926532,-0.39013671875,0.2998046875,0.77099609375,15.5029296875,-0.67138671875,-5.615234375,22.6373291015625,30.30029296875,146.085205078125
1758786258.4034197,-0.39013671875,0.2998046875,0.77099609375,15.5029296875,-0.67138671875,-5.615234375,22.74169921875,30.289306640625,145.9808349609375
1758786258.4125788,-0.42431640625,0.2900390625,0.7353515625,17.08984375,0.3662109375,-6.2255859375,22.8570556640625,30.289306640625,145.87646484375
1758786258.422501,-0.42431640625,0.2900390625,0.7353515625,17.08984375,0.3662109375,-6.2255859375,22.972412109375,30.2947998046875,145.7720947265625
1758786258.4330368,-0.46533203125,0.32275390625,0.75390625,9.765625,2.44140625,-5.7373046875,23.02734375,30.3167724609375,145.6842041015625
1758786258.442584,-0.46533203125,0.32275390625,0.75390625,9.765625,2.44140625,-5.7373046875,23.082275390625,30.3387451171875,145.5963134765625
1758786258.452602,-0.56884765625,0.36962890625,0.83740234375,-2.01416015625,3.11279296875,-6.53076171875,23.0218505859375,30.3717041015625,145.5084228515625
1758786258.463129,-0.56884765625,0.36962890625,0.83740234375,-2.01416015625,3.11279296875,-6.53076171875,22.96142578125,30.41015625,145.4205322265625
1758786258.4727085,-0.64453125,0.44189453125,0.9794921875,-27.099609375,2.44140625,-4.7607421875,22.6593017578125,30.4376220703125,145.3546142578125
1758786258.4825103,-0.64453125,0.44189453125,0.9794921875,-27.099609375,2.44140625,-4.7607421875,22.3626708984375,30.465087890625,145.283203125
1758786258.4928694,-0.6767578125,0.46533203125,0.8798828125,-53.16162109375,2.44140625,-3.662109375,21.81884765625,30.4925537109375,145.228271484375
1758786258.5031428,-0.6767578125,0.46533203125,0.8798828125,-53.16162109375,2.44140625,-3.662109375,21.280517578125,30.52001953125,145.1788330078125
1758786258.5126042,-0.630859375,0.419921875,0.7607421875,-68.66455078125,2.01416015625,-0.9765625,20.6103515625,30.5419921875,145.1568603515625
1758786258.5226033,-0.630859375,0.419921875,0.7607421875,-68.66455078125,2.01416015625,-0.9765625,19.9456787109375,30.56396484375,145.1348876953125
1758786258.533622,-0.57763671875,0.30078125,0.671875,-66.0400390625,2.13623046875,0.0,19.3194580078125,30.5914306640625,145.12939453125
1758786258.5432372,-0.57763671875,0.30078125,0.671875,-66.0400390625,2.13623046875,0.0,18.6932373046875,30.618896484375,145.1239013671875
1758786258.5526032,-0.55126953125,0.28466796875,0.7060546875,-58.41064453125,2.38037109375,1.40380859375,18.1549072265625,30.6463623046875,145.140380859375
1758786258.5626447,-0.55126953125,0.28466796875,0.7060546875,-58.41064453125,2.38037109375,1.40380859375,17.6220703125,30.673828125,145.1513671875
1758786258.5732636,-0.5380859375,0.265625,0.662109375,-37.53662109375,2.9296875,2.01416015625,17.2979736328125,30.7122802734375,145.1788330078125
1758786258.5825946,-0.5380859375,0.265625,0.662109375,-37.53662109375,2.9296875,2.01416015625,16.9793701171875,30.750732421875,145.2008056640625
1758786258.593424,-0.57568359375,0.263671875,0.740234375,-16.4794921875,2.3193359375,1.953125,16.864013671875,30.78369140625,145.228271484375
1758786258.6028,-0.57568359375,0.263671875,0.740234375,-16.4794921875,2.3193359375,1.953125,16.754150390625,30.816650390625,145.250244140625
1758786258.6127105,-0.59130859375,0.10888671875,0.8310546875,1.40380859375,2.0751953125,0.0,16.798095703125,30.8551025390625,145.2557373046875
1758786258.6228962,-0.59130859375,0.10888671875,0.8310546875,1.40380859375,2.0751953125,0.0,16.8365478515625,30.8990478515625,145.2667236328125
1758786258.63332,-0.5380859375,0.1015625,0.8359375,22.705078125,1.3427734375,-1.03759765625,17.07275390625,30.9320068359375,145.2667236328125
1758786258.6427016,-0.5380859375,0.1015625,0.8359375,22.705078125,1.3427734375,-1.03759765625,17.2979736328125,30.970458984375,145.26123046875
1758786258.6528375,-0.52490234375,0.1376953125,0.88916015625,30.2734375,0.6103515625,-1.0986328125,17.589111328125,30.9979248046875,145.2557373046875
1758786258.663217,-0.52490234375,0.1376953125,0.88916015625,30.2734375,0.6103515625,-1.0986328125,17.874755859375,31.0198974609375,145.250244140625
1758786258.6728327,-0.47998046875,0.28759765625,0.7685546875,29.96826171875,1.15966796875,-1.8310546875,18.1549072265625,31.04736328125,145.2337646484375
1758786258.6827059,-0.47998046875,0.28759765625,0.7685546875,29.96826171875,1.15966796875,-1.8310546875,18.43505859375,31.080322265625,145.2117919921875
1758786258.6936762,-0.478515625,0.3076171875,0.75146484375,36.43798828125,1.0986328125,-2.74658203125,18.775634765625,31.1077880859375,145.184326171875
1758786258.7029774,-0.478515625,0.3076171875,0.75146484375,36.43798828125,1.0986328125,-2.74658203125,19.1162109375,31.13525390625,145.1513671875
1758786258.7127972,-0.4599609375,0.30419921875,0.84765625,51.33056640625,2.01416015625,-2.8076171875,19.610595703125,31.168212890625,145.118408203125
1758786258.7230275,-0.4599609375,0.30419921875,0.84765625,51.33056640625,2.01416015625,-2.8076171875,20.0994873046875,31.201171875,145.0799560546875
1758786258.7334604,-0.4921875,0.28271484375,0.87939453125,57.67822265625,0.91552734375,-4.21142578125,20.6378173828125,31.22314453125,145.0250244140625
1758786258.7427077,-0.4921875,0.28271484375,0.87939453125,57.67822265625,0.91552734375,-4.21142578125,21.1761474609375,31.2451171875,144.964599609375
1758786258.7527792,-0.486328125,0.31787109375,0.79345703125,44.677734375,2.25830078125,-5.18798828125,21.5771484375,31.2835693359375,144.9041748046875
1758786258.7634754,-0.486328125,0.31787109375,0.79345703125,44.677734375,2.25830078125,-5.18798828125,21.983642578125,31.3165283203125,144.8382568359375
1758786258.7728553,-0.49853515625,0.33544921875,0.73974609375,20.69091796875,1.8310546875,-6.53076171875,22.137451171875,31.35498046875,144.755859375
1758786258.7827532,-0.49853515625,0.33544921875,0.73974609375,20.69091796875,1.8310546875,-6.53076171875,22.2967529296875,31.3934326171875,144.678955078125
1758786258.7937179,-0.52587890625,0.35498046875,0.734375,3.23486328125,2.62451171875,-6.89697265625,22.2802734375,31.44287109375,144.60205078125
1758786258.8030217,-0.52587890625,0.35498046875,0.734375,3.23486328125,2.62451171875,-6.89697265625,22.269287109375,31.4923095703125,144.5196533203125
1758786258.8129,-0.5576171875,0.3671875,0.865234375,2.01416015625,2.13623046875,-5.615234375,22.25830078125,31.53076171875,144.4537353515625
1758786258.8229132,-0.5576171875,0.3671875,0.865234375,2.01416015625,2.13623046875,-5.615234375,22.2418212890625,31.5692138671875,144.38232421875
1758786258.834868,-0.599609375,0.357421875,0.763671875,1.03759765625,1.89208984375,-4.69970703125,22.225341796875,31.6021728515625,144.327392578125
1758786258.8436766,-0.599609375,0.357421875,0.763671875,1.03759765625,1.89208984375,-4.69970703125,22.21435546875,31.640625,144.2669677734375
1758786258.8530135,-0.65869140625,0.38427734375,0.71728515625,-8.60595703125,0.6103515625,-3.11279296875,22.115478515625,31.66259765625,144.228515625
1758786258.8637257,-0.65869140625,0.38427734375,0.71728515625,-8.60595703125,0.6103515625,-3.11279296875,22.0166015625,31.6845703125,144.1900634765625
1758786258.8732405,-0.63037109375,0.34716796875,0.791015625,-4.69970703125,0.54931640625,-2.25830078125,21.961669921875,31.7120361328125,144.16259765625
1758786258.8829203,-0.63037109375,0.34716796875,0.791015625,-4.69970703125,0.54931640625,-2.25830078125,21.9122314453125,31.7340087890625,144.1351318359375
1758786258.8930585,-0.62548828125,0.31298828125,0.7666015625,-10.07080078125,-0.9765625,-1.708984375,21.807861328125,31.75048828125,144.1131591796875
1758786258.9037788,-0.62548828125,0.31298828125,0.7666015625,-10.07080078125,-0.9765625,-1.708984375,21.7034912109375,31.761474609375,144.085693359375
1758786258.9130623,-0.587890625,0.2900390625,0.796875,-20.6298828125,-0.3662109375,-0.8544921875,21.500244140625,31.7779541015625,144.0802001953125
1758786258.922952,-0.587890625,0.2900390625,0.796875,-20.6298828125,-0.3662109375,-0.8544921875,21.29150390625,31.79443359375,144.0692138671875
1758786258.933536,-0.6083984375,0.31884765625,0.65869140625,-32.5927734375,0.42724609375,0.244140625,20.9783935546875,31.81640625,144.07470703125
1758786258.943262,-0.6083984375,0.31884765625,0.65869140625,-32.5927734375,0.42724609375,0.244140625,20.665283203125,31.83837890625,144.085693359375
1758786258.9529502,-0.6240234375,0.35205078125,0.73583984375,-40.1611328125,0.3662109375,0.91552734375,20.2862548828125,31.8603515625,144.1021728515625
1758786258.9628868,-0.6240234375,0.35205078125,0.73583984375,-40.1611328125,0.3662109375,0.91552734375,19.9127197265625,31.88232421875,144.11865234375
1758786258.9735994,-0.6650390625,0.333984375,0.81787109375,-37.17041015625,0.48828125,2.44140625,19.57763671875,31.904296875,144.151611328125
1758786258.9833305,-0.6650390625,0.333984375,0.81787109375,-37.17041015625,0.48828125,2.44140625,19.2425537109375,31.92626953125,144.1900634765625
1758786258.993023,-0.65576171875,0.27392578125,0.8349609375,-23.37646484375,-0.244140625,2.685546875,19.05029296875,31.9427490234375,144.228515625
1758786259.003819,-0.65576171875,0.27392578125,0.8349609375,-23.37646484375,-0.244140625,2.685546875,18.8470458984375,31.9537353515625,144.2669677734375
1758786259.013072,-0.6083984375,0.23046875,0.73193359375,-10.498046875,-0.244140625,2.5634765625,18.775634765625,31.97021484375,144.2999267578125
1758786259.0229943,-0.6083984375,0.23046875,0.73193359375,-10.498046875,-0.244140625,2.5634765625,18.7042236328125,31.9866943359375,144.3438720703125
1758786259.0334735,-0.54345703125,0.24169921875,0.7060546875,-7.01904296875,0.0,2.197265625,18.6602783203125,32.0086669921875,144.3768310546875
1758786259.0432498,-0.54345703125,0.24169921875,0.7060546875,-7.01904296875,0.0,2.197265625,18.6163330078125,32.0306396484375,144.415283203125
1758786259.0530274,-0.49560546875,0.2744140625,0.7587890625,-5.31005859375,0.3662109375,1.708984375,18.5888671875,32.0526123046875,144.4427490234375
1758786259.063078,-0.49560546875,0.2744140625,0.7587890625,-5.31005859375,0.3662109375,1.708984375,18.555908203125,32.0745849609375,144.47021484375
1758786259.0735488,-0.49560546875,0.2744140625,0.7587890625,-4.21142578125,0.1220703125,2.197265625,18.5394287109375,32.0855712890625,144.4976806640625
1758786259.0831046,-0.474609375,0.27294921875,0.82470703125,-4.21142578125,0.1220703125,2.197265625,18.52294921875,32.091064453125,144.5196533203125
1758786259.0931368,-0.439453125,0.2421875,0.8828125,-3.173828125,-0.6103515625,2.197265625,18.511962890625,32.091064453125,144.5361328125
1758786259.1031928,-0.439453125,0.2421875,0.8828125,-3.173828125,-0.6103515625,2.197265625,18.4954833984375,32.080078125,144.547119140625
1758786259.113845,-0.3955078125,0.26953125,0.90380859375,-2.44140625,-1.220703125,1.64794921875,18.4844970703125,32.0635986328125,144.5416259765625
1758786259.1231694,-0.3955078125,0.26953125,0.90380859375,-2.44140625,-1.220703125,1.64794921875,18.468017578125,32.0416259765625,144.5361328125
1758786259.1331832,-0.38037109375,0.3056640625,0.9208984375,-0.30517578125,-2.197265625,0.3662109375,18.4625244140625,32.0086669921875,144.503173828125
1758786259.1435018,-0.38037109375,0.3056640625,0.9208984375,-0.30517578125,-2.197265625,0.3662109375,18.45703125,31.97021484375,144.459228515625
1758786259.1538074,-0.365234375,0.29443359375,0.91162109375,-3.23486328125,-2.74658203125,-0.54931640625,18.4185791015625,31.92626953125,144.404296875
1758786259.1631339,-0.365234375,0.29443359375,0.91162109375,-3.23486328125,-2.74658203125,-0.54931640625,18.3746337890625,31.8768310546875,144.3438720703125
1758786259.1732607,-0.34619140625,0.2607421875,0.92138671875,-9.1552734375,-3.173828125,-0.91552734375,18.270263671875,31.81640625,144.2779541015625
1758786259.1838129,-0.34619140625,0.2607421875,0.92138671875,-9.1552734375,-3.173828125,-0.91552734375,18.1658935546875,31.7559814453125,144.2010498046875
1758786259.1931248,-0.36376953125,0.2568359375,0.8935546875,-14.5263671875,-3.90625,-1.03759765625,18.0010986328125,31.6900634765625,144.1241455078125
1758786259.2031405,-0.36376953125,0.2568359375,0.8935546875,-14.5263671875,-3.90625,-1.03759765625,17.8363037109375,31.61865234375,144.041748046875
1758786259.2139103,-0.39306640625,0.21142578125,0.90234375,-28.9306640625,-5.0048828125,-2.13623046875,17.5177001953125,31.5362548828125,143.9483642578125
1758786259.2231903,-0.39306640625,0.21142578125,0.90234375,-28.9306640625,-5.0048828125,-2.13623046875,17.20458984375,31.453857421875,143.8494873046875
1758786259.23321,-0.3623046875,0.24560546875,0.8681640625,-36.865234375,-4.82177734375,-1.0986328125,16.8145751953125,31.3714599609375,143.7615966796875
1758786259.243435,-0.3623046875,0.24560546875,0.8681640625,-36.865234375,-4.82177734375,-1.0986328125,16.4300537109375,31.2890625,143.67919921875
1758786259.2539139,-0.38671875,0.275390625,0.884765625,-31.92138671875,-5.859375,-1.0986328125,16.0894775390625,31.190185546875,143.5858154296875
1758786259.2631423,-0.38671875,0.275390625,0.884765625,-31.92138671875,-5.859375,-1.0986328125,15.75439453125,31.0968017578125,143.4979248046875
1758786259.285158,-0.40087890625,0.24609375,0.806640625,-16.05224609375,-4.57763671875,-0.48828125,15.589599609375,31.0089111328125,143.41552734375
1758786259.2960935,-0.40087890625,0.24609375,0.806640625,-16.05224609375,-4.57763671875,-0.48828125,15.4248046875,30.926513671875,143.338623046875
1758786259.3027446,-0.4501953125,0.15771484375,0.76611328125,-2.3193359375,-4.45556640625,-0.8544921875,15.391845703125,30.849609375,143.26171875
1758786259.3096268,-0.4501953125,0.15771484375,0.76611328125,-2.3193359375,-4.45556640625,-0.8544921875,15.3533935546875,30.772705078125,143.1903076171875
1758786259.3176165,-0.458984375,0.12060546875,0.73876953125,3.60107421875,-2.74658203125,-0.54931640625,15.380859375,30.7177734375,143.1298828125
1758786259.3252678,-0.458984375,0.12060546875,0.73876953125,3.60107421875,-2.74658203125,-0.54931640625,15.4083251953125,30.6683349609375,143.074951171875
1758786259.3335245,-0.48486328125,0.208984375,0.8037109375,8.9111328125,-1.5869140625,-1.52587890625,15.479736328125,30.6298828125,143.0145263671875
1758786259.3433638,-0.48486328125,0.208984375,0.8037109375,8.9111328125,-1.5869140625,-1.52587890625,15.5511474609375,30.596923828125,142.9595947265625
1758786259.3542976,-0.53466796875,0.28564453125,0.8701171875,22.8271484375,-1.64794921875,-0.8544921875,15.765380859375,30.56396484375,142.91015625
1758786259.3633797,-0.53466796875,0.28564453125,0.8701171875,22.8271484375,-1.64794921875,-0.8544921875,15.985107421875,30.5364990234375,142.8662109375
1758786259.3734696,-0.67333984375,0.32568359375,0.96142578125,30.2734375,-3.11279296875,-1.15966796875,16.270751953125,30.4925537109375,142.811279296875
1758786259.3840482,-0.67333984375,0.32568359375,0.96142578125,30.2734375,-3.11279296875,-1.15966796875,16.5618896484375,30.4595947265625,142.767333984375
1758786259.3940108,-0.65625,0.39111328125,0.87841796875,-0.244140625,-3.0517578125,-0.06103515625,16.5509033203125,30.421142578125,142.734375
1758786259.4033382,-0.65625,0.39111328125,0.87841796875,-0.244140625,-3.0517578125,-0.06103515625,16.5509033203125,30.3936767578125,142.7069091796875
1758786259.4141407,-0.60498046875,0.38134765625,0.87548828125,-40.10009765625,-4.45556640625,1.15966796875,16.160888671875,30.34423828125,142.6904296875
1758786259.4233317,-0.60498046875,0.38134765625,0.87548828125,-40.10009765625,-4.45556640625,1.15966796875,15.7763671875,30.30029296875,142.66845703125
1758786259.433824,-0.51416015625,0.294921875,0.80126953125,-55.0537109375,-4.08935546875,2.5634765625,15.2545166015625,30.25634765625,142.66845703125
1758786259.4440222,-0.45166015625,0.18896484375,0.65625,-63.3544921875,-3.2958984375,2.99072265625,14.69970703125,30.2178955078125,142.6739501953125
1758786259.4539907,-0.45166015625,0.18896484375,0.65625,-63.3544921875,-3.2958984375,2.99072265625,14.1009521484375,30.179443359375,142.6849365234375
1758786259.463349,-0.42529296875,0.09228515625,0.60693359375,-78.2470703125,-0.67138671875,2.8076171875,13.436279296875,30.157470703125,142.701416015625
1758786259.4735894,-0.42529296875,0.09228515625,0.60693359375,-78.2470703125,-0.67138671875,2.8076171875,12.7001953125,30.1519775390625,142.7178955078125
1758786259.4844277,-0.435546875,0.11962890625,0.6708984375,-75.5615234375,1.64794921875,2.5634765625,11.97509765625,30.1629638671875,142.745361328125
1758786259.493647,-0.435546875,0.11962890625,0.6708984375,-75.5615234375,1.64794921875,2.5634765625,11.2664794921875,30.1849365234375,142.767333984375
1758786259.5035002,-0.4580078125,0.15966796875,0.82470703125,-43.701171875,2.685546875,2.685546875,10.7171630859375,30.2069091796875,142.7947998046875
1758786259.51422,-0.4580078125,0.15966796875,0.82470703125,-43.701171875,2.685546875,2.685546875,10.3271484375,30.234375,142.822265625
1758786259.523471,-0.5166015625,0.10791015625,0.91259765625,1.52587890625,3.0517578125,2.74658203125,10.162353515625,30.267333984375,142.84423828125
1758786259.5337536,-0.5166015625,0.10791015625,0.91259765625,1.52587890625,3.0517578125,2.74658203125,10.2227783203125,30.2947998046875,142.8717041015625
1758786259.5446503,-0.58349609375,0.02099609375,1.0556640625,52.24609375,1.03759765625,1.40380859375,10.5194091796875,30.311279296875,142.88818359375
1758786259.5534735,-0.58349609375,0.02099609375,1.0556640625,52.24609375,1.03759765625,1.40380859375,11.0577392578125,30.322265625,142.899169921875
1758786259.5633206,-0.60546875,-0.00146484375,0.94921875,77.2705078125,0.9765625,0.42724609375,11.700439453125,30.333251953125,142.9046630859375
1758786259.5740073,-0.60546875,-0.00146484375,0.94921875,77.2705078125,0.9765625,0.42724609375,12.45849609375,30.34423828125,142.9046630859375
1758786259.584711,-0.60546875,-0.00146484375,0.94921875,73.05908203125,-0.8544921875,0.54931640625,13.1890869140625,30.3497314453125,142.9156494140625
1758786259.5936549,-0.779296875,0.1435546875,0.90478515625,73.05908203125,-0.8544921875,0.54931640625,13.88671875,30.3497314453125,142.9266357421875
1758786259.6034558,-0.68505859375,0.27734375,0.92578125,60.6689453125,-1.3427734375,-2.197265625,14.5184326171875,30.3607177734375,142.9266357421875
1758786259.6144905,-0.68505859375,0.27734375,0.92578125,60.6689453125,-1.3427734375,-2.197265625,15.0787353515625,30.3717041015625,142.9156494140625
1758786259.6234417,-0.56591796875,0.3134765625,0.8046875,46.7529296875,-1.0986328125,-1.953125,15.567626953125,30.3826904296875,142.9046630859375
1758786259.6337004,-0.56591796875,0.3134765625,0.8046875,46.7529296875,-1.0986328125,-1.953125,15.99609375,30.3936767578125,142.8936767578125
1758786259.6434963,-0.4287109375,0.26611328125,0.64599609375,21.78955078125,0.0,-1.52587890625,16.3092041015625,30.41015625,142.88818359375
1758786259.6540477,-0.4287109375,0.26611328125,0.64599609375,21.78955078125,0.0,-1.52587890625,16.4959716796875,30.43212890625,142.88818359375
1758786259.6634192,-0.40283203125,0.27734375,0.63623046875,4.57763671875,2.62451171875,-0.48828125,16.6058349609375,30.465087890625,142.8936767578125
1758786259.6735883,-0.40283203125,0.27734375,0.63623046875,4.57763671875,2.62451171875,-0.48828125,16.644287109375,30.509033203125,142.9046630859375
1758786259.6835227,-0.37646484375,0.21337890625,0.6904296875,4.33349609375,4.7607421875,-2.25830078125,16.67724609375,30.5584716796875,142.9046630859375
1758786259.6944227,-0.37646484375,0.21337890625,0.6904296875,4.33349609375,4.7607421875,-2.25830078125,16.710205078125,30.6243896484375,142.899169921875
1758786259.7036452,-0.38623046875,0.18017578125,0.78173828125,10.55908203125,7.080078125,-3.72314453125,16.7706298828125,30.69580078125,142.8826904296875
1758786259.713771,-0.38623046875,0.18017578125,0.78173828125,10.55908203125,7.080078125,-3.72314453125,16.8585205078125,30.7781982421875,142.8607177734375
1758786259.7246664,-0.42431640625,0.19921875,0.81982421875,22.52197265625,7.26318359375,-4.82177734375,17.0013427734375,30.860595703125,142.833251953125
1758786259.7347176,-0.42431640625,0.19921875,0.81982421875,22.52197265625,7.26318359375,-4.82177734375,17.1990966796875,30.9375,142.7947998046875
1758786259.7438884,-0.4560546875,0.2080078125,0.89599609375,20.8740234375,8.11767578125,-5.79833984375,17.38037109375,31.0198974609375,142.7508544921875
1758786259.7535114,-0.4560546875,0.2080078125,0.89599609375,20.8740234375,8.11767578125,-5.79833984375,17.5506591796875,31.1077880859375,142.701416015625
1758786259.763816,-0.55615234375,0.29150390625,1.05224609375,9.70458984375,6.2255859375,-4.2724609375,17.6715087890625,31.17919921875,142.6519775390625
1758786259.7772932,-0.55615234375,0.29150390625,1.05224609375,9.70458984375,6.2255859375,-4.2724609375,17.7374267578125,31.2396240234375,142.6080322265625
1758786259.783868,-0.55615234375,0.29150390625,1.05224609375,17.51708984375,1.953125,-2.0751953125,17.841796875,31.2725830078125,142.569580078125
1758786259.7935536,-0.69580078125,0.443359375,1.19775390625,17.51708984375,1.953125,-2.0751953125,17.99560546875,31.2835693359375,142.5311279296875
1758786259.8073475,-0.583984375,0.34130859375,0.9619140625,16.41845703125,1.15966796875,-3.23486328125,18.138427734375,31.2945556640625,142.481689453125
1758786259.8142092,-0.583984375,0.34130859375,0.9619140625,16.41845703125,1.15966796875,-3.23486328125,18.2757568359375,31.300048828125,142.4322509765625
1758786259.8237798,-0.4638671875,0.2373046875,0.6630859375,-18.310546875,1.953125,-1.8310546875,18.2427978515625,31.31103515625,142.3828125
1758786259.8380618,-0.4638671875,0.2373046875,0.6630859375,-18.310546875,1.953125,-1.8310546875,18.050537109375,31.322021484375,142.349853515625
1758786259.8443484,-0.37255859375,0.25634765625,0.5166015625,-51.94091796875,6.16455078125,-1.40380859375,17.6934814453125,31.35498046875,142.327880859375
1758786259.8534954,-0.37255859375,0.25634765625,0.5166015625,-51.94091796875,6.16455078125,-1.40380859375,17.1771240234375,31.409912109375,142.3114013671875
1758786259.869982,-0.43310546875,0.287109375,0.60400390625,-46.20361328125,9.70458984375,-0.732421875,16.7047119140625,31.4813232421875,142.305908203125
1758786259.8774776,-0.43310546875,0.287109375,0.60400390625,-46.20361328125,9.70458984375,-0.732421875,16.270751953125,31.5692138671875,142.3114013671875
1758786259.8839734,-0.43701171875,0.28173828125,0.74609375,-7.568359375,10.986328125,-2.13623046875,16.0345458984375,31.6680908203125,142.305908203125
1758786259.893586,-0.43701171875,0.28173828125,0.74609375,-7.568359375,10.986328125,-2.13623046875,15.985107421875,31.7669677734375,142.2894287109375
1758786259.9044812,-0.48779296875,0.20849609375,0.8193359375,-8.544921875,11.23046875,-2.0751953125,15.93017578125,31.871337890625,142.2784423828125
1758786259.9136424,-0.48779296875,0.20849609375,0.8193359375,-8.544921875,11.23046875,-2.0751953125,15.8697509765625,31.9757080078125,142.261962890625
1758786259.9236283,-0.50732421875,0.2529296875,0.89990234375,-22.4609375,10.43701171875,-1.953125,15.7379150390625,32.069091796875,142.2454833984375
1758786259.934011,-0.50732421875,0.2529296875,0.89990234375,-22.4609375,10.43701171875,-1.953125,15.53466796875,32.1624755859375,142.22900390625
1758786259.9444706,-0.57861328125,0.197265625,0.9697265625,-18.9208984375,8.1787109375,-1.28173828125,15.347900390625,32.244873046875,142.20703125
1758786259.95355,-0.57861328125,0.197265625,0.9697265625,-18.9208984375,8.1787109375,-1.28173828125,15.1776123046875,32.310791015625,142.1905517578125
1758786259.96363,-0.591796875,0.1376953125,1.0224609375,-7.01904296875,6.16455078125,-1.77001953125,15.0567626953125,32.3712158203125,142.1685791015625
1758786259.9740868,-0.591796875,0.1376953125,1.0224609375,-7.01904296875,6.16455078125,-1.77001953125,14.9853515625,32.420654296875,142.14111328125
1758786259.9838898,-0.580078125,0.255859375,0.87744140625,-6.591796875,4.39453125,-1.3427734375,14.9139404296875,32.4591064453125,142.1136474609375
1758786259.9935892,-0.580078125,0.255859375,0.87744140625,-6.591796875,4.39453125,-1.3427734375,14.8480224609375,32.4920654296875,142.086181640625
1758786260.0038478,-0.5732421875,0.31005859375,0.7265625,-15.68603515625,4.57763671875,-1.3427734375,14.7381591796875,32.5250244140625,142.064208984375
1758786260.0142572,-0.5732421875,0.31005859375,0.7265625,-15.68603515625,4.57763671875,-1.3427734375,14.58984375,32.5689697265625,142.0367431640625
1758786260.0237966,-0.64013671875,0.31982421875,0.73486328125,-34.36279296875,4.33349609375,-0.3662109375,14.3536376953125,32.607421875,142.020263671875
1758786260.033702,-0.64013671875,0.31982421875,0.73486328125,-34.36279296875,4.33349609375,-0.3662109375,14.029541015625,32.6458740234375,142.00927734375
1758786260.0447454,-0.673828125,0.294921875,0.85791015625,-46.08154296875,3.5400390625,0.48828125,13.656005859375,32.684326171875,142.00927734375
1758786260.0537646,-0.673828125,0.294921875,0.85791015625,-46.08154296875,3.5400390625,0.48828125,13.2330322265625,32.7227783203125,142.00927734375
1758786260.0638137,-0.705078125,0.1904296875,0.92333984375,-51.513671875,1.8310546875,0.91552734375,12.7825927734375,32.750244140625,142.00927734375
1758786260.0740626,-0.705078125,0.1904296875,0.92333984375,-51.513671875,1.8310546875,0.91552734375,12.3046875,32.772216796875,142.0147705078125
1758786260.0844922,-0.67236328125,0.1923828125,0.77685546875,-62.255859375,0.3662109375,2.25830078125,11.7718505859375,32.7886962890625,142.0257568359375
1758786260.0937355,-0.67236328125,0.1923828125,0.77685546875,-62.255859375,0.3662109375,2.25830078125,11.195068359375,32.80517578125,142.0477294921875
1758786260.103945,-0.6455078125,0.189453125,0.662109375,-59.08203125,0.1220703125,1.708984375,10.634765625,32.816162109375,142.0697021484375
1758786260.1142957,-0.6455078125,0.189453125,0.662109375,-59.08203125,0.1220703125,1.708984375,10.0909423828125,32.838134765625,142.086181640625
1758786260.1239233,-0.62451171875,0.08251953125,0.66015625,-46.32568359375,0.06103515625,1.220703125,9.6075439453125,32.860107421875,142.1136474609375
1758786260.1338856,-0.62451171875,0.08251953125,0.66015625,-46.32568359375,0.06103515625,1.220703125,9.1845703125,32.882080078125,142.1356201171875
1758786260.1445496,-0.619140625,0.0,0.7041015625,-29.84619140625,0.8544921875,0.67138671875,8.843994140625,32.9150390625,142.1630859375
1758786260.1537068,-0.619140625,0.0,0.7041015625,-29.84619140625,0.8544921875,0.67138671875,8.5748291015625,32.958984375,142.1905517578125
1758786260.1639075,-0.62109375,0.0302734375,0.759765625,-1.953125,1.40380859375,0.0,8.4375,33.0029296875,142.218017578125
1758786260.1743436,-0.62109375,0.0302734375,0.759765625,-1.953125,1.40380859375,0.0,8.4375,33.0523681640625,142.2454833984375
1758786260.1839445,-0.60498046875,0.0771484375,0.798828125,14.46533203125,1.52587890625,-0.79345703125,8.50341796875,33.101806640625,142.2674560546875
1758786260.1937904,-0.60498046875,0.0771484375,0.798828125,14.46533203125,1.52587890625,-0.79345703125,8.6517333984375,33.145751953125,142.283935546875
1758786260.2046192,-0.591796875,0.14208984375,0.8125,19.10400390625,0.48828125,-1.03759765625,8.8165283203125,33.189697265625,142.3004150390625
1758786260.2138557,-0.591796875,0.14208984375,0.8125,19.10400390625,0.48828125,-1.03759765625,9.0087890625,33.2281494140625,142.305908203125
1758786260.2242267,-0.5546875,0.15869140625,0.828125,14.70947265625,0.0,-1.708984375,9.1680908203125,33.255615234375,142.3114013671875
1758786260.2343926,-0.5546875,0.15869140625,0.828125,14.70947265625,0.0,-1.708984375,9.305419921875,33.2830810546875,142.305908203125
1758786260.2440052,-0.53076171875,0.162109375,0.82275390625,14.58740234375,-0.67138671875,-1.5869140625,9.4427490234375,33.3050537109375,142.294921875
1758786260.2538662,-0.53076171875,0.162109375,0.82275390625,14.58740234375,-0.67138671875,-1.5869140625,9.580078125,33.321533203125,142.2784423828125
1758786260.2649157,-0.51171875,0.1396484375,0.83837890625,10.8642578125,-0.91552734375,-1.52587890625,9.700927734375,33.33251953125,142.261962890625
1758786260.2740183,-0.51171875,0.1396484375,0.83837890625,10.8642578125,-0.91552734375,-1.52587890625,9.7998046875,33.3380126953125,142.2454833984375
1758786260.2840362,-0.5107421875,0.1435546875,0.82421875,3.23486328125,-0.18310546875,-0.8544921875,9.86572265625,33.3489990234375,142.2235107421875
1758786260.2939174,-0.5107421875,0.1435546875,0.82421875,3.23486328125,-0.18310546875,-0.8544921875,9.8931884765625,33.3544921875,142.2125244140625
1758786260.304867,-0.4990234375,0.1572265625,0.78369140625,-0.244140625,-0.8544921875,-1.5869140625,9.898681640625,33.3599853515625,142.1905517578125
1758786260.3139613,-0.4990234375,0.1572265625,0.78369140625,-0.244140625,-0.8544921875,-1.5869140625,9.8876953125,33.3599853515625,142.1630859375
1758786260.324045,-0.517578125,0.1240234375,0.814453125,6.89697265625,0.0,-2.44140625,9.9041748046875,33.3599853515625,142.1246337890625
1758786260.3363183,-0.517578125,0.1240234375,0.814453125,6.89697265625,0.0,-2.44140625,9.9591064453125,33.3709716796875,142.086181640625
1758786260.3450558,-0.50439453125,0.083984375,0.865234375,16.2353515625,-0.9765625,-3.47900390625,10.052490234375,33.3709716796875,142.042236328125
1758786260.3538675,-0.50439453125,0.083984375,0.865234375,16.2353515625,-0.9765625,-3.47900390625,10.1898193359375,33.365478515625,141.9873046875
1758786260.3640954,-0.50146484375,0.08349609375,0.94873046875,27.28271484375,-0.91552734375,-3.72314453125,10.3765869140625,33.3599853515625,141.9268798828125
1758786260.3746483,-0.50146484375,0.08349609375,0.94873046875,27.28271484375,-0.91552734375,-3.72314453125,10.6072998046875,33.3544921875,141.866455078125
1758786260.3841956,-0.53564453125,0.1083984375,0.869140625,33.8134765625,-1.40380859375,-2.9296875,10.87646484375,33.3380126953125,141.8060302734375
1758786260.3939433,-0.53564453125,0.1083984375,0.869140625,33.8134765625,-1.40380859375,-2.9296875,11.173095703125,33.321533203125,141.7510986328125
1758786260.4041624,-0.52392578125,0.16162109375,0.8642578125,29.296875,-2.9296875,-2.685546875,11.44775390625,33.299560546875,141.6961669921875
1758786260.4145236,-0.52392578125,0.16162109375,0.8642578125,29.296875,-2.9296875,-2.685546875,11.700439453125,33.2666015625,141.6357421875
1758786260.4241238,-0.521484375,0.1845703125,0.76220703125,21.97265625,-1.15966796875,-1.953125,11.920166015625,33.24462890625,141.5863037109375
1758786260.4340081,-0.521484375,0.1845703125,0.76220703125,21.97265625,-1.15966796875,-1.953125,12.10693359375,33.2281494140625,141.5423583984375
1758786260.4457068,-0.59375,0.18798828125,0.83349609375,15.5029296875,-2.50244140625,-1.5869140625,12.2607421875,33.211669921875,141.4984130859375
1758786260.4543118,-0.59375,0.18798828125,0.83349609375,15.5029296875,-2.50244140625,-1.5869140625,12.3870849609375,33.1842041015625,141.4544677734375
1758786260.4643145,-0.583984375,0.16259765625,0.970703125,19.22607421875,-2.99072265625,-1.46484375,12.535400390625,33.15673828125,141.416015625
1758786260.4743133,-0.583984375,0.16259765625,0.970703125,19.22607421875,-2.99072265625,-1.46484375,12.6947021484375,33.123779296875,141.3775634765625
1758786260.48492,-0.509765625,0.1533203125,0.94189453125,15.07568359375,-3.35693359375,-0.30517578125,12.8375244140625,33.0908203125,141.339111328125
1758786260.4940355,-0.509765625,0.1533203125,0.94189453125,15.07568359375,-3.35693359375,-0.30517578125,12.9638671875,33.0523681640625,141.30615234375
1758786260.5042048,-0.4697265625,0.1943359375,0.79638671875,1.77001953125,-3.41796875,0.79345703125,13.0242919921875,33.0084228515625,141.2786865234375
1758786260.5143795,-0.4697265625,0.1943359375,0.79638671875,1.77001953125,-3.41796875,0.79345703125,13.0242919921875,32.9644775390625,141.2567138671875
1758786260.5246646,-0.46728515625,0.2294921875,0.7265625,-9.8876953125,-2.8076171875,1.953125,12.974853515625,32.9205322265625,141.2457275390625
1758786260.5340738,-0.46728515625,0.2294921875,0.7265625,-9.8876953125,-2.8076171875,1.953125,12.8704833984375,32.8765869140625,141.2347412109375
1758786260.5442398,-0.47802734375,0.23583984375,0.76708984375,-13.7939453125,-2.13623046875,2.62451171875,12.7606201171875,32.838134765625,141.2347412109375
1758786260.554852,-0.47802734375,0.23583984375,0.76708984375,-13.7939453125,-2.13623046875,2.62451171875,12.6287841796875,32.80517578125,141.2347412109375
1758786260.5643117,-0.48388671875,0.17626953125,0.8544921875,-10.68115234375,-2.38037109375,3.11279296875,12.5408935546875,32.76123046875,141.240234375
1758786260.5741138,-0.48388671875,0.17626953125,0.8544921875,-10.68115234375,-2.38037109375,3.11279296875,12.447509765625,32.7227783203125,141.251220703125
1758786260.5843258,-0.490234375,0.15234375,0.984375,-10.3759765625,-4.57763671875,3.23486328125,12.3541259765625,32.6568603515625,141.2457275390625
1758786260.594844,-0.490234375,0.15234375,0.984375,-10.3759765625,-4.57763671875,3.23486328125,12.2607421875,32.5909423828125,141.2457275390625
1758786260.6042657,-0.3955078125,0.177734375,0.9658203125,-10.92529296875,-5.37109375,4.150390625,12.161865234375,32.508544921875,141.251220703125
1758786260.614193,-0.3955078125,0.177734375,0.9658203125,-10.92529296875,-5.37109375,4.150390625,12.06298828125,32.420654296875,141.2457275390625
1758786260.6249537,-0.4150390625,0.1943359375,0.86474609375,-13.916015625,-6.34765625,4.8828125,11.942138671875,32.3272705078125,141.251220703125
1758786260.634681,-0.4150390625,0.1943359375,0.86474609375,-13.916015625,-6.34765625,4.8828125,11.8212890625,32.2283935546875,141.251220703125
1758786260.6448646,-0.41650390625,0.18994140625,0.84912109375,-13.24462890625,-5.7373046875,4.8828125,11.71142578125,32.135009765625,141.2567138671875
1758786260.655133,-0.41650390625,0.18994140625,0.84912109375,-13.24462890625,-5.7373046875,4.8828125,11.5960693359375,32.0416259765625,141.2567138671875
1758786260.6645648,-0.42041015625,0.150390625,0.83642578125,-16.357421875,-4.2724609375,4.8828125,11.458740234375,31.959228515625,141.26220703125
1758786260.674432,-0.42041015625,0.150390625,0.83642578125,-16.357421875,-4.2724609375,4.8828125,11.31591796875,31.88232421875,141.2677001953125
1758786260.6853867,-0.412109375,0.14013671875,0.83984375,-14.0380859375,-2.50244140625,4.150390625,11.2005615234375,31.81640625,141.2677001953125
1758786260.6942275,-0.412109375,0.14013671875,0.83984375,-14.0380859375,-2.50244140625,4.150390625,11.0797119140625,31.7559814453125,141.273193359375
1758786260.7043695,-0.451171875,0.14990234375,0.8505859375,-7.62939453125,-1.220703125,3.662109375,11.019287109375,31.7120361328125,141.273193359375
1758786260.7147262,-0.451171875,0.14990234375,0.8505859375,-7.62939453125,-1.220703125,3.662109375,10.96435546875,31.66259765625,141.273193359375
1758786260.724581,-0.53857421875,0.15869140625,0.890625,-18.98193359375,-0.18310546875,3.662109375,10.7940673828125,31.629638671875,141.2786865234375
1758786260.7342155,-0.53857421875,0.15869140625,0.890625,-18.98193359375,-0.18310546875,3.662109375,10.623779296875,31.5966796875,141.2841796875
1758786260.7451043,-0.61279296875,0.177734375,0.93408203125,-25.2685546875,-0.1220703125,5.0048828125,10.404052734375,31.563720703125,141.3116455078125
1758786260.7548773,-0.61279296875,0.177734375,0.93408203125,-25.2685546875,-0.1220703125,5.0048828125,10.184326171875,31.5362548828125,141.3446044921875
1758786260.7643743,-0.6708984375,0.13818359375,0.9970703125,-13.671875,-1.46484375,5.4931640625,10.0799560546875,31.497802734375,141.383056640625
1758786260.7743142,-0.6708984375,0.13818359375,0.9970703125,-13.671875,-1.46484375,5.4931640625,9.9755859375,31.46484375,141.4215087890625
1758786260.7854533,-0.6708984375,0.13818359375,0.9970703125,-10.6201171875,-3.5400390625,5.615234375,9.898681640625,31.4154052734375,141.4654541015625
1758786260.7943304,-0.64599609375,0.1123046875,0.9775390625,-10.6201171875,-3.5400390625,5.615234375,9.82177734375,31.365966796875,141.514892578125
1758786260.8044624,-0.6044921875,0.13037109375,0.77734375,-27.9541015625,-2.9296875,7.8125,9.5855712890625,31.322021484375,141.5863037109375
1758786260.814826,-0.6044921875,0.13037109375,0.77734375,-27.9541015625,-2.9296875,7.8125,9.349365234375,31.278076171875,141.668701171875
1758786260.8245564,-0.53271484375,0.1328125,0.67724609375,-28.13720703125,-1.708984375,8.7890625,9.11865234375,31.256103515625,141.767578125
1758786260.8343337,-0.53271484375,0.1328125,0.67724609375,-28.13720703125,-1.708984375,8.7890625,8.8934326171875,31.234130859375,141.8719482421875
1758786260.844528,-0.49609375,0.1064453125,0.66748046875,-12.939453125,0.48828125,7.8125,8.8165283203125,31.234130859375,141.96533203125
1758786260.855069,-0.49609375,0.1064453125,0.66748046875,-12.939453125,0.48828125,7.8125,8.7396240234375,31.2396240234375,142.064208984375
1758786260.8645427,-0.4970703125,0.09423828125,0.7041015625,-0.91552734375,2.74658203125,7.32421875,8.7835693359375,31.26708984375,142.1575927734375
1758786260.8746612,-0.4970703125,0.09423828125,0.7041015625,-0.91552734375,2.74658203125,7.32421875,8.822021484375,31.300048828125,142.2564697265625
1758786260.8860276,-0.5458984375,0.19873046875,0.82666015625,14.46533203125,2.62451171875,7.32421875,9.0142822265625,31.3275146484375,142.3553466796875
1758786260.8943229,-0.5458984375,0.19873046875,0.82666015625,14.46533203125,2.62451171875,7.32421875,9.2120361328125,31.3494873046875,142.4542236328125
1758786260.9044783,-0.58056640625,0.21875,0.90966796875,26.2451171875,2.9296875,7.9345703125,9.5306396484375,31.376953125,142.55859375
1758786260.9151227,-0.58056640625,0.21875,0.90966796875,26.2451171875,2.9296875,7.9345703125,9.8492431640625,31.4044189453125,142.6629638671875
1758786260.9246945,-0.56298828125,0.173828125,0.8359375,12.3291015625,2.62451171875,8.23974609375,10.030517578125,31.4263916015625,142.7728271484375
1758786260.9343555,-0.56298828125,0.173828125,0.8359375,12.3291015625,2.62451171875,8.23974609375,10.2117919921875,31.4483642578125,142.877197265625
1758786260.9446158,-0.55517578125,0.095703125,0.82177734375,1.46484375,2.38037109375,8.056640625,10.2777099609375,31.4703369140625,142.9815673828125
1758786260.9551833,-0.55517578125,0.095703125,0.82177734375,1.46484375,2.38037109375,8.056640625,10.3436279296875,31.48681640625,143.0859375
1758786260.9646134,-0.564453125,0.10791015625,0.70263671875,4.2724609375,3.173828125,6.53076171875,10.426025390625,31.519775390625,143.1793212890625
1758786260.9744732,-0.564453125,0.10791015625,0.70263671875,4.2724609375,3.173828125,6.53076171875,10.5084228515625,31.552734375,143.2781982421875
1758786260.9852657,-0.53759765625,0.138671875,0.7919921875,17.08984375,3.23486328125,6.16455078125,10.7171630859375,31.5911865234375,143.3770751953125
1758786260.9945385,-0.53759765625,0.138671875,0.7919921875,17.08984375,3.23486328125,6.16455078125,10.9259033203125,31.6241455078125,143.470458984375
1758786261.004595,-0.56689453125,0.1298828125,0.85595703125,19.71435546875,2.0751953125,4.69970703125,11.1456298828125,31.651611328125,143.54736328125
1758786261.0147748,-0.56689453125,0.1298828125,0.85595703125,19.71435546875,2.0751953125,4.69970703125,11.35986328125,31.673583984375,143.624267578125
1758786261.025005,-0.54541015625,0.16455078125,0.87890625,16.357421875,1.64794921875,4.39453125,11.546630859375,31.695556640625,143.690185546875
1758786261.034547,-0.54541015625,0.16455078125,0.87890625,16.357421875,1.64794921875,4.39453125,11.722412109375,31.7120361328125,143.7615966796875
1758786261.0449543,-0.5224609375,0.2109375,0.8134765625,10.7421875,-0.244140625,3.662109375,11.84326171875,31.7120361328125,143.8165283203125
1758786261.054593,-0.5224609375,0.2109375,0.8134765625,10.7421875,-0.244140625,3.662109375,11.964111328125,31.7120361328125,143.865966796875
1758786261.064747,-0.48974609375,0.224609375,0.74755859375,5.4931640625,0.1220703125,4.33349609375,12.041015625,31.7120361328125,143.9263916015625
1758786261.0745857,-0.48974609375,0.224609375,0.74755859375,5.4931640625,0.1220703125,4.33349609375,12.117919921875,31.7120361328125,143.98681640625
1758786261.0853982,-0.490234375,0.21044921875,0.734375,7.62939453125,0.06103515625,4.5166015625,12.2222900390625,31.7120361328125,144.0472412109375
1758786261.094555,-0.490234375,0.21044921875,0.734375,7.62939453125,0.06103515625,4.5166015625,12.32666015625,31.70654296875,144.107666015625
1758786261.1046956,-0.5234375,0.19287109375,0.88330078125,9.94873046875,-0.3662109375,4.45556640625,12.4530029296875,31.7010498046875,144.1680908203125
1758786261.1145973,-0.5234375,0.19287109375,0.88330078125,9.94873046875,-0.3662109375,4.45556640625,12.579345703125,31.695556640625,144.2230224609375
1758786261.125192,-0.54052734375,0.21923828125,0.9150390625,-2.44140625,-1.15966796875,5.0048828125,12.5848388671875,31.673583984375,144.283447265625
1758786261.1345847,-0.54052734375,0.21923828125,0.9150390625,-2.44140625,-1.15966796875,5.0048828125,12.59033203125,31.651611328125,144.33837890625
1758786261.144715,-0.49853515625,0.2373046875,0.8193359375,-22.94921875,-0.79345703125,5.55419921875,12.392578125,31.6351318359375,144.3988037109375
1758786261.155035,-0.49853515625,0.2373046875,0.8193359375,-22.94921875,-0.79345703125,5.55419921875,12.2003173828125,31.6131591796875,144.4647216796875
1758786261.1647732,-0.49755859375,0.21923828125,0.73291015625,-36.1328125,-0.67138671875,5.79833984375,11.88720703125,31.5966796875,144.5306396484375
1758786261.1745868,-0.49755859375,0.21923828125,0.73291015625,-36.1328125,-0.67138671875,5.79833984375,11.568603515625,31.5802001953125,144.5965576171875
1758786261.1848094,-0.513671875,0.154296875,0.80322265625,-35.7666015625,0.244140625,5.31005859375,11.260986328125,31.57470703125,144.656982421875
1758786261.1953287,-0.513671875,0.154296875,0.80322265625,-35.7666015625,0.244140625,5.31005859375,10.9478759765625,31.5692138671875,144.7174072265625
1758786261.204748,-0.5458984375,0.06982421875,0.90576171875,-21.17919921875,-0.732421875,5.06591796875,10.777587890625,31.552734375,144.77783203125
1758786261.2145915,-0.5458984375,0.06982421875,0.90576171875,-21.17919921875,-0.732421875,5.06591796875,10.601806640625,31.5362548828125,144.8382568359375
1758786261.2252572,-0.52392578125,0.05712890625,0.9404296875,10.55908203125,-1.64794921875,4.39453125,10.733642578125,31.5142822265625,144.8876953125
1758786261.235452,-0.52392578125,0.05712890625,0.9404296875,10.55908203125,-1.64794921875,4.39453125,10.8599853515625,31.48681640625,144.9371337890625
1758786261.244893,-0.53076171875,0.01708984375,0.8232421875,28.74755859375,-2.01416015625,2.38037109375,11.1456298828125,31.46484375,144.964599609375
1758786261.254745,-0.53076171875,0.01708984375,0.8232421875,28.74755859375,-2.01416015625,2.38037109375,11.4312744140625,31.4373779296875,144.9920654296875
1758786261.2653384,-0.53857421875,0.12451171875,0.8095703125,26.123046875,-2.8076171875,2.25830078125,11.6839599609375,31.409912109375,145.01953125
1758786261.2746868,-0.53857421875,0.12451171875,0.8095703125,26.123046875,-2.8076171875,2.25830078125,11.93115234375,31.3824462890625,145.0469970703125
1758786261.2848306,-0.521484375,0.1640625,0.78662109375,32.53173828125,-1.28173828125,1.15966796875,12.2442626953125,31.3714599609375,145.0689697265625
1758786261.2951274,-0.521484375,0.1640625,0.78662109375,32.53173828125,-1.28173828125,1.15966796875,12.5518798828125,31.3604736328125,145.0909423828125
1758786261.3047698,-0.51171875,0.18603515625,0.751953125,24.10888671875,-1.8310546875,0.67138671875,12.7716064453125,31.343994140625,145.107421875
1758786261.3146627,-0.51171875,0.18603515625,0.751953125,24.10888671875,-1.8310546875,0.67138671875,12.996826171875,31.3275146484375,145.118408203125
1758786261.3251874,-0.51904296875,0.208984375,0.77978515625,13.85498046875,-0.67138671875,1.708984375,13.128662109375,31.3275146484375,145.1513671875
1758786261.3352551,-0.51904296875,0.208984375,0.77978515625,13.85498046875,-0.67138671875,1.708984375,13.260498046875,31.322021484375,145.1788330078125
1758786261.34487,-0.5634765625,0.24951171875,0.81591796875,17.27294921875,-0.91552734375,1.3427734375,13.42529296875,31.3165283203125,145.206298828125
1758786261.355301,-0.5634765625,0.24951171875,0.81591796875,17.27294921875,-0.91552734375,1.3427734375,13.5955810546875,31.31103515625,145.2337646484375
1758786261.3655782,-0.5869140625,0.23193359375,0.8828125,24.7802734375,-1.03759765625,1.0986328125,13.8372802734375,31.3055419921875,145.2557373046875
1758786261.375412,-0.5869140625,0.23193359375,0.8828125,24.7802734375,-1.03759765625,1.0986328125,14.08447265625,31.3055419921875,145.283203125
1758786261.3849523,-0.59375,0.2265625,0.8828125,19.95849609375,-1.708984375,2.01416015625,14.2822265625,31.2890625,145.3106689453125
1758786261.3955498,-0.59375,0.2265625,0.8828125,19.95849609375,-1.708984375,2.01416015625,14.47998046875,31.278076171875,145.3436279296875
1758786261.404955,-0.56982421875,0.2724609375,0.84228515625,10.986328125,-2.25830078125,2.01416015625,14.58984375,31.2615966796875,145.3765869140625
1758786261.4148602,-0.56982421875,0.2724609375,0.84228515625,10.986328125,-2.25830078125,2.01416015625,14.7052001953125,31.2396240234375,145.4095458984375
1758786261.4249423,-0.5810546875,0.27734375,0.75,5.31005859375,-2.01416015625,1.953125,14.7601318359375,31.2286376953125,145.4425048828125
1758786261.4355226,-0.5810546875,0.27734375,0.75,5.31005859375,-2.01416015625,1.953125,14.8260498046875,31.2176513671875,145.48095703125
1758786261.444934,-0.59423828125,0.23388671875,0.77685546875,5.43212890625,-1.953125,1.953125,14.886474609375,31.2066650390625,145.5194091796875
1758786261.4555361,-0.59423828125,0.23388671875,0.77685546875,5.43212890625,-1.953125,1.953125,14.952392578125,31.1956787109375,145.557861328125
1758786261.4651337,-0.59130859375,0.18310546875,0.8271484375,11.29150390625,-2.0751953125,1.220703125,15.0677490234375,31.190185546875,145.5908203125
1758786261.4748795,-0.59130859375,0.18310546875,0.8271484375,11.29150390625,-2.0751953125,1.220703125,15.18310546875,31.1846923828125,145.623779296875
1758786261.4857452,-0.56201171875,0.18212890625,0.8271484375,13.427734375,-2.38037109375,1.03759765625,15.31494140625,31.17919921875,145.6512451171875
1758786261.495015,-0.56201171875,0.18212890625,0.8271484375,13.427734375,-2.38037109375,1.03759765625,15.4412841796875,31.168212890625,145.6842041015625
1758786261.5049932,-0.51708984375,0.20947265625,0.79638671875,11.1083984375,-2.5634765625,1.03759765625,15.5511474609375,31.1572265625,145.711669921875
1758786261.5157301,-0.51708984375,0.20947265625,0.79638671875,11.1083984375,-2.5634765625,1.03759765625,15.655517578125,31.146240234375,145.7391357421875
1758786261.525073,-0.5390625,0.25439453125,0.75537109375,9.33837890625,-2.197265625,1.5869140625,15.7489013671875,31.13525390625,145.7720947265625
1758786261.5352976,-0.5390625,0.25439453125,0.75537109375,9.33837890625,-2.197265625,1.5869140625,15.84228515625,31.124267578125,145.8050537109375
1758786261.5453935,-0.52099609375,0.25244140625,0.77490234375,9.94873046875,-1.77001953125,1.52587890625,15.941162109375,31.1187744140625,145.843505859375
1758786261.5557914,-0.52099609375,0.25244140625,0.77490234375,9.94873046875,-1.77001953125,1.52587890625,16.0455322265625,31.11328125,145.87646484375
1758786261.5650687,-0.53662109375,0.236328125,0.8017578125,13.48876953125,-1.3427734375,1.5869140625,16.182861328125,31.1077880859375,145.909423828125
1758786261.5751526,-0.53662109375,0.236328125,0.8017578125,13.48876953125,-1.3427734375,1.5869140625,16.3201904296875,31.1077880859375,145.9478759765625
1758786261.5855525,-0.5224609375,0.1962890625,0.80419921875,17.51708984375,-1.64794921875,0.54931640625,16.490478515625,31.102294921875,145.96435546875
1758786261.5950294,-0.5224609375,0.1962890625,0.80419921875,17.51708984375,-1.64794921875,0.54931640625,16.6607666015625,31.0968017578125,145.986328125
1758786261.6050785,-0.53173828125,0.1943359375,0.80322265625,25.87890625,-1.15966796875,0.6103515625,16.9134521484375,31.0968017578125,146.00830078125
1758786261.6157954,-0.53173828125,0.1943359375,0.80322265625,25.87890625,-1.15966796875,0.6103515625,17.16064453125,31.0968017578125,146.0357666015625
1758786261.6251013,-0.52099609375,0.259765625,0.787109375,34.3017578125,-1.220703125,0.54931640625,17.490234375,31.09130859375,146.05224609375
1758786261.6350148,-0.52099609375,0.259765625,0.787109375,34.3017578125,-1.220703125,0.54931640625,17.81982421875,31.09130859375,146.07421875
1758786261.6456614,-0.52197265625,0.28564453125,0.82373046875,37.109375,-0.6103515625,0.42724609375,18.182373046875,31.09130859375,146.09619140625
1758786261.6552162,-0.52197265625,0.28564453125,0.82373046875,37.109375,-0.6103515625,0.42724609375,18.5394287109375,31.0968017578125,146.1181640625
1758786261.6652029,-0.52587890625,0.31884765625,0.8408203125,30.45654296875,-0.91552734375,0.67138671875,18.8360595703125,31.09130859375,146.14013671875
1758786261.6751173,-0.54541015625,0.3466796875,0.87353515625,15.44189453125,-1.28173828125,1.0986328125,19.0557861328125,31.0858154296875,146.1566162109375
1758786261.685663,-0.54541015625,0.3466796875,0.87353515625,15.44189453125,-1.28173828125,1.0986328125,19.2041015625,31.0748291015625,146.1785888671875
1758786261.6950712,-0.53076171875,0.328125,0.87939453125,-10.43701171875,-1.64794921875,1.28173828125,19.22607421875,31.058349609375,146.2005615234375
1758786261.7052085,-0.53076171875,0.328125,0.87939453125,-10.43701171875,-1.64794921875,1.28173828125,19.1217041015625,31.0418701171875,146.217041015625
1758786261.7156892,-0.50439453125,0.314453125,0.8115234375,-23.13232421875,-2.01416015625,1.708984375,18.951416015625,31.025390625,146.239013671875
1758786261.725217,-0.50439453125,0.314453125,0.8115234375,-23.13232421875,-2.01416015625,1.708984375,18.7261962890625,30.9979248046875,146.2554931640625
1758786261.7350774,-0.50732421875,0.294921875,0.74169921875,-19.04296875,-1.220703125,2.13623046875,18.5284423828125,30.9814453125,146.282958984375
1758786261.7452378,-0.50732421875,0.294921875,0.74169921875,-19.04296875,-1.220703125,2.13623046875,18.3526611328125,30.9649658203125,146.3104248046875
1758786261.755716,-0.4921875,0.25927734375,0.76025390625,-7.6904296875,-1.953125,1.15966796875,18.2318115234375,30.948486328125,146.326904296875
1758786261.765653,-0.4921875,0.25927734375,0.76025390625,-7.6904296875,-1.953125,1.15966796875,18.1658935546875,30.926513671875,146.3433837890625
1758786261.775109,-0.48583984375,0.20751953125,0.8662109375,2.197265625,-1.953125,0.42724609375,18.1439208984375,30.9100341796875,146.3543701171875
1758786261.7855847,-0.48583984375,0.20751953125,0.8662109375,2.197265625,-1.953125,0.42724609375,18.1658935546875,30.8880615234375,146.35986328125
1758786261.7953742,-0.45703125,0.212890625,0.8134765625,1.8310546875,-2.5634765625,-0.30517578125,18.182373046875,30.8660888671875,146.35986328125
1758786261.8052218,-0.45703125,0.212890625,0.8134765625,1.8310546875,-2.5634765625,-0.30517578125,18.193359375,30.8441162109375,146.3543701171875
1758786261.8152306,-0.45068359375,0.2373046875,0.86279296875,1.5869140625,-2.99072265625,-1.03759765625,18.1988525390625,30.816650390625,146.3433837890625
1758786261.8256497,-0.45068359375,0.2373046875,0.86279296875,1.5869140625,-2.99072265625,-1.03759765625,18.193359375,30.78369140625,146.326904296875
1758786261.8351748,-0.43896484375,0.2783203125,0.83349609375,4.45556640625,-2.9296875,-1.03759765625,18.2098388671875,30.7562255859375,146.304931640625
1758786261.845672,-0.43896484375,0.2783203125,0.83349609375,4.45556640625,-2.9296875,-1.03759765625,18.2373046875,30.7232666015625,146.2774658203125
1758786261.8551745,-0.451171875,0.2880859375,0.8203125,9.1552734375,-3.0517578125,-1.89208984375,18.2867431640625,30.6903076171875,146.25
1758786261.8653383,-0.451171875,0.2880859375,0.8203125,9.1552734375,-3.0517578125,-1.89208984375,18.358154296875,30.6573486328125,146.2115478515625
1758786261.8755126,-0.44873046875,0.31103515625,0.85791015625,3.23486328125,-3.11279296875,-1.953125,18.3966064453125,30.6243896484375,146.173095703125
1758786261.885873,-0.44873046875,0.31103515625,0.85791015625,3.23486328125,-3.11279296875,-1.953125,18.4130859375,30.5859375,146.1346435546875
1758786261.89527,-0.4580078125,0.337890625,0.87158203125,-19.59228515625,-3.0517578125,-2.01416015625,18.3087158203125,30.5474853515625,146.0906982421875
1758786261.905351,-0.4580078125,0.337890625,0.87158203125,-19.59228515625,-3.0517578125,-2.01416015625,18.0999755859375,30.5145263671875,146.05224609375
1758786261.916328,-0.423828125,0.345703125,0.859375,-44.00634765625,-2.50244140625,-1.28173828125,17.77587890625,30.47607421875,146.0137939453125
1758786261.9253201,-0.423828125,0.345703125,0.859375,-44.00634765625,-2.50244140625,-1.28173828125,17.3309326171875,30.4376220703125,145.975341796875
1758786261.935223,-0.33544921875,0.298828125,0.82080078125,-46.56982421875,-2.197265625,-0.54931640625,16.885986328125,30.399169921875,145.9423828125
1758786261.9456048,-0.33544921875,0.298828125,0.82080078125,-46.56982421875,-2.197265625,-0.54931640625,16.4300537109375,30.355224609375,145.9039306640625
1758786261.9558337,-0.3251953125,0.21484375,0.83447265625,-29.47998046875,-0.91552734375,0.18310546875,16.06201171875,30.3167724609375,145.8709716796875
1758786261.9653435,-0.3251953125,0.21484375,0.83447265625,-29.47998046875,-0.91552734375,0.18310546875,15.787353515625,30.2783203125,145.843505859375
1758786261.9752479,-0.3369140625,0.21826171875,0.86376953125,-1.0986328125,0.0,0.244140625,15.6500244140625,30.2398681640625,145.8160400390625
1758786261.9858325,-0.3369140625,0.21826171875,0.86376953125,-1.0986328125,0.0,0.244140625,15.6500244140625,30.2069091796875,145.78857421875
1758786261.995321,-0.37939453125,0.2236328125,0.95458984375,23.193359375,0.54931640625,0.0,15.7708740234375,30.1739501953125,145.755615234375
1758786262.0053577,-0.37939453125,0.2236328125,0.95458984375,23.193359375,0.54931640625,0.0,16.0125732421875,30.1409912109375,145.72265625
1758786262.0153491,-0.3916015625,0.2001953125,0.99658203125,23.8037109375,-0.42724609375,-0.48828125,16.2432861328125,30.1025390625,145.6842041015625
1758786262.025921,-0.3916015625,0.2001953125,0.99658203125,23.8037109375,-0.42724609375,-0.48828125,16.4739990234375,30.05859375,145.6402587890625
1758786262.03533,-0.34765625,0.2548828125,0.9013671875,19.287109375,0.18310546875,0.18310546875,16.6827392578125,30.0201416015625,145.601806640625
1758786262.0454876,-0.34765625,0.2548828125,0.9013671875,19.287109375,0.18310546875,0.18310546875,16.8695068359375,29.9761962890625,145.56884765625
1758786262.0559366,-0.39111328125,0.275390625,0.9140625,12.6953125,-0.3662109375,0.244140625,17.017822265625,29.9322509765625,145.5303955078125
1758786262.0654335,-0.39111328125,0.275390625,0.9140625,12.6953125,-0.3662109375,0.244140625,17.1331787109375,29.8883056640625,145.4974365234375
1758786262.075348,-0.45556640625,0.287109375,1.00048828125,-12.75634765625,-1.52587890625,0.244140625,17.1221923828125,29.8333740234375,145.458984375
1758786262.0858915,-0.45556640625,0.287109375,1.00048828125,-12.75634765625,-1.52587890625,0.244140625,16.98486328125,29.7784423828125,145.4150390625
1758786262.095542,-0.4169921875,0.267578125,0.80419921875,-37.9638671875,0.06103515625,2.13623046875,16.732177734375,29.7235107421875,145.39306640625
1758786262.105515,-0.4169921875,0.267578125,0.80419921875,-37.9638671875,0.06103515625,2.13623046875,16.358642578125,29.6795654296875,145.382080078125
1758786262.115732,-0.4541015625,0.18798828125,0.638671875,-46.32568359375,0.732421875,2.38037109375,15.9521484375,29.64111328125,145.37109375
1758786262.125787,-0.4541015625,0.18798828125,0.638671875,-46.32568359375,0.732421875,2.38037109375,15.501708984375,29.6136474609375,145.37109375
1758786262.135529,-0.49658203125,0.15185546875,0.6435546875,-23.37646484375,3.60107421875,0.79345703125,15.172119140625,29.6026611328125,145.37109375
1758786262.145517,-0.49658203125,0.15185546875,0.6435546875,-23.37646484375,3.60107421875,0.79345703125,14.952392578125,29.6136474609375,145.3765869140625
1758786262.1562924,-0.68603515625,0.14013671875,0.70849609375,27.83203125,4.82177734375,-0.48828125,14.9908447265625,29.64111328125,145.3765869140625
1758786262.16551,-0.68603515625,0.14013671875,0.70849609375,27.83203125,4.82177734375,-0.48828125,15.27099609375,29.68505859375,145.3875732421875
1758786262.1753874,-0.7509765625,0.2099609375,1.06689453125,71.77734375,2.50244140625,-2.3193359375,15.765380859375,29.72900390625,145.3985595703125
1758786262.1857917,-0.7509765625,0.2099609375,1.06689453125,71.77734375,2.50244140625,-2.3193359375,16.4630126953125,29.7674560546875,145.39306640625
1758786262.1958473,-0.78369140625,0.2763671875,1.07861328125,63.4765625,1.77001953125,-1.953125,17.11669921875,29.8004150390625,145.3985595703125
1758786262.205567,-0.78369140625,0.2763671875,1.07861328125,63.4765625,1.77001953125,-1.953125,17.720947265625,29.8388671875,145.404052734375
1758786262.215495,-0.70166015625,0.4013671875,0.71875,17.4560546875,0.9765625,-1.15966796875,18.0999755859375,29.871826171875,145.4150390625
1758786262.225999,-0.70166015625,0.4013671875,0.71875,17.4560546875,0.9765625,-1.15966796875,18.2537841796875,29.90478515625,145.43701171875
1758786262.2354684,-0.7666015625,0.31640625,0.71435546875,-11.90185546875,0.0,-2.62451171875,18.2647705078125,29.937744140625,145.4534912109375
1758786262.2459996,-0.7666015625,0.31640625,0.71435546875,-11.90185546875,0.0,-2.62451171875,18.1219482421875,29.9761962890625,145.469970703125
1758786262.255641,-0.6962890625,0.2705078125,0.67138671875,-14.70947265625,0.3662109375,-4.638671875,17.9681396484375,30.025634765625,145.48095703125
1758786262.2656126,-0.6962890625,0.2705078125,0.67138671875,-14.70947265625,0.3662109375,-4.638671875,17.7978515625,30.0860595703125,145.4864501953125
1758786262.2758882,-0.58740234375,0.2802734375,0.6513671875,2.50244140625,1.0986328125,-6.89697265625,17.7044677734375,30.1519775390625,145.4864501953125
1758786262.2860432,-0.58740234375,0.2802734375,0.6513671875,2.50244140625,1.0986328125,-6.89697265625,17.698974609375,30.2288818359375,145.4754638671875
1758786262.295565,-0.52392578125,0.298828125,0.6435546875,24.10888671875,2.0751953125,-8.4228515625,17.7978515625,30.311279296875,145.4534912109375
1758786262.3056695,-0.52392578125,0.298828125,0.6435546875,24.10888671875,2.0751953125,-8.4228515625,18.0010986328125,30.399169921875,145.4315185546875
1758786262.3162558,-0.509765625,0.3271484375,0.7119140625,29.052734375,2.50244140625,-8.85009765625,18.2318115234375,30.4925537109375,145.3985595703125
1758786262.3256428,-0.509765625,0.3271484375,0.7119140625,29.052734375,2.50244140625,-8.85009765625,18.4844970703125,30.5804443359375,145.3656005859375
1758786262.3356001,-0.5107421875,0.3115234375,0.84423828125,15.93017578125,2.01416015625,-8.23974609375,18.6767578125,30.6683349609375,145.3271484375
1758786262.3461072,-0.5107421875,0.3115234375,0.84423828125,15.93017578125,2.01416015625,-8.23974609375,18.8031005859375,30.7452392578125,145.2886962890625
1758786262.3555217,-0.50390625,0.3046875,0.8466796875,4.94384765625,1.0986328125,-7.01904296875,18.8800048828125,30.8111572265625,145.250244140625
1758786262.3656785,-0.50390625,0.3046875,0.8466796875,4.94384765625,1.0986328125,-7.01904296875,18.9019775390625,30.8660888671875,145.206298828125
1758786262.3763032,-0.46484375,0.27392578125,0.85791015625,3.84521484375,-0.54931640625,-6.16455078125,18.91845703125,30.9100341796875,145.162353515625
1758786262.3858192,-0.46484375,0.27392578125,0.85791015625,3.84521484375,-0.54931640625,-6.16455078125,18.929443359375,30.9375,145.1129150390625
1758786262.3955612,-0.427734375,0.2744140625,0.83740234375,-5.859375,-1.953125,-4.8828125,18.8909912109375,30.95947265625,145.0634765625
1758786262.4060836,-0.427734375,0.2744140625,0.83740234375,-5.859375,-1.953125,-4.8828125,18.80859375,30.95947265625,145.0140380859375
1758786262.4162335,-0.39990234375,0.3076171875,0.91796875,-24.10888671875,-2.44140625,-4.5166015625,18.6328125,30.95947265625,144.9591064453125
1758786262.4257116,-0.39990234375,0.3076171875,0.91796875,-24.10888671875,-2.44140625,-4.5166015625,18.369140625,30.948486328125,144.898681640625
1758786262.4358945,-0.35693359375,0.296875,0.91357421875,-28.3203125,-2.25830078125,-5.126953125,18.0780029296875,30.9320068359375,144.8272705078125
1758786262.4462416,-0.35693359375,0.296875,0.91357421875,-28.3203125,-2.25830078125,-5.126953125,17.7703857421875,30.9100341796875,144.7503662109375
1758786262.4556408,-0.3349609375,0.2685546875,0.8251953125,-22.705078125,-0.42724609375,-6.40869140625,17.490234375,30.8990478515625,144.656982421875
1758786262.4657643,-0.3349609375,0.2685546875,0.8251953125,-22.705078125,-0.42724609375,-6.40869140625,17.237548828125,30.8935546875,144.55810546875
1758786262.47658,-0.3310546875,0.25634765625,0.8115234375,-19.83642578125,1.77001953125,-6.89697265625,16.995849609375,30.8935546875,144.459228515625
1758786262.4858663,-0.3310546875,0.25634765625,0.8115234375,-19.83642578125,1.77001953125,-6.89697265625,16.7706298828125,30.8990478515625,144.3548583984375
1758786262.4956946,-0.42822265625,0.2705078125,0.84814453125,-16.66259765625,4.21142578125,-7.4462890625,16.5673828125,30.9210205078125,144.25048828125
1758786262.505789,-0.42822265625,0.2705078125,0.84814453125,-16.66259765625,4.21142578125,-7.4462890625,16.3751220703125,30.948486328125,144.1461181640625
1758786262.5164416,-0.55224609375,0.275390625,1.0146484375,-6.53076171875,2.44140625,-7.26318359375,16.2322998046875,30.970458984375,144.041748046875
1758786262.5258145,-0.55224609375,0.275390625,1.0146484375,-6.53076171875,2.44140625,-7.26318359375,16.138916015625,30.9869384765625,143.931884765625
1758786262.5357218,-0.548828125,0.23681640625,1.09130859375,-7.62939453125,0.79345703125,-6.2255859375,16.0400390625,30.992431640625,143.8275146484375
1758786262.5463638,-0.548828125,0.23681640625,1.09130859375,-7.62939453125,0.79345703125,-6.2255859375,15.9356689453125,30.9869384765625,143.7286376953125
1758786262.5562658,-0.46044921875,0.19580078125,0.8359375,-13.0615234375,0.42724609375,-4.57763671875,15.8038330078125,30.9814453125,143.6407470703125
1758786262.5658615,-0.46044921875,0.19580078125,0.8359375,-13.0615234375,0.42724609375,-4.57763671875,15.6500244140625,30.970458984375,143.5638427734375
1758786262.5758307,-0.45703125,0.169921875,0.60791015625,-15.0146484375,-0.732421875,-3.7841796875,15.4852294921875,30.9539794921875,143.4869384765625
1758786262.586095,-0.45703125,0.169921875,0.60791015625,-15.0146484375,-0.732421875,-3.7841796875,15.31494140625,30.9375,143.41552734375
1758786262.5958118,-0.46826171875,0.1328125,0.68212890625,-2.50244140625,0.42724609375,-3.5400390625,15.2105712890625,30.926513671875,143.3551025390625
1758786262.6058445,-0.46826171875,0.1328125,0.68212890625,-2.50244140625,0.42724609375,-3.5400390625,15.1666259765625,30.926513671875,143.3001708984375
1758786262.615816,-0.51513671875,0.13525390625,0.72900390625,11.474609375,0.48828125,-3.11279296875,15.194091796875,30.926513671875,143.250732421875
1758786262.6263278,-0.51513671875,0.13525390625,0.72900390625,11.474609375,0.48828125,-3.11279296875,15.2874755859375,30.9320068359375,143.206787109375
1758786262.6358037,-0.56884765625,0.119140625,0.8369140625,28.1982421875,0.79345703125,-3.72314453125,15.457763671875,30.9429931640625,143.162841796875
1758786262.6463602,-0.56884765625,0.119140625,0.8369140625,28.1982421875,0.79345703125,-3.72314453125,15.71044921875,30.95947265625,143.118896484375
1758786262.6559176,-0.64404296875,0.12158203125,0.91552734375,57.9833984375,-0.06103515625,-4.21142578125,16.1004638671875,30.970458984375,143.074951171875
1758786262.6658797,-0.64404296875,0.12158203125,0.91552734375,57.9833984375,-0.06103515625,-4.21142578125,16.63330078125,30.9869384765625,143.031005859375
