timestamp,acc_x,acc_y,acc_z,gyro_x,gyro_y,gyro_z,angle_x,angle_y,angle_z
1758180362.5825636,0.955078125,-0.0673828125,0.30810546875,0.1220703125,2.38037109375,-0.06103515625,-11.2884521484375,-71.641845703125,74.4268798828125
1758180362.5974095,0.955078125,-0.0673828125,0.30810546875,0.1220703125,2.38037109375,-0.06103515625,-11.27197265625,-71.619873046875,74.410400390625
1758180362.6063654,0.95556640625,-0.06201171875,0.31494140625,0.18310546875,2.44140625,-0.1220703125,-11.2554931640625,-71.597900390625,74.3994140625
1758180362.615207,0.95556640625,-0.06201171875,0.31494140625,0.18310546875,2.44140625,-0.1220703125,-11.239013671875,-71.575927734375,74.3829345703125
1758180362.6238387,0.9560546875,-0.0576171875,0.3154296875,-0.06103515625,2.50244140625,0.0,-11.2225341796875,-71.5484619140625,74.366455078125
1758180362.6324046,0.9560546875,-0.0576171875,0.3154296875,-0.06103515625,2.50244140625,0.0,-11.2115478515625,-71.5264892578125,74.3499755859375
1758180362.6411018,0.95556640625,-0.05615234375,0.3173828125,-1.15966796875,2.685546875,0.244140625,-11.2060546875,-71.5045166015625,74.3389892578125
1758180362.6508942,0.95556640625,-0.05615234375,0.3173828125,-1.15966796875,2.685546875,0.244140625,-11.2060546875,-71.47705078125,74.3280029296875
1758180362.6609485,0.94970703125,-0.060546875,0.3115234375,-1.77001953125,2.9296875,0.42724609375,-11.217041015625,-71.4495849609375,74.322509765625
1758180362.670891,0.94970703125,-0.060546875,0.3115234375,-1.77001953125,2.9296875,0.42724609375,-11.22802734375,-71.422119140625,74.3115234375
1758180362.680435,0.943359375,-0.0703125,0.31005859375,-0.6103515625,2.86865234375,0.3662109375,-11.2335205078125,-71.3946533203125,74.300537109375
1758180362.690128,0.943359375,-0.0703125,0.31005859375,-0.6103515625,2.86865234375,0.3662109375,-11.2335205078125,-71.3671875,74.2950439453125
1758180362.7001383,0.93896484375,-0.06884765625,0.30712890625,0.0,2.5634765625,0.30517578125,-11.2335205078125,-71.3397216796875,74.28955078125
1758180362.7101924,0.93896484375,-0.06884765625,0.30712890625,0.0,2.5634765625,0.30517578125,-11.22802734375,-71.312255859375,74.2840576171875
1758180362.7201388,0.94140625,-0.060546875,0.3125,0.06103515625,2.25830078125,0.30517578125,-11.2225341796875,-71.290283203125,74.278564453125
1758180362.7301257,0.94140625,-0.060546875,0.3125,0.06103515625,2.25830078125,0.30517578125,-11.2225341796875,-71.268310546875,74.278564453125
1758180362.74045,0.94140625,-0.05712890625,0.3154296875,-0.48828125,2.01416015625,0.48828125,-11.2225341796875,-71.2518310546875,74.278564453125
1758180362.7501912,0.94140625,-0.05712890625,0.3154296875,-0.48828125,2.01416015625,0.48828125,-11.2335205078125,-71.2298583984375,74.278564453125
1758180362.7602062,0.94140625,-0.05712890625,0.3154296875,-1.03759765625,2.01416015625,0.67138671875,-11.2445068359375,-71.21337890625,74.278564453125
1758180362.7701917,0.94091796875,-0.06103515625,0.31103515625,-1.03759765625,2.01416015625,0.67138671875,-11.260986328125,-71.19140625,74.2840576171875
1758180362.780215,0.94482421875,-0.06787109375,0.31494140625,-0.48828125,1.89208984375,0.67138671875,-11.2774658203125,-71.16943359375,74.28955078125
1758180362.790202,0.94482421875,-0.06787109375,0.31494140625,-0.48828125,1.89208984375,0.67138671875,-11.2939453125,-71.1529541015625,74.2950439453125
1758180362.8002086,0.94873046875,-0.06689453125,0.31689453125,-0.3662109375,1.708984375,0.54931640625,-11.304931640625,-71.136474609375,74.300537109375
1758180362.8102455,0.94873046875,-0.06689453125,0.31689453125,-0.3662109375,1.708984375,0.54931640625,-11.31591796875,-71.1199951171875,74.3060302734375
1758180362.8202393,0.9521484375,-0.0625,0.32080078125,0.0,1.52587890625,0.48828125,-11.3214111328125,-71.103515625,74.3115234375
1758180362.8302464,0.9521484375,-0.0625,0.32080078125,0.0,1.52587890625,0.48828125,-11.326904296875,-71.0870361328125,74.3115234375
1758180362.8402526,0.947265625,-0.06103515625,0.318359375,-0.06103515625,1.52587890625,0.54931640625,-11.3323974609375,-71.0760498046875,74.3170166015625
1758180362.8502858,0.947265625,-0.06103515625,0.318359375,-0.06103515625,1.52587890625,0.54931640625,-11.3433837890625,-71.0595703125,74.3170166015625
1758180362.860286,0.9453125,-0.06396484375,0.3134765625,-0.30517578125,1.28173828125,0.67138671875,-11.3543701171875,-71.048583984375,74.322509765625
1758180362.8703022,0.9453125,-0.06396484375,0.3134765625,-0.30517578125,1.28173828125,0.67138671875,-11.370849609375,-71.0321044921875,74.3280029296875
1758180362.8803084,0.9501953125,-0.06591796875,0.32177734375,-0.30517578125,0.9765625,0.67138671875,-11.3818359375,-71.0211181640625,74.3389892578125
1758180362.890317,0.9501953125,-0.06591796875,0.32177734375,-0.30517578125,0.9765625,0.67138671875,-11.3983154296875,-71.015625,74.3499755859375
1758180362.900327,0.95263671875,-0.064453125,0.32421875,-0.67138671875,0.91552734375,0.67138671875,-11.4202880859375,-71.004638671875,74.3609619140625
1758180362.9103305,0.95263671875,-0.064453125,0.32421875,-0.67138671875,0.91552734375,0.67138671875,-11.436767578125,-70.99365234375,74.366455078125
1758180362.920348,0.94677734375,-0.06103515625,0.3193359375,-1.0986328125,0.8544921875,0.67138671875,-11.458740234375,-70.982666015625,74.37744140625
1758180362.930352,0.94677734375,-0.06103515625,0.3193359375,-1.0986328125,0.8544921875,0.67138671875,-11.4862060546875,-70.9771728515625,74.388427734375
1758180362.9403617,0.9443359375,-0.06640625,0.31640625,-0.42724609375,0.732421875,0.67138671875,-11.5081787109375,-70.9661865234375,74.3994140625
1758180362.9503775,0.9443359375,-0.06640625,0.31640625,-0.42724609375,0.732421875,0.67138671875,-11.524658203125,-70.960693359375,74.410400390625
1758180362.9603791,0.94482421875,-0.0712890625,0.31787109375,0.1220703125,0.48828125,0.6103515625,-11.5411376953125,-70.9552001953125,74.42138671875
1758180362.970405,0.94482421875,-0.0712890625,0.31787109375,0.1220703125,0.48828125,0.6103515625,-11.5521240234375,-70.94970703125,74.432373046875
1758180362.9804204,0.9482421875,-0.06787109375,0.3212890625,0.3662109375,0.30517578125,0.54931640625,-11.5631103515625,-70.9442138671875,74.443359375
1758180362.9904277,0.9482421875,-0.06787109375,0.3212890625,0.3662109375,0.30517578125,0.54931640625,-11.5740966796875,-70.938720703125,74.454345703125
1758180363.0004294,0.9453125,-0.060546875,0.322265625,-0.18310546875,0.30517578125,0.54931640625,-11.590576171875,-70.938720703125,74.46533203125
1758180363.0104833,0.9453125,-0.060546875,0.322265625,-0.18310546875,0.30517578125,0.54931640625,-11.6015625,-70.9332275390625,74.476318359375
1758180363.0204606,0.9384765625,-0.06201171875,0.3173828125,-0.54931640625,0.30517578125,0.732421875,-11.62353515625,-70.9332275390625,74.4873046875
1758180363.030458,0.9384765625,-0.06201171875,0.3173828125,-0.54931640625,0.30517578125,0.732421875,-11.6455078125,-70.927734375,74.5037841796875
1758180363.040472,0.93701171875,-0.0693359375,0.31591796875,-0.30517578125,0.1220703125,0.732421875,-11.66748046875,-70.9222412109375,74.5147705078125
1758180363.0504928,0.93701171875,-0.0693359375,0.31591796875,-0.30517578125,0.1220703125,0.732421875,-11.689453125,-70.9222412109375,74.53125
1758180363.0604725,0.9404296875,-0.0693359375,0.31591796875,0.0,0.0,0.54931640625,-11.71142578125,-70.9222412109375,74.5477294921875
1758180363.070515,0.9404296875,-0.0693359375,0.31591796875,0.0,0.0,0.54931640625,-11.722412109375,-70.9222412109375,74.5587158203125
1758180363.080548,0.9453125,-0.06787109375,0.3212890625,0.42724609375,-0.1220703125,0.3662109375,-11.7333984375,-70.9222412109375,74.5697021484375
1758180363.0905366,0.9453125,-0.06787109375,0.3212890625,0.42724609375,-0.1220703125,0.3662109375,-11.744384765625,-70.9222412109375,74.5806884765625
1758180363.1006086,0.94775390625,-0.064453125,0.32421875,0.244140625,-0.1220703125,0.3662109375,-11.7498779296875,-70.9222412109375,74.586181640625
1758180363.1106315,0.94775390625,-0.064453125,0.32421875,0.244140625,-0.1220703125,0.3662109375,-11.7608642578125,-70.9222412109375,74.59716796875
1758180363.120661,0.94384765625,-0.06396484375,0.3193359375,0.06103515625,-0.1220703125,0.3662109375,-11.766357421875,-70.9222412109375,74.6026611328125
1758180363.130645,0.94384765625,-0.06396484375,0.3193359375,0.06103515625,-0.1220703125,0.3662109375,-11.77734375,-70.9222412109375,74.608154296875
1758180363.1406276,0.9423828125,-0.06640625,0.31884765625,-0.1220703125,-0.1220703125,0.3662109375,-11.788330078125,-70.9222412109375,74.619140625
1758180363.150675,0.9423828125,-0.06640625,0.31884765625,-0.1220703125,-0.1220703125,0.3662109375,-11.79931640625,-70.9222412109375,74.6246337890625
1758180363.1606457,0.94775390625,-0.07080078125,0.3203125,-0.1220703125,-0.18310546875,0.30517578125,-11.810302734375,-70.927734375,74.630126953125
1758180363.1707315,0.94775390625,-0.07080078125,0.3203125,-0.1220703125,-0.18310546875,0.30517578125,-11.8212890625,-70.927734375,74.64111328125
1758180363.1806636,0.95263671875,-0.0693359375,0.32421875,0.1220703125,-0.244140625,0.244140625,-11.8267822265625,-70.927734375,74.6466064453125
1758180363.1907432,0.95263671875,-0.0693359375,0.32421875,0.1220703125,-0.244140625,0.244140625,-11.8377685546875,-70.927734375,74.652099609375
1758180363.2006838,0.95556640625,-0.0654296875,0.3251953125,0.1220703125,-0.18310546875,0.1220703125,-11.84326171875,-70.9332275390625,74.6575927734375
1758180363.2112033,0.95556640625,-0.0654296875,0.3251953125,0.1220703125,-0.18310546875,0.1220703125,-11.84326171875,-70.9332275390625,74.6575927734375
1758180363.2208552,0.95703125,-0.0625,0.3291015625,-0.244140625,0.0,0.06103515625,-11.8487548828125,-70.9332275390625,74.6575927734375
1758180363.2307632,0.95703125,-0.0625,0.3291015625,-0.244140625,0.0,0.06103515625,-11.8487548828125,-70.9332275390625,74.6575927734375
1758180363.2408416,0.9482421875,-0.06884765625,0.3193359375,-0.18310546875,0.0,0.06103515625,-11.854248046875,-70.9332275390625,74.652099609375
1758180363.2508616,0.9482421875,-0.06884765625,0.3193359375,-0.18310546875,0.0,0.06103515625,-11.854248046875,-70.9332275390625,74.652099609375
1758180363.2608187,0.9462890625,-0.0732421875,0.31982421875,0.244140625,0.0,0.0,-11.854248046875,-70.9332275390625,74.652099609375
1758180363.270803,0.9462890625,-0.0732421875,0.31982421875,0.244140625,0.0,0.0,-11.8487548828125,-70.9332275390625,74.6466064453125
1758180363.280818,0.95068359375,-0.06982421875,0.32470703125,0.6103515625,-0.1220703125,-0.1220703125,-11.8487548828125,-70.9332275390625,74.6466064453125
1758180363.2909029,0.95068359375,-0.06982421875,0.32470703125,0.6103515625,-0.1220703125,-0.1220703125,-11.8377685546875,-70.9332275390625,74.64111328125
1758180363.3008137,0.951171875,-0.0615234375,0.32373046875,0.48828125,-0.18310546875,-0.18310546875,-11.8267822265625,-70.9332275390625,74.64111328125
1758180363.310883,0.951171875,-0.0615234375,0.32373046875,0.48828125,-0.18310546875,-0.18310546875,-11.8212890625,-70.9332275390625,74.630126953125
1758180363.321186,0.94580078125,-0.0625,0.31982421875,0.30517578125,-0.18310546875,-0.1220703125,-11.8157958984375,-70.938720703125,74.630126953125
1758180363.3309197,0.94580078125,-0.0625,0.31982421875,0.30517578125,-0.18310546875,-0.1220703125,-11.810302734375,-70.938720703125,74.6246337890625
1758180363.3409264,0.94287109375,-0.072265625,0.31884765625,0.3662109375,-0.244140625,-0.06103515625,-11.8048095703125,-70.938720703125,74.619140625
1758180363.351379,0.94287109375,-0.072265625,0.31884765625,0.3662109375,-0.244140625,-0.06103515625,-11.79931640625,-70.9442138671875,74.619140625
1758180363.3609822,0.94384765625,-0.07275390625,0.3193359375,0.67138671875,-0.244140625,-0.06103515625,-11.7938232421875,-70.9442138671875,74.619140625
1758180363.3709126,0.94384765625,-0.07275390625,0.3193359375,0.67138671875,-0.244140625,-0.06103515625,-11.788330078125,-70.94970703125,74.6136474609375
1758180363.381093,0.94677734375,-0.0673828125,0.3232421875,0.48828125,-0.244140625,-0.1220703125,-11.7828369140625,-70.94970703125,74.6136474609375
1758180363.3910387,0.94677734375,-0.0673828125,0.3232421875,0.48828125,-0.244140625,-0.1220703125,-11.77734375,-70.94970703125,74.608154296875
1758180363.4009395,0.943359375,-0.05859375,0.3212890625,-0.42724609375,-0.18310546875,-0.06103515625,-11.7828369140625,-70.9552001953125,74.608154296875
1758180363.4112213,0.943359375,-0.05859375,0.3212890625,-0.42724609375,-0.18310546875,-0.06103515625,-11.7828369140625,-70.9552001953125,74.59716796875
1758180363.4210546,0.943359375,-0.0634765625,0.31787109375,-0.30517578125,-0.1220703125,0.0,-11.788330078125,-70.9552001953125,74.5916748046875
1758180363.430939,0.943359375,-0.0634765625,0.31787109375,-0.30517578125,-0.1220703125,0.0,-11.788330078125,-70.9552001953125,74.586181640625
1758180363.441224,0.94775390625,-0.0732421875,0.32275390625,0.244140625,-0.06103515625,-0.1220703125,-11.7828369140625,-70.9552001953125,74.5806884765625
1758180363.4510376,0.94775390625,-0.0732421875,0.32275390625,0.244140625,-0.06103515625,-0.1220703125,-11.77734375,-70.9552001953125,74.5697021484375
1758180363.4609988,0.9482421875,-0.07177734375,0.3232421875,0.18310546875,0.0,-0.244140625,-11.7718505859375,-70.9552001953125,74.5587158203125
1758180363.4719083,0.9482421875,-0.07177734375,0.3232421875,0.18310546875,0.0,-0.244140625,-11.7608642578125,-70.9552001953125,74.5477294921875
1758180363.481264,0.94580078125,-0.064453125,0.3193359375,0.1220703125,0.0,-0.30517578125,-11.75537109375,-70.9552001953125,74.53125
1758180363.491364,0.94580078125,-0.064453125,0.3193359375,0.1220703125,0.0,-0.30517578125,-11.744384765625,-70.9552001953125,74.520263671875
1758180363.5014346,0.943359375,-0.064453125,0.32080078125,0.48828125,0.0,-0.30517578125,-11.7333984375,-70.9552001953125,74.5037841796875
1758180363.511382,0.943359375,-0.064453125,0.32080078125,0.48828125,0.0,-0.30517578125,-11.7169189453125,-70.9552001953125,74.4927978515625
1758180363.5211082,0.9375,-0.06689453125,0.31884765625,-0.244140625,0.0,-0.244140625,-11.71142578125,-70.9552001953125,74.4818115234375
1758180363.5314379,0.9375,-0.06689453125,0.31884765625,-0.244140625,0.0,-0.244140625,-11.71142578125,-70.9552001953125,74.4708251953125
1758180363.5413387,0.935546875,-0.06884765625,0.31201171875,0.0,0.0,-0.244140625,-11.7059326171875,-70.9552001953125,74.4598388671875
1758180363.5513697,0.935546875,-0.06884765625,0.31201171875,0.0,0.0,-0.244140625,-11.700439453125,-70.9552001953125,74.4488525390625
1758180363.5613313,0.94091796875,-0.06982421875,0.322265625,0.48828125,0.06103515625,-0.244140625,-11.689453125,-70.9552001953125,74.4378662109375
1758180363.5716865,0.94091796875,-0.06982421875,0.322265625,0.48828125,0.06103515625,-0.244140625,-11.678466796875,-70.9552001953125,74.4268798828125
1758180363.5811627,0.94287109375,-0.06298828125,0.3203125,-0.244140625,0.06103515625,-0.18310546875,-11.6729736328125,-70.9552001953125,74.42138671875
1758180363.591396,0.94287109375,-0.06298828125,0.3203125,-0.244140625,0.06103515625,-0.18310546875,-11.6729736328125,-70.9552001953125,74.410400390625
1758180363.601361,0.93798828125,-0.0595703125,0.3193359375,-0.8544921875,0.1220703125,0.0,-11.678466796875,-70.9552001953125,74.410400390625
1758180363.6114018,0.93798828125,-0.0595703125,0.3193359375,-0.8544921875,0.1220703125,0.0,-11.689453125,-70.94970703125,74.3994140625
1758180363.6211176,0.9404296875,-0.068359375,0.3173828125,-0.244140625,0.30517578125,0.0,-11.689453125,-70.94970703125,74.3939208984375
1758180363.631486,0.9404296875,-0.068359375,0.3173828125,-0.244140625,0.30517578125,0.0,-11.689453125,-70.9442138671875,74.388427734375
1758180363.6419415,0.94482421875,-0.07470703125,0.32177734375,-0.06103515625,0.3662109375,0.0,-11.689453125,-70.938720703125,74.3829345703125
1758180363.6516204,0.94482421875,-0.07470703125,0.32177734375,-0.06103515625,0.3662109375,0.0,-11.689453125,-70.938720703125,74.37744140625
1758180363.6616187,0.9501953125,-0.06982421875,0.31982421875,0.18310546875,0.3662109375,-0.1220703125,-11.6839599609375,-70.9332275390625,74.3719482421875
1758180363.6718433,0.9501953125,-0.06982421875,0.31982421875,0.18310546875,0.3662109375,-0.1220703125,-11.678466796875,-70.927734375,74.366455078125
1758180363.6812098,0.9501953125,-0.0634765625,0.32421875,0.6103515625,0.30517578125,-0.18310546875,-11.66748046875,-70.927734375,74.35546875
1758180363.6914718,0.9501953125,-0.0634765625,0.32421875,0.6103515625,0.30517578125,-0.18310546875,-11.6510009765625,-70.9222412109375,74.3499755859375
1758180363.7016597,0.95263671875,-0.06103515625,0.322265625,-0.244140625,0.244140625,-0.1220703125,-11.6510009765625,-70.9222412109375,74.3389892578125
1758180363.7114513,0.95263671875,-0.06103515625,0.322265625,-0.244140625,0.244140625,-0.1220703125,-11.6510009765625,-70.9222412109375,74.3280029296875
1758180363.721267,0.9560546875,-0.0634765625,0.3232421875,-0.732421875,0.1220703125,-0.06103515625,-11.6510009765625,-70.916748046875,74.322509765625
1758180363.7314594,0.9560546875,-0.0634765625,0.3232421875,-0.732421875,0.1220703125,-0.06103515625,-11.656494140625,-70.916748046875,74.3115234375
1758180363.7414868,0.96142578125,-0.07177734375,0.326171875,-0.30517578125,0.0,-0.06103515625,-11.656494140625,-70.916748046875,74.3060302734375
1758180363.7513685,0.96142578125,-0.07177734375,0.326171875,-0.30517578125,0.0,-0.06103515625,-11.6619873046875,-70.916748046875,74.300537109375
1758180363.7613058,0.96142578125,-0.07177734375,0.326171875,0.0,-0.30517578125,-0.06103515625,-11.6619873046875,-70.9222412109375,74.2950439453125
1758180363.7717981,0.95654296875,-0.07177734375,0.32373046875,0.0,-0.30517578125,-0.06103515625,-11.6619873046875,-70.9222412109375,74.28955078125
1758180363.7813718,0.958984375,-0.0693359375,0.32275390625,0.1220703125,-0.30517578125,0.0,-11.6619873046875,-70.927734375,74.28955078125
1758180363.7917984,0.958984375,-0.0693359375,0.32275390625,0.1220703125,-0.30517578125,0.0,-11.66748046875,-70.927734375,74.28955078125
1758180363.801685,0.95654296875,-0.06591796875,0.3251953125,-0.1220703125,-0.48828125,0.18310546875,-11.678466796875,-70.9332275390625,74.2950439453125
1758180363.811465,0.95654296875,-0.06591796875,0.3251953125,-0.1220703125,-0.48828125,0.18310546875,-11.6839599609375,-70.938720703125,74.2950439453125
1758180363.8213575,0.95263671875,-0.0654296875,0.3193359375,-0.06103515625,-0.67138671875,0.3662109375,-11.700439453125,-70.9442138671875,74.3060302734375
1758180363.8314996,0.95263671875,-0.0654296875,0.3193359375,-0.06103515625,-0.67138671875,0.3662109375,-11.7169189453125,-70.94970703125,74.3170166015625
1758180363.841585,0.95166015625,-0.06884765625,0.3203125,0.0,-0.79345703125,0.42724609375,-11.7333984375,-70.9552001953125,74.33349609375
1758180363.8514087,0.95166015625,-0.06884765625,0.3203125,0.0,-0.79345703125,0.42724609375,-11.7498779296875,-70.960693359375,74.3499755859375
1758180363.8614428,0.953125,-0.0693359375,0.32080078125,-0.18310546875,-0.9765625,0.54931640625,-11.77734375,-70.9716796875,74.3719482421875
1758180363.8719625,0.953125,-0.0693359375,0.32080078125,-0.18310546875,-0.9765625,0.54931640625,-11.79931640625,-70.9771728515625,74.388427734375
1758180363.8814242,0.953125,-0.068359375,0.32470703125,0.06103515625,-0.9765625,0.48828125,-11.8212890625,-70.9881591796875,74.410400390625
1758180363.8916554,0.953125,-0.068359375,0.32470703125,0.06103515625,-0.9765625,0.48828125,-11.8377685546875,-70.99365234375,74.4268798828125
1758180363.9017775,0.94775390625,-0.06689453125,0.31982421875,0.06103515625,-1.03759765625,0.42724609375,-11.854248046875,-71.004638671875,74.4378662109375
1758180363.9115915,0.94775390625,-0.06689453125,0.31982421875,0.06103515625,-1.03759765625,0.42724609375,-11.876220703125,-71.015625,74.454345703125
1758180363.9215093,0.9404296875,-0.064453125,0.31591796875,-0.48828125,-0.9765625,0.3662109375,-11.8927001953125,-71.0211181640625,74.46533203125
1758180363.9326973,0.9404296875,-0.064453125,0.31591796875,-0.48828125,-0.9765625,0.3662109375,-11.9146728515625,-71.0321044921875,74.4818115234375
1758180363.94167,0.93505859375,-0.064453125,0.3134765625,-0.54931640625,-1.0986328125,0.42724609375,-11.9366455078125,-71.03759765625,74.4927978515625
1758180363.9515414,0.93505859375,-0.064453125,0.3134765625,-0.54931640625,-1.0986328125,0.42724609375,-11.964111328125,-71.048583984375,74.50927734375
1758180363.961598,0.935546875,-0.0712890625,0.31298828125,0.06103515625,-1.220703125,0.42724609375,-11.9805908203125,-71.0595703125,74.520263671875
1758180363.9721544,0.935546875,-0.0712890625,0.31298828125,0.06103515625,-1.220703125,0.42724609375,-11.9970703125,-71.070556640625,74.5367431640625
1758180363.9815464,0.93701171875,-0.072265625,0.31591796875,0.3662109375,-1.220703125,0.42724609375,-12.0135498046875,-71.08154296875,74.55322265625
1758180363.9916918,0.93701171875,-0.072265625,0.31591796875,0.3662109375,-1.220703125,0.42724609375,-12.030029296875,-71.092529296875,74.564208984375
1758180364.0018706,0.9375,-0.06689453125,0.31689453125,0.06103515625,-1.0986328125,0.3662109375,-12.0465087890625,-71.103515625,74.5806884765625
1758180364.0117688,0.9375,-0.06689453125,0.31689453125,0.06103515625,-1.0986328125,0.3662109375,-12.0684814453125,-71.1090087890625,74.5916748046875
1758180364.0216126,0.9375,-0.06689453125,0.31689453125,-0.6103515625,-0.91552734375,0.42724609375,-12.0904541015625,-71.1199951171875,74.6026611328125
1758180364.03275,0.935546875,-0.06298828125,0.31298828125,-0.6103515625,-0.91552734375,0.42724609375,-12.1124267578125,-71.12548828125,74.6136474609375
1758180364.0417178,0.93798828125,-0.06396484375,0.31396484375,-0.91552734375,-0.732421875,0.54931640625,-12.139892578125,-71.1309814453125,74.630126953125
1758180364.0516565,0.93798828125,-0.06396484375,0.31396484375,-0.91552734375,-0.732421875,0.54931640625,-12.1673583984375,-71.136474609375,74.64111328125
1758180364.061686,0.94189453125,-0.0712890625,0.31494140625,-0.8544921875,-0.6103515625,0.48828125,-12.19482421875,-71.1419677734375,74.652099609375
1758180364.0720747,0.94189453125,-0.0712890625,0.31494140625,-0.8544921875,-0.6103515625,0.48828125,-12.216796875,-71.1474609375,74.6630859375
1758180364.0816555,0.9462890625,-0.07470703125,0.31689453125,-0.1220703125,-0.48828125,0.3662109375,-12.2332763671875,-71.1474609375,74.674072265625
1758180364.09219,0.9462890625,-0.07470703125,0.31689453125,-0.1220703125,-0.48828125,0.3662109375,-12.249755859375,-71.1529541015625,74.6795654296875
1758180364.101908,0.951171875,-0.0703125,0.32080078125,0.244140625,-0.3662109375,0.18310546875,-12.2552490234375,-71.1529541015625,74.68505859375
1758180364.1118405,0.951171875,-0.0703125,0.32080078125,0.244140625,-0.3662109375,0.18310546875,-12.2607421875,-71.158447265625,74.68505859375
1758180364.1216865,0.9521484375,-0.06298828125,0.31591796875,-0.1220703125,-0.30517578125,0.1220703125,-12.2662353515625,-71.158447265625,74.68505859375
1758180364.132021,0.9521484375,-0.06298828125,0.31591796875,-0.1220703125,-0.30517578125,0.1220703125,-12.271728515625,-71.158447265625,74.6795654296875
1758180364.1419618,0.95556640625,-0.0654296875,0.31982421875,-0.30517578125,-0.30517578125,0.06103515625,-12.2772216796875,-71.1639404296875,74.674072265625
1758180364.151733,0.95556640625,-0.0654296875,0.31982421875,-0.30517578125,-0.30517578125,0.06103515625,-12.28271484375,-71.1639404296875,74.6685791015625
1758180364.1617267,0.95947265625,-0.0732421875,0.32080078125,0.0,-0.30517578125,0.0,-12.28271484375,-71.16943359375,74.6630859375
1758180364.1724107,0.95947265625,-0.0732421875,0.32080078125,0.0,-0.30517578125,0.0,-12.28271484375,-71.16943359375,74.6575927734375
1758180364.1817565,0.9580078125,-0.0732421875,0.3212890625,0.244140625,-0.30517578125,0.0,-12.28271484375,-71.1749267578125,74.6466064453125
1758180364.1920667,0.9580078125,-0.0732421875,0.3212890625,0.244140625,-0.30517578125,0.0,-12.28271484375,-71.1749267578125,74.64111328125
1758180364.2020335,0.955078125,-0.068359375,0.3173828125,0.42724609375,-0.30517578125,0.0,-12.2772216796875,-71.1749267578125,74.6356201171875
1758180364.2120054,0.955078125,-0.068359375,0.3173828125,0.42724609375,-0.30517578125,0.0,-12.2772216796875,-71.180419921875,74.630126953125
1758180364.2218254,0.95556640625,-0.0703125,0.31689453125,0.6103515625,-0.30517578125,0.0,-12.271728515625,-71.180419921875,74.6246337890625
1758180364.2321641,0.95556640625,-0.0703125,0.31689453125,0.6103515625,-0.30517578125,0.0,-12.2662353515625,-71.1859130859375,74.619140625
1758180364.243346,0.95361328125,-0.0693359375,0.3203125,0.18310546875,-0.3662109375,0.06103515625,-12.271728515625,-71.1859130859375,74.619140625
1758180364.2519097,0.95361328125,-0.0693359375,0.3203125,0.18310546875,-0.3662109375,0.06103515625,-12.271728515625,-71.19140625,74.6136474609375
1758180364.2618732,0.9462890625,-0.0654296875,0.314453125,-0.3662109375,-0.42724609375,0.18310546875,-12.28271484375,-71.1968994140625,74.6136474609375
1758180364.2725434,0.9462890625,-0.0654296875,0.314453125,-0.3662109375,-0.42724609375,0.18310546875,-12.293701171875,-71.1968994140625,74.6136474609375
1758180364.2819161,0.9462890625,-0.06982421875,0.3134765625,-0.244140625,-0.42724609375,0.30517578125,-12.3101806640625,-71.202392578125,74.619140625
1758180364.2922592,0.9462890625,-0.06982421875,0.3134765625,-0.244140625,-0.42724609375,0.30517578125,-12.3211669921875,-71.202392578125,74.6246337890625
1758180364.3024814,0.94091796875,-0.07373046875,0.31396484375,-0.1220703125,-0.42724609375,0.3662109375,-12.337646484375,-71.2078857421875,74.6356201171875
1758180364.3121908,0.94091796875,-0.07373046875,0.31396484375,-0.1220703125,-0.42724609375,0.3662109375,-12.3486328125,-71.2078857421875,74.64111328125
1758180364.3220263,0.943359375,-0.07080078125,0.310546875,-0.30517578125,-0.42724609375,0.30517578125,-12.3651123046875,-71.21337890625,74.6466064453125
1758180364.3323622,0.943359375,-0.07080078125,0.310546875,-0.30517578125,-0.42724609375,0.30517578125,-12.381591796875,-71.2188720703125,74.6575927734375
1758180364.3424659,0.94873046875,-0.068359375,0.31591796875,-0.244140625,-0.3662109375,0.30517578125,-12.3980712890625,-71.2188720703125,74.6630859375
1758180364.3520477,0.94873046875,-0.068359375,0.31591796875,-0.244140625,-0.3662109375,0.30517578125,-12.4090576171875,-71.224365234375,74.6630859375
1758180364.3620164,0.94970703125,-0.0693359375,0.3173828125,-0.18310546875,-0.3662109375,0.42724609375,-12.425537109375,-71.224365234375,74.6685791015625
1758180364.372298,0.94921875,-0.0703125,0.31396484375,-0.732421875,-0.3662109375,0.48828125,-12.447509765625,-71.224365234375,74.6795654296875
1758180364.3824253,0.94921875,-0.0703125,0.31396484375,-0.732421875,-0.3662109375,0.48828125,-12.469482421875,-71.2298583984375,74.68505859375
1758180364.392164,0.9482421875,-0.0712890625,0.31591796875,-0.6103515625,-0.30517578125,0.54931640625,-12.491455078125,-71.2298583984375,74.6905517578125
1758180364.4026628,0.9482421875,-0.0712890625,0.31591796875,-0.6103515625,-0.30517578125,0.54931640625,-12.5189208984375,-71.2298583984375,74.7015380859375
1758180364.4122698,0.94921875,-0.072265625,0.3154296875,-0.18310546875,-0.18310546875,0.6103515625,-12.5408935546875,-71.2353515625,74.70703125
1758180364.422392,0.94921875,-0.072265625,0.3154296875,-0.18310546875,-0.18310546875,0.6103515625,-12.557373046875,-71.2353515625,74.718017578125
1758180364.4325092,0.94580078125,-0.07080078125,0.31494140625,-0.48828125,-0.06103515625,0.67138671875,-12.5848388671875,-71.2353515625,74.72900390625
1758180364.4425452,0.94580078125,-0.07080078125,0.31494140625,-0.48828125,-0.06103515625,0.67138671875,-12.6068115234375,-71.2298583984375,74.739990234375
1758180364.4521418,0.9423828125,-0.0712890625,0.31005859375,-0.3662109375,0.0,0.732421875,-12.6287841796875,-71.2298583984375,74.7509765625
1758180364.4623842,0.9423828125,-0.0712890625,0.31005859375,-0.3662109375,0.0,0.732421875,-12.65625,-71.2298583984375,74.7674560546875
1758180364.4728115,0.94384765625,-0.0732421875,0.31591796875,0.0,0.06103515625,0.67138671875,-12.67822265625,-71.224365234375,74.7784423828125
1758180364.4824035,0.94384765625,-0.0732421875,0.31591796875,0.0,0.06103515625,0.67138671875,-12.6947021484375,-71.224365234375,74.7894287109375
1758180364.4925175,0.9384765625,-0.072265625,0.3134765625,0.1220703125,0.1220703125,0.67138671875,-12.7166748046875,-71.2188720703125,74.8004150390625
1758180364.5026448,0.9384765625,-0.072265625,0.3134765625,0.1220703125,0.1220703125,0.67138671875,-12.733154296875,-71.2188720703125,74.8114013671875
1758180364.5128617,0.93701171875,-0.07080078125,0.30810546875,-0.42724609375,0.18310546875,0.79345703125,-12.755126953125,-71.21337890625,74.827880859375
1758180364.52227,0.93701171875,-0.07080078125,0.30810546875,-0.42724609375,0.18310546875,0.79345703125,-12.7825927734375,-71.21337890625,74.8388671875
1758180364.5351384,0.93701171875,-0.07080078125,0.30810546875,-0.8544921875,0.244140625,0.8544921875,-12.81005859375,-71.2078857421875,74.8553466796875
1758180364.5435088,0.9365234375,-0.0712890625,0.31201171875,-0.8544921875,0.244140625,0.8544921875,-12.8375244140625,-71.202392578125,74.871826171875
1758180364.552237,0.94140625,-0.07421875,0.3115234375,-0.48828125,0.244140625,0.8544921875,-12.8704833984375,-71.1968994140625,74.8883056640625
1758180364.5625255,0.94140625,-0.07421875,0.3115234375,-0.48828125,0.244140625,0.8544921875,-12.89794921875,-71.19140625,74.90478515625
1758180364.5728676,0.94775390625,-0.07470703125,0.314453125,-0.1220703125,0.42724609375,0.79345703125,-12.919921875,-71.19140625,74.9212646484375
1758180364.582574,0.94775390625,-0.07470703125,0.314453125,-0.1220703125,0.42724609375,0.79345703125,-12.94189453125,-71.180419921875,74.9322509765625
1758180364.592516,0.94921875,-0.07421875,0.31884765625,-0.18310546875,0.48828125,0.67138671875,-12.9638671875,-71.1749267578125,74.9432373046875
1758180364.6026716,0.94921875,-0.07421875,0.31884765625,-0.18310546875,0.48828125,0.67138671875,-12.9803466796875,-71.16943359375,74.9542236328125
1758180364.6123738,0.94970703125,-0.0732421875,0.314453125,-0.48828125,0.54931640625,0.54931640625,-12.996826171875,-71.1639404296875,74.959716796875
1758180364.622771,0.94970703125,-0.0732421875,0.314453125,-0.48828125,0.54931640625,0.54931640625,-13.0133056640625,-71.158447265625,74.9652099609375
1758180364.6353483,0.95361328125,-0.07275390625,0.31494140625,-0.06103515625,0.48828125,0.48828125,-13.02978515625,-71.1529541015625,74.9652099609375
1758180364.6430135,0.95361328125,-0.07275390625,0.31494140625,-0.06103515625,0.48828125,0.48828125,-13.040771484375,-71.1474609375,74.970703125
1758180364.652334,0.95703125,-0.07275390625,0.3193359375,-0.30517578125,0.30517578125,0.54931640625,-13.0572509765625,-71.1419677734375,74.9761962890625
1758180364.6626596,0.95703125,-0.07275390625,0.3193359375,-0.30517578125,0.30517578125,0.54931640625,-13.07373046875,-71.136474609375,74.981689453125
1758180364.6731317,0.95849609375,-0.07470703125,0.31982421875,-0.6103515625,0.30517578125,0.54931640625,-13.0902099609375,-71.1309814453125,74.9871826171875
1758180364.682734,0.95849609375,-0.07470703125,0.31982421875,-0.6103515625,0.30517578125,0.54931640625,-13.106689453125,-71.1309814453125,74.99267578125
1758180364.6927152,0.96142578125,-0.07861328125,0.32275390625,0.0,0.18310546875,0.42724609375,-13.1231689453125,-71.12548828125,74.9981689453125
1758180364.7037022,0.96142578125,-0.07861328125,0.32275390625,0.0,0.18310546875,0.42724609375,-13.1341552734375,-71.1199951171875,74.9981689453125
1758180364.7124643,0.95849609375,-0.0771484375,0.31396484375,0.18310546875,0.06103515625,0.3662109375,-13.1451416015625,-71.1199951171875,75.003662109375
1758180364.7228045,0.95849609375,-0.0771484375,0.31396484375,0.18310546875,0.06103515625,0.3662109375,-13.150634765625,-71.1199951171875,75.0091552734375
1758180364.7329836,0.9560546875,-0.07421875,0.318359375,0.244140625,0.0,0.42724609375,-13.16162109375,-71.1199951171875,75.0146484375
1758180364.743718,0.9560546875,-0.07421875,0.318359375,0.244140625,0.0,0.42724609375,-13.172607421875,-71.114501953125,75.0201416015625
1758180364.7524877,0.951171875,-0.07470703125,0.3193359375,0.0,-0.1220703125,0.48828125,-13.18359375,-71.114501953125,75.025634765625
1758180364.7627795,0.951171875,-0.07470703125,0.3193359375,0.0,-0.1220703125,0.48828125,-13.2000732421875,-71.114501953125,75.03662109375
1758180364.773087,0.94677734375,-0.0751953125,0.31005859375,0.0,-0.18310546875,0.6103515625,-13.216552734375,-71.114501953125,75.047607421875
1758180364.7827847,0.94677734375,-0.0751953125,0.31005859375,0.0,-0.18310546875,0.6103515625,-13.238525390625,-71.1199951171875,75.05859375
1758180364.7927268,0.943359375,-0.07421875,0.314453125,0.1220703125,-0.244140625,0.732421875,-13.2550048828125,-71.1199951171875,75.0750732421875
1758180364.802907,0.943359375,-0.07421875,0.314453125,0.1220703125,-0.244140625,0.732421875,-13.2769775390625,-71.1199951171875,75.091552734375
1758180364.8126328,0.94189453125,-0.076171875,0.31298828125,0.0,-0.3662109375,0.8544921875,-13.2989501953125,-71.1199951171875,75.1080322265625
1758180364.8228273,0.94189453125,-0.076171875,0.31298828125,0.0,-0.3662109375,0.8544921875,-13.326416015625,-71.1199951171875,75.1300048828125
1758180364.8328657,0.93798828125,-0.0771484375,0.3125,0.0,-0.42724609375,0.8544921875,-13.3538818359375,-71.12548828125,75.146484375
1758180364.8428872,0.93798828125,-0.0771484375,0.3125,0.0,-0.42724609375,0.8544921875,-13.38134765625,-71.12548828125,75.16845703125
1758180364.8525493,0.9375,-0.0869140625,0.31201171875,0.48828125,-0.3662109375,0.79345703125,-13.4088134765625,-71.1309814453125,75.1849365234375
1758180364.8628447,0.9375,-0.0869140625,0.31201171875,0.48828125,-0.3662109375,0.79345703125,-13.4307861328125,-71.1309814453125,75.2069091796875
1758180364.8733299,0.94140625,-0.07568359375,0.310546875,0.6103515625,-0.18310546875,0.79345703125,-13.4527587890625,-71.1309814453125,75.2288818359375
1758180364.8829417,0.94140625,-0.07568359375,0.310546875,0.6103515625,-0.18310546875,0.79345703125,-13.46923828125,-71.1309814453125,75.245361328125
1758180364.8929195,0.9423828125,-0.07275390625,0.314453125,0.54931640625,-0.06103515625,0.8544921875,-13.4912109375,-71.1309814453125,75.267333984375
1758180364.9031272,0.9423828125,-0.07275390625,0.314453125,0.54931640625,-0.06103515625,0.8544921875,-13.51318359375,-71.1309814453125,75.2838134765625
1758180364.9127176,0.94189453125,-0.0712890625,0.31689453125,-0.06103515625,-0.06103515625,0.8544921875,-13.53515625,-71.12548828125,75.30029296875
1758180364.9230294,0.94189453125,-0.0712890625,0.31689453125,-0.06103515625,-0.06103515625,0.8544921875,-13.5626220703125,-71.12548828125,75.3167724609375
1758180364.932925,0.9443359375,-0.0751953125,0.31103515625,0.06103515625,-0.06103515625,0.732421875,-13.5845947265625,-71.12548828125,75.3277587890625
1758180364.9430742,0.9443359375,-0.0751953125,0.31103515625,0.06103515625,-0.06103515625,0.732421875,-13.60107421875,-71.12548828125,75.3387451171875
1758180364.9526954,0.94287109375,-0.080078125,0.3125,0.54931640625,-0.06103515625,0.6103515625,-13.6175537109375,-71.1199951171875,75.3497314453125
1758180364.9629607,0.94287109375,-0.080078125,0.3125,0.54931640625,-0.06103515625,0.6103515625,-13.6285400390625,-71.1199951171875,75.3607177734375
1758180364.973379,0.94091796875,-0.0830078125,0.31103515625,1.220703125,-0.06103515625,0.54931640625,-13.6395263671875,-71.1199951171875,75.3662109375
1758180364.9830282,0.94091796875,-0.0830078125,0.31103515625,1.220703125,-0.06103515625,0.54931640625,-13.64501953125,-71.1199951171875,75.377197265625
1758180364.9927845,0.94091796875,-0.0771484375,0.31396484375,1.0986328125,-0.1220703125,0.54931640625,-13.6505126953125,-71.1199951171875,75.38818359375
1758180365.0032399,0.94091796875,-0.0771484375,0.31396484375,1.0986328125,-0.1220703125,0.54931640625,-13.656005859375,-71.1199951171875,75.3936767578125
1758180365.012795,0.9453125,-0.07568359375,0.31591796875,0.42724609375,-0.1220703125,0.6103515625,-13.6669921875,-71.1199951171875,75.4046630859375
1758180365.023166,0.9453125,-0.07568359375,0.31591796875,0.42724609375,-0.1220703125,0.6103515625,-13.6834716796875,-71.1199951171875,75.421142578125
1758180365.033368,0.94482421875,-0.07177734375,0.3125,0.244140625,-0.06103515625,0.67138671875,-13.699951171875,-71.1199951171875,75.4266357421875
1758180365.0432503,0.94482421875,-0.07177734375,0.3125,0.244140625,-0.06103515625,0.67138671875,-13.7164306640625,-71.114501953125,75.4376220703125
1758180365.0527961,0.94091796875,-0.0751953125,0.31298828125,-0.18310546875,0.0,0.8544921875,-13.7384033203125,-71.114501953125,75.4541015625
1758180365.0631638,0.94091796875,-0.0751953125,0.31298828125,-0.18310546875,0.0,0.8544921875,-13.7603759765625,-71.114501953125,75.4705810546875
1758180365.073538,0.93994140625,-0.080078125,0.31005859375,-0.42724609375,0.0,0.8544921875,-13.787841796875,-71.1090087890625,75.487060546875
1758180365.0831404,0.93994140625,-0.080078125,0.31005859375,-0.42724609375,0.0,0.8544921875,-13.8153076171875,-71.1090087890625,75.5035400390625
1758180365.0929012,0.9462890625,-0.0810546875,0.31396484375,0.244140625,-0.06103515625,0.67138671875,-13.8372802734375,-71.1090087890625,75.5145263671875
1758180365.1035635,0.9462890625,-0.0810546875,0.31396484375,0.244140625,-0.06103515625,0.67138671875,-13.853759765625,-71.1090087890625,75.531005859375
1758180365.1129231,0.953125,-0.080078125,0.3193359375,0.6103515625,0.0,0.54931640625,-13.8702392578125,-71.103515625,75.5364990234375
1758180365.1231935,0.953125,-0.080078125,0.3193359375,0.6103515625,0.0,0.54931640625,-13.8812255859375,-71.103515625,75.5419921875
1758180365.1332123,0.951171875,-0.0791015625,0.314453125,0.79345703125,-0.06103515625,0.42724609375,-13.88671875,-71.103515625,75.5474853515625
1758180365.143346,0.951171875,-0.0791015625,0.314453125,0.79345703125,-0.06103515625,0.42724609375,-13.8922119140625,-71.103515625,75.5474853515625
1758180365.153711,0.95068359375,-0.078125,0.3125,0.8544921875,-0.1220703125,0.42724609375,-13.897705078125,-71.103515625,75.552978515625
1758180365.16325,0.95068359375,-0.078125,0.3125,0.8544921875,-0.1220703125,0.42724609375,-13.9031982421875,-71.103515625,75.552978515625
1758180365.1736877,0.953125,-0.080078125,0.3173828125,1.3427734375,-0.1220703125,0.48828125,-13.9031982421875,-71.103515625,75.5584716796875
1758180365.1833243,0.953125,-0.080078125,0.3173828125,1.3427734375,-0.1220703125,0.48828125,-13.90869140625,-71.103515625,75.56396484375
1758180365.1932292,0.95166015625,-0.076171875,0.3125,1.3427734375,-0.18310546875,0.48828125,-13.90869140625,-71.103515625,75.574951171875
1758180365.2036428,0.95166015625,-0.076171875,0.3125,1.3427734375,-0.18310546875,0.48828125,-13.9141845703125,-71.103515625,75.5804443359375
1758180365.2130735,0.95361328125,-0.0771484375,0.31640625,1.0986328125,-0.244140625,0.48828125,-13.9141845703125,-71.103515625,75.5859375
1758180365.2233589,0.95361328125,-0.0771484375,0.31640625,1.0986328125,-0.244140625,0.48828125,-13.919677734375,-71.1090087890625,75.596923828125
1758180365.2334447,0.95166015625,-0.08203125,0.322265625,0.79345703125,-0.244140625,0.42724609375,-13.9251708984375,-71.1090087890625,75.6024169921875
1758180365.2434921,0.95166015625,-0.08203125,0.322265625,0.79345703125,-0.244140625,0.42724609375,-13.9306640625,-71.1090087890625,75.60791015625
1758180365.2529938,0.94921875,-0.08154296875,0.3115234375,0.48828125,-0.30517578125,0.30517578125,-13.9361572265625,-71.114501953125,75.60791015625
1758180365.2634068,0.94921875,-0.08154296875,0.3115234375,0.48828125,-0.30517578125,0.30517578125,-13.941650390625,-71.114501953125,75.6134033203125
1758180365.273792,0.94873046875,-0.0830078125,0.3125,1.708984375,-0.3662109375,0.18310546875,-13.941650390625,-71.114501953125,75.6134033203125
1758180365.2834191,0.94873046875,-0.0830078125,0.3125,1.708984375,-0.3662109375,0.18310546875,-13.9361572265625,-71.1199951171875,75.618896484375
1758180365.2932491,0.943359375,-0.08056640625,0.3173828125,1.8310546875,-0.42724609375,0.1220703125,-13.9251708984375,-71.12548828125,75.618896484375
1758180365.3039718,0.943359375,-0.08056640625,0.3173828125,1.8310546875,-0.42724609375,0.1220703125,-13.919677734375,-71.12548828125,75.618896484375
1758180365.3132997,0.94091796875,-0.076171875,0.30615234375,1.28173828125,-0.48828125,0.1220703125,-13.90869140625,-71.1309814453125,75.618896484375
1758180365.323502,0.94091796875,-0.076171875,0.30615234375,1.28173828125,-0.48828125,0.1220703125,-13.90869140625,-71.136474609375,75.618896484375
1758180365.3335812,0.94384765625,-0.07861328125,0.31298828125,1.3427734375,-0.42724609375,0.244140625,-13.9031982421875,-71.136474609375,75.618896484375
1758180365.3434885,0.94384765625,-0.07861328125,0.31298828125,1.3427734375,-0.42724609375,0.244140625,-13.9031982421875,-71.1419677734375,75.6243896484375
1758180365.353133,0.94677734375,-0.08251953125,0.31640625,1.64794921875,-0.3662109375,0.18310546875,-13.897705078125,-71.1474609375,75.6243896484375
1758180365.3634527,0.94677734375,-0.08251953125,0.31640625,1.64794921875,-0.3662109375,0.18310546875,-13.8922119140625,-71.1474609375,75.6298828125
1758180365.3738337,0.94384765625,-0.07080078125,0.3173828125,0.8544921875,-0.3662109375,0.244140625,-13.88671875,-71.1529541015625,75.6298828125
1758180365.3834589,0.94384765625,-0.07080078125,0.3173828125,0.8544921875,-0.3662109375,0.244140625,-13.8922119140625,-71.1529541015625,75.6298828125
1758180365.3932223,0.93994140625,-0.07763671875,0.306640625,0.67138671875,-0.30517578125,0.30517578125,-13.8922119140625,-71.158447265625,75.6298828125
1758180365.4038453,0.93994140625,-0.07763671875,0.306640625,0.67138671875,-0.30517578125,0.30517578125,-13.897705078125,-71.158447265625,75.6353759765625
1758180365.413229,0.94287109375,-0.0810546875,0.314453125,1.15966796875,-0.18310546875,0.244140625,-13.897705078125,-71.158447265625,75.6353759765625
1758180365.4236333,0.94287109375,-0.0810546875,0.314453125,1.15966796875,-0.18310546875,0.244140625,-13.8922119140625,-71.158447265625,75.6353759765625
1758180365.4338017,0.94287109375,-0.08447265625,0.3125,1.46484375,-0.18310546875,0.18310546875,-13.88671875,-71.1639404296875,75.6353759765625
1758180365.4440148,0.94287109375,-0.08447265625,0.3125,1.46484375,-0.18310546875,0.18310546875,-13.8812255859375,-71.1639404296875,75.6353759765625
1758180365.453295,0.943359375,-0.07958984375,0.30810546875,1.52587890625,-0.18310546875,0.18310546875,-13.875732421875,-71.1639404296875,75.640869140625
1758180365.463573,0.943359375,-0.07958984375,0.30810546875,1.52587890625,-0.18310546875,0.18310546875,-13.8702392578125,-71.1639404296875,75.640869140625
1758180365.4739153,0.9453125,-0.07275390625,0.3173828125,1.0986328125,-0.244140625,0.18310546875,-13.86474609375,-71.1639404296875,75.640869140625
1758180365.4835718,0.9453125,-0.07275390625,0.3173828125,1.0986328125,-0.244140625,0.18310546875,-13.86474609375,-71.16943359375,75.640869140625
1758180365.493435,0.939453125,-0.0751953125,0.30810546875,1.03759765625,-0.42724609375,0.3662109375,-13.86474609375,-71.16943359375,75.6463623046875
1758180365.5042598,0.939453125,-0.0751953125,0.30810546875,1.03759765625,-0.42724609375,0.3662109375,-13.8702392578125,-71.1749267578125,75.65185546875
1758180365.5136056,0.9375,-0.08447265625,0.3037109375,1.0986328125,-0.54931640625,0.6103515625,-13.8812255859375,-71.180419921875,75.662841796875
1758180365.5235975,0.9375,-0.08447265625,0.3037109375,1.0986328125,-0.54931640625,0.6103515625,-13.8922119140625,-71.180419921875,75.6793212890625
1758180365.5338268,0.9462890625,-0.0849609375,0.31298828125,0.8544921875,-0.54931640625,0.67138671875,-13.9141845703125,-71.1859130859375,75.7012939453125
1758180365.5437908,0.9462890625,-0.0849609375,0.31298828125,0.8544921875,-0.54931640625,0.67138671875,-13.9306640625,-71.19140625,75.7177734375
1758180365.553418,0.95166015625,-0.0791015625,0.318359375,0.48828125,-0.48828125,0.79345703125,-13.95263671875,-71.19140625,75.7452392578125
1758180365.563677,0.95166015625,-0.0791015625,0.318359375,0.48828125,-0.48828125,0.79345703125,-13.974609375,-71.1968994140625,75.7672119140625
1758180365.5739539,0.951171875,-0.07568359375,0.31787109375,0.0,-0.48828125,0.8544921875,-14.007568359375,-71.1968994140625,75.78369140625
1758180365.583713,0.951171875,-0.07568359375,0.31787109375,0.0,-0.48828125,0.8544921875,-14.0350341796875,-71.1968994140625,75.8056640625
1758180365.5936167,0.94921875,-0.07861328125,0.3056640625,0.0,-0.3662109375,0.91552734375,-14.0625,-71.202392578125,75.82763671875
1758180365.604047,0.94921875,-0.07861328125,0.3056640625,0.0,-0.3662109375,0.91552734375,-14.095458984375,-71.202392578125,75.849609375
1758180365.6135032,0.953125,-0.0849609375,0.31640625,0.732421875,-0.244140625,0.9765625,-14.117431640625,-71.202392578125,75.87158203125
1758180365.6238217,0.953125,-0.0849609375,0.31640625,0.732421875,-0.244140625,0.9765625,-14.139404296875,-71.202392578125,75.8935546875
1758180365.6338315,0.9482421875,-0.0830078125,0.31689453125,0.54931640625,-0.244140625,0.9765625,-14.1668701171875,-71.202392578125,75.91552734375
1758180365.6437826,0.9482421875,-0.0830078125,0.31689453125,0.54931640625,-0.244140625,0.9765625,-14.1888427734375,-71.202392578125,75.9375
1758180365.653463,0.9453125,-0.078125,0.306640625,0.42724609375,-0.244140625,0.91552734375,-14.21630859375,-71.202392578125,75.95947265625
1758180365.6637414,0.9453125,-0.078125,0.306640625,0.42724609375,-0.244140625,0.91552734375,-14.23828125,-71.202392578125,75.9759521484375
1758180365.6741676,0.95166015625,-0.08056640625,0.3134765625,1.15966796875,-0.18310546875,0.8544921875,-14.2547607421875,-71.202392578125,75.992431640625
1758180365.683784,0.95166015625,-0.08056640625,0.3134765625,1.15966796875,-0.18310546875,0.8544921875,-14.271240234375,-71.202392578125,76.014404296875
1758180365.693604,0.94921875,-0.0810546875,0.31640625,1.220703125,-0.30517578125,0.67138671875,-14.2822265625,-71.202392578125,76.025390625
1758180365.7041576,0.94921875,-0.0810546875,0.31640625,1.220703125,-0.30517578125,0.67138671875,-14.2877197265625,-71.202392578125,76.0418701171875
1758180365.7136188,0.94384765625,-0.07763671875,0.306640625,1.0986328125,-0.54931640625,0.48828125,-14.2987060546875,-71.2078857421875,76.04736328125
1758180365.723802,0.94384765625,-0.07763671875,0.306640625,1.0986328125,-0.54931640625,0.48828125,-14.30419921875,-71.2078857421875,76.058349609375
1758180365.733948,0.9453125,-0.07958984375,0.306640625,1.77001953125,-0.67138671875,0.42724609375,-14.30419921875,-71.21337890625,76.0693359375
1758180365.7437918,0.9453125,-0.07958984375,0.306640625,1.77001953125,-0.67138671875,0.42724609375,-14.30419921875,-71.224365234375,76.080322265625
1758180365.7537062,0.95556640625,-0.08447265625,0.31787109375,2.3193359375,-0.54931640625,0.48828125,-14.2987060546875,-71.224365234375,76.09130859375
1758180365.7637436,0.95556640625,-0.08447265625,0.31787109375,2.3193359375,-0.54931640625,0.48828125,-14.2987060546875,-71.2298583984375,76.102294921875
1758180365.774713,0.9541015625,-0.07666015625,0.318359375,1.28173828125,-0.54931640625,0.48828125,-14.30419921875,-71.2353515625,76.1077880859375
1758180365.783722,0.9541015625,-0.07666015625,0.318359375,1.28173828125,-0.54931640625,0.48828125,-14.3096923828125,-71.2353515625,76.1187744140625
1758180365.7939925,0.94189453125,-0.07373046875,0.30712890625,0.79345703125,-0.42724609375,0.48828125,-14.315185546875,-71.2408447265625,76.124267578125
1758180365.804064,0.94189453125,-0.07373046875,0.30712890625,0.79345703125,-0.42724609375,0.48828125,-14.326171875,-71.2408447265625,76.13525390625
1758180365.8137088,0.9375,-0.078125,0.30810546875,1.0986328125,-0.3662109375,0.48828125,-14.326171875,-71.246337890625,76.1407470703125
1758180365.8237922,0.9375,-0.078125,0.30810546875,1.0986328125,-0.3662109375,0.48828125,-14.3316650390625,-71.246337890625,76.146240234375
1758180365.8336763,0.9375,-0.08544921875,0.31201171875,1.15966796875,-0.30517578125,0.6103515625,-14.3426513671875,-71.2518310546875,76.1572265625
1758180365.844329,0.9375,-0.08544921875,0.31201171875,1.15966796875,-0.30517578125,0.6103515625,-14.34814453125,-71.2518310546875,76.168212890625
1758180365.8536932,0.9345703125,-0.083984375,0.3037109375,0.18310546875,-0.18310546875,0.67138671875,-14.3701171875,-71.2518310546875,76.17919921875
1758180365.8639975,0.9345703125,-0.083984375,0.3037109375,0.18310546875,-0.18310546875,0.67138671875,-14.3865966796875,-71.2518310546875,76.1956787109375
1758180365.874826,0.94775390625,-0.0791015625,0.31640625,-0.18310546875,-0.1220703125,0.79345703125,-14.4140625,-71.2518310546875,76.212158203125
1758180365.8837476,0.94775390625,-0.0791015625,0.31640625,-0.18310546875,-0.1220703125,0.79345703125,-14.4415283203125,-71.246337890625,76.2286376953125
1758180365.8940487,0.94287109375,-0.07763671875,0.3076171875,-0.54931640625,-0.06103515625,0.91552734375,-14.4744873046875,-71.246337890625,76.2451171875
1758180365.9041774,0.94287109375,-0.07763671875,0.3076171875,-0.54931640625,-0.06103515625,0.91552734375,-14.501953125,-71.246337890625,76.2615966796875
1758180365.913851,0.9482421875,-0.08154296875,0.3115234375,-1.03759765625,0.06103515625,0.9765625,-14.5404052734375,-71.2408447265625,76.2725830078125
1758180365.923819,0.9482421875,-0.08154296875,0.3115234375,-1.03759765625,0.06103515625,0.9765625,-14.578857421875,-71.2408447265625,76.2945556640625
1758180365.9337373,0.951171875,-0.0859375,0.31494140625,-0.9765625,0.1220703125,0.9765625,-14.61181640625,-71.2353515625,76.31103515625
1758180365.9444404,0.951171875,-0.0859375,0.31494140625,-0.9765625,0.1220703125,0.9765625,-14.6502685546875,-71.2298583984375,76.3275146484375
1758180365.9538548,0.9541015625,-0.0869140625,0.314453125,-0.244140625,0.30517578125,0.8544921875,-14.677734375,-71.224365234375,76.3385009765625
1758180365.9640384,0.9541015625,-0.0869140625,0.314453125,-0.244140625,0.30517578125,0.8544921875,-14.69970703125,-71.2188720703125,76.35498046875
1758180365.974891,0.9443359375,-0.08251953125,0.31298828125,-0.18310546875,0.3662109375,0.8544921875,-14.7216796875,-71.21337890625,76.365966796875
1758180365.9838958,0.9443359375,-0.08251953125,0.31298828125,-0.18310546875,0.3662109375,0.8544921875,-14.7491455078125,-71.2078857421875,76.3824462890625
1758180365.9940538,0.9365234375,-0.0810546875,0.3046875,-0.91552734375,0.3662109375,0.9765625,-14.7821044921875,-71.202392578125,76.39892578125
1758180366.0042279,0.9365234375,-0.0810546875,0.3046875,-0.91552734375,0.3662109375,0.9765625,-14.8150634765625,-71.1968994140625,76.4154052734375
1758180366.0139413,0.94140625,-0.0849609375,0.3076171875,-1.15966796875,0.48828125,1.15966796875,-14.853515625,-71.1859130859375,76.4373779296875
1758180366.0239706,0.94140625,-0.0849609375,0.3076171875,-1.15966796875,0.48828125,1.15966796875,-14.8974609375,-71.180419921875,76.4593505859375
1758180366.0338957,0.94482421875,-0.08984375,0.3154296875,-0.732421875,0.67138671875,1.220703125,-14.9359130859375,-71.16943359375,76.4813232421875
1758180366.045379,0.94482421875,-0.08984375,0.3154296875,-0.732421875,0.67138671875,1.220703125,-14.974365234375,-71.1639404296875,76.5087890625
1758180366.0539427,0.94384765625,-0.0888671875,0.31103515625,-0.244140625,0.8544921875,1.15966796875,-15.0018310546875,-71.1474609375,76.53076171875
1758180366.0640688,0.94384765625,-0.0888671875,0.31103515625,-0.244140625,0.8544921875,1.15966796875,-15.029296875,-71.136474609375,76.552734375
1758180366.0751421,0.94091796875,-0.08349609375,0.3095703125,0.1220703125,0.91552734375,1.03759765625,-15.0567626953125,-71.12548828125,76.5692138671875
1758180366.0839698,0.94091796875,-0.08349609375,0.3095703125,0.1220703125,0.91552734375,1.03759765625,-15.0787353515625,-71.114501953125,76.585693359375
1758180366.0940595,0.943359375,-0.0849609375,0.3115234375,0.8544921875,0.9765625,0.8544921875,-15.084228515625,-71.103515625,76.5911865234375
1758180366.1044853,0.943359375,-0.0849609375,0.3115234375,0.8544921875,0.9765625,0.8544921875,-15.09521484375,-71.092529296875,76.6021728515625
1758180366.1141725,0.947265625,-0.0908203125,0.31494140625,1.40380859375,1.0986328125,0.79345703125,-15.09521484375,-71.08154296875,76.607666015625
1758180366.1240752,0.947265625,-0.0908203125,0.31494140625,1.40380859375,1.0986328125,0.79345703125,-15.09521484375,-71.070556640625,76.61865234375
1758180366.1340122,0.951171875,-0.08251953125,0.314453125,0.18310546875,1.220703125,0.6103515625,-15.106201171875,-71.0540771484375,76.61865234375
1758180366.1446936,0.951171875,-0.08251953125,0.314453125,0.18310546875,1.220703125,0.6103515625,-15.1116943359375,-71.0430908203125,76.61865234375
1758180366.15402,0.955078125,-0.07568359375,0.31640625,-0.244140625,1.15966796875,0.54931640625,-15.1226806640625,-71.0321044921875,76.61865234375
1758180366.1645846,0.955078125,-0.07568359375,0.31640625,-0.244140625,1.15966796875,0.54931640625,-15.128173828125,-71.015625,76.6131591796875
1758180366.1751404,0.95751953125,-0.08447265625,0.32177734375,-0.244140625,1.28173828125,0.42724609375,-15.1336669921875,-71.004638671875,76.607666015625
1758180366.1840386,0.95751953125,-0.08447265625,0.32177734375,-0.244140625,1.28173828125,0.42724609375,-15.1336669921875,-70.99365234375,76.5966796875
1758180366.1947365,0.95361328125,-0.0908203125,0.31787109375,-0.18310546875,1.3427734375,0.244140625,-15.1336669921875,-70.9771728515625,76.585693359375
1758180366.2043693,0.95361328125,-0.0908203125,0.31787109375,-0.18310546875,1.3427734375,0.244140625,-15.1336669921875,-70.9661865234375,76.5692138671875
1758180366.21416,0.951171875,-0.09423828125,0.31640625,0.67138671875,1.40380859375,0.1220703125,-15.1171875,-70.94970703125,76.5582275390625
1758180366.2242455,0.951171875,-0.09423828125,0.31640625,0.67138671875,1.40380859375,0.1220703125,-15.106201171875,-70.938720703125,76.541748046875
1758180366.2341583,0.94482421875,-0.0869140625,0.3154296875,0.54931640625,1.28173828125,0.06103515625,-15.09521484375,-70.927734375,76.5252685546875
1758180366.2447531,0.94482421875,-0.0869140625,0.3154296875,0.54931640625,1.28173828125,0.06103515625,-15.084228515625,-70.916748046875,76.5087890625
1758180366.254174,0.94091796875,-0.0810546875,0.3115234375,0.30517578125,1.0986328125,0.18310546875,-15.0787353515625,-70.90576171875,76.497802734375
1758180366.264431,0.94091796875,-0.0810546875,0.3115234375,0.30517578125,1.0986328125,0.18310546875,-15.0732421875,-70.894775390625,76.48681640625
1758180366.275316,0.94921875,-0.08642578125,0.3173828125,-0.06103515625,1.0986328125,0.3662109375,-15.0732421875,-70.8837890625,76.4813232421875
1758180366.2841973,0.94921875,-0.08642578125,0.3173828125,-0.06103515625,1.0986328125,0.3662109375,-15.0787353515625,-70.872802734375,76.475830078125
1758180366.2948937,0.9453125,-0.08984375,0.31982421875,-0.54931640625,1.220703125,0.48828125,-15.0897216796875,-70.8563232421875,76.4703369140625
1758180366.3044372,0.9453125,-0.08984375,0.31982421875,-0.54931640625,1.220703125,0.48828125,-15.1007080078125,-70.8453369140625,76.4703369140625
1758180366.3142672,0.9423828125,-0.08984375,0.31298828125,-0.06103515625,1.220703125,0.54931640625,-15.1116943359375,-70.8343505859375,76.4703369140625
1758180366.324272,0.9423828125,-0.08984375,0.31298828125,-0.06103515625,1.220703125,0.54931640625,-15.1171875,-70.8233642578125,76.4703369140625
1758180366.334234,0.939453125,-0.08984375,0.31494140625,-0.18310546875,1.0986328125,0.732421875,-15.1336669921875,-70.806884765625,76.475830078125
1758180366.3456774,0.939453125,-0.08984375,0.31494140625,-0.18310546875,1.0986328125,0.732421875,-15.150146484375,-70.7958984375,76.4813232421875
1758180366.354327,0.93896484375,-0.08740234375,0.3154296875,-0.79345703125,1.03759765625,0.91552734375,-15.1776123046875,-70.784912109375,76.497802734375
1758180366.3646543,0.93896484375,-0.08740234375,0.3154296875,-0.79345703125,1.03759765625,0.91552734375,-15.205078125,-70.77392578125,76.5087890625
1758180366.3752706,0.94091796875,-0.0888671875,0.3134765625,-0.6103515625,0.91552734375,1.03759765625,-15.2325439453125,-70.762939453125,76.53076171875
1758180366.3843122,0.94091796875,-0.0888671875,0.3134765625,-0.6103515625,0.91552734375,1.03759765625,-15.2655029296875,-70.751953125,76.5472412109375
1758180366.394873,0.94189453125,-0.09228515625,0.31787109375,0.06103515625,0.79345703125,0.91552734375,-15.2874755859375,-70.740966796875,76.563720703125
1758180366.404576,0.94189453125,-0.09228515625,0.31787109375,0.06103515625,0.79345703125,0.91552734375,-15.303955078125,-70.7354736328125,76.5802001953125
1758180366.4147093,0.9404296875,-0.0908203125,0.31591796875,0.3662109375,0.6103515625,0.8544921875,-15.325927734375,-70.7244873046875,76.5966796875
1758180366.4243877,0.9404296875,-0.0908203125,0.31591796875,0.3662109375,0.6103515625,0.8544921875,-15.3424072265625,-70.718994140625,76.6131591796875
1758180366.4342933,0.93798828125,-0.0859375,0.31494140625,0.8544921875,0.42724609375,0.8544921875,-15.3533935546875,-70.7135009765625,76.629638671875
1758180366.4449294,0.93798828125,-0.0859375,0.31494140625,0.8544921875,0.42724609375,0.8544921875,-15.369873046875,-70.7080078125,76.6461181640625
1758180366.4543612,0.9423828125,-0.0947265625,0.31591796875,2.8076171875,0.42724609375,0.732421875,-15.35888671875,-70.7025146484375,76.66259765625
1758180366.4643965,0.95263671875,-0.10009765625,0.32568359375,3.72314453125,0.48828125,0.48828125,-15.3424072265625,-70.697021484375,76.673583984375
1758180366.4748025,0.95263671875,-0.10009765625,0.32568359375,3.72314453125,0.48828125,0.48828125,-15.3204345703125,-70.6915283203125,76.6845703125
1758180366.4843335,0.9609375,-0.0810546875,0.33154296875,0.8544921875,0.79345703125,0.42724609375,-15.3094482421875,-70.6805419921875,76.6900634765625
1758180366.4946406,0.9609375,-0.0810546875,0.33154296875,0.8544921875,0.79345703125,0.42724609375,-15.3094482421875,-70.675048828125,76.695556640625
1758180366.5044377,0.9541015625,-0.0654296875,0.32177734375,-1.64794921875,0.91552734375,0.42724609375,-15.3204345703125,-70.6640625,76.6900634765625
1758180366.514443,0.9541015625,-0.0654296875,0.32177734375,-1.64794921875,0.91552734375,0.42724609375,-15.3424072265625,-70.653076171875,76.6900634765625
1758180366.5248613,0.94921875,-0.0810546875,0.3212890625,-2.50244140625,1.0986328125,0.42724609375,-15.3643798828125,-70.64208984375,76.6790771484375
1758180366.534408,0.94921875,-0.0810546875,0.3212890625,-2.50244140625,1.0986328125,0.42724609375,-15.3863525390625,-70.631103515625,76.6680908203125
1758180366.545557,0.9462890625,-0.0986328125,0.32275390625,-2.25830078125,0.91552734375,0.244140625,-15.4083251953125,-70.6256103515625,76.651611328125
1758180366.554422,0.9462890625,-0.0986328125,0.32275390625,-2.25830078125,0.91552734375,0.244140625,-15.4302978515625,-70.6146240234375,76.640625
1758180366.565658,0.9443359375,-0.10400390625,0.31787109375,-0.3662109375,0.6103515625,0.0,-15.435791015625,-70.609130859375,76.6241455078125
1758180366.5747044,0.9443359375,-0.10400390625,0.31787109375,-0.3662109375,0.6103515625,0.0,-15.435791015625,-70.6036376953125,76.6131591796875
1758180366.584977,0.94775390625,-0.095703125,0.32177734375,0.79345703125,0.48828125,-0.244140625,-15.4302978515625,-70.59814453125,76.6021728515625
1758180366.5946658,0.94775390625,-0.095703125,0.32177734375,0.79345703125,0.48828125,-0.244140625,-15.413818359375,-70.5926513671875,76.5911865234375
1758180366.6056886,0.9462890625,-0.08251953125,0.32275390625,0.1220703125,0.42724609375,-0.244140625,-15.40283203125,-70.587158203125,76.5802001953125
1758180366.614561,0.9462890625,-0.08251953125,0.32275390625,0.1220703125,0.42724609375,-0.244140625,-15.391845703125,-70.587158203125,76.563720703125
1758180366.6252835,0.9482421875,-0.08154296875,0.3193359375,-0.732421875,0.42724609375,-0.06103515625,-15.3863525390625,-70.5816650390625,76.5472412109375
1758180366.6345553,0.9482421875,-0.08154296875,0.3193359375,-0.732421875,0.42724609375,-0.06103515625,-15.391845703125,-70.576171875,76.53076171875
1758180366.645584,0.9462890625,-0.0888671875,0.3232421875,-1.03759765625,0.54931640625,-0.1220703125,-15.391845703125,-70.576171875,76.5142822265625
1758180366.6545744,0.9462890625,-0.0888671875,0.3232421875,-1.03759765625,0.54931640625,-0.1220703125,-15.3973388671875,-70.5706787109375,76.4923095703125
1758180366.665154,0.9462890625,-0.0947265625,0.3193359375,-1.03759765625,0.48828125,-0.18310546875,-15.3973388671875,-70.565185546875,76.475830078125
1758180366.67497,0.9462890625,-0.0947265625,0.3193359375,-1.03759765625,0.48828125,-0.18310546875,-15.40283203125,-70.5596923828125,76.453857421875
1758180366.6851816,0.939453125,-0.0966796875,0.3193359375,-0.54931640625,0.244140625,-0.244140625,-15.40283203125,-70.5596923828125,76.4373779296875
1758180366.6948903,0.939453125,-0.0966796875,0.3193359375,-0.54931640625,0.244140625,-0.244140625,-15.40283203125,-70.5596923828125,76.4208984375
1758180366.7055352,0.94091796875,-0.09130859375,0.31591796875,0.0,0.0,-0.30517578125,-15.3973388671875,-70.5596923828125,76.4044189453125
1758180366.714651,0.94091796875,-0.09130859375,0.31591796875,0.0,0.0,-0.30517578125,-15.391845703125,-70.5596923828125,76.387939453125
1758180366.7246642,0.9443359375,-0.09130859375,0.32275390625,0.732421875,0.0,-0.30517578125,-15.380859375,-70.5596923828125,76.3714599609375
1758180366.7346818,0.9443359375,-0.09130859375,0.32275390625,0.732421875,0.0,-0.30517578125,-15.369873046875,-70.5596923828125,76.35498046875
1758180366.74514,0.94482421875,-0.0869140625,0.3251953125,0.06103515625,-0.06103515625,-0.30517578125,-15.35888671875,-70.5596923828125,76.3385009765625
1758180366.7550843,0.94482421875,-0.0869140625,0.3251953125,0.06103515625,-0.06103515625,-0.30517578125,-15.3533935546875,-70.565185546875,76.322021484375
1758180366.7647943,0.94482421875,-0.0869140625,0.3251953125,-0.48828125,-0.06103515625,-0.30517578125,-15.3533935546875,-70.565185546875,76.3055419921875
1758180366.7758553,0.939453125,-0.08544921875,0.31689453125,-0.48828125,-0.06103515625,-0.30517578125,-15.347900390625,-70.565185546875,76.2835693359375
1758180366.7846777,0.939453125,-0.0947265625,0.31884765625,0.30517578125,-0.06103515625,-0.30517578125,-15.3424072265625,-70.565185546875,76.2725830078125
1758180366.795335,0.939453125,-0.0947265625,0.31884765625,0.30517578125,-0.06103515625,-0.30517578125,-15.3369140625,-70.5706787109375,76.256103515625
1758180366.8058302,0.93798828125,-0.0966796875,0.32080078125,0.48828125,-0.1220703125,-0.3662109375,-15.325927734375,-70.5706787109375,76.2451171875
1758180366.814802,0.93798828125,-0.0966796875,0.32080078125,0.48828125,-0.1220703125,-0.3662109375,-15.31494140625,-70.5706787109375,76.2286376953125
1758180366.8247921,0.93994140625,-0.0859375,0.3193359375,0.0,-0.06103515625,-0.3662109375,-15.3094482421875,-70.576171875,76.2176513671875
1758180366.834794,0.93994140625,-0.0859375,0.3193359375,0.0,-0.06103515625,-0.3662109375,-15.2984619140625,-70.576171875,76.201171875
1758180366.845007,0.93994140625,-0.0849609375,0.3232421875,0.06103515625,0.06103515625,-0.42724609375,-15.29296875,-70.576171875,76.1846923828125
1758180366.8550131,0.93994140625,-0.0849609375,0.3232421875,0.06103515625,0.06103515625,-0.42724609375,-15.281982421875,-70.576171875,76.168212890625
1758180366.8648531,0.93896484375,-0.08935546875,0.32275390625,0.42724609375,0.3662109375,-0.48828125,-15.2655029296875,-70.576171875,76.146240234375
1758180366.875445,0.93896484375,-0.08935546875,0.32275390625,0.42724609375,0.3662109375,-0.48828125,-15.2490234375,-70.5706787109375,76.1187744140625
1758180366.8848283,0.9345703125,-0.09033203125,0.3193359375,0.18310546875,0.67138671875,-0.42724609375,-15.2325439453125,-70.5706787109375,76.09130859375
1758180366.895098,0.9345703125,-0.09033203125,0.3193359375,0.18310546875,0.67138671875,-0.42724609375,-15.216064453125,-70.565185546875,76.0638427734375
1758180366.9058783,0.93603515625,-0.0908203125,0.31982421875,-0.3662109375,0.9765625,-0.3662109375,-15.1995849609375,-70.55419921875,76.036376953125
1758180366.9148707,0.93603515625,-0.0908203125,0.31982421875,-0.3662109375,0.9765625,-0.3662109375,-15.1885986328125,-70.5487060546875,76.0089111328125
1758180366.9258063,0.9384765625,-0.08740234375,0.3251953125,-0.06103515625,1.220703125,-0.30517578125,-15.1776123046875,-70.5377197265625,75.9869384765625
1758180366.9350162,0.9384765625,-0.08740234375,0.3251953125,-0.06103515625,1.220703125,-0.30517578125,-15.1611328125,-70.5267333984375,75.95947265625
1758180366.945587,0.93994140625,-0.091796875,0.32421875,0.06103515625,1.46484375,-0.244140625,-15.150146484375,-70.51025390625,75.9375
1758180366.955151,0.93994140625,-0.091796875,0.32421875,0.06103515625,1.46484375,-0.244140625,-15.1336669921875,-70.499267578125,75.91552734375
1758180366.9651306,0.93701171875,-0.087890625,0.32470703125,-0.48828125,1.953125,-0.244140625,-15.1171875,-70.4827880859375,75.8880615234375
1758180366.9754434,0.93701171875,-0.087890625,0.32470703125,-0.48828125,1.953125,-0.244140625,-15.106201171875,-70.4608154296875,75.8660888671875
1758180366.9849486,0.93505859375,-0.08642578125,0.322265625,0.0,2.38037109375,-0.18310546875,-15.0897216796875,-70.4443359375,75.838623046875
1758180366.9955091,0.93505859375,-0.08642578125,0.322265625,0.0,2.38037109375,-0.18310546875,-15.0677490234375,-70.4168701171875,75.8111572265625
1758180367.0061069,0.93408203125,-0.09326171875,0.32177734375,0.0,2.50244140625,-0.18310546875,-15.0457763671875,-70.3948974609375,75.7781982421875
1758180367.0153937,0.93408203125,-0.09326171875,0.32177734375,0.0,2.50244140625,-0.18310546875,-15.029296875,-70.3729248046875,75.750732421875
1758180367.0252666,0.93896484375,-0.08984375,0.3251953125,-0.67138671875,2.38037109375,-0.244140625,-15.0128173828125,-70.3509521484375,75.7177734375
1758180367.035931,0.93896484375,-0.08984375,0.3251953125,-0.67138671875,2.38037109375,-0.244140625,-14.996337890625,-70.3289794921875,75.6903076171875
1758180367.0456595,0.9375,-0.08544921875,0.3232421875,-0.30517578125,2.197265625,-0.18310546875,-14.9798583984375,-70.3070068359375,75.662841796875
1758180367.0551805,0.9375,-0.08544921875,0.3232421875,-0.30517578125,2.197265625,-0.18310546875,-14.9688720703125,-70.2850341796875,75.6353759765625
1758180367.0653577,0.939453125,-0.0888671875,0.32568359375,-0.06103515625,2.0751953125,-0.06103515625,-14.952392578125,-70.2630615234375,75.60791015625
1758180367.0764487,0.939453125,-0.0888671875,0.32568359375,-0.06103515625,2.0751953125,-0.06103515625,-14.94140625,-70.24658203125,75.5859375
1758180367.0851235,0.94287109375,-0.091796875,0.32666015625,-0.3662109375,2.0751953125,-0.06103515625,-14.930419921875,-70.224609375,75.56396484375
1758180367.0955572,0.94287109375,-0.091796875,0.32666015625,-0.3662109375,2.0751953125,-0.06103515625,-14.91943359375,-70.2081298828125,75.5419921875
1758180367.1058073,0.94384765625,-0.09130859375,0.32861328125,-0.42724609375,1.89208984375,-0.06103515625,-14.908447265625,-70.1861572265625,75.52001953125
1758180367.1153033,0.94384765625,-0.09130859375,0.32861328125,-0.42724609375,1.89208984375,-0.06103515625,-14.9029541015625,-70.169677734375,75.498046875
1758180367.1253247,0.94384765625,-0.08837890625,0.3271484375,-0.1220703125,1.64794921875,0.0,-14.8919677734375,-70.1531982421875,75.4815673828125
1758180367.1354125,0.94384765625,-0.08837890625,0.3271484375,-0.1220703125,1.64794921875,0.0,-14.886474609375,-70.1422119140625,75.465087890625
1758180367.1456065,0.9443359375,-0.0927734375,0.32958984375,0.1220703125,1.40380859375,0.1220703125,-14.8809814453125,-70.125732421875,75.4541015625
1758180367.15545,0.9443359375,-0.0927734375,0.32958984375,0.1220703125,1.40380859375,0.1220703125,-14.87548828125,-70.11474609375,75.443115234375
1758180367.1651666,0.951171875,-0.0908203125,0.32958984375,-0.244140625,1.28173828125,0.1220703125,-14.87548828125,-70.0982666015625,75.43212890625
1758180367.175966,0.951171875,-0.0908203125,0.32958984375,-0.244140625,1.28173828125,0.1220703125,-14.87548828125,-70.0872802734375,75.421142578125
1758180367.1852217,0.9541015625,-0.0888671875,0.33740234375,-0.18310546875,1.15966796875,0.1220703125,-14.87548828125,-70.0762939453125,75.41015625
1758180367.1953146,0.9541015625,-0.0888671875,0.33740234375,-0.18310546875,1.15966796875,0.1220703125,-14.87548828125,-70.0653076171875,75.399169921875
1758180367.206013,0.95166015625,-0.08935546875,0.33447265625,0.42724609375,1.03759765625,0.06103515625,-14.8699951171875,-70.0543212890625,75.38818359375
1758180367.2153678,0.95166015625,-0.08935546875,0.33447265625,0.42724609375,1.03759765625,0.06103515625,-14.864501953125,-70.0433349609375,75.377197265625
1758180367.2252758,0.94873046875,-0.09033203125,0.33447265625,0.54931640625,0.79345703125,0.0,-14.853515625,-70.037841796875,75.3607177734375
1758180367.2354238,0.94873046875,-0.09033203125,0.33447265625,0.54931640625,0.79345703125,0.0,-14.8480224609375,-70.0323486328125,75.3497314453125
1758180367.2461846,0.939453125,-0.087890625,0.3271484375,1.220703125,0.67138671875,0.0,-14.83154296875,-70.0213623046875,75.3387451171875
1758180367.2555196,0.939453125,-0.087890625,0.3271484375,1.220703125,0.67138671875,0.0,-14.820556640625,-70.015869140625,75.3277587890625
1758180367.2655652,0.94091796875,-0.09326171875,0.330078125,1.3427734375,0.6103515625,0.0,-14.8040771484375,-70.0103759765625,75.3167724609375
1758180367.275853,0.94091796875,-0.09326171875,0.330078125,1.3427734375,0.6103515625,0.0,-14.78759765625,-70.0048828125,75.3057861328125
1758180367.2852669,0.9462890625,-0.0869140625,0.3330078125,0.06103515625,0.54931640625,0.0,-14.7821044921875,-69.9993896484375,75.2947998046875
1758180367.295459,0.9462890625,-0.0869140625,0.3330078125,0.06103515625,0.54931640625,0.0,-14.776611328125,-69.9993896484375,75.2838134765625
1758180367.3060603,0.94482421875,-0.07763671875,0.3359375,-0.06103515625,0.30517578125,0.1220703125,-14.7821044921875,-69.993896484375,75.2728271484375
1758180367.315456,0.94482421875,-0.07763671875,0.3359375,-0.06103515625,0.30517578125,0.1220703125,-14.7821044921875,-69.9884033203125,75.267333984375
1758180367.3254015,0.94189453125,-0.0849609375,0.32763671875,0.67138671875,0.18310546875,0.30517578125,-14.7821044921875,-69.9884033203125,75.25634765625
1758180367.335579,0.94189453125,-0.0849609375,0.32763671875,0.67138671875,0.18310546875,0.30517578125,-14.7821044921875,-69.98291015625,75.2508544921875
1758180367.345868,0.93359375,-0.0927734375,0.33349609375,-0.30517578125,0.06103515625,0.30517578125,-14.78759765625,-69.98291015625,75.245361328125
1758180367.3556266,0.93359375,-0.0927734375,0.33349609375,-0.30517578125,0.06103515625,0.30517578125,-14.798583984375,-69.98291015625,75.245361328125
1758180367.365364,0.9326171875,-0.0927734375,0.32958984375,-0.42724609375,0.0,0.18310546875,-14.8095703125,-69.98291015625,75.2398681640625
1758180367.3761258,0.9326171875,-0.0927734375,0.32958984375,-0.42724609375,0.0,0.18310546875,-14.820556640625,-69.98291015625,75.234375
1758180367.3854759,0.92724609375,-0.09423828125,0.32275390625,1.220703125,-0.18310546875,0.06103515625,-14.820556640625,-69.98291015625,75.2288818359375
1758180367.3955727,0.92724609375,-0.09423828125,0.32275390625,1.220703125,-0.18310546875,0.06103515625,-14.8150634765625,-69.98291015625,75.223388671875
1758180367.4057577,0.9287109375,-0.091796875,0.32666015625,1.3427734375,-0.3662109375,0.0,-14.8040771484375,-69.9884033203125,75.223388671875
1758180367.4155312,0.9287109375,-0.091796875,0.32666015625,1.3427734375,-0.3662109375,0.0,-14.798583984375,-69.9884033203125,75.2178955078125
1758180367.4255166,0.93408203125,-0.0849609375,0.32958984375,1.0986328125,-0.48828125,-0.06103515625,-14.7930908203125,-69.993896484375,75.21240234375
1758180367.4356709,0.93408203125,-0.0849609375,0.32958984375,1.0986328125,-0.48828125,-0.06103515625,-14.78759765625,-69.9993896484375,75.2069091796875
1758180367.4458833,0.9375,-0.08154296875,0.3330078125,0.42724609375,-0.6103515625,-0.06103515625,-14.7821044921875,-70.0048828125,75.201416015625
1758180367.4556222,0.9375,-0.08154296875,0.3330078125,0.42724609375,-0.6103515625,-0.06103515625,-14.7821044921875,-70.0103759765625,75.1904296875
1758180367.4655783,0.93896484375,-0.083984375,0.32958984375,0.0,-0.48828125,-0.18310546875,-14.7821044921875,-70.015869140625,75.179443359375
1758180367.4762013,0.93896484375,-0.083984375,0.32958984375,0.0,-0.48828125,-0.18310546875,-14.7821044921875,-70.0213623046875,75.1629638671875
1758180367.4856336,0.939453125,-0.09228515625,0.33203125,0.8544921875,-0.48828125,-0.30517578125,-14.7711181640625,-70.02685546875,75.146484375
1758180367.4962206,0.939453125,-0.09228515625,0.33203125,0.8544921875,-0.48828125,-0.30517578125,-14.7601318359375,-70.0323486328125,75.12451171875
1758180367.506108,0.939453125,-0.0947265625,0.3310546875,1.46484375,-0.48828125,-0.48828125,-14.7381591796875,-70.037841796875,75.1025390625
1758180367.515647,0.939453125,-0.0947265625,0.3310546875,1.46484375,-0.48828125,-0.48828125,-14.7161865234375,-70.0433349609375,75.08056640625
1758180367.5257118,0.943359375,-0.08642578125,0.330078125,1.8310546875,-0.54931640625,-0.6103515625,-14.688720703125,-70.048828125,75.05859375
1758180367.5357423,0.943359375,-0.08642578125,0.330078125,1.8310546875,-0.54931640625,-0.6103515625,-14.6612548828125,-70.0543212890625,75.0311279296875
1758180367.5459476,0.943359375,-0.083984375,0.33203125,1.28173828125,-0.48828125,-0.6103515625,-14.6337890625,-70.059814453125,75.003662109375
1758180367.5557368,0.943359375,-0.083984375,0.33203125,1.28173828125,-0.48828125,-0.6103515625,-14.61181640625,-70.0653076171875,74.981689453125
1758180367.570671,0.94091796875,-0.0849609375,0.3310546875,0.54931640625,-0.42724609375,-0.48828125,-14.5953369140625,-70.07080078125,74.9542236328125
1758180367.5792463,0.94091796875,-0.0849609375,0.3310546875,0.54931640625,-0.42724609375,-0.48828125,-14.5843505859375,-70.0762939453125,74.9322509765625
1758180367.5858428,0.94384765625,-0.08740234375,0.33154296875,0.30517578125,-0.30517578125,-0.48828125,-14.56787109375,-70.081787109375,74.90478515625
1758180367.5959575,0.94384765625,-0.08740234375,0.33154296875,0.30517578125,-0.30517578125,-0.48828125,-14.556884765625,-70.081787109375,74.8828125
1758180367.606065,0.94677734375,-0.087890625,0.3359375,0.30517578125,-0.244140625,-0.48828125,-14.5458984375,-70.0872802734375,74.8553466796875
1758180367.6157358,0.94677734375,-0.087890625,0.3359375,0.30517578125,-0.244140625,-0.48828125,-14.5294189453125,-70.0872802734375,74.827880859375
1758180367.6258178,0.9443359375,-0.087890625,0.33056640625,0.3662109375,-0.244140625,-0.48828125,-14.5184326171875,-70.0927734375,74.805908203125
1758180367.6358242,0.9443359375,-0.087890625,0.33056640625,0.3662109375,-0.244140625,-0.48828125,-14.501953125,-70.0927734375,74.7784423828125
1758180367.6460147,0.93994140625,-0.08642578125,0.3271484375,0.06103515625,-0.3662109375,-0.42724609375,-14.4964599609375,-70.0982666015625,74.761962890625
1758180367.6557474,0.93994140625,-0.08642578125,0.3271484375,0.06103515625,-0.3662109375,-0.42724609375,-14.4854736328125,-70.103759765625,74.7454833984375
1758180367.6660686,0.94140625,-0.0849609375,0.33154296875,-0.06103515625,-0.3662109375,-0.3662109375,-14.4854736328125,-70.1092529296875,74.7235107421875
1758180367.6765356,0.94140625,-0.0849609375,0.33154296875,-0.06103515625,-0.3662109375,-0.3662109375,-14.47998046875,-70.1092529296875,74.70703125
1758180367.6857886,0.9404296875,-0.08544921875,0.33154296875,0.06103515625,-0.3662109375,-0.30517578125,-14.4744873046875,-70.11474609375,74.6905517578125
1758180367.6961205,0.9404296875,-0.08544921875,0.33154296875,0.06103515625,-0.3662109375,-0.30517578125,-14.468994140625,-70.1202392578125,74.674072265625
1758180367.706037,0.9404296875,-0.08154296875,0.33251953125,0.42724609375,-0.3662109375,-0.18310546875,-14.4635009765625,-70.1202392578125,74.6575927734375
1758180367.715961,0.9404296875,-0.08154296875,0.33251953125,0.42724609375,-0.3662109375,-0.18310546875,-14.4580078125,-70.125732421875,74.6466064453125
1758180367.725927,0.93603515625,-0.0908203125,0.326171875,0.48828125,-0.3662109375,-0.06103515625,-14.4525146484375,-70.1312255859375,74.6356201171875
1758180367.7360468,0.93603515625,-0.0908203125,0.326171875,0.48828125,-0.3662109375,-0.06103515625,-14.447021484375,-70.1312255859375,74.6246337890625
1758180367.7459326,0.9345703125,-0.08984375,0.3291015625,0.1220703125,-0.42724609375,0.0,-14.4525146484375,-70.13671875,74.619140625
1758180367.7559257,0.9345703125,-0.08984375,0.3291015625,0.1220703125,-0.42724609375,0.0,-14.4580078125,-70.13671875,74.6136474609375
1758180367.7658262,0.9345703125,-0.08984375,0.3291015625,-0.3662109375,-0.42724609375,0.18310546875,-14.468994140625,-70.1422119140625,74.6136474609375
1758180367.7764268,0.93359375,-0.0849609375,0.326171875,-0.3662109375,-0.42724609375,0.18310546875,-14.4854736328125,-70.147705078125,74.6136474609375
1758180367.7858481,0.93359375,-0.0849609375,0.326171875,0.0,-0.30517578125,0.3662109375,-14.4964599609375,-70.147705078125,74.6136474609375
1758180367.7960625,0.9404296875,-0.08740234375,0.328125,0.0,-0.30517578125,0.3662109375,-14.512939453125,-70.147705078125,74.619140625
1758180367.8060992,0.94287109375,-0.091796875,0.33154296875,0.18310546875,-0.3662109375,0.54931640625,-14.5294189453125,-70.147705078125,74.630126953125
1758180367.8160102,0.94287109375,-0.091796875,0.33154296875,0.18310546875,-0.3662109375,0.54931640625,-14.5458984375,-70.1531982421875,74.6356201171875
1758180367.825967,0.94580078125,-0.08642578125,0.3291015625,-0.54931640625,-0.42724609375,0.67138671875,-14.5733642578125,-70.1531982421875,74.652099609375
1758180367.836058,0.94580078125,-0.08642578125,0.3291015625,-0.54931640625,-0.42724609375,0.67138671875,-14.600830078125,-70.1531982421875,74.6630859375
1758180367.8472285,0.94287109375,-0.080078125,0.32958984375,-1.64794921875,-0.6103515625,0.67138671875,-14.6392822265625,-70.15869140625,74.6795654296875
1758180367.8567743,0.94287109375,-0.080078125,0.32958984375,-1.64794921875,-0.6103515625,0.67138671875,-14.6832275390625,-70.1641845703125,74.6905517578125
1758180367.8661215,0.943359375,-0.0830078125,0.32568359375,-1.46484375,-0.8544921875,0.67138671875,-14.7161865234375,-70.169677734375,74.70703125
1758180367.8764336,0.943359375,-0.0830078125,0.32568359375,-1.46484375,-0.8544921875,0.67138671875,-14.754638671875,-70.1751708984375,74.718017578125
1758180367.885995,0.94580078125,-0.0908203125,0.32861328125,-0.9765625,-0.91552734375,0.48828125,-14.78759765625,-70.1806640625,74.72900390625
1758180367.8961148,0.94580078125,-0.0908203125,0.32861328125,-0.9765625,-0.91552734375,0.48828125,-14.8150634765625,-70.191650390625,74.7344970703125
1758180367.906188,0.9453125,-0.091796875,0.33203125,-0.42724609375,-1.03759765625,0.244140625,-14.83154296875,-70.1971435546875,74.739990234375
1758180367.91623,0.9453125,-0.091796875,0.33203125,-0.42724609375,-1.03759765625,0.244140625,-14.8480224609375,-70.2081298828125,74.7454833984375
1758180367.9260125,0.9462890625,-0.0810546875,0.32861328125,0.18310546875,-1.15966796875,0.18310546875,-14.8590087890625,-70.2191162109375,74.7454833984375
1758180367.9365237,0.9462890625,-0.0810546875,0.32861328125,0.18310546875,-1.15966796875,0.18310546875,-14.8699951171875,-70.2301025390625,74.7454833984375
1758180367.9461856,0.93798828125,-0.0869140625,0.322265625,0.54931640625,-1.28173828125,0.1220703125,-14.87548828125,-70.2410888671875,74.7454833984375
1758180367.9565,0.93798828125,-0.0869140625,0.322265625,0.54931640625,-1.28173828125,0.1220703125,-14.886474609375,-70.2520751953125,74.7454833984375
1758180367.9660766,0.9375,-0.0810546875,0.3291015625,-0.54931640625,-1.220703125,0.1220703125,-14.8974609375,-70.2630615234375,74.7454833984375
1758180367.9769945,0.9375,-0.0810546875,0.3291015625,-0.54931640625,-1.220703125,0.1220703125,-14.9139404296875,-70.2740478515625,74.739990234375
1758180367.9860337,0.93115234375,-0.0859375,0.3212890625,-0.3662109375,-1.0986328125,0.1220703125,-14.930419921875,-70.2850341796875,74.7344970703125
1758180367.9963875,0.93115234375,-0.0859375,0.3212890625,-0.3662109375,-1.0986328125,0.1220703125,-14.94140625,-70.2960205078125,74.7344970703125
1758180368.006271,0.93798828125,-0.09765625,0.32470703125,0.244140625,-0.9765625,0.0,-14.9468994140625,-70.301513671875,74.7235107421875
1758180368.0163488,0.93798828125,-0.09765625,0.32470703125,0.244140625,-0.9765625,0.0,-14.952392578125,-70.3125,74.7235107421875
1758180368.0261996,0.93603515625,-0.09033203125,0.3251953125,0.06103515625,-0.8544921875,-0.1220703125,-14.952392578125,-70.3179931640625,74.7125244140625
1758180368.0365973,0.93603515625,-0.09033203125,0.3251953125,0.06103515625,-0.8544921875,-0.1220703125,-14.9578857421875,-70.3289794921875,74.70703125
1758180368.0463123,0.93603515625,-0.08740234375,0.3251953125,0.48828125,-0.79345703125,-0.1220703125,-14.9578857421875,-70.33447265625,74.696044921875
1758180368.0562878,0.93603515625,-0.08740234375,0.3251953125,0.48828125,-0.79345703125,-0.1220703125,-14.952392578125,-70.3399658203125,74.6905517578125
1758180368.0661414,0.93701171875,-0.08154296875,0.3232421875,0.0,-0.79345703125,-0.1220703125,-14.9578857421875,-70.3509521484375,74.6795654296875
1758180368.0771513,0.93701171875,-0.08154296875,0.3232421875,0.0,-0.79345703125,-0.1220703125,-14.9578857421875,-70.3564453125,74.6685791015625
1758180368.0861673,0.94189453125,-0.08447265625,0.32470703125,-0.1220703125,-0.67138671875,-0.1220703125,-14.96337890625,-70.3619384765625,74.6575927734375
1758180368.0962749,0.94189453125,-0.08447265625,0.32470703125,-0.1220703125,-0.67138671875,-0.1220703125,-14.96337890625,-70.367431640625,74.64111328125
1758180368.106479,0.94140625,-0.0947265625,0.32666015625,0.8544921875,-0.48828125,-0.244140625,-14.952392578125,-70.3729248046875,74.6246337890625
1758180368.116265,0.94140625,-0.0947265625,0.32666015625,0.8544921875,-0.48828125,-0.244140625,-14.94140625,-70.37841796875,74.608154296875
1758180368.1263018,0.943359375,-0.09619140625,0.328125,1.220703125,-0.30517578125,-0.42724609375,-14.91943359375,-70.37841796875,74.5916748046875
1758180368.137579,0.943359375,-0.09619140625,0.328125,1.220703125,-0.30517578125,-0.42724609375,-14.9029541015625,-70.3839111328125,74.5697021484375
1758180368.1471689,0.94677734375,-0.08740234375,0.32421875,1.03759765625,-0.244140625,-0.30517578125,-14.886474609375,-70.3839111328125,74.55322265625
1758180368.1568253,0.94677734375,-0.08740234375,0.32421875,1.03759765625,-0.244140625,-0.30517578125,-14.87548828125,-70.389404296875,74.5367431640625
1758180368.1668036,0.947265625,-0.0791015625,0.32763671875,0.0,-0.30517578125,-0.1220703125,-14.87548828125,-70.389404296875,74.5257568359375
1758180368.1774883,0.947265625,-0.0791015625,0.32763671875,0.0,-0.30517578125,-0.1220703125,-14.87548828125,-70.3948974609375,74.50927734375
1758180368.1862726,0.94775390625,-0.08447265625,0.3251953125,-0.1220703125,-0.3662109375,0.0,-14.8809814453125,-70.3948974609375,74.498291015625
1758180368.1964326,0.94775390625,-0.08447265625,0.3251953125,-0.1220703125,-0.3662109375,0.0,-14.8809814453125,-70.400390625,74.4873046875
1758180368.2064462,0.94775390625,-0.08984375,0.32568359375,-0.3662109375,-0.244140625,0.1220703125,-14.8919677734375,-70.400390625,74.4818115234375
1758180368.2163694,0.94775390625,-0.08984375,0.32568359375,-0.3662109375,-0.244140625,0.1220703125,-14.9029541015625,-70.400390625,74.4708251953125
1758180368.2263598,0.94970703125,-0.08935546875,0.32666015625,-0.91552734375,-0.244140625,0.1220703125,-14.9139404296875,-70.4058837890625,74.46533203125
1758180368.2367773,0.94970703125,-0.08935546875,0.32666015625,-0.91552734375,-0.244140625,0.1220703125,-14.930419921875,-70.4058837890625,74.4598388671875
1758180368.2464483,0.94970703125,-0.0888671875,0.32568359375,-0.6103515625,-0.244140625,0.18310546875,-14.94140625,-70.4058837890625,74.454345703125
1758180368.256394,0.94970703125,-0.0888671875,0.32568359375,-0.6103515625,-0.244140625,0.18310546875,-14.9578857421875,-70.411376953125,74.4488525390625
1758180368.2663941,0.9521484375,-0.09033203125,0.32958984375,-0.48828125,-0.3662109375,0.244140625,-14.974365234375,-70.411376953125,74.443359375
1758180368.2768822,0.9521484375,-0.09033203125,0.32958984375,-0.48828125,-0.3662109375,0.244140625,-14.9853515625,-70.4168701171875,74.443359375
1758180368.2864175,0.951171875,-0.0869140625,0.32666015625,-0.8544921875,-0.42724609375,0.30517578125,-15.00732421875,-70.4168701171875,74.443359375
1758180368.2965107,0.951171875,-0.0869140625,0.32666015625,-0.8544921875,-0.42724609375,0.30517578125,-15.029296875,-70.42236328125,74.443359375
1758180368.3065538,0.947265625,-0.08740234375,0.32177734375,-0.732421875,-0.48828125,0.30517578125,-15.0457763671875,-70.42236328125,74.443359375
1758180368.3164241,0.947265625,-0.08740234375,0.32177734375,-0.732421875,-0.48828125,0.30517578125,-15.0677490234375,-70.4278564453125,74.443359375
1758180368.3264692,0.94873046875,-0.08935546875,0.326171875,-0.732421875,-0.48828125,0.42724609375,-15.0897216796875,-70.433349609375,74.454345703125
1758180368.3368204,0.94873046875,-0.08935546875,0.326171875,-0.732421875,-0.48828125,0.42724609375,-15.1116943359375,-70.433349609375,74.4598388671875
1758180368.3465607,0.94970703125,-0.08935546875,0.32666015625,-1.28173828125,-0.6103515625,0.42724609375,-15.1446533203125,-70.4388427734375,74.46533203125
1758180368.3564746,0.94970703125,-0.08935546875,0.32666015625,-1.28173828125,-0.6103515625,0.42724609375,-15.172119140625,-70.4443359375,74.4708251953125
1758180368.3665187,0.95166015625,-0.0888671875,0.32275390625,-1.3427734375,-0.67138671875,0.42724609375,-15.1995849609375,-70.4498291015625,74.4818115234375
1758180368.376994,0.95166015625,-0.0888671875,0.32275390625,-1.3427734375,-0.67138671875,0.42724609375,-15.2325439453125,-70.455322265625,74.4873046875
1758180368.386515,0.9482421875,-0.08740234375,0.32861328125,-0.8544921875,-0.79345703125,0.48828125,-15.260009765625,-70.4608154296875,74.498291015625
1758180368.39653,0.9482421875,-0.08740234375,0.32861328125,-0.8544921875,-0.79345703125,0.48828125,-15.2874755859375,-70.46630859375,74.5037841796875
1758180368.406761,0.93994140625,-0.09130859375,0.32080078125,-0.732421875,-1.03759765625,0.67138671875,-15.3204345703125,-70.4718017578125,74.520263671875
1758180368.4165459,0.93994140625,-0.09130859375,0.32080078125,-0.732421875,-1.03759765625,0.67138671875,-15.3533935546875,-70.4827880859375,74.5367431640625
1758180368.4266183,0.9423828125,-0.0927734375,0.31494140625,-1.0986328125,-1.03759765625,0.732421875,-15.391845703125,-70.48828125,74.55322265625
1758180368.437001,0.9423828125,-0.0927734375,0.31494140625,-1.0986328125,-1.03759765625,0.732421875,-15.4302978515625,-70.499267578125,74.5697021484375
1758180368.4466312,0.94384765625,-0.09033203125,0.322265625,-1.52587890625,-1.03759765625,0.732421875,-15.4742431640625,-70.5047607421875,74.586181640625
1758180368.4566479,0.94384765625,-0.09033203125,0.322265625,-1.52587890625,-1.03759765625,0.732421875,-15.5126953125,-70.5157470703125,74.6026611328125
1758180368.4666343,0.94580078125,-0.08837890625,0.32373046875,-1.46484375,-1.0986328125,0.67138671875,-15.556640625,-70.521240234375,74.619140625
1758180368.477046,0.94580078125,-0.08837890625,0.32373046875,-1.46484375,-1.0986328125,0.67138671875,-15.5950927734375,-70.5322265625,74.630126953125
1758180368.4867182,0.94189453125,-0.08837890625,0.32275390625,-0.732421875,-1.220703125,0.54931640625,-15.6280517578125,-70.5377197265625,74.64111328125
1758180368.4971788,0.94189453125,-0.08837890625,0.32275390625,-0.732421875,-1.220703125,0.54931640625,-15.655517578125,-70.5487060546875,74.652099609375
1758180368.5069005,0.935546875,-0.09130859375,0.3173828125,-1.28173828125,-1.220703125,0.48828125,-15.6939697265625,-70.5596923828125,74.6630859375
1758180368.5170026,0.935546875,-0.09130859375,0.3173828125,-1.28173828125,-1.220703125,0.48828125,-15.7269287109375,-70.5706787109375,74.674072265625
1758180368.526717,0.9375,-0.08935546875,0.30810546875,-1.15966796875,-1.0986328125,0.3662109375,-15.75439453125,-70.5816650390625,74.6795654296875
1758180368.5370328,0.9375,-0.08935546875,0.30810546875,-1.15966796875,-1.0986328125,0.3662109375,-15.787353515625,-70.587158203125,74.6905517578125
1758180368.547145,0.939453125,-0.0927734375,0.32177734375,-1.03759765625,-0.9765625,0.244140625,-15.809326171875,-70.59814453125,74.6905517578125
1758180368.5566905,0.93994140625,-0.09033203125,0.3212890625,-0.91552734375,-1.03759765625,0.1220703125,-15.831298828125,-70.6036376953125,74.696044921875
1758180368.5668502,0.93994140625,-0.09033203125,0.3212890625,-0.91552734375,-1.03759765625,0.1220703125,-15.8477783203125,-70.6146240234375,74.6905517578125
1758180368.5771291,0.93359375,-0.09326171875,0.31298828125,-0.18310546875,-0.91552734375,0.0,-15.8642578125,-70.6256103515625,74.68505859375
1758180368.5867383,0.93359375,-0.09326171875,0.31298828125,-0.18310546875,-0.91552734375,0.0,-15.875244140625,-70.631103515625,74.6795654296875
1758180368.596777,0.92919921875,-0.09375,0.3134765625,0.244140625,-0.79345703125,-0.18310546875,-15.875244140625,-70.64208984375,74.6685791015625
1758180368.6068811,0.92919921875,-0.09375,0.3134765625,0.244140625,-0.79345703125,-0.18310546875,-15.875244140625,-70.6475830078125,74.6575927734375
1758180368.6168394,0.9287109375,-0.09375,0.3115234375,0.732421875,-0.79345703125,-0.244140625,-15.875244140625,-70.6585693359375,74.6466064453125
1758180368.6268978,0.9287109375,-0.09375,0.3115234375,0.732421875,-0.79345703125,-0.244140625,-15.8642578125,-70.6640625,74.6356201171875
1758180368.6372688,0.93212890625,-0.091796875,0.3115234375,0.18310546875,-0.8544921875,-0.30517578125,-15.8642578125,-70.675048828125,74.6246337890625
1758180368.646876,0.93212890625,-0.091796875,0.3115234375,0.18310546875,-0.8544921875,-0.30517578125,-15.8587646484375,-70.6805419921875,74.6136474609375
1758180368.6568263,0.9326171875,-0.08837890625,0.31689453125,0.42724609375,-0.8544921875,-0.30517578125,-15.8587646484375,-70.6915283203125,74.6026611328125
1758180368.6668518,0.9326171875,-0.08837890625,0.31689453125,0.42724609375,-0.8544921875,-0.30517578125,-15.853271484375,-70.697021484375,74.5916748046875
1758180368.6773329,0.93115234375,-0.09228515625,0.3115234375,0.48828125,-0.8544921875,-0.30517578125,-15.8477783203125,-70.7080078125,74.5751953125
1758180368.686885,0.93115234375,-0.09228515625,0.3115234375,0.48828125,-0.8544921875,-0.30517578125,-15.84228515625,-70.7135009765625,74.564208984375
1758180368.6971822,0.9326171875,-0.0927734375,0.3115234375,0.42724609375,-0.8544921875,-0.244140625,-15.84228515625,-70.7244873046875,74.55322265625
1758180368.7069998,0.9326171875,-0.0927734375,0.3115234375,0.42724609375,-0.8544921875,-0.244140625,-15.8367919921875,-70.7354736328125,74.542236328125
1758180368.717247,0.9423828125,-0.095703125,0.3173828125,1.5869140625,-0.79345703125,-0.244140625,-15.831298828125,-70.740966796875,74.5367431640625
1758180368.7269917,0.9423828125,-0.095703125,0.3173828125,1.5869140625,-0.79345703125,-0.244140625,-15.8148193359375,-70.7464599609375,74.53125
1758180368.7373135,0.9541015625,-0.09765625,0.322265625,2.0751953125,-0.67138671875,-0.30517578125,-15.79833984375,-70.7574462890625,74.5257568359375
1758180368.7473533,0.9541015625,-0.09765625,0.322265625,2.0751953125,-0.67138671875,-0.30517578125,-15.7818603515625,-70.762939453125,74.5147705078125
1758180368.757061,0.9580078125,-0.08642578125,0.3251953125,1.03759765625,-0.54931640625,-0.244140625,-15.765380859375,-70.7684326171875,74.50927734375
1758180368.767161,0.9580078125,-0.08642578125,0.3251953125,1.03759765625,-0.54931640625,-0.244140625,-15.75439453125,-70.77392578125,74.498291015625
1758180368.7775488,0.9619140625,-0.08154296875,0.3212890625,0.0,-0.42724609375,-0.06103515625,-15.75439453125,-70.7794189453125,74.4873046875
1758180368.787082,0.9619140625,-0.08154296875,0.3212890625,0.0,-0.42724609375,-0.06103515625,-15.75439453125,-70.7794189453125,74.476318359375
1758180368.797226,0.96240234375,-0.08935546875,0.3232421875,-0.244140625,-0.3662109375,0.06103515625,-15.7598876953125,-70.784912109375,74.4708251953125
1758180368.8071227,0.96240234375,-0.08935546875,0.3232421875,-0.244140625,-0.3662109375,0.06103515625,-15.765380859375,-70.7904052734375,74.4598388671875
1758180368.817088,0.96044921875,-0.09619140625,0.3271484375,-0.42724609375,-0.54931640625,0.1220703125,-15.7763671875,-70.7904052734375,74.454345703125
1758180368.8271234,0.96044921875,-0.09619140625,0.3271484375,-0.42724609375,-0.54931640625,0.1220703125,-15.787353515625,-70.7958984375,74.4488525390625
1758180368.83743,0.953125,-0.0947265625,0.31201171875,-0.1220703125,-0.6103515625,0.1220703125,-15.79833984375,-70.8013916015625,74.443359375
1758180368.8471162,0.953125,-0.0947265625,0.31201171875,-0.1220703125,-0.6103515625,0.1220703125,-15.809326171875,-70.806884765625,74.443359375
1758180368.8570762,0.9560546875,-0.10009765625,0.32470703125,0.0,-0.67138671875,0.1220703125,-15.8203125,-70.8123779296875,74.4378662109375
1758180368.867097,0.9560546875,-0.10009765625,0.32470703125,0.0,-0.67138671875,0.1220703125,-15.831298828125,-70.81787109375,74.4378662109375
1758180368.877237,0.953125,-0.087890625,0.31591796875,-1.15966796875,-0.79345703125,0.244140625,-15.8477783203125,-70.8233642578125,74.4378662109375
1758180368.8871255,0.953125,-0.087890625,0.31591796875,-1.15966796875,-0.79345703125,0.244140625,-15.875244140625,-70.828857421875,74.443359375
1758180368.8971412,0.94921875,-0.0859375,0.31640625,0.30517578125,-0.67138671875,0.244140625,-15.8917236328125,-70.8343505859375,74.443359375
1758180368.9074638,0.94921875,-0.0859375,0.31640625,0.30517578125,-0.67138671875,0.244140625,-15.9027099609375,-70.83984375,74.443359375
1758180368.9174726,0.939453125,-0.0830078125,0.31396484375,-0.3662109375,-0.79345703125,0.1220703125,-15.9136962890625,-70.8453369140625,74.443359375
1758180368.9271686,0.939453125,-0.0830078125,0.31396484375,-0.3662109375,-0.79345703125,0.1220703125,-15.9246826171875,-70.8563232421875,74.4378662109375
1758180368.9375174,0.93359375,-0.08642578125,0.30712890625,-1.03759765625,-0.8544921875,0.30517578125,-15.9466552734375,-70.86181640625,74.4378662109375
1758180368.9472787,0.93359375,-0.08642578125,0.30712890625,-1.03759765625,-0.8544921875,0.30517578125,-15.9686279296875,-70.8673095703125,74.443359375
1758180368.9572496,0.9248046875,-0.09912109375,0.3076171875,-0.244140625,-0.91552734375,0.6103515625,-15.99609375,-70.872802734375,74.4488525390625
1758180368.967236,0.9248046875,-0.09912109375,0.3076171875,-0.244140625,-0.91552734375,0.6103515625,-16.01806640625,-70.8837890625,74.46533203125
1758180368.9777145,0.919921875,-0.10107421875,0.306640625,-0.30517578125,-0.9765625,0.732421875,-16.051025390625,-70.8892822265625,74.4818115234375
1758180368.987279,0.919921875,-0.10107421875,0.306640625,-0.30517578125,-0.9765625,0.732421875,-16.083984375,-70.894775390625,74.5037841796875
1758180368.997301,0.92333984375,-0.091796875,0.29931640625,-1.0986328125,-0.8544921875,0.8544921875,-16.1224365234375,-70.9002685546875,74.53125
1758180369.0075936,0.92333984375,-0.091796875,0.29931640625,-1.0986328125,-0.8544921875,0.8544921875,-16.1663818359375,-70.90576171875,74.5587158203125
1758180369.0172923,0.9365234375,-0.08642578125,0.314453125,-1.953125,-0.6103515625,1.03759765625,-16.2158203125,-70.9112548828125,74.586181640625
1758180369.0273008,0.9365234375,-0.08642578125,0.314453125,-1.953125,-0.6103515625,1.03759765625,-16.270751953125,-70.916748046875,74.6136474609375
1758180369.037648,0.94970703125,-0.0888671875,0.31787109375,-1.89208984375,-0.3662109375,0.9765625,-16.3201904296875,-70.916748046875,74.64111328125
1758180369.0476224,0.94970703125,-0.0888671875,0.31787109375,-1.89208984375,-0.3662109375,0.9765625,-16.36962890625,-70.916748046875,74.6575927734375
1758180369.0573606,0.95556640625,-0.0986328125,0.3173828125,-0.91552734375,-0.18310546875,0.67138671875,-16.4080810546875,-70.916748046875,74.674072265625
1758180369.0673897,0.95556640625,-0.0986328125,0.3173828125,-0.91552734375,-0.18310546875,0.67138671875,-16.435546875,-70.916748046875,74.68505859375
1758180369.0780325,0.95654296875,-0.107421875,0.32177734375,-0.42724609375,-0.244140625,0.244140625,-16.45751953125,-70.916748046875,74.6905517578125
1758180369.0874085,0.95654296875,-0.107421875,0.32177734375,-0.42724609375,-0.244140625,0.244140625,-16.4739990234375,-70.916748046875,74.6905517578125
1758180369.0974844,0.9541015625,-0.09228515625,0.30908203125,-0.1220703125,-0.30517578125,0.244140625,-16.4849853515625,-70.916748046875,74.6905517578125
1758180369.107644,0.9541015625,-0.09228515625,0.30908203125,-0.1220703125,-0.30517578125,0.244140625,-16.50146484375,-70.9222412109375,74.696044921875
1758180369.118048,0.95703125,-0.09228515625,0.31640625,0.42724609375,-0.30517578125,0.42724609375,-16.512451171875,-70.9222412109375,74.696044921875
1758180369.1274984,0.95703125,-0.09228515625,0.31640625,0.42724609375,-0.30517578125,0.42724609375,-16.5234375,-70.9222412109375,74.7015380859375
1758180369.1376832,0.9638671875,-0.09326171875,0.3203125,-0.244140625,-0.244140625,0.54931640625,-16.5399169921875,-70.927734375,74.70703125
1758180369.1475492,0.9638671875,-0.09326171875,0.3203125,-0.244140625,-0.244140625,0.54931640625,-16.556396484375,-70.927734375,74.7125244140625
1758180369.157425,0.97021484375,-0.09375,0.3193359375,-0.54931640625,-0.18310546875,0.67138671875,-16.578369140625,-70.927734375,74.718017578125
1758180369.167408,0.97021484375,-0.09375,0.3193359375,-0.54931640625,-0.18310546875,0.67138671875,-16.6058349609375,-70.927734375,74.72900390625
1758180369.1780117,0.9638671875,-0.09912109375,0.32421875,-0.244140625,-0.18310546875,0.732421875,-16.63330078125,-70.927734375,74.7344970703125
1758180369.1874447,0.9638671875,-0.09912109375,0.32421875,-0.244140625,-0.18310546875,0.732421875,-16.6552734375,-70.927734375,74.7454833984375
1758180369.1974928,0.9609375,-0.09130859375,0.30615234375,0.244140625,-0.244140625,0.91552734375,-16.67724609375,-70.927734375,74.7564697265625
1758180369.2077954,0.9609375,-0.09130859375,0.30615234375,0.244140625,-0.244140625,0.91552734375,-16.7047119140625,-70.927734375,74.7674560546875
1758180369.2175205,0.9462890625,-0.10107421875,0.3125,1.03759765625,-0.244140625,0.9765625,-16.7266845703125,-70.927734375,74.783935546875
1758180369.2275178,0.9462890625,-0.10107421875,0.3125,1.03759765625,-0.244140625,0.9765625,-16.7431640625,-70.927734375,74.8004150390625
1758180369.2379858,0.9501953125,-0.0947265625,0.318359375,-0.91552734375,-0.3662109375,0.9765625,-16.776123046875,-70.927734375,74.8223876953125
1758180369.2480915,0.9501953125,-0.0947265625,0.318359375,-0.91552734375,-0.3662109375,0.9765625,-16.8145751953125,-70.927734375,74.8443603515625
1758180369.2575622,0.943359375,-0.09326171875,0.30517578125,0.1220703125,-0.42724609375,1.220703125,-16.85302734375,-70.927734375,74.8663330078125
1758180369.2675512,0.943359375,-0.09326171875,0.30517578125,0.1220703125,-0.42724609375,1.220703125,-16.885986328125,-70.927734375,74.893798828125
1758180369.2811935,0.943359375,-0.09326171875,0.30517578125,-0.42724609375,-0.48828125,1.40380859375,-16.929931640625,-70.927734375,74.9212646484375
1758180369.2878761,0.9345703125,-0.1005859375,0.31689453125,-0.42724609375,-0.48828125,1.40380859375,-16.973876953125,-70.927734375,74.9542236328125
1758180369.2975652,0.92724609375,-0.099609375,0.30322265625,-1.40380859375,-0.3662109375,1.708984375,-17.02880859375,-70.927734375,74.9871826171875
1758180369.3140404,0.92724609375,-0.099609375,0.30322265625,-1.40380859375,-0.3662109375,1.708984375,-17.0947265625,-70.927734375,75.0311279296875
1758180369.320759,0.91845703125,-0.10205078125,0.30322265625,-1.46484375,0.0,2.0751953125,-17.1661376953125,-70.9222412109375,75.0750732421875
1758180369.3275795,0.91845703125,-0.10205078125,0.30322265625,-1.46484375,0.0,2.0751953125,-17.237548828125,-70.916748046875,75.12451171875
1758180369.337647,0.9248046875,-0.099609375,0.3037109375,-3.7841796875,0.244140625,2.50244140625,-17.325439453125,-70.9112548828125,75.1849365234375
1758180369.34774,0.9248046875,-0.099609375,0.3037109375,-3.7841796875,0.244140625,2.50244140625,-17.4298095703125,-70.9002685546875,75.245361328125
1758180369.360862,0.92822265625,-0.09765625,0.31005859375,-4.5166015625,0.54931640625,2.74658203125,-17.545166015625,-70.8892822265625,75.311279296875
1758180369.3677082,0.92822265625,-0.09765625,0.31005859375,-4.5166015625,0.54931640625,2.74658203125,-17.6605224609375,-70.872802734375,75.377197265625
1758180369.3776877,0.93310546875,-0.1025390625,0.3046875,-3.7841796875,0.6103515625,2.685546875,-17.7703857421875,-70.86181640625,75.4376220703125
1758180369.3941057,0.93310546875,-0.1025390625,0.3046875,-3.7841796875,0.6103515625,2.685546875,-17.874755859375,-70.8453369140625,75.498046875
1758180369.4006963,0.93994140625,-0.107421875,0.31201171875,-3.41796875,0.732421875,2.38037109375,-17.9736328125,-70.8343505859375,75.5584716796875
1758180369.4079206,0.93994140625,-0.107421875,0.31201171875,-3.41796875,0.732421875,2.38037109375,-18.0670166015625,-70.81787109375,75.60791015625
1758180369.4177125,0.94287109375,-0.10546875,0.3115234375,-1.89208984375,0.79345703125,2.01416015625,-18.1439208984375,-70.806884765625,75.65185546875
1758180369.4317143,0.94287109375,-0.10546875,0.3115234375,-1.89208984375,0.79345703125,2.01416015625,-18.2098388671875,-70.7904052734375,75.6903076171875
1758180369.43789,0.9482421875,-0.10791015625,0.31201171875,-0.79345703125,0.8544921875,1.708984375,-18.2647705078125,-70.7794189453125,75.7232666015625
1758180369.4477642,0.9482421875,-0.10791015625,0.31201171875,-0.79345703125,0.8544921875,1.708984375,-18.314208984375,-70.762939453125,75.7562255859375
1758180369.458439,0.95361328125,-0.10205078125,0.31591796875,-1.5869140625,0.732421875,1.52587890625,-18.358154296875,-70.751953125,75.78369140625
1758180369.470127,0.95361328125,-0.10205078125,0.31591796875,-1.5869140625,0.732421875,1.52587890625,-18.4130859375,-70.740966796875,75.8111572265625
1758180369.4777899,0.953125,-0.09912109375,0.31396484375,-1.953125,0.54931640625,1.46484375,-18.4625244140625,-70.72998046875,75.8331298828125
1758180369.4941368,0.953125,-0.09912109375,0.31396484375,-1.953125,0.54931640625,1.46484375,-18.511962890625,-70.7244873046875,75.8551025390625
1758180369.5009158,0.9521484375,-0.10498046875,0.3134765625,-1.28173828125,0.3662109375,1.40380859375,-18.5614013671875,-70.7135009765625,75.8770751953125
1758180369.5078676,0.9521484375,-0.10498046875,0.3134765625,-1.28173828125,0.3662109375,1.40380859375,-18.6053466796875,-70.7080078125,75.8990478515625
1758180369.5178735,0.95361328125,-0.1142578125,0.31396484375,-0.42724609375,0.18310546875,1.15966796875,-18.643798828125,-70.7025146484375,75.9210205078125
1758180369.5281787,0.95361328125,-0.1142578125,0.31396484375,-0.42724609375,0.18310546875,1.15966796875,-18.6767578125,-70.697021484375,75.9429931640625
1758180369.5378144,0.9541015625,-0.1123046875,0.31640625,0.3662109375,0.1220703125,0.91552734375,-18.7042236328125,-70.6915283203125,75.95947265625
1758180369.5478995,0.9541015625,-0.1123046875,0.31640625,0.3662109375,0.1220703125,0.91552734375,-18.720703125,-70.68603515625,75.9759521484375
1758180369.5579243,0.95166015625,-0.10693359375,0.31201171875,0.54931640625,0.1220703125,0.67138671875,-18.7371826171875,-70.68603515625,75.9869384765625
1758180369.5680103,0.95166015625,-0.10693359375,0.31201171875,0.54931640625,0.1220703125,0.67138671875,-18.7481689453125,-70.6805419921875,75.9979248046875
1758180369.577925,0.9453125,-0.1015625,0.31103515625,-0.1220703125,-0.1220703125,0.6103515625,-18.7646484375,-70.6805419921875,76.0089111328125
1758180369.588452,0.9453125,-0.1015625,0.31103515625,-0.1220703125,-0.1220703125,0.6103515625,-18.7811279296875,-70.6805419921875,76.014404296875
1758180369.5979583,0.94482421875,-0.10498046875,0.3095703125,-0.3662109375,-0.3662109375,0.54931640625,-18.8031005859375,-70.68603515625,76.0198974609375
1758180369.6081607,0.94482421875,-0.10498046875,0.3095703125,-0.3662109375,-0.3662109375,0.54931640625,-18.8250732421875,-70.68603515625,76.0308837890625
1758180369.618133,0.94873046875,-0.10888671875,0.31591796875,-0.67138671875,-0.6103515625,0.42724609375,-18.8470458984375,-70.6915283203125,76.036376953125
1758180369.6280134,0.94873046875,-0.10888671875,0.31591796875,-0.67138671875,-0.6103515625,0.42724609375,-18.87451171875,-70.697021484375,76.0418701171875
1758180369.6382604,0.94580078125,-0.10791015625,0.31494140625,-0.42724609375,-0.732421875,0.244140625,-18.8909912109375,-70.7025146484375,76.04736328125
1758180369.6488159,0.94580078125,-0.10791015625,0.31494140625,-0.42724609375,-0.732421875,0.244140625,-18.907470703125,-70.7080078125,76.04736328125
1758180369.6579812,0.9462890625,-0.1103515625,0.30517578125,0.48828125,-0.79345703125,0.0,-18.907470703125,-70.718994140625,76.04736328125
1758180369.6682408,0.9462890625,-0.1103515625,0.30517578125,0.48828125,-0.79345703125,0.0,-18.9129638671875,-70.7244873046875,76.04736328125
1758180369.6785493,0.9501953125,-0.10888671875,0.31494140625,0.30517578125,-0.8544921875,-0.1220703125,-18.9129638671875,-70.7354736328125,76.04736328125
1758180369.688065,0.9501953125,-0.10888671875,0.31494140625,0.30517578125,-0.8544921875,-0.1220703125,-18.9129638671875,-70.740966796875,76.0418701171875
1758180369.6983035,0.9501953125,-0.1025390625,0.3134765625,0.18310546875,-0.9765625,-0.244140625,-18.9129638671875,-70.751953125,76.036376953125
1758180369.7082782,0.9501953125,-0.1025390625,0.3134765625,0.18310546875,-0.9765625,-0.244140625,-18.9129638671875,-70.762939453125,76.0308837890625
1758180369.7182052,0.95263671875,-0.10986328125,0.30615234375,0.91552734375,-1.03759765625,-0.3662109375,-18.907470703125,-70.77392578125,76.0198974609375
1758180369.7282488,0.95263671875,-0.10986328125,0.30615234375,0.91552734375,-1.03759765625,-0.3662109375,-18.896484375,-70.784912109375,76.014404296875
1758180369.7382326,0.94970703125,-0.11083984375,0.31787109375,0.42724609375,-1.15966796875,-0.67138671875,-18.885498046875,-70.8013916015625,75.9979248046875
1758180369.7481172,0.94970703125,-0.11083984375,0.31787109375,0.42724609375,-1.15966796875,-0.67138671875,-18.87451171875,-70.8123779296875,75.9814453125
1758180369.7581525,0.94775390625,-0.1064453125,0.3076171875,0.79345703125,-1.28173828125,-0.732421875,-18.8580322265625,-70.828857421875,75.9649658203125
1758180369.7680912,0.94775390625,-0.1064453125,0.3076171875,0.79345703125,-1.28173828125,-0.732421875,-18.8470458984375,-70.83984375,75.948486328125
1758180369.7787068,0.94287109375,-0.10400390625,0.30810546875,1.15966796875,-1.40380859375,-0.6103515625,-18.83056640625,-70.8563232421875,75.9375
1758180369.788623,0.94287109375,-0.10400390625,0.30810546875,1.15966796875,-1.40380859375,-0.6103515625,-18.819580078125,-70.872802734375,75.926513671875
1758180369.7982602,0.9345703125,-0.10986328125,0.30419921875,1.8310546875,-1.52587890625,-0.48828125,-18.8031005859375,-70.8892822265625,75.9210205078125
1758180369.8083653,0.9345703125,-0.10986328125,0.30419921875,1.8310546875,-1.52587890625,-0.48828125,-18.78662109375,-70.90576171875,75.91552734375
1758180369.8182223,0.9345703125,-0.1142578125,0.306640625,2.01416015625,-1.46484375,-0.6103515625,-18.7646484375,-70.9222412109375,75.9100341796875
1758180369.8282194,0.9345703125,-0.1142578125,0.306640625,2.01416015625,-1.46484375,-0.6103515625,-18.74267578125,-70.9332275390625,75.904541015625
1758180369.8383806,0.9296875,-0.10205078125,0.3046875,1.03759765625,-1.40380859375,-0.54931640625,-18.7371826171875,-70.94970703125,75.8990478515625
1758180369.8482327,0.9296875,-0.10205078125,0.3046875,1.03759765625,-1.40380859375,-0.54931640625,-18.7261962890625,-70.9661865234375,75.8880615234375
1758180369.8582368,0.92431640625,-0.10107421875,0.29931640625,0.18310546875,-1.3427734375,-0.1220703125,-18.7371826171875,-70.9771728515625,75.8935546875
1758180369.8682384,0.92431640625,-0.10107421875,0.29931640625,0.18310546875,-1.3427734375,-0.1220703125,-18.7481689453125,-70.9881591796875,75.8935546875
1758180369.8787289,0.93310546875,-0.1103515625,0.30615234375,-0.54931640625,-1.0986328125,0.30517578125,-18.775634765625,-70.9991455078125,75.9100341796875
1758180369.8882284,0.93310546875,-0.1103515625,0.30615234375,-0.54931640625,-1.0986328125,0.30517578125,-18.797607421875,-71.004638671875,75.9210205078125
1758180369.898327,0.9404296875,-0.11669921875,0.3037109375,-1.28173828125,-0.79345703125,0.48828125,-18.8360595703125,-71.0101318359375,75.9429931640625
1758180369.9086857,0.9404296875,-0.11669921875,0.3037109375,-1.28173828125,-0.79345703125,0.48828125,-18.87451171875,-71.015625,75.95947265625
1758180369.9183092,0.94775390625,-0.10888671875,0.3134765625,-2.25830078125,-0.54931640625,0.54931640625,-18.9239501953125,-71.0211181640625,75.9759521484375
1758180369.9282835,0.94775390625,-0.10888671875,0.3134765625,-2.25830078125,-0.54931640625,0.54931640625,-18.9678955078125,-71.0211181640625,75.992431640625
1758180369.938439,0.95703125,-0.10498046875,0.30712890625,-1.40380859375,-0.54931640625,0.6103515625,-19.00634765625,-71.026611328125,76.0089111328125
1758180369.948714,0.95703125,-0.10498046875,0.30712890625,-1.40380859375,-0.54931640625,0.6103515625,-19.0447998046875,-71.026611328125,76.025390625
1758180369.95864,0.96728515625,-0.10986328125,0.31689453125,-0.67138671875,-0.42724609375,0.67138671875,-19.0777587890625,-71.026611328125,76.0418701171875
1758180369.9683478,0.96728515625,-0.10986328125,0.31689453125,-0.67138671875,-0.42724609375,0.67138671875,-19.105224609375,-71.026611328125,76.058349609375
1758180369.9788585,0.9677734375,-0.11181640625,0.31787109375,-0.54931640625,-0.244140625,0.6103515625,-19.1326904296875,-71.026611328125,76.0693359375
1758180369.9884393,0.9677734375,-0.11181640625,0.31787109375,-0.54931640625,-0.244140625,0.6103515625,-19.16015625,-71.026611328125,76.080322265625
1758180369.9986992,0.9716796875,-0.1083984375,0.31298828125,-0.91552734375,0.0,0.54931640625,-19.18212890625,-71.026611328125,76.080322265625
1758180370.0084755,0.9716796875,-0.1083984375,0.31298828125,-0.91552734375,0.0,0.54931640625,-19.2095947265625,-71.0211181640625,76.0858154296875
1758180370.0184295,0.96826171875,-0.103515625,0.31689453125,-1.3427734375,0.18310546875,0.54931640625,-19.2315673828125,-71.0211181640625,76.09130859375
1758180370.028411,0.96826171875,-0.103515625,0.31689453125,-1.3427734375,0.18310546875,0.54931640625,-19.259033203125,-71.015625,76.09130859375
1758180370.0385163,0.962890625,-0.11083984375,0.3125,-0.54931640625,0.1220703125,0.54931640625,-19.2755126953125,-71.0101318359375,76.09130859375
1758180370.0484166,0.962890625,-0.11083984375,0.3125,-0.54931640625,0.1220703125,0.54931640625,-19.2974853515625,-71.0101318359375,76.09130859375
1758180370.0584552,0.9619140625,-0.11572265625,0.30712890625,-0.9765625,0.06103515625,0.48828125,-19.3194580078125,-71.004638671875,76.0968017578125
1758180370.0684617,0.9619140625,-0.11572265625,0.30712890625,-0.9765625,0.06103515625,0.48828125,-19.3414306640625,-71.004638671875,76.102294921875
1758180370.0790353,0.95556640625,-0.111328125,0.31005859375,-0.6103515625,-0.06103515625,0.42724609375,-19.3634033203125,-71.004638671875,76.102294921875
1758180370.088492,0.95556640625,-0.111328125,0.31005859375,-0.6103515625,-0.06103515625,0.42724609375,-19.3798828125,-71.004638671875,76.1077880859375
1758180370.0986154,0.947265625,-0.10546875,0.30322265625,-0.3662109375,-0.244140625,0.42724609375,-19.3963623046875,-71.004638671875,76.11328125
1758180370.1085846,0.947265625,-0.10546875,0.30322265625,-0.3662109375,-0.244140625,0.42724609375,-19.4183349609375,-71.004638671875,76.1187744140625
1758180370.1185458,0.9453125,-0.1083984375,0.3076171875,0.0,-0.30517578125,0.42724609375,-19.4293212890625,-71.004638671875,76.124267578125
1758180370.1285524,0.9453125,-0.1083984375,0.3076171875,0.0,-0.30517578125,0.42724609375,-19.44580078125,-71.0101318359375,76.1297607421875
1758180370.1386292,0.93994140625,-0.11572265625,0.3056640625,0.48828125,-0.30517578125,0.42724609375,-19.456787109375,-71.0101318359375,76.13525390625
1758180370.1485536,0.93994140625,-0.11572265625,0.3056640625,0.48828125,-0.30517578125,0.42724609375,-19.4677734375,-71.0101318359375,76.1407470703125
1758180370.1585739,0.9365234375,-0.115234375,0.30126953125,0.42724609375,-0.18310546875,0.244140625,-19.4732666015625,-71.0101318359375,76.1407470703125
1758180370.168526,0.9365234375,-0.115234375,0.30126953125,0.42724609375,-0.18310546875,0.244140625,-19.478759765625,-71.0101318359375,76.146240234375
1758180370.1791482,0.93212890625,-0.10791015625,0.3017578125,0.0,-0.06103515625,0.30517578125,-19.48974609375,-71.0101318359375,76.146240234375
1758180370.1885505,0.93212890625,-0.10791015625,0.3017578125,0.0,-0.06103515625,0.30517578125,-19.500732421875,-71.0101318359375,76.1517333984375
1758180370.1988468,0.92822265625,-0.10595703125,0.30029296875,-1.28173828125,-0.06103515625,0.42724609375,-19.5281982421875,-71.0101318359375,76.1572265625
1758180370.208695,0.92822265625,-0.10595703125,0.30029296875,-1.28173828125,-0.06103515625,0.42724609375,-19.5556640625,-71.0101318359375,76.1572265625
1758180370.2186918,0.9296875,-0.103515625,0.29833984375,-2.50244140625,-0.18310546875,0.54931640625,-19.599609375,-71.0101318359375,76.168212890625
1758180370.228887,0.9296875,-0.103515625,0.29833984375,-2.50244140625,-0.18310546875,0.54931640625,-19.6380615234375,-71.0101318359375,76.1737060546875
1758180370.2387369,0.9365234375,-0.111328125,0.30615234375,-1.40380859375,-0.18310546875,0.6103515625,-19.6710205078125,-71.0101318359375,76.17919921875
1758180370.248688,0.9365234375,-0.111328125,0.30615234375,-1.40380859375,-0.18310546875,0.6103515625,-19.7039794921875,-71.0101318359375,76.1846923828125
1758180370.2587166,0.93505859375,-0.119140625,0.3056640625,-0.30517578125,-0.18310546875,0.30517578125,-19.720458984375,-71.0101318359375,76.1846923828125
1758180370.2686634,0.93505859375,-0.119140625,0.3056640625,-0.30517578125,-0.18310546875,0.30517578125,-19.7314453125,-71.0101318359375,76.1846923828125
1758180370.2792814,0.9345703125,-0.1142578125,0.29833984375,0.0,-0.1220703125,-0.06103515625,-19.7369384765625,-71.0101318359375,76.1737060546875
1758180370.2886655,0.9345703125,-0.1142578125,0.29833984375,0.0,-0.1220703125,-0.06103515625,-19.7369384765625,-71.0101318359375,76.1627197265625
1758180370.2989378,0.93798828125,-0.10791015625,0.302734375,0.18310546875,-0.1220703125,-0.3662109375,-19.7314453125,-71.015625,76.146240234375
1758180370.3087325,0.93798828125,-0.10791015625,0.302734375,0.18310546875,-0.1220703125,-0.3662109375,-19.720458984375,-71.015625,76.124267578125
1758180370.3187888,0.95166015625,-0.12060546875,0.3125,0.244140625,-0.244140625,-0.67138671875,-19.7039794921875,-71.0211181640625,76.102294921875
1758180370.3288143,0.95166015625,-0.12060546875,0.3125,0.244140625,-0.244140625,-0.67138671875,-19.6875,-71.026611328125,76.0748291015625
1758180370.3387928,0.943359375,-0.10546875,0.2998046875,0.42724609375,-0.1220703125,-0.8544921875,-19.66552734375,-71.026611328125,76.04736328125
1758180370.3493729,0.943359375,-0.10546875,0.2998046875,0.42724609375,-0.1220703125,-0.8544921875,-19.6435546875,-71.0321044921875,76.014404296875
1758180370.3587937,0.935546875,-0.10595703125,0.3046875,1.46484375,0.0,-0.91552734375,-19.6051025390625,-71.03759765625,75.9814453125
1758180370.3689816,0.935546875,-0.10595703125,0.3046875,1.46484375,0.0,-0.91552734375,-19.566650390625,-71.03759765625,75.948486328125
1758180370.3795514,0.93701171875,-0.10693359375,0.30029296875,1.220703125,0.0,-1.03759765625,-19.5281982421875,-71.0430908203125,75.9100341796875
1758180370.3888545,0.93701171875,-0.10693359375,0.30029296875,1.220703125,0.0,-1.03759765625,-19.48974609375,-71.0430908203125,75.87158203125
1758180370.398863,0.9423828125,-0.11572265625,0.3037109375,1.8310546875,0.0,-1.0986328125,-19.44580078125,-71.048583984375,75.8331298828125
1758180370.4089613,0.9423828125,-0.11572265625,0.3037109375,1.8310546875,0.0,-1.0986328125,-19.40185546875,-71.0540771484375,75.8001708984375
1758180370.418843,0.9482421875,-0.11572265625,0.31005859375,1.52587890625,0.1220703125,-1.0986328125,-19.35791015625,-71.0540771484375,75.7672119140625
1758180370.429021,0.9482421875,-0.11572265625,0.31005859375,1.52587890625,0.1220703125,-1.0986328125,-19.3194580078125,-71.0540771484375,75.728759765625
1758180370.4388895,0.94091796875,-0.1044921875,0.3037109375,0.3662109375,0.1220703125,-0.8544921875,-19.2919921875,-71.0595703125,75.7012939453125
1758180370.449388,0.94091796875,-0.1044921875,0.3037109375,0.3662109375,0.1220703125,-0.8544921875,-19.27001953125,-71.0595703125,75.673828125
1758180370.4589233,0.9384765625,-0.1005859375,0.30078125,-0.6103515625,0.1220703125,-0.54931640625,-19.2645263671875,-71.0595703125,75.6463623046875
1758180370.4690638,0.9384765625,-0.1005859375,0.30078125,-0.6103515625,0.1220703125,-0.54931640625,-19.2535400390625,-71.0595703125,75.6243896484375
1758180370.4794648,0.94677734375,-0.1083984375,0.30615234375,-0.91552734375,0.1220703125,-0.3662109375,-19.2535400390625,-71.0595703125,75.6024169921875
1758180370.4890904,0.94677734375,-0.1083984375,0.30615234375,-0.91552734375,0.1220703125,-0.3662109375,-19.2535400390625,-71.0595703125,75.5804443359375
1758180370.4993176,0.95068359375,-0.11376953125,0.3115234375,-0.8544921875,0.1220703125,-0.48828125,-19.2535400390625,-71.0595703125,75.552978515625
1758180370.509104,0.95068359375,-0.11376953125,0.3115234375,-0.8544921875,0.1220703125,-0.48828125,-19.248046875,-71.0595703125,75.531005859375
1758180370.519001,0.9501953125,-0.11181640625,0.30517578125,-0.79345703125,0.244140625,-0.6103515625,-19.2425537109375,-71.0595703125,75.498046875
1758180370.529091,0.9501953125,-0.11181640625,0.30517578125,-0.79345703125,0.244140625,-0.6103515625,-19.2315673828125,-71.0595703125,75.47607421875
1758180370.539128,0.94775390625,-0.10546875,0.3076171875,-1.52587890625,0.42724609375,-0.6103515625,-19.2315673828125,-71.0595703125,75.443115234375
1758180370.550147,0.94775390625,-0.10546875,0.3076171875,-1.52587890625,0.42724609375,-0.6103515625,-19.22607421875,-71.0540771484375,75.4156494140625
1758180370.559094,0.94921875,-0.1044921875,0.30908203125,-1.0986328125,0.54931640625,-0.67138671875,-19.215087890625,-71.0540771484375,75.3826904296875
1758180370.5690823,0.94921875,-0.1044921875,0.30908203125,-1.0986328125,0.54931640625,-0.67138671875,-19.2041015625,-71.048583984375,75.34423828125
1758180370.579906,0.94580078125,-0.10888671875,0.3095703125,-0.6103515625,0.54931640625,-0.8544921875,-19.18212890625,-71.048583984375,75.3057861328125
1758180370.5890949,0.94580078125,-0.10888671875,0.3095703125,-0.6103515625,0.54931640625,-0.8544921875,-19.16015625,-71.0430908203125,75.267333984375
1758180370.5993106,0.939453125,-0.109375,0.298828125,-0.79345703125,0.42724609375,-0.9765625,-19.1436767578125,-71.0430908203125,75.223388671875
1758180370.6091442,0.939453125,-0.109375,0.298828125,-0.79345703125,0.42724609375,-0.9765625,-19.1217041015625,-71.0430908203125,75.179443359375
1758180370.619113,0.9326171875,-0.10888671875,0.30126953125,-0.79345703125,0.18310546875,-1.03759765625,-19.0997314453125,-71.0430908203125,75.1409912109375
1758180370.6291554,0.9306640625,-0.10693359375,0.2978515625,-1.03759765625,0.0,-1.03759765625,-19.083251953125,-71.048583984375,75.1025390625
1758180370.6391025,0.9306640625,-0.10693359375,0.2978515625,-1.03759765625,0.0,-1.03759765625,-19.072265625,-71.048583984375,75.0640869140625
