timestamp,acc_x,acc_y,acc_z,gyro_x,gyro_y,gyro_z,angle_x,angle_y,angle_z
1760967288.7669625,-0.68896484375,-0.00048828125,0.72998046875,-1.64794921875,1.03759765625,-1.03759765625,-1.131591796875,41.6217041015625,-179.3243408203125
1760967288.7761934,-0.68896484375,-0.00048828125,0.72998046875,-1.64794921875,1.03759765625,-1.03759765625,-1.1480712890625,41.63818359375,-179.3243408203125
1760967288.7882795,-0.6875,0.00244140625,0.7265625,-0.8544921875,1.0986328125,-1.0986328125,-1.16455078125,41.649169921875,-179.3243408203125
1760967288.8005323,-0.6875,0.00244140625,0.7265625,-0.8544921875,1.0986328125,-1.0986328125,-1.175537109375,41.66015625,-179.3243408203125
1760967288.8106048,-0.6748046875,0.00244140625,0.74462890625,-1.15966796875,1.0986328125,-1.03759765625,-1.1865234375,41.6766357421875,-179.31884765625
1760967288.8196135,-0.6748046875,0.00244140625,0.74462890625,-1.15966796875,1.0986328125,-1.03759765625,-1.197509765625,41.693115234375,-179.31884765625
1760967288.8267393,-0.66015625,-0.00634765625,0.76025390625,-0.9765625,0.91552734375,-0.8544921875,-1.20849609375,41.7041015625,-179.3133544921875
1760967288.836011,-0.66015625,-0.00634765625,0.76025390625,-0.9765625,0.91552734375,-0.8544921875,-1.219482421875,41.715087890625,-179.307861328125
1760967288.8450954,-0.6552734375,-0.00830078125,0.759765625,-0.9765625,0.67138671875,-0.54931640625,-1.23046875,41.72607421875,-179.307861328125
1760967288.856569,-0.6552734375,-0.00830078125,0.759765625,-0.9765625,0.67138671875,-0.54931640625,-1.2359619140625,41.7315673828125,-179.3023681640625
1760967288.8651197,-0.6591796875,-0.0078125,0.75927734375,-0.67138671875,0.42724609375,-0.3662109375,-1.241455078125,41.737060546875,-179.296875
1760967288.8752506,-0.6591796875,-0.0078125,0.75927734375,-0.67138671875,0.42724609375,-0.3662109375,-1.2469482421875,41.7425537109375,-179.2913818359375
1760967288.8851264,-0.66455078125,-0.00146484375,0.75146484375,-0.1220703125,0.244140625,-0.3662109375,-1.2469482421875,41.7425537109375,-179.285888671875
1760967288.895126,-0.66455078125,-0.00146484375,0.75146484375,-0.1220703125,0.244140625,-0.3662109375,-1.2469482421875,41.7425537109375,-179.2803955078125
1760967288.9053895,-0.66796875,0.0,0.74072265625,-0.54931640625,0.244140625,-0.42724609375,-1.2469482421875,41.748046875,-179.27490234375
1760967288.915355,-0.66796875,0.0,0.74072265625,-0.54931640625,0.244140625,-0.42724609375,-1.2469482421875,41.748046875,-179.2694091796875
1760967288.9257479,-0.669921875,-0.00146484375,0.751953125,-0.67138671875,0.244140625,-0.42724609375,-1.25244140625,41.748046875,-179.263916015625
1760967288.9357917,-0.669921875,-0.00146484375,0.751953125,-0.67138671875,0.244140625,-0.42724609375,-1.25244140625,41.7535400390625,-179.2584228515625
1760967288.9457157,-0.6650390625,-0.001953125,0.74853515625,-0.48828125,0.06103515625,-0.48828125,-1.2579345703125,41.7535400390625,-179.2584228515625
1760967288.9553535,-0.6650390625,-0.001953125,0.74853515625,-0.48828125,0.06103515625,-0.48828125,-1.2579345703125,41.7535400390625,-179.2529296875
1760967288.9655404,-0.66552734375,-0.00390625,0.74853515625,-0.48828125,-0.1220703125,-0.48828125,-1.263427734375,41.7535400390625,-179.2474365234375
1760967288.9752684,-0.66552734375,-0.00390625,0.74853515625,-0.48828125,-0.1220703125,-0.48828125,-1.263427734375,41.748046875,-179.241943359375
1760967288.9852576,-0.66552734375,-0.00927734375,0.74951171875,-0.06103515625,-0.42724609375,-0.42724609375,-1.263427734375,41.748046875,-179.241943359375
1760967288.9951935,-0.66552734375,-0.00927734375,0.74951171875,-0.06103515625,-0.42724609375,-0.42724609375,-1.263427734375,41.7425537109375,-179.2364501953125
1760967289.0052297,-0.66162109375,-0.01025390625,0.75146484375,0.42724609375,-0.54931640625,-0.3662109375,-1.2579345703125,41.737060546875,-179.23095703125
1760967289.0152338,-0.66162109375,-0.01025390625,0.75146484375,0.42724609375,-0.54931640625,-0.3662109375,-1.25244140625,41.7315673828125,-179.2254638671875
1760967289.0252285,-0.66162109375,-0.01025390625,0.75146484375,0.30517578125,-0.6103515625,-0.30517578125,-1.2469482421875,41.72607421875,-179.219970703125
1760967289.0352428,-0.6572265625,-0.0029296875,0.75830078125,0.30517578125,-0.6103515625,-0.30517578125,-1.241455078125,41.715087890625,-179.2144775390625
1760967289.0452435,-0.658203125,-0.00439453125,0.76611328125,-0.6103515625,-0.54931640625,-0.1220703125,-1.2359619140625,41.7095947265625,-179.208984375
1760967289.0552511,-0.658203125,-0.00439453125,0.76611328125,-0.6103515625,-0.54931640625,-0.1220703125,-1.241455078125,41.6986083984375,-179.2034912109375
1760967289.0652614,-0.65869140625,-0.00732421875,0.76025390625,-0.67138671875,-0.54931640625,-0.06103515625,-1.241455078125,41.693115234375,-179.2034912109375
1760967289.0752726,-0.65869140625,-0.00732421875,0.76025390625,-0.67138671875,-0.54931640625,-0.06103515625,-1.241455078125,41.6876220703125,-179.197998046875
1760967289.0852685,-0.6552734375,-0.00341796875,0.7548828125,-0.18310546875,-0.67138671875,-0.18310546875,-1.241455078125,41.6766357421875,-179.1925048828125
1760967289.0952866,-0.6552734375,-0.00341796875,0.7548828125,-0.18310546875,-0.67138671875,-0.18310546875,-1.241455078125,41.6656494140625,-179.18701171875
1760967289.1053634,-0.65380859375,0.00390625,0.76025390625,0.0,-0.732421875,-0.48828125,-1.241455078125,41.6546630859375,-179.18701171875
1760967289.115582,-0.65380859375,0.00390625,0.76025390625,0.0,-0.732421875,-0.48828125,-1.2359619140625,41.649169921875,-179.18701171875
1760967289.1253724,-0.65771484375,-0.00439453125,0.75830078125,-0.3662109375,-0.54931640625,-0.6103515625,-1.2359619140625,41.63818359375,-179.18701171875
1760967289.1353707,-0.65771484375,-0.00439453125,0.75830078125,-0.3662109375,-0.54931640625,-0.6103515625,-1.241455078125,41.627197265625,-179.18701171875
1760967289.1453643,-0.65673828125,-0.01123046875,0.76318359375,-1.5869140625,-0.30517578125,-0.48828125,-1.25244140625,41.6217041015625,-179.1925048828125
1760967289.1553743,-0.65673828125,-0.01123046875,0.76318359375,-1.5869140625,-0.30517578125,-0.48828125,-1.263427734375,41.6162109375,-179.1925048828125
1760967289.1653676,-0.6494140625,-0.0048828125,0.76611328125,-1.220703125,-0.244140625,-0.48828125,-1.2744140625,41.605224609375,-179.1925048828125
1760967289.1753724,-0.6494140625,-0.0048828125,0.76611328125,-1.220703125,-0.244140625,-0.48828125,-1.285400390625,41.5997314453125,-179.1925048828125
1760967289.185373,-0.64794921875,0.0,0.76171875,-0.8544921875,-0.30517578125,-0.6103515625,-1.29638671875,41.59423828125,-179.197998046875
1760967289.1953824,-0.64794921875,0.0,0.76171875,-0.8544921875,-0.30517578125,-0.6103515625,-1.307373046875,41.583251953125,-179.197998046875
1760967289.205407,-0.6494140625,-0.00439453125,0.7685546875,-1.52587890625,-0.30517578125,-0.67138671875,-1.318359375,41.5777587890625,-179.2034912109375
1760967289.2156103,-0.6494140625,-0.00439453125,0.7685546875,-1.52587890625,-0.30517578125,-0.67138671875,-1.329345703125,41.5667724609375,-179.208984375
1760967289.2254071,-0.65673828125,-0.01123046875,0.76953125,-1.953125,-0.1220703125,-0.48828125,-1.3458251953125,41.561279296875,-179.208984375
1760967289.235418,-0.65673828125,-0.01123046875,0.76953125,-1.953125,-0.1220703125,-0.48828125,-1.3677978515625,41.5557861328125,-179.2144775390625
1760967289.2454212,-0.64697265625,-0.00390625,0.72900390625,-2.38037109375,0.1220703125,-0.3662109375,-1.38427734375,41.55029296875,-179.2144775390625
1760967289.2554898,-0.64697265625,-0.00390625,0.72900390625,-2.38037109375,0.1220703125,-0.3662109375,-1.40625,41.5447998046875,-179.2144775390625
1760967289.26544,-0.60302734375,0.0,0.849609375,-3.0517578125,-0.6103515625,-0.30517578125,-1.42822265625,41.539306640625,-179.2144775390625
1760967289.2754908,-0.60302734375,0.0,0.849609375,-3.0517578125,-0.6103515625,-0.30517578125,-1.4556884765625,41.5228271484375,-179.219970703125
1760967289.2854495,-0.626953125,-0.021484375,0.80810546875,-3.90625,0.0,-0.1220703125,-1.483154296875,41.50634765625,-179.2254638671875
1760967289.2954967,-0.626953125,-0.021484375,0.80810546875,-3.90625,0.0,-0.1220703125,-1.5216064453125,41.495361328125,-179.23095703125
1760967289.3054848,-0.6513671875,-0.0263671875,0.74658203125,-2.50244140625,0.0,0.0,-1.5435791015625,41.484375,-179.2364501953125
1760967289.315712,-0.6513671875,-0.0263671875,0.74658203125,-2.50244140625,0.0,0.0,-1.5655517578125,41.473388671875,-179.2364501953125
1760967289.3255434,-0.67236328125,-0.00537109375,0.7529296875,-1.40380859375,0.244140625,-0.1220703125,-1.58203125,41.46240234375,-179.2364501953125
1760967289.3355987,-0.67236328125,-0.00537109375,0.7529296875,-1.40380859375,0.244140625,-0.1220703125,-1.593017578125,41.4569091796875,-179.241943359375
1760967289.3455944,-0.67626953125,-0.00634765625,0.7333984375,-0.18310546875,0.244140625,-0.1220703125,-1.593017578125,41.451416015625,-179.241943359375
1760967289.3558471,-0.67626953125,-0.00634765625,0.7333984375,-0.18310546875,0.244140625,-0.1220703125,-1.593017578125,41.4459228515625,-179.2364501953125
1760967289.3655977,-0.671875,-0.013671875,0.75244140625,-0.18310546875,0.06103515625,-0.06103515625,-1.5875244140625,41.4459228515625,-179.23095703125
1760967289.375731,-0.671875,-0.013671875,0.75244140625,-0.18310546875,0.06103515625,-0.06103515625,-1.5875244140625,41.4404296875,-179.2254638671875
1760967289.3857675,-0.666015625,-0.0078125,0.75,-0.244140625,0.0,-0.06103515625,-1.58203125,41.4349365234375,-179.219970703125
1760967289.3956504,-0.666015625,-0.0078125,0.75,-0.244140625,0.0,-0.06103515625,-1.58203125,41.4349365234375,-179.2144775390625
1760967289.413428,-0.66357421875,0.0,0.74462890625,-1.708984375,0.1220703125,-0.1220703125,-1.5875244140625,41.429443359375,-179.2034912109375
1760967289.4195588,-0.66357421875,0.0,0.74462890625,-1.708984375,0.1220703125,-0.1220703125,-1.5985107421875,41.429443359375,-179.197998046875
1760967289.4257236,-0.66455078125,-0.0087890625,0.76220703125,-3.173828125,0.42724609375,0.0,-1.6204833984375,41.429443359375,-179.18701171875
1760967289.4357011,-0.66455078125,-0.0087890625,0.76220703125,-3.173828125,0.42724609375,0.0,-1.6424560546875,41.4349365234375,-179.176025390625
1760967289.4541934,-0.66796875,-0.02587890625,0.755859375,-2.13623046875,0.6103515625,0.0,-1.6644287109375,41.4349365234375,-179.1705322265625
1760967289.4616778,-0.66796875,-0.02587890625,0.755859375,-2.13623046875,0.6103515625,0.0,-1.680908203125,41.4404296875,-179.1595458984375
1760967289.4682724,-0.669921875,-0.02490234375,0.7353515625,-0.3662109375,0.732421875,-0.18310546875,-1.69189453125,41.4459228515625,-179.154052734375
1760967289.476592,-0.669921875,-0.02490234375,0.7353515625,-0.3662109375,0.732421875,-0.18310546875,-1.69189453125,41.451416015625,-179.1485595703125
1760967289.4941747,-0.66796875,-0.01220703125,0.74072265625,0.48828125,0.6103515625,-0.30517578125,-1.6864013671875,41.4569091796875,-179.14306640625
1760967289.506001,-0.66796875,-0.01220703125,0.74072265625,0.48828125,0.6103515625,-0.30517578125,-1.680908203125,41.46240234375,-179.1375732421875
1760967289.51219,-0.66455078125,-0.01025390625,0.75732421875,-0.48828125,0.54931640625,-0.18310546875,-1.680908203125,41.4678955078125,-179.132080078125
1760967289.5186806,-0.66455078125,-0.01025390625,0.75732421875,-0.48828125,0.54931640625,-0.18310546875,-1.680908203125,41.473388671875,-179.1265869140625
1760967289.5382013,-0.662109375,-0.02197265625,0.759765625,-0.6103515625,0.48828125,-0.06103515625,-1.6864013671875,41.4788818359375,-179.12109375
1760967289.5446248,-0.662109375,-0.02197265625,0.759765625,-0.6103515625,0.48828125,-0.06103515625,-1.6864013671875,41.484375,-179.110107421875
1760967289.5507956,-0.66259765625,-0.01611328125,0.7509765625,0.732421875,0.18310546875,-0.1220703125,-1.6864013671875,41.4898681640625,-179.1046142578125
1760967289.5571775,-0.66259765625,-0.01611328125,0.7509765625,0.732421875,0.18310546875,-0.1220703125,-1.6754150390625,41.4898681640625,-179.09912109375
1760967289.5703082,-0.66650390625,0.0,0.7451171875,0.67138671875,0.0,-0.30517578125,-1.669921875,41.4898681640625,-179.0936279296875
1760967289.578724,-0.66650390625,0.0,0.7451171875,0.67138671875,0.0,-0.30517578125,-1.658935546875,41.4898681640625,-179.0936279296875
1760967289.5857747,-0.6669921875,-0.00390625,0.74560546875,-0.54931640625,-0.06103515625,-0.30517578125,-1.6644287109375,41.4898681640625,-179.088134765625
1760967289.5959704,-0.6669921875,-0.00390625,0.74560546875,-0.54931640625,-0.06103515625,-0.30517578125,-1.6644287109375,41.4898681640625,-179.0826416015625
1760967289.6100788,-0.65380859375,-0.02099609375,0.74462890625,-1.28173828125,-0.18310546875,-0.30517578125,-1.6754150390625,41.484375,-179.0771484375
1760967289.617125,-0.65380859375,-0.02099609375,0.74462890625,-1.28173828125,-0.18310546875,-0.30517578125,-1.6864013671875,41.484375,-179.0716552734375
1760967289.6260307,-0.6455078125,-0.02587890625,0.79638671875,-0.67138671875,-0.42724609375,-0.18310546875,-1.69189453125,41.4788818359375,-179.066162109375
1760967289.6423197,-0.6455078125,-0.02587890625,0.79638671875,-0.67138671875,-0.42724609375,-0.18310546875,-1.6973876953125,41.473388671875,-179.066162109375
1760967289.649044,-0.642578125,-0.01708984375,0.76123046875,-0.244140625,-0.6103515625,-0.06103515625,-1.6973876953125,41.46240234375,-179.0606689453125
1760967289.6559055,-0.642578125,-0.01708984375,0.76123046875,-0.244140625,-0.6103515625,-0.06103515625,-1.6973876953125,41.451416015625,-179.0606689453125
1760967289.6658952,-0.63818359375,-0.02001953125,0.76611328125,1.28173828125,-0.8544921875,-0.18310546875,-1.680908203125,41.4404296875,-179.0606689453125
1760967289.6793687,-0.63818359375,-0.02001953125,0.76611328125,1.28173828125,-0.8544921875,-0.18310546875,-1.669921875,41.429443359375,-179.0606689453125
1760967289.6860232,-0.64306640625,-0.01611328125,0.7783203125,0.54931640625,-0.9765625,-0.1220703125,-1.658935546875,41.4129638671875,-179.0606689453125
1760967289.6967046,-0.64306640625,-0.01611328125,0.7783203125,0.54931640625,-0.9765625,-0.1220703125,-1.6534423828125,41.396484375,-179.0606689453125
1760967289.7134988,-0.6376953125,-0.01220703125,0.765625,0.244140625,-1.15966796875,-0.06103515625,-1.64794921875,41.3800048828125,-179.0606689453125
1760967289.720856,-0.6376953125,-0.01220703125,0.765625,0.244140625,-1.15966796875,-0.06103515625,-1.6424560546875,41.363525390625,-179.066162109375
1760967289.7276435,-0.63623046875,-0.01953125,0.78271484375,1.3427734375,-1.15966796875,-0.18310546875,-1.6314697265625,41.341552734375,-179.066162109375
1760967289.7359478,-0.63623046875,-0.01953125,0.78271484375,1.3427734375,-1.15966796875,-0.18310546875,-1.614990234375,41.3250732421875,-179.0716552734375
1760967289.780679,-0.64013671875,-0.0224609375,0.7744140625,1.28173828125,-1.220703125,-0.244140625,-1.60400390625,41.3031005859375,-179.0826416015625
1760967289.7987773,-0.64013671875,-0.0224609375,0.7744140625,1.28173828125,-1.220703125,-0.244140625,-1.5875244140625,41.28662109375,-179.088134765625
1760967289.8066385,-0.6455078125,-0.0107421875,0.75341796875,2.5634765625,-1.3427734375,-0.3662109375,-1.5655517578125,41.2646484375,-179.0936279296875
1760967289.8161657,-0.6455078125,-0.0107421875,0.75341796875,2.5634765625,-1.3427734375,-0.3662109375,-1.5380859375,41.24267578125,-179.09912109375
1760967289.8257222,-0.6513671875,-0.01708984375,0.77392578125,3.90625,-1.64794921875,-0.3662109375,-1.4996337890625,41.220703125,-179.1046142578125
1760967289.8411791,-0.6513671875,-0.01708984375,0.77392578125,3.90625,-1.64794921875,-0.3662109375,-1.4666748046875,41.19873046875,-179.1156005859375
1760967289.8490982,-0.64599609375,-0.0146484375,0.76318359375,3.2958984375,-1.64794921875,-0.1220703125,-1.42822265625,41.1712646484375,-179.1156005859375
1760967289.8577712,-0.64599609375,-0.0146484375,0.76318359375,3.2958984375,-1.64794921875,-0.1220703125,-1.395263671875,41.1492919921875,-179.12109375
1760967289.8650577,-0.64697265625,-0.00732421875,0.7607421875,2.5634765625,-1.708984375,-0.244140625,-1.373291015625,41.1273193359375,-179.1265869140625
1760967289.8806882,-0.64697265625,-0.00732421875,0.7607421875,2.5634765625,-1.708984375,-0.244140625,-1.3458251953125,41.1053466796875,-179.132080078125
1760967289.8881185,-0.64404296875,-0.00244140625,0.77197265625,0.6103515625,-1.64794921875,-0.30517578125,-1.34033203125,41.0833740234375,-179.1375732421875
1760967289.8973296,-0.64404296875,-0.00244140625,0.77197265625,0.6103515625,-1.64794921875,-0.30517578125,-1.3348388671875,41.0614013671875,-179.14306640625
1760967289.915582,-0.65673828125,-0.00537109375,0.7705078125,-1.52587890625,-1.15966796875,-0.18310546875,-1.3458251953125,41.044921875,-179.14306640625
1760967289.9247293,-0.65673828125,-0.00537109375,0.7705078125,-1.52587890625,-1.15966796875,-0.18310546875,-1.3623046875,41.0284423828125,-179.14306640625
1760967289.9336417,-0.66748046875,-0.01123046875,0.77294921875,-1.0986328125,-0.79345703125,-0.244140625,-1.373291015625,41.011962890625,-179.1485595703125
1760967289.9414465,-0.66748046875,-0.01123046875,0.77294921875,-1.0986328125,-0.79345703125,-0.244140625,-1.3787841796875,41.0009765625,-179.1485595703125
1760967289.9595108,-0.6748046875,-0.01171875,0.74072265625,-2.3193359375,-0.6103515625,-0.30517578125,-1.4007568359375,40.989990234375,-179.1485595703125
1760967289.9661555,-0.6748046875,-0.01171875,0.74072265625,-2.3193359375,-0.6103515625,-0.30517578125,-1.4227294921875,40.9844970703125,-179.1485595703125
1760967289.972287,-0.6708984375,-0.01123046875,0.7333984375,-1.3427734375,-0.91552734375,-0.54931640625,-1.439208984375,40.9735107421875,-179.1485595703125
1760967289.9792843,-0.6708984375,-0.01123046875,0.7333984375,-1.3427734375,-0.91552734375,-0.54931640625,-1.4556884765625,40.9625244140625,-179.1485595703125
1760967289.992849,-0.6669921875,-0.00244140625,0.75439453125,0.67138671875,-1.220703125,-0.79345703125,-1.4501953125,40.9515380859375,-179.154052734375
1760967290.00023,-0.6669921875,-0.00244140625,0.75439453125,0.67138671875,-1.220703125,-0.79345703125,-1.4447021484375,40.9405517578125,-179.154052734375
1760967290.006928,-0.6796875,-0.00341796875,0.73828125,0.0,-1.3427734375,-0.8544921875,-1.4501953125,40.9295654296875,-179.154052734375
1760967290.014998,-0.6796875,-0.00341796875,0.73828125,0.0,-1.3427734375,-0.8544921875,-1.4501953125,40.9185791015625,-179.154052734375
1760967290.030057,-0.69287109375,-0.021484375,0.73291015625,-0.30517578125,-1.220703125,-0.732421875,-1.4556884765625,40.9075927734375,-179.1485595703125
1760967290.0390584,-0.69287109375,-0.021484375,0.73291015625,-0.30517578125,-1.220703125,-0.732421875,-1.461181640625,40.902099609375,-179.14306640625
1760967290.045972,-0.6923828125,-0.0205078125,0.72412109375,-0.79345703125,-0.8544921875,-0.54931640625,-1.47216796875,40.8966064453125,-179.132080078125
1760967290.0528572,-0.6923828125,-0.0205078125,0.72412109375,-0.79345703125,-0.8544921875,-0.54931640625,-1.4776611328125,40.8966064453125,-179.12109375
1760967290.0660563,-0.6923828125,-0.0205078125,0.72412109375,0.732421875,-0.6103515625,-0.48828125,-1.47216796875,40.8966064453125,-179.110107421875
1760967290.0727508,-0.68115234375,-0.01171875,0.74365234375,0.732421875,-0.6103515625,-0.48828125,-1.4666748046875,40.8966064453125,-179.09912109375
1760967290.0791047,-0.67578125,-0.0166015625,0.75048828125,0.54931640625,-0.3662109375,-0.30517578125,-1.461181640625,40.902099609375,-179.088134765625
1760967290.085313,-0.67578125,-0.0166015625,0.75048828125,0.54931640625,-0.3662109375,-0.30517578125,-1.4556884765625,40.9075927734375,-179.0716552734375
1760967290.0914893,-0.66845703125,-0.017578125,0.74365234375,0.30517578125,-0.244140625,0.0,-1.4501953125,40.9130859375,-179.0606689453125
1760967290.105028,-0.66845703125,-0.017578125,0.74365234375,0.30517578125,-0.244140625,0.0,-1.4447021484375,40.9185791015625,-179.044189453125
1760967290.111632,-0.6572265625,-0.01123046875,0.75341796875,-0.244140625,-0.06103515625,0.1220703125,-1.4447021484375,40.924072265625,-179.0277099609375
1760967290.1181107,-0.6572265625,-0.01123046875,0.75341796875,-0.244140625,-0.06103515625,0.1220703125,-1.4447021484375,40.9295654296875,-179.01123046875
1760967290.1253211,-0.6474609375,-0.00927734375,0.7734375,-0.91552734375,0.0,0.30517578125,-1.4501953125,40.93505859375,-178.9947509765625
1760967290.1320133,-0.6474609375,-0.00927734375,0.7734375,-0.91552734375,0.0,0.30517578125,-1.4501953125,40.93505859375,-178.9837646484375
1760967290.14648,-0.650390625,-0.015625,0.77392578125,-0.91552734375,-0.18310546875,0.3662109375,-1.4556884765625,40.9405517578125,-178.96728515625
1760967290.1556847,-0.650390625,-0.015625,0.77392578125,-0.91552734375,-0.18310546875,0.3662109375,-1.4556884765625,40.9405517578125,-178.9508056640625
1760967290.161915,-0.65625,-0.017578125,0.75634765625,-0.732421875,-0.30517578125,0.3662109375,-1.461181640625,40.9405517578125,-178.9398193359375
1760967290.1693037,-0.65625,-0.017578125,0.75634765625,-0.732421875,-0.30517578125,0.3662109375,-1.461181640625,40.93505859375,-178.9288330078125
1760967290.184381,-0.6572265625,-0.01904296875,0.75341796875,0.6103515625,-0.42724609375,0.18310546875,-1.4501953125,40.93505859375,-178.9178466796875
1760967290.19093,-0.6572265625,-0.01904296875,0.75341796875,0.6103515625,-0.42724609375,0.18310546875,-1.439208984375,40.9295654296875,-178.9068603515625
1760967290.1971788,-0.65478515625,-0.0185546875,0.7646484375,1.5869140625,-0.48828125,0.06103515625,-1.4227294921875,40.9295654296875,-178.8958740234375
1760967290.2047424,-0.65478515625,-0.0185546875,0.7646484375,1.5869140625,-0.48828125,0.06103515625,-1.40625,40.924072265625,-178.8848876953125
1760967290.2204509,-0.6513671875,-0.01025390625,0.76904296875,1.77001953125,-0.67138671875,0.06103515625,-1.38427734375,40.9185791015625,-178.87939453125
1760967290.2285342,-0.6513671875,-0.01025390625,0.76904296875,1.77001953125,-0.67138671875,0.06103515625,-1.3677978515625,40.9130859375,-178.868408203125
1760967290.2347884,-0.6640625,-0.00341796875,0.75341796875,1.3427734375,-0.67138671875,0.06103515625,-1.351318359375,40.9075927734375,-178.8629150390625
1760967290.2417283,-0.6640625,-0.00341796875,0.75341796875,1.3427734375,-0.67138671875,0.06103515625,-1.3348388671875,40.8966064453125,-178.857421875
1760967290.2547119,-0.6748046875,-0.0087890625,0.74169921875,1.03759765625,-0.54931640625,0.0,-1.318359375,40.8966064453125,-178.846435546875
1760967290.2615933,-0.6748046875,-0.0087890625,0.74169921875,1.03759765625,-0.54931640625,0.0,-1.307373046875,40.89111328125,-178.83544921875
1760967290.268551,-0.673828125,-0.0126953125,0.74658203125,1.5869140625,-0.30517578125,-0.18310546875,-1.2908935546875,40.89111328125,-178.8299560546875
1760967290.2766802,-0.673828125,-0.0126953125,0.74658203125,1.5869140625,-0.30517578125,-0.18310546875,-1.2744140625,40.89111328125,-178.824462890625
1760967290.2937331,-0.6650390625,-0.00830078125,0.75244140625,1.953125,-0.244140625,-0.48828125,-1.2579345703125,40.89111328125,-178.8189697265625
1760967290.3006175,-0.6650390625,-0.00830078125,0.75244140625,1.953125,-0.244140625,-0.48828125,-1.241455078125,40.89111328125,-178.8134765625
1760967290.3076253,-0.662109375,-0.0068359375,0.75537109375,0.91552734375,-0.244140625,-0.42724609375,-1.23046875,40.89111328125,-178.8079833984375
1760967290.3165164,-0.662109375,-0.0068359375,0.75537109375,0.91552734375,-0.244140625,-0.42724609375,-1.2249755859375,40.89111328125,-178.802490234375
1760967290.3313296,-0.6591796875,-0.01806640625,0.75634765625,0.3662109375,-0.1220703125,-0.3662109375,-1.219482421875,40.8966064453125,-178.7969970703125
1760967290.337982,-0.6591796875,-0.01806640625,0.75634765625,0.3662109375,-0.1220703125,-0.3662109375,-1.219482421875,40.8966064453125,-178.7969970703125
1760967290.3466895,-0.6533203125,-0.0166015625,0.7626953125,0.79345703125,-0.244140625,-0.3662109375,-1.2139892578125,40.8966064453125,-178.79150390625
1760967290.3564818,-0.6533203125,-0.0166015625,0.7626953125,0.79345703125,-0.244140625,-0.3662109375,-1.20849609375,40.8966064453125,-178.79150390625
1760967290.3718245,-0.65380859375,-0.00927734375,0.76220703125,0.6103515625,-0.42724609375,-0.54931640625,-1.2030029296875,40.89111328125,-178.79150390625
1760967290.3780954,-0.65380859375,-0.00927734375,0.76220703125,0.6103515625,-0.42724609375,-0.54931640625,-1.197509765625,40.89111328125,-178.79150390625
1760967290.3868883,-0.6474609375,-0.00390625,0.755859375,1.3427734375,-0.67138671875,-0.6103515625,-1.1920166015625,40.880126953125,-178.79150390625
1760967290.4070497,-0.6474609375,-0.00390625,0.755859375,1.3427734375,-0.67138671875,-0.6103515625,-1.1810302734375,40.8746337890625,-178.79150390625
1760967290.4141867,-0.650390625,-0.00830078125,0.77490234375,0.91552734375,-0.732421875,-0.79345703125,-1.175537109375,40.869140625,-178.7969970703125
1760967290.4423373,-0.650390625,-0.00830078125,0.77490234375,0.91552734375,-0.732421875,-0.79345703125,-1.1700439453125,40.8636474609375,-178.7969970703125
1760967290.455543,-0.646484375,-0.01416015625,0.767578125,1.15966796875,-0.732421875,-0.8544921875,-1.16455078125,40.8526611328125,-178.802490234375
1760967290.4954045,-0.646484375,-0.01416015625,0.767578125,1.15966796875,-0.732421875,-0.8544921875,-1.1590576171875,40.84716796875,-178.8079833984375
1760967290.5030491,-0.6455078125,-0.01416015625,0.7685546875,1.40380859375,-0.732421875,-0.79345703125,-1.1480712890625,40.836181640625,-178.8189697265625
1760967290.510148,-0.6455078125,-0.01416015625,0.7685546875,1.40380859375,-0.732421875,-0.79345703125,-1.1370849609375,40.8251953125,-178.824462890625
1760967290.5168097,-0.64990234375,-0.0068359375,0.7705078125,1.15966796875,-0.67138671875,-0.8544921875,-1.131591796875,40.8197021484375,-178.8299560546875
1760967290.5423765,-0.64990234375,-0.0068359375,0.7705078125,1.15966796875,-0.67138671875,-0.8544921875,-1.1260986328125,40.8087158203125,-178.8409423828125
1760967290.5513873,-0.65380859375,-0.00830078125,0.76025390625,0.6103515625,-0.48828125,-0.8544921875,-1.1260986328125,40.80322265625,-178.846435546875
1760967290.5592601,-0.65380859375,-0.00830078125,0.76025390625,0.6103515625,-0.48828125,-0.8544921875,-1.1260986328125,40.7977294921875,-178.8519287109375
1760967290.567592,-0.65478515625,-0.0087890625,0.75830078125,0.18310546875,-0.54931640625,-0.79345703125,-1.1260986328125,40.7867431640625,-178.8629150390625
1760967290.5771828,-0.65478515625,-0.0087890625,0.75830078125,0.18310546875,-0.54931640625,-0.79345703125,-1.131591796875,40.78125,-178.868408203125
1760967290.6039746,-0.6484375,-0.00830078125,0.76708984375,0.06103515625,-0.732421875,-0.79345703125,-1.131591796875,40.770263671875,-178.8739013671875
1760967290.6129882,-0.6484375,-0.00830078125,0.76708984375,0.06103515625,-0.732421875,-0.79345703125,-1.1370849609375,40.7647705078125,-178.8848876953125
1760967290.6199486,-0.65087890625,-0.00732421875,0.75634765625,1.0986328125,-0.48828125,-0.732421875,-1.131591796875,40.75927734375,-178.890380859375
1760967290.6274018,-0.65087890625,-0.00732421875,0.75634765625,1.0986328125,-0.48828125,-0.732421875,-1.12060546875,40.7537841796875,-178.8958740234375
1760967290.6503437,-0.662109375,-0.01513671875,0.763671875,0.67138671875,-0.6103515625,-0.79345703125,-1.12060546875,40.7427978515625,-178.9013671875
1760967290.6585684,-0.662109375,-0.01513671875,0.763671875,0.67138671875,-0.6103515625,-0.79345703125,-1.1151123046875,40.7373046875,-178.9068603515625
1760967290.666188,-0.6591796875,-0.01171875,0.74560546875,-0.06103515625,-0.42724609375,-0.732421875,-1.12060546875,40.7318115234375,-178.912353515625
1760967290.674621,-0.6591796875,-0.01171875,0.74560546875,-0.06103515625,-0.42724609375,-0.732421875,-1.1260986328125,40.726318359375,-178.9178466796875
1760967290.692768,-0.65478515625,-0.01220703125,0.76953125,-0.18310546875,-0.48828125,-0.79345703125,-1.131591796875,40.7208251953125,-178.9178466796875
1760967290.6998887,-0.6552734375,-0.005859375,0.7509765625,-0.9765625,-0.54931640625,-0.8544921875,-1.142578125,40.71533203125,-178.92333984375
1760967290.7094078,-0.6552734375,-0.005859375,0.7509765625,-0.9765625,-0.54931640625,-0.8544921875,-1.1590576171875,40.7098388671875,-178.9288330078125
1760967290.7273946,-0.658203125,-0.0087890625,0.76513671875,-0.732421875,-0.54931640625,-0.91552734375,-1.1700439453125,40.704345703125,-178.934326171875
1760967290.7389448,-0.658203125,-0.0087890625,0.76513671875,-0.732421875,-0.54931640625,-0.91552734375,-1.1865234375,40.704345703125,-178.9398193359375
1760967290.7459779,-0.65283203125,-0.013671875,0.76220703125,-1.15966796875,-0.54931640625,-0.91552734375,-1.197509765625,40.6988525390625,-178.9453125
1760967290.7563663,-0.65283203125,-0.013671875,0.76220703125,-1.15966796875,-0.54931640625,-0.91552734375,-1.2139892578125,40.693359375,-178.9508056640625
1760967290.771724,-0.65283203125,-0.0146484375,0.76318359375,-0.8544921875,-0.6103515625,-0.8544921875,-1.23046875,40.6878662109375,-178.956298828125
1760967290.7795043,-0.65283203125,-0.0146484375,0.76318359375,-0.8544921875,-0.6103515625,-0.8544921875,-1.2469482421875,40.6768798828125,-178.9617919921875
1760967290.787006,-0.650390625,-0.01220703125,0.763671875,-0.3662109375,-0.6103515625,-0.8544921875,-1.2579345703125,40.67138671875,-178.96728515625
1760967290.7934027,-0.650390625,-0.01220703125,0.763671875,-0.3662109375,-0.6103515625,-0.8544921875,-1.263427734375,40.6658935546875,-178.9727783203125
1760967290.8106308,-0.64697265625,-0.0087890625,0.76171875,-0.3662109375,-0.732421875,-0.9765625,-1.2744140625,40.660400390625,-178.978271484375
1760967290.8221118,-0.64697265625,-0.0087890625,0.76171875,-0.3662109375,-0.732421875,-0.9765625,-1.2799072265625,40.6494140625,-178.9837646484375
1760967290.8292034,-0.64697265625,-0.0126953125,0.771484375,-0.18310546875,-0.67138671875,-0.91552734375,-1.2908935546875,40.6439208984375,-178.9947509765625
1760967290.8370607,-0.64697265625,-0.0126953125,0.771484375,-0.18310546875,-0.67138671875,-0.91552734375,-1.29638671875,40.638427734375,-179.000244140625
1760967290.8686533,-0.64404296875,-0.02197265625,0.77490234375,-0.48828125,-0.6103515625,-0.79345703125,-1.3018798828125,40.62744140625,-179.0057373046875
1760967290.8769596,-0.64404296875,-0.02197265625,0.77490234375,-0.48828125,-0.6103515625,-0.79345703125,-1.3128662109375,40.6219482421875,-179.0167236328125
1760967290.884975,-0.6396484375,-0.01953125,0.7724609375,0.54931640625,-0.67138671875,-0.79345703125,-1.318359375,40.6109619140625,-179.022216796875
1760967290.8921986,-0.6396484375,-0.01953125,0.7724609375,0.54931640625,-0.67138671875,-0.79345703125,-1.318359375,40.60546875,-179.033203125
1760967290.902282,-0.6435546875,-0.01513671875,0.77099609375,1.28173828125,-0.732421875,-0.91552734375,-1.3128662109375,40.594482421875,-179.044189453125
1760967290.9285681,-0.6435546875,-0.01513671875,0.77099609375,1.28173828125,-0.732421875,-0.91552734375,-1.307373046875,40.58349609375,-179.05517578125
1760967290.9351158,-0.64404296875,-0.01025390625,0.76220703125,2.13623046875,-0.79345703125,-1.15966796875,-1.29638671875,40.572509765625,-179.066162109375
1760967290.9445615,-0.64404296875,-0.01025390625,0.76220703125,2.13623046875,-0.79345703125,-1.15966796875,-1.285400390625,40.5615234375,-179.0826416015625
1760967290.9508467,-0.638671875,-0.01025390625,0.7783203125,2.50244140625,-1.03759765625,-1.220703125,-1.2689208984375,40.550537109375,-179.09912109375
1760967290.9770608,-0.638671875,-0.01025390625,0.7783203125,2.50244140625,-1.03759765625,-1.220703125,-1.25244140625,40.53955078125,-179.1156005859375
1760967290.985246,-0.63525390625,-0.01513671875,0.77978515625,2.62451171875,-1.220703125,-1.0986328125,-1.2359619140625,40.5230712890625,-179.132080078125
1760967290.9932964,-0.63525390625,-0.01513671875,0.77978515625,2.62451171875,-1.220703125,-1.0986328125,-1.219482421875,40.506591796875,-179.1485595703125
1760967291.0004823,-0.63525390625,-0.0126953125,0.76953125,1.708984375,-1.28173828125,-1.15966796875,-1.2030029296875,40.4901123046875,-179.1650390625
1760967291.0103195,-0.63525390625,-0.0126953125,0.76953125,1.708984375,-1.28173828125,-1.15966796875,-1.197509765625,40.4736328125,-179.1815185546875
1760967291.0183747,-0.6455078125,-0.001953125,0.76708984375,0.1220703125,-1.15966796875,-1.220703125,-1.197509765625,40.4571533203125,-179.197998046875
1760967291.0515263,-0.6455078125,-0.001953125,0.76708984375,0.1220703125,-1.15966796875,-1.220703125,-1.2030029296875,40.440673828125,-179.2144775390625
1760967291.0628865,-0.65185546875,-0.01416015625,0.76806640625,1.40380859375,-0.91552734375,-1.52587890625,-1.2030029296875,40.4241943359375,-179.2364501953125
1760967291.0703542,-0.65185546875,-0.01416015625,0.76806640625,1.40380859375,-0.91552734375,-1.52587890625,-1.2030029296875,40.4132080078125,-179.2529296875
1760967291.0780404,-0.654296875,-0.02099609375,0.76416015625,1.220703125,-0.8544921875,-1.77001953125,-1.197509765625,40.4022216796875,-179.27490234375
1760967291.08478,-0.654296875,-0.02099609375,0.76416015625,1.220703125,-0.8544921875,-1.77001953125,-1.2030029296875,40.3912353515625,-179.296875
1760967291.108487,-0.65673828125,-0.00830078125,0.7568359375,3.11279296875,-1.03759765625,-1.89208984375,-1.1920166015625,40.3802490234375,-179.31884765625
1760967291.1164894,-0.65673828125,-0.00830078125,0.7568359375,3.11279296875,-1.03759765625,-1.89208984375,-1.175537109375,40.3692626953125,-179.3408203125
1760967291.1233692,-0.6611328125,-0.013671875,0.7646484375,2.5634765625,-0.9765625,-2.0751953125,-1.16455078125,40.352783203125,-179.3682861328125
1760967291.1319563,-0.6611328125,-0.013671875,0.7646484375,2.5634765625,-0.9765625,-2.0751953125,-1.153564453125,40.3472900390625,-179.3902587890625
1760967291.1389205,-0.6611328125,-0.0087890625,0.74951171875,1.8310546875,-0.732421875,-2.13623046875,-1.1480712890625,40.3363037109375,-179.4122314453125
1760967291.1471238,-0.6611328125,-0.0087890625,0.74951171875,1.8310546875,-0.732421875,-2.13623046875,-1.1480712890625,40.330810546875,-179.4342041015625
1760967291.1653867,-0.6650390625,-0.0068359375,0.7626953125,2.38037109375,-0.48828125,-2.3193359375,-1.142578125,40.3253173828125,-179.461669921875
1760967291.1751833,-0.6650390625,-0.0068359375,0.7626953125,2.38037109375,-0.48828125,-2.3193359375,-1.1370849609375,40.31982421875,-179.483642578125
1760967291.1848848,-0.6572265625,-0.0048828125,0.75,1.5869140625,-0.42724609375,-2.44140625,-1.1370849609375,40.31982421875,-179.5111083984375
1760967291.193409,-0.6572265625,-0.0048828125,0.75,1.5869140625,-0.42724609375,-2.44140625,-1.1370849609375,40.3143310546875,-179.5330810546875
1760967291.202114,-0.65576171875,-0.0166015625,0.76171875,1.8310546875,-0.244140625,-2.5634765625,-1.142578125,40.3143310546875,-179.560546875
1760967291.2101653,-0.65576171875,-0.0166015625,0.76171875,1.8310546875,-0.244140625,-2.5634765625,-1.142578125,40.3143310546875,-179.58251953125
1760967291.2334363,-0.6513671875,-0.0146484375,0.76123046875,2.74658203125,-0.1220703125,-2.44140625,-1.1370849609375,40.3143310546875,-179.6099853515625
1760967291.2398124,-0.6513671875,-0.0146484375,0.76123046875,2.74658203125,-0.1220703125,-2.44140625,-1.131591796875,40.3143310546875,-179.637451171875
1760967291.2462988,-0.6376953125,-0.01123046875,0.76708984375,1.46484375,-0.1220703125,-2.25830078125,-1.1260986328125,40.3143310546875,-179.659423828125
1760967291.25411,-0.6376953125,-0.01123046875,0.76708984375,1.46484375,-0.1220703125,-2.25830078125,-1.131591796875,40.3143310546875,-179.6868896484375
1760967291.2604187,-0.626953125,-0.0146484375,0.7890625,0.9765625,-0.244140625,-1.953125,-1.131591796875,40.3143310546875,-179.7088623046875
1760967291.276096,-0.626953125,-0.0146484375,0.7890625,0.9765625,-0.244140625,-1.953125,-1.1370849609375,40.308837890625,-179.7308349609375
1760967291.2837512,-0.6240234375,-0.02880859375,0.79345703125,1.28173828125,-0.48828125,-1.953125,-1.142578125,40.3033447265625,-179.7528076171875
1760967291.2903042,-0.6240234375,-0.02880859375,0.79345703125,1.28173828125,-0.48828125,-1.953125,-1.1480712890625,40.2978515625,-179.7802734375
1760967291.300316,-0.63134765625,-0.01611328125,0.78564453125,1.5869140625,-0.54931640625,-2.0751953125,-1.1480712890625,40.286865234375,-179.8077392578125
1760967291.3072572,-0.63134765625,-0.01611328125,0.78564453125,1.5869140625,-0.54931640625,-2.0751953125,-1.153564453125,40.2813720703125,-179.8406982421875
1760967291.3276553,-0.63232421875,-0.0146484375,0.779296875,2.74658203125,-0.244140625,-2.0751953125,-1.1480712890625,40.2703857421875,-179.8681640625
1760967291.3392582,-0.63232421875,-0.0146484375,0.779296875,2.74658203125,-0.244140625,-2.0751953125,-1.1370849609375,40.264892578125,-179.901123046875
1760967291.3479066,-0.63525390625,-0.0146484375,0.78662109375,3.35693359375,0.0,-2.01416015625,-1.1260986328125,40.25390625,-179.93408203125
1760967291.3561878,-0.63525390625,-0.0146484375,0.78662109375,3.35693359375,0.0,-2.01416015625,-1.109619140625,40.2484130859375,-179.967041015625
1760967291.3651755,-0.638671875,-0.0146484375,0.78271484375,3.23486328125,0.1220703125,-2.01416015625,-1.0931396484375,40.2484130859375,-179.9945068359375
1760967291.3831818,-0.638671875,-0.0146484375,0.78271484375,3.23486328125,0.1220703125,-2.01416015625,-1.07666015625,40.242919921875,179.967041015625
1760967291.3899577,-0.65380859375,-0.01611328125,0.77001953125,5.67626953125,0.244140625,-2.3193359375,-1.0491943359375,40.2374267578125,179.9285888671875
1760967291.3989575,-0.65380859375,-0.01611328125,0.77001953125,5.67626953125,0.244140625,-2.3193359375,-1.0162353515625,40.2374267578125,179.8956298828125
1760967291.406123,-0.67822265625,-0.01708984375,0.720703125,8.544921875,0.67138671875,-2.9296875,-0.966796875,40.2374267578125,179.857177734375
1760967291.4128313,-0.67822265625,-0.01708984375,0.720703125,8.544921875,0.67138671875,-2.9296875,-0.9063720703125,40.2374267578125,179.8187255859375
1760967291.4284348,-0.67822265625,-0.01708984375,0.720703125,9.21630859375,0.9765625,-3.72314453125,-0.845947265625,40.2484130859375,179.7747802734375
1760967291.435899,-0.6767578125,0.0078125,0.7373046875,9.21630859375,0.9765625,-3.72314453125,-0.791015625,40.2593994140625,179.725341796875
1760967291.4427059,-0.67578125,0.01513671875,0.759765625,6.16455078125,1.52587890625,-4.21142578125,-0.7470703125,40.2703857421875,179.6759033203125
1760967291.45051,-0.67578125,0.01513671875,0.759765625,6.16455078125,1.52587890625,-4.21142578125,-0.7196044921875,40.2923583984375,179.62646484375
1760967291.4698179,-0.6748046875,0.00048828125,0.73828125,4.150390625,1.89208984375,-4.69970703125,-0.703125,40.308837890625,179.5770263671875
1760967291.4779136,-0.6748046875,0.00048828125,0.73828125,4.150390625,1.89208984375,-4.69970703125,-0.703125,40.330810546875,179.5220947265625
1760967291.4953651,-0.67626953125,-0.0078125,0.73974609375,4.7607421875,2.13623046875,-5.0048828125,-0.6976318359375,40.3582763671875,179.4671630859375
1760967291.504807,-0.67626953125,-0.0078125,0.73974609375,4.7607421875,2.13623046875,-5.0048828125,-0.692138671875,40.3857421875,179.4122314453125
1760967291.5138853,-0.66845703125,-0.00537109375,0.755859375,5.126953125,2.5634765625,-5.43212890625,-0.68115234375,40.4132080078125,179.351806640625
1760967291.521178,-0.66845703125,-0.00537109375,0.755859375,5.126953125,2.5634765625,-5.43212890625,-0.6756591796875,40.440673828125,179.2913818359375
1760967291.536472,-0.6591796875,0.00244140625,0.75390625,5.0048828125,3.0517578125,-5.92041015625,-0.6756591796875,40.4736328125,179.2254638671875
1760967291.5442667,-0.6591796875,0.00244140625,0.75390625,5.0048828125,3.0517578125,-5.92041015625,-0.670166015625,40.5120849609375,179.154052734375
1760967291.5518248,-0.6552734375,0.00341796875,0.76611328125,4.45556640625,3.47900390625,-6.2255859375,-0.6756591796875,40.550537109375,179.0826416015625
1760967291.5582328,-0.6552734375,0.00341796875,0.76611328125,4.45556640625,3.47900390625,-6.2255859375,-0.68115234375,40.58349609375,179.01123046875
1760967291.574952,-0.6533203125,-0.0068359375,0.77001953125,3.41796875,3.84521484375,-6.103515625,-0.692138671875,40.62744140625,178.9398193359375
1760967291.581519,-0.6533203125,-0.0068359375,0.77001953125,3.41796875,3.84521484375,-6.103515625,-0.7086181640625,40.6658935546875,178.8629150390625
1760967291.5885065,-0.6494140625,-0.015625,0.7666015625,3.173828125,4.08935546875,-5.7373046875,-0.72509765625,40.704345703125,178.7860107421875
1760967291.5946984,-0.6494140625,-0.015625,0.7666015625,3.173828125,4.08935546875,-5.7373046875,-0.7415771484375,40.748291015625,178.714599609375
1760967291.6100287,-0.64306640625,-0.01708984375,0.7744140625,4.150390625,4.39453125,-5.43212890625,-0.7525634765625,40.792236328125,178.6431884765625
1760967291.6188986,-0.64306640625,-0.01708984375,0.7744140625,4.150390625,4.39453125,-5.43212890625,-0.758056640625,40.8306884765625,178.57177734375
1760967291.6250951,-0.6396484375,-0.013671875,0.7802734375,5.06591796875,4.638671875,-5.31005859375,-0.7525634765625,40.8746337890625,178.5003662109375
1760967291.6319969,-0.6396484375,-0.013671875,0.7802734375,5.06591796875,4.638671875,-5.31005859375,-0.7525634765625,40.9185791015625,178.428955078125
1760967291.6455758,-0.64013671875,-0.00244140625,0.77294921875,4.638671875,4.5166015625,-5.06591796875,-0.7470703125,40.9625244140625,178.3575439453125
1760967291.652423,-0.64013671875,-0.00244140625,0.77294921875,4.638671875,4.5166015625,-5.06591796875,-0.7415771484375,41.0009765625,178.2861328125
1760967291.6596186,-0.6494140625,-0.01171875,0.76806640625,3.0517578125,4.33349609375,-4.7607421875,-0.7470703125,41.0394287109375,178.22021484375
1760967291.666318,-0.6494140625,-0.01171875,0.76806640625,3.0517578125,4.33349609375,-4.7607421875,-0.758056640625,41.077880859375,178.1488037109375
1760967291.6829498,-0.66015625,-0.01123046875,0.74560546875,2.13623046875,4.150390625,-4.5166015625,-0.7745361328125,41.1163330078125,178.0828857421875
1760967291.6889687,-0.66015625,-0.01123046875,0.74560546875,2.13623046875,4.150390625,-4.5166015625,-0.791015625,41.1492919921875,178.0169677734375
1760967291.6972573,-0.66943359375,-0.01220703125,0.751953125,2.13623046875,4.39453125,-4.69970703125,-0.8074951171875,41.187744140625,177.945556640625
1760967291.710319,-0.66943359375,-0.01220703125,0.751953125,2.13623046875,4.39453125,-4.69970703125,-0.8294677734375,41.231689453125,177.879638671875
1760967291.7198353,-0.67431640625,0.0009765625,0.7431640625,2.38037109375,4.5166015625,-4.7607421875,-0.845947265625,41.2701416015625,177.8082275390625
1760967291.7265985,-0.67431640625,0.0009765625,0.7431640625,2.38037109375,4.5166015625,-4.7607421875,-0.8624267578125,41.3140869140625,177.7423095703125
1760967291.7341213,-0.677734375,-0.00439453125,0.7470703125,0.42724609375,4.45556640625,-4.45556640625,-0.889892578125,41.3525390625,177.6763916015625
1760967291.7476718,-0.677734375,-0.00439453125,0.7470703125,0.42724609375,4.45556640625,-4.45556640625,-0.9228515625,41.396484375,177.6104736328125
1760967291.7561224,-0.6728515625,-0.0146484375,0.73876953125,-0.732421875,4.08935546875,-3.7841796875,-0.9613037109375,41.4404296875,177.5555419921875
1760967291.7624142,-0.6728515625,-0.0146484375,0.73876953125,-0.732421875,4.08935546875,-3.7841796875,-0.999755859375,41.4788818359375,177.5006103515625
1760967291.7703307,-0.66845703125,-0.02197265625,0.7421875,0.3662109375,3.662109375,-3.23486328125,-1.021728515625,41.5118408203125,177.451171875
1760967291.7844183,-0.66845703125,-0.02197265625,0.7421875,0.3662109375,3.662109375,-3.23486328125,-1.043701171875,41.55029296875,177.4072265625
1760967291.791648,-0.6630859375,-0.02880859375,0.7568359375,0.1220703125,3.35693359375,-2.44140625,-1.065673828125,41.583251953125,177.3687744140625
1760967291.798955,-0.6630859375,-0.02880859375,0.7568359375,0.1220703125,3.35693359375,-2.44140625,-1.087646484375,41.6107177734375,177.330322265625
1760967291.8056386,-0.65283203125,-0.0244140625,0.7626953125,-0.06103515625,2.74658203125,-1.5869140625,-1.1041259765625,41.63818359375,177.29736328125
1760967291.8191385,-0.65283203125,-0.0244140625,0.7626953125,-0.06103515625,2.74658203125,-1.5869140625,-1.12060546875,41.6656494140625,177.2698974609375
1760967291.8278234,-0.65625,-0.0244140625,0.74755859375,-0.67138671875,1.8310546875,-0.8544921875,-1.131591796875,41.68212890625,177.25341796875
1760967291.8342078,-0.65625,-0.0244140625,0.74755859375,-0.67138671875,1.8310546875,-0.8544921875,-1.1480712890625,41.693115234375,177.2314453125
1760967291.8417444,-0.6640625,-0.01953125,0.7353515625,-1.52587890625,0.6103515625,-0.244140625,-1.1700439453125,41.6986083984375,177.220458984375
1760967291.8487873,-0.6640625,-0.01953125,0.7353515625,-1.52587890625,0.6103515625,-0.244140625,-1.1865234375,41.7041015625,177.20947265625
1760967291.863336,-0.67431640625,-0.0224609375,0.74755859375,-1.77001953125,-0.30517578125,0.244140625,-1.2030029296875,41.6986083984375,177.2039794921875
1760967291.8701668,-0.67431640625,-0.0224609375,0.74755859375,-1.77001953125,-0.30517578125,0.244140625,-1.219482421875,41.693115234375,177.2039794921875
1760967291.878478,-0.6796875,-0.01513671875,0.72802734375,-1.3427734375,-0.8544921875,0.67138671875,-1.23046875,41.6876220703125,177.2039794921875
1760967291.8850713,-0.6796875,-0.01513671875,0.72802734375,-1.3427734375,-0.8544921875,0.67138671875,-1.2359619140625,41.6766357421875,177.20947265625
1760967291.9005456,-0.68505859375,-0.015625,0.7333984375,-0.6103515625,-1.220703125,0.79345703125,-1.2359619140625,41.6656494140625,177.2149658203125
1760967291.9067962,-0.68505859375,-0.015625,0.7333984375,-0.6103515625,-1.220703125,0.79345703125,-1.2359619140625,41.66015625,177.220458984375
1760967291.9137504,-0.681640625,-0.02001953125,0.72412109375,-0.8544921875,-1.28173828125,0.9765625,-1.2359619140625,41.649169921875,177.2314453125
1760967291.9296243,-0.681640625,-0.02001953125,0.72412109375,-0.8544921875,-1.28173828125,0.9765625,-1.2359619140625,41.63818359375,177.242431640625
1760967291.9434285,-0.67236328125,-0.02197265625,0.74755859375,-1.8310546875,-1.64794921875,1.3427734375,-1.241455078125,41.627197265625,177.2589111328125
1760967291.950605,-0.67236328125,-0.02197265625,0.74755859375,-1.8310546875,-1.64794921875,1.3427734375,-1.25244140625,41.6162109375,177.275390625
1760967291.957401,-0.66162109375,-0.01708984375,0.75927734375,-1.28173828125,-2.38037109375,1.5869140625,-1.25244140625,41.59423828125,177.29736328125
1760967291.9838498,-0.66162109375,-0.01708984375,0.75927734375,-1.28173828125,-2.38037109375,1.5869140625,-1.25244140625,41.572265625,177.3138427734375
1760967291.9901297,-0.65087890625,-0.01220703125,0.75048828125,0.0,-3.2958984375,1.52587890625,-1.2359619140625,41.5447998046875,177.330322265625
1760967291.9972157,-0.65087890625,-0.01220703125,0.75048828125,0.0,-3.2958984375,1.52587890625,-1.2249755859375,41.5118408203125,177.352294921875
1760967292.004668,-0.64599609375,-0.01318359375,0.7666015625,1.15966796875,-4.0283203125,1.40380859375,-1.197509765625,41.473388671875,177.3687744140625
1760967292.0115538,-0.64599609375,-0.01318359375,0.7666015625,1.15966796875,-4.0283203125,1.40380859375,-1.175537109375,41.4349365234375,177.38525390625
1760967292.0308177,-0.630859375,-0.0166015625,0.7734375,1.52587890625,-4.57763671875,1.3427734375,-1.1480712890625,41.385498046875,177.396240234375
1760967292.0375757,-0.630859375,-0.0166015625,0.7734375,1.52587890625,-4.57763671875,1.3427734375,-1.12060546875,41.341552734375,177.4072265625
1760967292.0454888,-0.64892578125,-0.01953125,0.7900390625,-0.244140625,-5.0048828125,1.5869140625,-1.109619140625,41.28662109375,177.4237060546875
1760967292.052672,-0.64892578125,-0.01953125,0.7900390625,-0.244140625,-5.0048828125,1.5869140625,-1.0986328125,41.2371826171875,177.440185546875
1760967292.060513,-0.64794921875,-0.00537109375,0.73095703125,-1.64794921875,-5.37109375,1.5869140625,-1.0986328125,41.1822509765625,177.451171875
1760967292.075355,-0.64794921875,-0.00537109375,0.73095703125,-1.64794921875,-5.37109375,1.5869140625,-1.1041259765625,41.1273193359375,177.4676513671875
1760967292.0840778,-0.6572265625,-0.0126953125,0.77880859375,0.244140625,-5.67626953125,1.52587890625,-1.087646484375,41.06689453125,177.484130859375
1760967292.0920377,-0.6572265625,-0.0126953125,0.77880859375,0.244140625,-5.67626953125,1.52587890625,-1.0711669921875,41.0064697265625,177.4951171875
1760967292.1119936,-0.654296875,-0.01123046875,0.75146484375,0.42724609375,-5.7373046875,1.52587890625,-1.0491943359375,40.9515380859375,177.5115966796875
1760967292.119431,-0.654296875,-0.01123046875,0.75146484375,0.42724609375,-5.7373046875,1.52587890625,-1.03271484375,40.89111328125,177.528076171875
1760967292.129305,-0.66064453125,-0.0166015625,0.7666015625,0.8544921875,-5.55419921875,1.64794921875,-1.0107421875,40.836181640625,177.550048828125
1760967292.1359422,-0.66064453125,-0.0166015625,0.7666015625,0.8544921875,-5.55419921875,1.64794921875,-0.9832763671875,40.78125,177.5665283203125
1760967292.143498,-0.64306640625,-0.0166015625,0.755859375,1.708984375,-5.06591796875,1.5869140625,-0.955810546875,40.7318115234375,177.5830078125
1760967292.1591718,-0.64306640625,-0.0166015625,0.755859375,1.708984375,-5.06591796875,1.5869140625,-0.9228515625,40.682373046875,177.5994873046875
1760967292.1690593,-0.64892578125,-0.01416015625,0.78271484375,1.77001953125,-4.57763671875,1.8310546875,-0.889892578125,40.638427734375,177.6214599609375
1760967292.1869657,-0.64892578125,-0.01416015625,0.78271484375,1.77001953125,-4.57763671875,1.8310546875,-0.85693359375,40.5889892578125,177.637939453125
1760967292.196043,-0.6484375,-0.013671875,0.763671875,0.1220703125,-4.45556640625,2.13623046875,-0.8404541015625,40.5450439453125,177.6654052734375
1760967292.2026856,-0.6484375,-0.013671875,0.763671875,0.1220703125,-4.45556640625,2.13623046875,-0.823974609375,40.5010986328125,177.6873779296875
1760967292.2160053,-0.64501953125,-0.0087890625,0.77001953125,-1.15966796875,-4.69970703125,2.3193359375,-0.81298828125,40.4571533203125,177.71484375
1760967292.2342937,-0.64501953125,-0.0087890625,0.77001953125,-1.15966796875,-4.69970703125,2.3193359375,-0.8074951171875,40.40771484375,177.7423095703125
1760967292.2418876,-0.63330078125,-0.01025390625,0.7783203125,-0.79345703125,-4.7607421875,2.38037109375,-0.7965087890625,40.3582763671875,177.769775390625
1760967292.2576873,-0.63330078125,-0.01025390625,0.7783203125,-0.79345703125,-4.7607421875,2.38037109375,-0.7855224609375,40.3143310546875,177.7972412109375
1760967292.2647722,-0.62353515625,-0.01123046875,0.79150390625,0.91552734375,-4.638671875,2.44140625,-0.7525634765625,40.264892578125,177.82470703125
1760967292.2718477,-0.62353515625,-0.01123046875,0.79150390625,0.91552734375,-4.638671875,2.44140625,-0.72509765625,40.2154541015625,177.8521728515625
1760967292.2864282,-0.61865234375,-0.01123046875,0.79736328125,2.01416015625,-4.21142578125,2.5634765625,-0.6866455078125,40.1715087890625,177.879638671875
1760967292.2973306,-0.61865234375,-0.01123046875,0.79736328125,2.01416015625,-4.21142578125,2.5634765625,-0.6427001953125,40.1275634765625,177.9071044921875
1760967292.3038657,-0.6201171875,-0.0087890625,0.8037109375,1.52587890625,-4.150390625,2.62451171875,-0.6097412109375,40.078125,177.9345703125
1760967292.3108642,-0.6201171875,-0.0087890625,0.8037109375,1.52587890625,-4.150390625,2.62451171875,-0.5712890625,40.0341796875,177.9620361328125
1760967292.318993,-0.6240234375,-0.00146484375,0.79150390625,-0.06103515625,-4.57763671875,2.86865234375,-0.54931640625,39.979248046875,177.989501953125
1760967292.32545,-0.6240234375,-0.00146484375,0.79150390625,-0.06103515625,-4.57763671875,2.86865234375,-0.52734375,39.9298095703125,178.0169677734375
1760967292.33182,-0.6240234375,-0.0009765625,0.77587890625,-1.28173828125,-5.4931640625,3.0517578125,-0.516357421875,39.869384765625,178.0499267578125
1760967292.3451936,-0.6240234375,-0.0009765625,0.77587890625,-1.28173828125,-5.4931640625,3.0517578125,-0.50537109375,39.8089599609375,178.077392578125
1760967292.3517635,-0.63525390625,-0.0068359375,0.77001953125,-1.708984375,-6.103515625,2.9296875,-0.494384765625,39.7430419921875,178.1103515625
1760967292.3589828,-0.63525390625,-0.0068359375,0.77001953125,-1.708984375,-6.103515625,2.9296875,-0.4888916015625,39.6771240234375,178.143310546875
1760967292.3661828,-0.64453125,0.00146484375,0.7578125,-3.23486328125,-6.2255859375,2.99072265625,-0.494384765625,39.6112060546875,178.17626953125
1760967292.3741167,-0.64453125,0.00146484375,0.7578125,-3.23486328125,-6.2255859375,2.99072265625,-0.50537109375,39.55078125,178.2147216796875
1760967292.381445,-0.65625,0.01806640625,0.75341796875,-5.31005859375,-6.16455078125,2.9296875,-0.5328369140625,39.4903564453125,178.253173828125
1760967292.3891194,-0.65625,0.01806640625,0.75341796875,-5.31005859375,-6.16455078125,2.9296875,-0.5548095703125,39.4244384765625,178.2916259765625
1760967292.3957028,-0.65625,0.01806640625,0.75341796875,-6.65283203125,-5.9814453125,2.9296875,-0.59326171875,39.3695068359375,178.341064453125
1760967292.402745,-0.68896484375,0.01416015625,0.76416015625,-6.65283203125,-5.9814453125,2.9296875,-0.6317138671875,39.3145751953125,178.385009765625
1760967292.422874,-0.69384765625,-0.005859375,0.7109375,-7.01904296875,-6.2255859375,2.62451171875,-0.6756591796875,39.2596435546875,178.4344482421875
1760967292.4314682,-0.69384765625,-0.005859375,0.7109375,-7.01904296875,-6.2255859375,2.62451171875,-0.7196044921875,39.2047119140625,178.48388671875
1760967292.4396594,-0.69140625,-0.01025390625,0.70556640625,-5.859375,-6.2255859375,1.953125,-0.758056640625,39.1552734375,178.52783203125
1760967292.4467711,-0.69140625,-0.01025390625,0.70556640625,-5.859375,-6.2255859375,1.953125,-0.7965087890625,39.1058349609375,178.57177734375
1760967292.4541945,-0.66845703125,-0.00634765625,0.77099609375,-1.15966796875,-6.28662109375,1.15966796875,-0.7965087890625,39.0618896484375,178.6102294921875
1760967292.4610174,-0.66845703125,-0.00634765625,0.77099609375,-1.15966796875,-6.28662109375,1.15966796875,-0.7965087890625,39.012451171875,178.648681640625
1760967292.4735026,-0.66650390625,-0.0078125,0.76025390625,-3.11279296875,-5.18798828125,1.0986328125,-0.81298828125,38.9739990234375,178.6871337890625
1760967292.481455,-0.66650390625,-0.0078125,0.76025390625,-3.11279296875,-5.18798828125,1.0986328125,-0.8349609375,38.935546875,178.7255859375
1760967292.487789,-0.662109375,-0.015625,0.74853515625,-4.39453125,-3.7841796875,1.40380859375,-0.8624267578125,38.91357421875,178.7640380859375
1760967292.495099,-0.662109375,-0.015625,0.74853515625,-4.39453125,-3.7841796875,1.40380859375,-0.8953857421875,38.8916015625,178.8079833984375
1760967292.5023332,-0.65869140625,-0.0205078125,0.77978515625,-5.4931640625,-2.01416015625,1.708984375,-0.933837890625,38.8861083984375,178.8519287109375
1760967292.51747,-0.65869140625,-0.0205078125,0.77978515625,-5.4931640625,-2.01416015625,1.708984375,-0.9722900390625,38.880615234375,178.8958740234375
1760967292.5258815,-0.646484375,-0.015625,0.78662109375,-2.8076171875,-0.6103515625,2.01416015625,-0.9832763671875,38.8861083984375,178.9398193359375
1760967292.5333097,-0.646484375,-0.015625,0.78662109375,-2.8076171875,-0.6103515625,2.01416015625,-0.9942626953125,38.8916015625,178.9837646484375
1760967292.5398233,-0.63330078125,-0.03125,0.7958984375,-0.6103515625,0.244140625,2.38037109375,-0.977783203125,38.9080810546875,179.033203125
1760967292.550073,-0.63330078125,-0.03125,0.7958984375,-0.6103515625,0.244140625,2.38037109375,-0.966796875,38.9190673828125,179.0771484375
1760967292.5646088,-0.62744140625,-0.01953125,0.78173828125,0.0,0.732421875,2.5634765625,-0.94482421875,38.935546875,179.1265869140625
1760967292.5717566,-0.62744140625,-0.01953125,0.78173828125,0.0,0.732421875,2.5634765625,-0.9283447265625,38.9520263671875,179.1705322265625
1760967292.578734,-0.62353515625,-0.0029296875,0.7900390625,-0.1220703125,1.15966796875,2.62451171875,-0.9063720703125,38.968505859375,179.219970703125
1760967292.5856318,-0.62353515625,-0.0029296875,0.7900390625,-0.1220703125,1.15966796875,2.62451171875,-0.889892578125,38.9849853515625,179.263916015625
1760967292.5931628,-0.63037109375,-0.0009765625,0.791015625,-1.220703125,1.46484375,2.685546875,-0.87890625,39.00146484375,179.307861328125
1760967292.6042352,-0.63037109375,-0.0009765625,0.791015625,-1.220703125,1.46484375,2.685546875,-0.867919921875,39.0234375,179.351806640625
1760967292.6175842,-0.63232421875,-0.00732421875,0.76953125,-2.13623046875,1.64794921875,2.685546875,-0.867919921875,39.0399169921875,179.3902587890625
1760967292.6359785,-0.63232421875,-0.00732421875,0.76953125,-2.13623046875,1.64794921875,2.685546875,-0.867919921875,39.0618896484375,179.4342041015625
1760967292.6426926,-0.62646484375,-0.0068359375,0.771484375,-2.50244140625,1.953125,2.44140625,-0.8734130859375,39.0838623046875,179.47265625
1760967292.6512089,-0.62646484375,-0.0068359375,0.771484375,-2.50244140625,1.953125,2.44140625,-0.87890625,39.1058349609375,179.5111083984375
1760967292.6687307,-0.61572265625,-0.01123046875,0.802734375,-3.35693359375,2.50244140625,2.44140625,-0.889892578125,39.13330078125,179.5440673828125
1760967292.6837316,-0.61572265625,-0.01123046875,0.802734375,-3.35693359375,2.50244140625,2.44140625,-0.90087890625,39.1552734375,179.58251953125
1760967292.695116,-0.61083984375,-0.0146484375,0.822265625,-4.82177734375,3.2958984375,2.62451171875,-0.9283447265625,39.188232421875,179.6209716796875
1760967292.7023802,-0.61083984375,-0.0146484375,0.822265625,-4.82177734375,3.2958984375,2.62451171875,-0.955810546875,39.22119140625,179.6539306640625
1760967292.7250223,-0.6025390625,-0.0078125,0.8076171875,-3.5400390625,3.60107421875,2.3193359375,-0.9722900390625,39.2486572265625,179.681396484375
1760967292.7454426,-0.6025390625,-0.0078125,0.8076171875,-3.5400390625,3.60107421875,2.3193359375,-0.9832763671875,39.2816162109375,179.7088623046875
1760967292.7699041,-0.595703125,-0.00341796875,0.7958984375,-2.3193359375,3.47900390625,1.64794921875,-0.9942626953125,39.30908203125,179.725341796875
1760967292.7997775,-0.595703125,-0.00341796875,0.7958984375,-2.3193359375,3.47900390625,1.64794921875,-1.0052490234375,39.3365478515625,179.7418212890625
1760967292.8235948,-0.5966796875,-0.00732421875,0.81591796875,-1.46484375,3.0517578125,0.9765625,-1.0052490234375,39.3585205078125,179.747314453125
1760967292.8540068,-0.5966796875,-0.00732421875,0.81591796875,-1.46484375,3.0517578125,0.9765625,-1.0107421875,39.3804931640625,179.7528076171875
1760967292.8624246,-0.5966796875,-0.0048828125,0.8076171875,-2.13623046875,2.99072265625,0.6103515625,-1.0272216796875,39.39697265625,179.7528076171875
1760967292.8688776,-0.60498046875,-0.01025390625,0.79541015625,-2.38037109375,2.9296875,0.0,-1.043701171875,39.4134521484375,179.747314453125
1760967292.8752112,-0.60498046875,-0.01025390625,0.79541015625,-2.38037109375,2.9296875,0.0,-1.065673828125,39.4354248046875,179.736328125
1760967292.8813689,-0.60107421875,-0.01611328125,0.82470703125,-2.25830078125,2.86865234375,-0.3662109375,-1.087646484375,39.451904296875,179.725341796875
1760967292.8947392,-0.60107421875,-0.01611328125,0.82470703125,-2.25830078125,2.86865234375,-0.3662109375,-1.109619140625,39.462890625,179.7088623046875
1760967292.9012651,-0.60107421875,-0.0048828125,0.8076171875,-1.5869140625,2.8076171875,-1.03759765625,-1.1370849609375,39.4793701171875,179.6868896484375
1760967292.9074333,-0.60107421875,-0.0048828125,0.8076171875,-1.5869140625,2.8076171875,-1.03759765625,-1.1590576171875,39.495849609375,179.6649169921875
1760967292.9135983,-0.6064453125,0.0009765625,0.791015625,-2.3193359375,2.74658203125,-1.5869140625,-1.1865234375,39.5068359375,179.6319580078125
1760967292.9197242,-0.6064453125,0.0009765625,0.791015625,-2.3193359375,2.74658203125,-1.5869140625,-1.219482421875,39.517822265625,179.5989990234375
1760967292.9329584,-0.61376953125,-0.00439453125,0.7890625,-4.82177734375,2.685546875,-1.953125,-1.263427734375,39.52880859375,179.5660400390625
1760967292.9395406,-0.61376953125,-0.00439453125,0.7890625,-4.82177734375,2.685546875,-1.953125,-1.3238525390625,39.5452880859375,179.5330810546875
1760967292.946085,-0.61669921875,-0.02587890625,0.7890625,-7.2021484375,2.50244140625,-2.01416015625,-1.395263671875,39.5562744140625,179.49462890625
1760967292.9525807,-0.61669921875,-0.02587890625,0.7890625,-7.2021484375,2.50244140625,-2.01416015625,-1.483154296875,39.5672607421875,179.461669921875
1760967292.9594758,-0.61181640625,-0.033203125,0.787109375,-6.34765625,2.50244140625,-1.89208984375,-1.56005859375,39.5782470703125,179.4232177734375
1760967292.9668283,-0.61181640625,-0.033203125,0.787109375,-6.34765625,2.50244140625,-1.89208984375,-1.636962890625,39.5892333984375,179.3902587890625
1760967292.973873,-0.6162109375,-0.01416015625,0.80908203125,-4.33349609375,2.25830078125,-1.3427734375,-1.702880859375,39.6002197265625,179.3572998046875
1760967292.980773,-0.6162109375,-0.01416015625,0.80908203125,-4.33349609375,2.25830078125,-1.3427734375,-1.7523193359375,39.6112060546875,179.329833984375
1760967292.9875038,-0.62255859375,-0.0263671875,0.8115234375,-4.57763671875,1.5869140625,-1.220703125,-1.8017578125,39.61669921875,179.3023681640625
1760967292.9942267,-0.62255859375,-0.0263671875,0.8115234375,-4.57763671875,1.5869140625,-1.220703125,-1.856689453125,39.61669921875,179.27490234375
1760967293.0098033,-0.619140625,-0.03759765625,0.76513671875,-3.5400390625,1.3427734375,-1.28173828125,-1.900634765625,39.6221923828125,179.2474365234375
1760967293.0167038,-0.619140625,-0.03759765625,0.76513671875,-3.5400390625,1.3427734375,-1.28173828125,-1.944580078125,39.6221923828125,179.219970703125
1760967293.029376,-0.62646484375,-0.0341796875,0.78857421875,-1.40380859375,1.220703125,-1.64794921875,-1.9775390625,39.6221923828125,179.1925048828125
1760967293.0371566,-0.62646484375,-0.0341796875,0.78857421875,-1.40380859375,1.220703125,-1.64794921875,-2.0050048828125,39.6221923828125,179.1595458984375
1760967293.0432765,-0.63525390625,-0.0087890625,0.7802734375,-1.03759765625,1.3427734375,-2.0751953125,-2.032470703125,39.6221923828125,179.1265869140625
1760967293.050337,-0.63525390625,-0.0087890625,0.7802734375,-1.03759765625,1.3427734375,-2.0751953125,-2.054443359375,39.627685546875,179.0936279296875
1760967293.0567567,-0.64599609375,-0.0146484375,0.74169921875,-2.13623046875,1.5869140625,-2.44140625,-2.08740234375,39.6331787109375,179.05517578125
1760967293.071194,-0.64599609375,-0.0146484375,0.74169921875,-2.13623046875,1.5869140625,-2.44140625,-2.1258544921875,39.638671875,179.0167236328125
1760967293.0778039,-0.66796875,-0.02978515625,0.7939453125,-4.0283203125,1.953125,-2.25830078125,-2.17529296875,39.649658203125,178.9837646484375
1760967293.0844712,-0.66796875,-0.02978515625,0.7939453125,-4.0283203125,1.953125,-2.25830078125,-2.230224609375,39.6661376953125,178.9508056640625
1760967293.0907817,-0.66650390625,-0.0302734375,0.7392578125,-3.72314453125,1.953125,-2.38037109375,-2.2796630859375,39.6771240234375,178.92333984375
1760967293.0973234,-0.66650390625,-0.0302734375,0.7392578125,-3.72314453125,1.953125,-2.38037109375,-2.3345947265625,39.693603515625,178.890380859375
1760967293.110939,-0.67431640625,-0.03076171875,0.74365234375,-2.44140625,1.8310546875,-2.3193359375,-2.384033203125,39.7100830078125,178.868408203125
1760967293.117671,-0.67431640625,-0.03076171875,0.74365234375,-2.44140625,1.8310546875,-2.3193359375,-2.4224853515625,39.7320556640625,178.8409423828125
1760967293.1253529,-0.6630859375,-0.025390625,0.7421875,-1.40380859375,1.52587890625,-2.62451171875,-2.4609375,39.74853515625,178.8134765625
1760967293.1313372,-0.6630859375,-0.025390625,0.7421875,-1.40380859375,1.52587890625,-2.62451171875,-2.493896484375,39.7650146484375,178.79150390625
1760967293.1449265,-0.685546875,-0.0390625,0.759765625,-3.47900390625,1.52587890625,-2.3193359375,-2.5323486328125,39.781494140625,178.76953125
1760967293.1512907,-0.685546875,-0.0390625,0.759765625,-3.47900390625,1.52587890625,-2.3193359375,-2.5872802734375,39.7979736328125,178.74755859375
1760967293.1581738,-0.72412109375,-0.0439453125,0.6943359375,-3.72314453125,1.8310546875,-1.8310546875,-2.63671875,39.8199462890625,178.7310791015625
1760967293.16456,-0.72412109375,-0.0439453125,0.6943359375,-3.72314453125,1.8310546875,-1.8310546875,-2.6861572265625,39.847412109375,178.7255859375
1760967293.1711316,-0.7236328125,-0.0478515625,0.650390625,-3.11279296875,2.13623046875,-1.64794921875,-2.735595703125,39.88037109375,178.714599609375
1760967293.1778889,-0.7236328125,-0.0478515625,0.650390625,-3.11279296875,2.13623046875,-1.64794921875,-2.779541015625,39.913330078125,178.714599609375
1760967293.1843967,-0.712890625,-0.05029296875,0.75048828125,-1.77001953125,2.50244140625,-1.40380859375,-2.8179931640625,39.9517822265625,178.7200927734375
1760967293.1904218,-0.712890625,-0.05029296875,0.75048828125,-1.77001953125,2.50244140625,-1.40380859375,-2.845458984375,39.9957275390625,178.7200927734375
1760967293.1972642,-0.6904296875,-0.0439453125,0.72021484375,-2.13623046875,2.74658203125,-1.15966796875,-2.87841796875,40.0396728515625,178.7255859375
1760967293.20375,-0.6904296875,-0.0439453125,0.72021484375,-2.13623046875,2.74658203125,-1.15966796875,-2.911376953125,40.0836181640625,178.7310791015625
1760967293.2101705,-0.68603515625,-0.044921875,0.72705078125,-1.220703125,2.86865234375,-0.91552734375,-2.9388427734375,40.1275634765625,178.7420654296875
1760967293.2173512,-0.68603515625,-0.044921875,0.72705078125,-1.220703125,2.86865234375,-0.91552734375,-2.96630859375,40.177001953125,178.74755859375
1760967293.2253876,-0.6669921875,-0.04443359375,0.74658203125,-0.42724609375,2.86865234375,-0.67138671875,-2.9827880859375,40.220947265625,178.758544921875
1760967293.2317848,-0.6669921875,-0.04443359375,0.74658203125,-0.42724609375,2.86865234375,-0.67138671875,-2.9937744140625,40.264892578125,178.76953125
1760967293.2380812,-0.6513671875,-0.05078125,0.76611328125,-0.30517578125,2.8076171875,-0.30517578125,-3.0047607421875,40.308837890625,178.7860107421875
1760967293.2444937,-0.6513671875,-0.05078125,0.76611328125,-0.30517578125,2.8076171875,-0.30517578125,-3.0157470703125,40.3472900390625,178.7969970703125
1760967293.2555096,-0.6357421875,-0.0439453125,0.77294921875,-0.6103515625,2.38037109375,0.0,-3.021240234375,40.3857421875,178.8079833984375
1760967293.2619612,-0.6357421875,-0.0439453125,0.77294921875,-0.6103515625,2.38037109375,0.0,-3.0322265625,40.418701171875,178.8189697265625
1760967293.2683225,-0.625,-0.037109375,0.78173828125,-2.13623046875,1.8310546875,0.30517578125,-3.043212890625,40.4461669921875,178.83544921875
1760967293.2746606,-0.625,-0.037109375,0.78173828125,-2.13623046875,1.8310546875,0.30517578125,-3.065185546875,40.4736328125,178.846435546875
1760967293.281912,-0.61328125,-0.0419921875,0.78662109375,-2.50244140625,1.220703125,0.3662109375,-3.087158203125,40.4901123046875,178.857421875
1760967293.2891612,-0.61328125,-0.0419921875,0.78662109375,-2.50244140625,1.220703125,0.3662109375,-3.109130859375,40.506591796875,178.8629150390625
1760967293.2964776,-0.619140625,-0.04052734375,0.80126953125,-3.2958984375,0.79345703125,0.42724609375,-3.1365966796875,40.517578125,178.868408203125
1760967293.3032308,-0.619140625,-0.04052734375,0.80126953125,-3.2958984375,0.79345703125,0.42724609375,-3.1640625,40.5230712890625,178.8739013671875
1760967293.3100083,-0.625,-0.03955078125,0.78271484375,-3.84521484375,0.48828125,0.30517578125,-3.197021484375,40.528564453125,178.87939453125
1760967293.316401,-0.625,-0.03955078125,0.78271484375,-3.84521484375,0.48828125,0.30517578125,-3.2354736328125,40.528564453125,178.87939453125
1760967293.3237193,-0.63134765625,-0.04345703125,0.77392578125,-4.5166015625,0.54931640625,0.18310546875,-3.27392578125,40.528564453125,178.8739013671875
1760967293.3304725,-0.63134765625,-0.04345703125,0.77392578125,-4.5166015625,0.54931640625,0.18310546875,-3.3123779296875,40.528564453125,178.8739013671875
1760967293.3390102,-0.64404296875,-0.0439453125,0.77978515625,-4.94384765625,0.79345703125,0.1220703125,-3.36181640625,40.5340576171875,178.868408203125
1760967293.3452444,-0.64404296875,-0.0439453125,0.77978515625,-4.94384765625,0.79345703125,0.1220703125,-3.40576171875,40.5340576171875,178.8629150390625
1760967293.3516629,-0.64599609375,-0.03955078125,0.76513671875,-4.33349609375,0.79345703125,-0.3662109375,-3.44970703125,40.5340576171875,178.857421875
1760967293.3591409,-0.64599609375,-0.03955078125,0.76513671875,-4.33349609375,0.79345703125,-0.3662109375,-3.4991455078125,40.53955078125,178.846435546875
1760967293.3663461,-0.65380859375,-0.04833984375,0.77294921875,-4.39453125,0.91552734375,-0.732421875,-3.5430908203125,40.5450439453125,178.83544921875
1760967293.3726034,-0.65380859375,-0.04833984375,0.77294921875,-4.39453125,0.91552734375,-0.732421875,-3.592529296875,40.5450439453125,178.824462890625
1760967293.3788707,-0.6337890625,-0.04052734375,0.7470703125,-3.11279296875,0.48828125,-1.28173828125,-3.636474609375,40.550537109375,178.8079833984375
1760967293.3867307,-0.6337890625,-0.04052734375,0.7470703125,-3.11279296875,0.48828125,-1.28173828125,-3.6749267578125,40.550537109375,178.7860107421875
1760967293.394678,-0.64306640625,-0.0478515625,0.775390625,-3.72314453125,0.06103515625,-1.77001953125,-3.7188720703125,40.5450439453125,178.76953125
1760967293.408389,-0.64306640625,-0.0478515625,0.775390625,-3.72314453125,0.06103515625,-1.77001953125,-3.768310546875,40.53955078125,178.7420654296875
1760967293.414934,-0.64111328125,-0.0517578125,0.7744140625,-4.2724609375,-0.48828125,-1.708984375,-3.8177490234375,40.5340576171875,178.7200927734375
1760967293.4216194,-0.64111328125,-0.0517578125,0.7744140625,-4.2724609375,-0.48828125,-1.708984375,-3.8726806640625,40.5230712890625,178.692626953125
1760967293.432727,-0.63525390625,-0.0546875,0.76123046875,-4.69970703125,-1.03759765625,-1.8310546875,-3.9276123046875,40.5120849609375,178.670654296875
1760967293.4394107,-0.63525390625,-0.0546875,0.76123046875,-4.69970703125,-1.03759765625,-1.8310546875,-3.988037109375,40.49560546875,178.6431884765625
1760967293.4457173,-0.640625,-0.056640625,0.77587890625,-4.08935546875,-1.46484375,-1.46484375,-4.04296875,40.4791259765625,178.6212158203125
1760967293.4522378,-0.640625,-0.056640625,0.77587890625,-4.08935546875,-1.46484375,-1.46484375,-4.0924072265625,40.4571533203125,178.604736328125
1760967293.4591575,-0.63818359375,-0.06103515625,0.77685546875,-3.84521484375,-1.89208984375,-1.220703125,-4.1363525390625,40.4351806640625,178.582763671875
1760967293.4661002,-0.63818359375,-0.06103515625,0.77685546875,-3.84521484375,-1.89208984375,-1.220703125,-4.1802978515625,40.4132080078125,178.5662841796875
1760967293.4732356,-0.64990234375,-0.0615234375,0.76123046875,-3.41796875,-2.01416015625,-0.8544921875,-4.2242431640625,40.3857421875,178.5552978515625
1760967293.4802995,-0.64990234375,-0.0615234375,0.76123046875,-3.41796875,-2.01416015625,-0.8544921875,-4.2626953125,40.36376953125,178.5443115234375
1760967293.4889996,-0.658203125,-0.06640625,0.7578125,-2.8076171875,-1.8310546875,-0.48828125,-4.295654296875,40.3363037109375,178.5333251953125
1760967293.4995,-0.658203125,-0.06640625,0.7578125,-2.8076171875,-1.8310546875,-0.48828125,-4.3231201171875,40.31982421875,178.52783203125
1760967293.509355,-0.67236328125,-0.07177734375,0.74951171875,-2.685546875,-1.52587890625,-0.244140625,-4.3505859375,40.2978515625,178.52783203125
1760967293.5200033,-0.67236328125,-0.07177734375,0.74951171875,-2.685546875,-1.52587890625,-0.244140625,-4.3780517578125,40.2813720703125,178.5223388671875
1760967293.5296266,-0.67724609375,-0.06982421875,0.73828125,-1.64794921875,-1.0986328125,0.0,-4.4000244140625,40.2703857421875,178.5223388671875
1760967293.5391397,-0.67724609375,-0.06982421875,0.73828125,-1.64794921875,-1.0986328125,0.0,-4.41650390625,40.2593994140625,178.52783203125
1760967293.5492098,-0.67529296875,-0.05908203125,0.73681640625,-0.732421875,-0.91552734375,0.0,-4.4329833984375,40.25390625,178.5333251953125
1760967293.5604055,-0.67529296875,-0.05908203125,0.73681640625,-0.732421875,-0.91552734375,0.0,-4.4384765625,40.2484130859375,178.538818359375
1760967293.571175,-0.67578125,-0.06005859375,0.73828125,0.244140625,-0.67138671875,-0.06103515625,-4.4384765625,40.2484130859375,178.5443115234375
1760967293.5793853,-0.67578125,-0.06005859375,0.73828125,0.244140625,-0.67138671875,-0.06103515625,-4.4384765625,40.242919921875,178.5498046875
1760967293.5894556,-0.67236328125,-0.06640625,0.7470703125,-0.3662109375,-0.42724609375,0.0,-4.4384765625,40.2484130859375,178.560791015625
1760967293.5993176,-0.67236328125,-0.06640625,0.7470703125,-0.3662109375,-0.42724609375,0.0,-4.4439697265625,40.2484130859375,178.57177734375
1760967293.610125,-0.67578125,-0.06201171875,0.73681640625,0.244140625,-0.244140625,0.0,-4.449462890625,40.25390625,178.582763671875
1760967293.6195345,-0.67578125,-0.06201171875,0.73681640625,0.244140625,-0.244140625,0.0,-4.4439697265625,40.2593994140625,178.59375
1760967293.6298118,-0.67041015625,-0.05859375,0.74951171875,0.30517578125,-0.18310546875,0.0,-4.4439697265625,40.264892578125,178.604736328125
1760967293.6395342,-0.67041015625,-0.05859375,0.74951171875,0.30517578125,-0.18310546875,0.0,-4.4439697265625,40.2703857421875,178.61572265625
1760967293.649318,-0.66357421875,-0.0595703125,0.744140625,0.244140625,-0.18310546875,-0.1220703125,-4.4439697265625,40.27587890625,178.626708984375
1760967293.6596375,-0.66357421875,-0.0595703125,0.744140625,0.244140625,-0.18310546875,-0.1220703125,-4.4439697265625,40.2813720703125,178.6376953125
1760967293.6692083,-0.65234375,-0.064453125,0.7509765625,1.5869140625,-0.18310546875,-0.244140625,-4.4384765625,40.286865234375,178.648681640625
1760967293.679384,-0.65234375,-0.064453125,0.7509765625,1.5869140625,-0.18310546875,-0.244140625,-4.4219970703125,40.2923583984375,178.6541748046875
1760967293.6902082,-0.64892578125,-0.07080078125,0.77685546875,1.89208984375,-0.06103515625,0.0,-4.4110107421875,40.2978515625,178.6651611328125
1760967293.7002847,-0.64892578125,-0.07080078125,0.77685546875,1.89208984375,-0.06103515625,0.0,-4.39453125,40.3033447265625,178.6761474609375
1760967293.7099466,-0.6435546875,-0.0654296875,0.77197265625,1.64794921875,0.0,0.244140625,-4.3780517578125,40.308837890625,178.6871337890625
1760967293.7202332,-0.6435546875,-0.0654296875,0.77197265625,1.64794921875,0.0,0.244140625,-4.361572265625,40.3143310546875,178.6981201171875
1760967293.729505,-0.6396484375,-0.0595703125,0.76513671875,1.708984375,-0.1220703125,0.30517578125,-4.3450927734375,40.3143310546875,178.70361328125
1760967293.73929,-0.6396484375,-0.0595703125,0.76513671875,1.708984375,-0.1220703125,0.30517578125,-4.32861328125,40.3143310546875,178.714599609375
1760967293.750525,-0.63671875,-0.0478515625,0.77099609375,1.3427734375,-0.3662109375,0.3662109375,-4.3121337890625,40.3143310546875,178.7255859375
1760967293.7650342,-0.63671875,-0.0478515625,0.77099609375,1.3427734375,-0.3662109375,0.3662109375,-4.295654296875,40.3143310546875,178.736572265625
1760967293.7718296,-0.63671875,-0.0478515625,0.77099609375,1.220703125,-0.54931640625,0.0,-4.28466796875,40.308837890625,178.736572265625
1760967293.7800946,-0.630859375,-0.0625,0.78466796875,1.220703125,-0.54931640625,0.0,-4.273681640625,40.3033447265625,178.7420654296875
1760967293.7942526,-0.62451171875,-0.060546875,0.78466796875,2.13623046875,-0.48828125,0.06103515625,-4.251708984375,40.2978515625,178.7420654296875
1760967293.8020477,-0.62451171875,-0.060546875,0.78466796875,2.13623046875,-0.48828125,0.06103515625,-4.229736328125,40.286865234375,178.7420654296875
1760967293.8094294,-0.63037109375,-0.060546875,0.794921875,2.9296875,-0.42724609375,0.0,-4.2022705078125,40.2813720703125,178.7420654296875
1760967293.8270595,-0.63037109375,-0.060546875,0.794921875,2.9296875,-0.42724609375,0.0,-4.1748046875,40.2703857421875,178.736572265625
1760967293.8341663,-0.63232421875,-0.05419921875,0.7763671875,2.50244140625,-0.42724609375,0.06103515625,-4.15283203125,40.264892578125,178.736572265625
1760967293.8405962,-0.63232421875,-0.05419921875,0.7763671875,2.50244140625,-0.42724609375,0.06103515625,-4.1253662109375,40.25390625,178.7310791015625
1760967293.849578,-0.62744140625,-0.0556640625,0.78173828125,3.5400390625,-0.48828125,-0.06103515625,-4.0924072265625,40.242919921875,178.7255859375
1760967293.8634017,-0.62744140625,-0.0556640625,0.78173828125,3.5400390625,-0.48828125,-0.06103515625,-4.0594482421875,40.23193359375,178.7255859375
1760967293.870007,-0.6201171875,-0.056640625,0.7880859375,5.126953125,-0.6103515625,-0.30517578125,-4.0155029296875,40.220947265625,178.714599609375
1760967293.8794513,-0.6201171875,-0.056640625,0.7880859375,5.126953125,-0.6103515625,-0.30517578125,-3.966064453125,40.2099609375,178.70361328125
1760967293.8969975,-0.6162109375,-0.0595703125,0.78662109375,7.14111328125,-0.732421875,-0.3662109375,-3.900146484375,40.1934814453125,178.692626953125
1760967293.9035716,-0.6162109375,-0.0595703125,0.78662109375,7.14111328125,-0.732421875,-0.3662109375,-3.834228515625,40.1824951171875,178.681640625
1760967293.9099224,-0.60205078125,-0.0634765625,0.80126953125,9.6435546875,-0.732421875,-0.30517578125,-3.7408447265625,40.166015625,178.670654296875
1760967293.926074,-0.60205078125,-0.0634765625,0.80126953125,9.6435546875,-0.732421875,-0.30517578125,-3.6529541015625,40.14404296875,178.6541748046875
1760967293.9330952,-0.59765625,-0.06005859375,0.80908203125,11.3525390625,-0.79345703125,-0.1220703125,-3.5430908203125,40.1275634765625,178.6376953125
1760967293.9398792,-0.59765625,-0.06005859375,0.80908203125,11.3525390625,-0.79345703125,-0.1220703125,-3.438720703125,40.111083984375,178.6212158203125
1760967293.9562278,-0.59375,-0.0400390625,0.8125,10.19287109375,-1.03759765625,0.06103515625,-3.33984375,40.0836181640625,178.604736328125
1760967293.9634116,-0.59375,-0.0400390625,0.8125,10.19287109375,-1.03759765625,0.06103515625,-3.240966796875,40.0616455078125,178.5882568359375
1760967293.9708946,-0.59130859375,-0.0283203125,0.80908203125,8.36181640625,-1.28173828125,-0.06103515625,-3.1640625,40.0341796875,178.57177734375
1760967293.9795814,-0.59130859375,-0.0283203125,0.80908203125,8.36181640625,-1.28173828125,-0.06103515625,-3.0816650390625,40.0067138671875,178.5498046875
1760967293.9940681,-0.59423828125,-0.03125,0.78076171875,9.1552734375,-1.46484375,-0.1220703125,-2.999267578125,39.979248046875,178.52783203125
1760967294.000952,-0.59423828125,-0.03125,0.78076171875,9.1552734375,-1.46484375,-0.1220703125,-2.911376953125,39.9462890625,178.5113525390625
1760967294.009709,-0.60205078125,-0.0380859375,0.81591796875,5.4931640625,-1.8310546875,-0.42724609375,-2.8619384765625,39.913330078125,178.48388671875
1760967294.026567,-0.60205078125,-0.0380859375,0.81591796875,5.4931640625,-1.8310546875,-0.42724609375,-2.8125,39.88037109375,178.4619140625
1760967294.0333824,-0.61767578125,-0.033203125,0.7763671875,1.89208984375,-2.0751953125,-0.42724609375,-2.7960205078125,39.8419189453125,178.43994140625
1760967294.040907,-0.61767578125,-0.033203125,0.7763671875,1.89208984375,-2.0751953125,-0.42724609375,-2.7850341796875,39.8089599609375,178.41796875
1760967294.0560317,-0.626953125,-0.029296875,0.77001953125,0.48828125,-2.25830078125,-0.6103515625,-2.7850341796875,39.7705078125,178.39599609375
1760967294.0632663,-0.626953125,-0.029296875,0.77001953125,0.48828125,-2.25830078125,-0.6103515625,-2.7850341796875,39.737548828125,178.3740234375
1760967294.0714266,-0.654296875,-0.0244140625,0.7724609375,-0.18310546875,-2.38037109375,-0.8544921875,-2.7960205078125,39.6990966796875,178.35205078125
1760967294.0801873,-0.654296875,-0.0244140625,0.7724609375,-0.18310546875,-2.38037109375,-0.8544921875,-2.801513671875,39.6661376953125,178.3355712890625
1760967294.0946705,-0.6767578125,-0.02978515625,0.74658203125,-0.30517578125,-2.3193359375,-1.220703125,-2.8125,39.638671875,178.3135986328125
1760967294.1016436,-0.6767578125,-0.02978515625,0.74658203125,-0.30517578125,-2.3193359375,-1.220703125,-2.823486328125,39.6112060546875,178.2916259765625
1760967294.110109,-0.7041015625,-0.03515625,0.7509765625,1.5869140625,-2.13623046875,-1.220703125,-2.8179931640625,39.583740234375,178.2806396484375
1760967294.124292,-0.7041015625,-0.03515625,0.7509765625,1.5869140625,-2.13623046875,-1.220703125,-2.8125,39.561767578125,178.26416015625
1760967294.1311688,-0.716796875,-0.0546875,0.70751953125,0.244140625,-1.52587890625,-1.28173828125,-2.8179931640625,39.55078125,178.253173828125
1760967294.1405556,-0.716796875,-0.0546875,0.70751953125,0.244140625,-1.52587890625,-1.28173828125,-2.8289794921875,39.5452880859375,178.2476806640625
1760967294.1564074,-0.72509765625,-0.041015625,0.70458984375,1.03759765625,-0.9765625,-0.9765625,-2.823486328125,39.539794921875,178.2476806640625
1760967294.1634824,-0.72509765625,-0.041015625,0.70458984375,1.03759765625,-0.9765625,-0.9765625,-2.823486328125,39.5452880859375,178.253173828125
1760967294.1711028,-0.734375,-0.0419921875,0.7001953125,1.46484375,-0.48828125,-0.67138671875,-2.8179931640625,39.5562744140625,178.26416015625
1760967294.1797688,-0.734375,-0.0419921875,0.7001953125,1.46484375,-0.48828125,-0.67138671875,-2.8070068359375,39.5672607421875,178.275146484375
1760967294.1901956,-0.74169921875,-0.0361328125,0.65283203125,0.8544921875,0.48828125,-0.3662109375,-2.8070068359375,39.5892333984375,178.297119140625
1760967294.2002347,-0.74169921875,-0.0361328125,0.65283203125,0.8544921875,0.48828125,-0.3662109375,-2.8070068359375,39.6221923828125,178.3245849609375
1760967294.2097638,-0.69189453125,-0.0400390625,0.763671875,1.953125,0.244140625,-0.244140625,-2.79052734375,39.6441650390625,178.3465576171875
1760967294.2203913,-0.69189453125,-0.0400390625,0.763671875,1.953125,0.244140625,-0.244140625,-2.7740478515625,39.671630859375,178.3740234375
1760967294.2296832,-0.6728515625,-0.03759765625,0.7431640625,0.30517578125,0.8544921875,0.0,-2.7740478515625,39.6990966796875,178.4014892578125
1760967294.2397616,-0.6728515625,-0.03759765625,0.7431640625,0.30517578125,0.8544921875,0.0,-2.7740478515625,39.7320556640625,178.4234619140625
1760967294.255535,-0.66357421875,-0.0458984375,0.73583984375,-0.18310546875,0.732421875,0.42724609375,-2.779541015625,39.759521484375,178.4564208984375
1760967294.2621267,-0.66357421875,-0.0458984375,0.73583984375,-0.18310546875,0.732421875,0.42724609375,-2.779541015625,39.781494140625,178.48388671875
1760967294.2700393,-0.64404296875,-0.0361328125,0.77978515625,-0.91552734375,0.79345703125,0.732421875,-2.7850341796875,39.8089599609375,178.5113525390625
1760967294.287254,-0.64404296875,-0.0361328125,0.77978515625,-0.91552734375,0.79345703125,0.732421875,-2.79052734375,39.8309326171875,178.538818359375
1760967294.2945073,-0.63427734375,-0.0419921875,0.78662109375,-2.25830078125,0.91552734375,1.15966796875,-2.8070068359375,39.8529052734375,178.57177734375
1760967294.3023365,-0.63427734375,-0.0419921875,0.78662109375,-2.25830078125,0.91552734375,1.15966796875,-2.823486328125,39.8748779296875,178.5992431640625
1760967294.3109772,-0.62841796875,-0.04052734375,0.7724609375,-1.8310546875,0.732421875,1.3427734375,-2.8289794921875,39.891357421875,178.626708984375
1760967294.326747,-0.62841796875,-0.04052734375,0.7724609375,-1.8310546875,0.732421875,1.3427734375,-2.8399658203125,39.9078369140625,178.6541748046875
1760967294.3345678,-0.630859375,-0.03515625,0.78759765625,-1.28173828125,0.6103515625,1.220703125,-2.8399658203125,39.92431640625,178.6761474609375
1760967294.3405983,-0.630859375,-0.03515625,0.78759765625,-1.28173828125,0.6103515625,1.220703125,-2.845458984375,39.935302734375,178.6981201171875
1760967294.353908,-0.6240234375,-0.033203125,0.7880859375,-1.220703125,0.42724609375,0.9765625,-2.8509521484375,39.9407958984375,178.714599609375
1760967294.3682714,-0.6240234375,-0.033203125,0.7880859375,-1.220703125,0.42724609375,0.9765625,-2.8564453125,39.9517822265625,178.7310791015625
1760967294.3755505,-0.626953125,-0.02978515625,0.7861328125,-1.89208984375,0.30517578125,0.79345703125,-2.867431640625,39.957275390625,178.7420654296875
1760967294.381733,-0.626953125,-0.02978515625,0.7861328125,-1.89208984375,0.30517578125,0.79345703125,-2.87841796875,39.957275390625,178.758544921875
1760967294.3969846,-0.62939453125,-0.04150390625,0.78466796875,-1.64794921875,0.18310546875,0.6103515625,-2.889404296875,39.957275390625,178.7640380859375
1760967294.4037266,-0.62939453125,-0.04150390625,0.78466796875,-1.64794921875,0.18310546875,0.6103515625,-2.900390625,39.9627685546875,178.7750244140625
1760967294.4104125,-0.6357421875,-0.04443359375,0.7744140625,-1.220703125,0.18310546875,0.48828125,-2.9058837890625,39.9627685546875,178.780517578125
1760967294.419863,-0.6357421875,-0.04443359375,0.7744140625,-1.220703125,0.18310546875,0.48828125,-2.9168701171875,39.9627685546875,178.7860107421875
1760967294.4336884,-0.634765625,-0.03173828125,0.7841796875,-0.54931640625,0.1220703125,0.30517578125,-2.9168701171875,39.9627685546875,178.7860107421875
1760967294.4399695,-0.634765625,-0.03173828125,0.7841796875,-0.54931640625,0.1220703125,0.30517578125,-2.92236328125,39.957275390625,178.7860107421875
1760967294.4503968,-0.63525390625,-0.029296875,0.7783203125,-1.708984375,0.06103515625,0.1220703125,-2.933349609375,39.957275390625,178.7860107421875
1760967294.4644153,-0.63525390625,-0.029296875,0.7783203125,-1.708984375,0.06103515625,0.1220703125,-2.9498291015625,39.957275390625,178.7860107421875
1760967294.47139,-0.6376953125,-0.03564453125,0.775390625,-2.74658203125,0.0,0.0,-2.977294921875,39.9517822265625,178.780517578125
1760967294.4800227,-0.6376953125,-0.03564453125,0.775390625,-2.74658203125,0.0,0.0,-2.999267578125,39.9517822265625,178.780517578125
1760967294.4910893,-0.6455078125,-0.041015625,0.76220703125,-3.0517578125,-0.06103515625,-0.06103515625,-3.0267333984375,39.9462890625,178.780517578125
1760967294.5002654,-0.6455078125,-0.041015625,0.76220703125,-3.0517578125,-0.06103515625,-0.06103515625,-3.0596923828125,39.9407958984375,178.7750244140625
1760967294.51041,-0.64111328125,-0.05078125,0.775390625,-2.685546875,-0.30517578125,-0.244140625,-3.087158203125,39.935302734375,178.7750244140625
1760967294.5220308,-0.64111328125,-0.05078125,0.775390625,-2.685546875,-0.30517578125,-0.244140625,-3.1146240234375,39.9298095703125,178.76953125
1760967294.5302694,-0.642578125,-0.0419921875,0.76123046875,-2.38037109375,-0.3662109375,-0.1220703125,-3.1365966796875,39.92431640625,178.7640380859375
1760967294.5402768,-0.642578125,-0.0419921875,0.76123046875,-2.38037109375,-0.3662109375,-0.1220703125,-3.1585693359375,39.92431640625,178.7640380859375
1760967294.5586882,-0.64794921875,-0.0341796875,0.7744140625,-1.89208984375,-0.42724609375,-0.1220703125,-3.175048828125,39.913330078125,178.758544921875
1760967294.5652564,-0.64794921875,-0.0341796875,0.7744140625,-1.89208984375,-0.42724609375,-0.1220703125,-3.197021484375,39.9078369140625,178.758544921875
1760967294.573294,-0.6494140625,-0.044921875,0.76025390625,-3.173828125,-0.30517578125,0.0,-3.2244873046875,39.9078369140625,178.758544921875
1760967294.5802798,-0.6494140625,-0.044921875,0.76025390625,-3.173828125,-0.30517578125,0.0,-3.2574462890625,39.90234375,178.758544921875
1760967294.5945272,-0.64892578125,-0.05615234375,0.7607421875,-2.44140625,-0.30517578125,0.18310546875,-3.2794189453125,39.90234375,178.758544921875
1760967294.6027896,-0.64892578125,-0.05615234375,0.7607421875,-2.44140625,-0.30517578125,0.18310546875,-3.3013916015625,39.8968505859375,178.7640380859375
1760967294.6104329,-0.64794921875,-0.048828125,0.771484375,-1.64794921875,-0.18310546875,0.3662109375,-3.3123779296875,39.8968505859375,178.76953125
1760967294.6280935,-0.64794921875,-0.048828125,0.771484375,-1.64794921875,-0.18310546875,0.3662109375,-3.3233642578125,39.8968505859375,178.7750244140625
1760967294.635653,-0.64208984375,-0.04052734375,0.76708984375,-1.46484375,-0.1220703125,0.54931640625,-3.3343505859375,39.8968505859375,178.780517578125
1760967294.6428695,-0.64208984375,-0.04052734375,0.76708984375,-1.46484375,-0.1220703125,0.54931640625,-3.3453369140625,39.891357421875,178.79150390625
1760967294.6505096,-0.6416015625,-0.044921875,0.76708984375,-1.40380859375,-0.1220703125,0.8544921875,-3.350830078125,39.891357421875,178.802490234375
1760967294.6650896,-0.6416015625,-0.044921875,0.76708984375,-1.40380859375,-0.1220703125,0.8544921875,-3.3563232421875,39.891357421875,178.8134765625
1760967294.6727347,-0.6357421875,-0.05615234375,0.78369140625,-1.5869140625,-0.18310546875,1.0986328125,-3.36181640625,39.891357421875,178.8299560546875
1760967294.6806216,-0.6357421875,-0.05615234375,0.78369140625,-1.5869140625,-0.18310546875,1.0986328125,-3.3673095703125,39.891357421875,178.846435546875
1760967294.696268,-0.64208984375,-0.0498046875,0.77294921875,-1.3427734375,-0.18310546875,1.3427734375,-3.372802734375,39.8858642578125,178.8629150390625
1760967294.7039747,-0.64208984375,-0.0498046875,0.77294921875,-1.3427734375,-0.18310546875,1.3427734375,-3.372802734375,39.8858642578125,178.8848876953125
1760967294.710397,-0.64013671875,-0.0390625,0.77099609375,-0.79345703125,-0.1220703125,1.28173828125,-3.372802734375,39.8858642578125,178.9013671875
1760967294.7256756,-0.642578125,-0.0380859375,0.7734375,-1.46484375,0.0,1.220703125,-3.372802734375,39.8858642578125,178.9178466796875
1760967294.731974,-0.642578125,-0.0380859375,0.7734375,-1.46484375,0.0,1.220703125,-3.3782958984375,39.8858642578125,178.934326171875
1760967294.747321,-0.64013671875,-0.04541015625,0.77099609375,-1.64794921875,-0.06103515625,1.03759765625,-3.3837890625,39.88037109375,178.9508056640625
1760967294.7551682,-0.64013671875,-0.04541015625,0.77099609375,-1.64794921875,-0.06103515625,1.03759765625,-3.3892822265625,39.88037109375,178.96728515625
1760967294.7630382,-0.63916015625,-0.05322265625,0.77099609375,-0.06103515625,-0.30517578125,0.8544921875,-3.3892822265625,39.88037109375,178.978271484375
1760967294.770418,-0.63916015625,-0.05322265625,0.77099609375,-0.06103515625,-0.30517578125,0.8544921875,-3.3837890625,39.8748779296875,178.9892578125
1760967294.78055,-0.63427734375,-0.04345703125,0.7666015625,0.48828125,-0.48828125,0.67138671875,-3.372802734375,39.869384765625,179.000244140625
1760967294.7902825,-0.63427734375,-0.04345703125,0.7666015625,0.48828125,-0.48828125,0.67138671875,-3.36181640625,39.8638916015625,179.01123046875
1760967294.8004527,-0.6376953125,-0.03564453125,0.78857421875,-1.0986328125,-0.48828125,0.54931640625,-3.36181640625,39.8583984375,179.022216796875
1760967294.8103404,-0.6376953125,-0.03564453125,0.78857421875,-1.0986328125,-0.48828125,0.54931640625,-3.3673095703125,39.8529052734375,179.0277099609375
1760967294.820306,-0.63330078125,-0.0380859375,0.77197265625,-2.74658203125,-0.3662109375,0.48828125,-3.3782958984375,39.847412109375,179.0386962890625
1760967294.830649,-0.63330078125,-0.0380859375,0.77197265625,-2.74658203125,-0.3662109375,0.48828125,-3.4002685546875,39.8419189453125,179.044189453125
1760967294.8403986,-0.6318359375,-0.04833984375,0.78125,-0.8544921875,-0.30517578125,0.244140625,-3.416748046875,39.83642578125,179.044189453125
1760967294.8521957,-0.6318359375,-0.04833984375,0.78125,-0.8544921875,-0.30517578125,0.244140625,-3.4222412109375,39.8309326171875,179.0496826171875
1760967294.8602567,-0.63134765625,-0.048828125,0.78564453125,-0.54931640625,-0.18310546875,0.1220703125,-3.427734375,39.825439453125,179.0496826171875
1760967294.8705888,-0.63134765625,-0.048828125,0.78564453125,-0.54931640625,-0.18310546875,0.1220703125,-3.427734375,39.8199462890625,179.0496826171875
1760967294.882011,-0.63134765625,-0.04736328125,0.76953125,-0.48828125,-0.30517578125,0.0,-3.4332275390625,39.814453125,179.044189453125
1760967294.8902535,-0.63134765625,-0.04736328125,0.76953125,-0.48828125,-0.30517578125,0.0,-3.438720703125,39.8089599609375,179.044189453125
1760967294.9013107,-0.63623046875,-0.0390625,0.7802734375,-0.244140625,-0.6103515625,0.1220703125,-3.438720703125,39.803466796875,179.044189453125
1760967294.9104373,-0.63623046875,-0.0390625,0.7802734375,-0.244140625,-0.6103515625,0.1220703125,-3.438720703125,39.79248046875,179.044189453125
1760967294.9204113,-0.6328125,-0.04150390625,0.77099609375,-0.42724609375,-0.79345703125,0.0,-3.438720703125,39.781494140625,179.044189453125
1760967294.9311752,-0.6328125,-0.04150390625,0.77099609375,-0.42724609375,-0.79345703125,0.0,-3.4442138671875,39.7705078125,179.044189453125
1760967294.9408066,-0.6357421875,-0.05517578125,0.771484375,-0.3662109375,-0.732421875,0.0,-3.4442138671875,39.759521484375,179.044189453125
1760967294.9506195,-0.6357421875,-0.05517578125,0.771484375,-0.3662109375,-0.732421875,0.0,-3.44970703125,39.74853515625,179.044189453125
1760967294.960698,-0.63818359375,-0.05078125,0.77685546875,0.1220703125,-0.732421875,0.0,-3.44970703125,39.737548828125,179.044189453125
1760967294.9703796,-0.63818359375,-0.05078125,0.77685546875,0.1220703125,-0.732421875,0.0,-3.4442138671875,39.7320556640625,179.044189453125
1760967294.9804127,-0.6474609375,-0.04248046875,0.7763671875,0.48828125,-0.6103515625,0.0,-3.4442138671875,39.7210693359375,179.044189453125
1760967294.9928148,-0.6474609375,-0.04248046875,0.7763671875,0.48828125,-0.6103515625,0.0,-3.438720703125,39.7100830078125,179.0496826171875
1760967295.0036414,-0.6494140625,-0.037109375,0.7666015625,-0.06103515625,-0.67138671875,-0.06103515625,-3.4332275390625,39.70458984375,179.0496826171875
1760967295.012148,-0.6494140625,-0.037109375,0.7666015625,-0.06103515625,-0.67138671875,-0.06103515625,-3.4332275390625,39.6990966796875,179.05517578125
1760967295.0206168,-0.65478515625,-0.0458984375,0.76171875,-1.3427734375,-0.6103515625,-0.18310546875,-3.4442138671875,39.6881103515625,179.05517578125
1760967295.0308487,-0.65478515625,-0.0458984375,0.76171875,-1.3427734375,-0.6103515625,-0.18310546875,-3.4552001953125,39.6826171875,179.05517578125
1760967295.0407484,-0.65966796875,-0.05224609375,0.73583984375,-0.244140625,-0.54931640625,-0.18310546875,-3.4661865234375,39.6771240234375,179.0606689453125
1760967295.0512614,-0.65966796875,-0.05224609375,0.73583984375,-0.244140625,-0.54931640625,-0.18310546875,-3.4661865234375,39.671630859375,179.0606689453125
1760967295.060493,-0.662109375,-0.0517578125,0.7724609375,1.220703125,-0.42724609375,-0.3662109375,-3.4661865234375,39.671630859375,179.066162109375
1760967295.071024,-0.662109375,-0.0517578125,0.7724609375,1.220703125,-0.42724609375,-0.3662109375,-3.4552001953125,39.671630859375,179.066162109375
1760967295.0815547,-0.65234375,-0.0439453125,0.7578125,0.42724609375,-0.30517578125,-0.244140625,-3.44970703125,39.671630859375,179.0716552734375
1760967295.0911984,-0.65234375,-0.0439453125,0.7578125,0.42724609375,-0.30517578125,-0.244140625,-3.44970703125,39.671630859375,179.0771484375
1760967295.100669,-0.654296875,-0.04443359375,0.751953125,-0.18310546875,0.0,-0.06103515625,-3.44970703125,39.671630859375,179.0826416015625
1760967295.111891,-0.654296875,-0.04443359375,0.751953125,-0.18310546875,0.0,-0.06103515625,-3.44970703125,39.6771240234375,179.0936279296875
1760967295.1205943,-0.6474609375,-0.04443359375,0.7685546875,0.42724609375,0.0,0.0,-3.44970703125,39.6826171875,179.09912109375
1760967295.1318536,-0.6474609375,-0.04443359375,0.7685546875,0.42724609375,0.0,0.0,-3.4442138671875,39.6826171875,179.110107421875
1760967295.1407564,-0.64306640625,-0.0537109375,0.77587890625,0.3662109375,0.18310546875,0.3662109375,-3.438720703125,39.6881103515625,179.1156005859375
1760967295.1523545,-0.64306640625,-0.0537109375,0.77587890625,0.3662109375,0.18310546875,0.3662109375,-3.4332275390625,39.693603515625,179.132080078125
1760967295.1606789,-0.64208984375,-0.05322265625,0.76904296875,0.48828125,0.18310546875,0.48828125,-3.427734375,39.6990966796875,179.14306640625
1760967295.1738582,-0.64208984375,-0.05322265625,0.76904296875,0.48828125,0.18310546875,0.48828125,-3.416748046875,39.70458984375,179.154052734375
1760967295.1900516,-0.64453125,-0.0458984375,0.77001953125,0.54931640625,0.06103515625,0.6103515625,-3.4112548828125,39.7100830078125,179.1650390625
1760967295.1977746,-0.64453125,-0.0458984375,0.77001953125,0.54931640625,0.06103515625,0.6103515625,-3.4002685546875,39.7100830078125,179.176025390625
1760967295.2127259,-0.6484375,-0.04248046875,0.76220703125,0.3662109375,0.06103515625,0.67138671875,-3.3892822265625,39.715576171875,179.18701171875
1760967295.2228007,-0.6484375,-0.04248046875,0.76220703125,0.3662109375,0.06103515625,0.67138671875,-3.3837890625,39.7210693359375,179.197998046875
1760967295.2297432,-0.650390625,-0.0478515625,0.7626953125,0.54931640625,0.06103515625,0.6103515625,-3.372802734375,39.7210693359375,179.2144775390625
1760967295.2365704,-0.650390625,-0.0478515625,0.7626953125,0.54931640625,0.06103515625,0.6103515625,-3.3673095703125,39.7265625,179.2254638671875
1760967295.2454574,-0.64794921875,-0.05029296875,0.77001953125,1.40380859375,0.1220703125,0.732421875,-3.350830078125,39.7320556640625,179.241943359375
1760967295.2600656,-0.64794921875,-0.05029296875,0.77001953125,1.40380859375,0.1220703125,0.732421875,-3.328857421875,39.7320556640625,179.2529296875
1760967295.269608,-0.6474609375,-0.044921875,0.767578125,0.8544921875,0.244140625,0.8544921875,-3.31787109375,39.737548828125,179.2694091796875
1760967295.2764468,-0.6474609375,-0.044921875,0.767578125,0.8544921875,0.244140625,0.8544921875,-3.3013916015625,39.7430419921875,179.2803955078125
1760967295.2926822,-0.6474609375,-0.044921875,0.767578125,0.18310546875,0.244140625,0.91552734375,-3.2904052734375,39.74853515625,179.296875
1760967295.3000202,-0.65478515625,-0.0400390625,0.767578125,0.18310546875,0.244140625,0.91552734375,-3.2794189453125,39.7540283203125,179.307861328125
1760967295.3072712,-0.65576171875,-0.03662109375,0.74755859375,-0.1220703125,0.30517578125,0.79345703125,-3.27392578125,39.759521484375,179.3243408203125
1760967295.314956,-0.65576171875,-0.03662109375,0.74755859375,-0.1220703125,0.30517578125,0.79345703125,-3.2684326171875,39.7705078125,179.3408203125
1760967295.3288682,-0.65234375,-0.04443359375,0.763671875,0.244140625,0.18310546875,0.54931640625,-3.262939453125,39.7760009765625,179.351806640625
1760967295.336304,-0.65234375,-0.04443359375,0.763671875,0.244140625,0.18310546875,0.54931640625,-3.2574462890625,39.781494140625,179.36279296875
1760967295.3434818,-0.64306640625,-0.04931640625,0.7705078125,0.0,0.244140625,0.6103515625,-3.251953125,39.7869873046875,179.3792724609375
1760967295.3511834,-0.64306640625,-0.04931640625,0.7705078125,0.0,0.244140625,0.6103515625,-3.2464599609375,39.79248046875,179.3902587890625
1760967295.3666606,-0.64111328125,-0.04638671875,0.77392578125,0.3662109375,0.18310546875,0.79345703125,-3.240966796875,39.7979736328125,179.4012451171875
1760967295.3738227,-0.64111328125,-0.04638671875,0.77392578125,0.3662109375,0.18310546875,0.79345703125,-3.22998046875,39.803466796875,179.417724609375
1760967295.3815978,-0.63623046875,-0.0458984375,0.76611328125,0.18310546875,0.06103515625,0.91552734375,-3.2244873046875,39.8089599609375,179.4287109375
1760967295.3962328,-0.63623046875,-0.0458984375,0.76611328125,0.18310546875,0.06103515625,0.91552734375,-3.2135009765625,39.8089599609375,179.4451904296875
1760967295.4032824,-0.64013671875,-0.0439453125,0.775390625,0.1220703125,0.0,0.9765625,-3.2080078125,39.8089599609375,179.4561767578125
1760967295.4115562,-0.64013671875,-0.0439453125,0.775390625,0.1220703125,0.0,0.9765625,-3.197021484375,39.814453125,179.47265625
1760967295.4266372,-0.63525390625,-0.044921875,0.765625,0.48828125,-0.18310546875,0.79345703125,-3.1915283203125,39.814453125,179.4891357421875
1760967295.4330719,-0.63525390625,-0.044921875,0.765625,0.48828125,-0.18310546875,0.79345703125,-3.1805419921875,39.814453125,179.5001220703125
1760967295.4410758,-0.64013671875,-0.044921875,0.78662109375,0.9765625,-0.42724609375,0.8544921875,-3.1640625,39.8089599609375,179.5111083984375
1760967295.4593823,-0.64013671875,-0.044921875,0.78662109375,0.9765625,-0.42724609375,0.8544921875,-3.1475830078125,39.8089599609375,179.5220947265625
1760967295.4664972,-0.642578125,-0.03955078125,0.76904296875,1.15966796875,-0.48828125,0.79345703125,-3.131103515625,39.803466796875,179.5330810546875
1760967295.4742246,-0.642578125,-0.03955078125,0.76904296875,1.15966796875,-0.48828125,0.79345703125,-3.1146240234375,39.7979736328125,179.5440673828125
1760967295.4857028,-0.64990234375,-0.037109375,0.75634765625,0.91552734375,-0.48828125,0.67138671875,-3.09814453125,39.79248046875,179.560546875
1760967295.5041103,-0.64990234375,-0.037109375,0.75634765625,0.91552734375,-0.48828125,0.67138671875,-3.087158203125,39.7869873046875,179.571533203125
1760967295.520807,-0.65380859375,-0.03662109375,0.7705078125,1.220703125,-0.30517578125,0.3662109375,-3.0706787109375,39.7869873046875,179.58251953125
1760967295.5287988,-0.65380859375,-0.03662109375,0.7705078125,1.220703125,-0.30517578125,0.3662109375,-3.05419921875,39.7869873046875,179.5880126953125
1760967295.5358698,-0.64892578125,-0.041015625,0.76318359375,1.15966796875,-0.06103515625,0.244140625,-3.043212890625,39.781494140625,179.5989990234375
1760967295.5435927,-0.64892578125,-0.041015625,0.76318359375,1.15966796875,-0.06103515625,0.244140625,-3.0267333984375,39.7869873046875,179.6044921875
1760967295.5538466,-0.646484375,-0.0419921875,0.76513671875,1.3427734375,0.0,0.244140625,-3.0157470703125,39.7869873046875,179.615478515625
1760967295.5642147,-0.646484375,-0.0419921875,0.76513671875,1.3427734375,0.0,0.244140625,-2.999267578125,39.7869873046875,179.6209716796875
1760967295.5718234,-0.64306640625,-0.03759765625,0.76953125,1.40380859375,0.0,0.244140625,-2.9827880859375,39.79248046875,179.62646484375
1760967295.578857,-0.64306640625,-0.03759765625,0.76953125,1.40380859375,0.0,0.244140625,-2.9718017578125,39.79248046875,179.6319580078125
1760967295.5865476,-0.6376953125,-0.03857421875,0.78759765625,0.9765625,0.1220703125,0.3662109375,-2.955322265625,39.79248046875,179.637451171875
1760967295.6015496,-0.6376953125,-0.03857421875,0.78759765625,0.9765625,0.1220703125,0.3662109375,-2.9443359375,39.7979736328125,179.6484375
1760967295.60795,-0.638671875,-0.03857421875,0.77001953125,0.30517578125,0.18310546875,0.48828125,-2.933349609375,39.7979736328125,179.6539306640625
1760967295.616125,-0.638671875,-0.03857421875,0.77001953125,0.30517578125,0.18310546875,0.48828125,-2.9278564453125,39.7979736328125,179.659423828125
1760967295.6327107,-0.6435546875,-0.03076171875,0.75341796875,1.64794921875,0.42724609375,0.48828125,-2.911376953125,39.803466796875,179.67041015625
1760967295.6397717,-0.6435546875,-0.03076171875,0.75341796875,1.64794921875,0.42724609375,0.48828125,-2.8948974609375,39.8089599609375,179.6759033203125
1760967295.6466436,-0.64501953125,-0.0478515625,0.79541015625,0.1220703125,0.30517578125,0.48828125,-2.87841796875,39.814453125,179.6868896484375
1760967295.6530397,-0.64501953125,-0.0478515625,0.79541015625,0.1220703125,0.30517578125,0.48828125,-2.8729248046875,39.814453125,179.6923828125
1760967295.669034,-0.6396484375,-0.041015625,0.767578125,0.67138671875,0.6103515625,0.6103515625,-2.867431640625,39.8199462890625,179.703369140625
1760967295.676022,-0.6396484375,-0.041015625,0.767578125,0.67138671875,0.6103515625,0.6103515625,-2.8564453125,39.825439453125,179.71435546875
1760967295.6836834,-0.6435546875,-0.0380859375,0.76513671875,1.15966796875,0.732421875,0.732421875,-2.845458984375,39.8309326171875,179.7198486328125
1760967295.7007353,-0.6435546875,-0.0380859375,0.76513671875,1.15966796875,0.732421875,0.732421875,-2.8289794921875,39.8419189453125,179.7308349609375
1760967295.7077384,-0.64697265625,-0.03125,0.779296875,-0.18310546875,0.91552734375,0.8544921875,-2.8179931640625,39.847412109375,179.7418212890625
1760967295.7152636,-0.64697265625,-0.03125,0.779296875,-0.18310546875,0.91552734375,0.8544921875,-2.8125,39.8583984375,179.7528076171875
1760967295.7309425,-0.6416015625,-0.03857421875,0.76171875,-0.3662109375,0.8544921875,0.91552734375,-2.8070068359375,39.8638916015625,179.769287109375
1760967295.738515,-0.6416015625,-0.03857421875,0.76171875,-0.3662109375,0.8544921875,0.91552734375,-2.801513671875,39.8748779296875,179.7802734375
1760967295.7460115,-0.63427734375,-0.03955078125,0.78125,0.6103515625,0.54931640625,0.91552734375,-2.79052734375,39.88037109375,179.791259765625
1760967295.753124,-0.63427734375,-0.03955078125,0.78125,0.6103515625,0.54931640625,0.91552734375,-2.779541015625,39.8858642578125,179.80224609375
1760967295.7611346,-0.6416015625,-0.033203125,0.7783203125,0.18310546875,0.48828125,0.9765625,-2.7685546875,39.891357421875,179.813232421875
1760967295.7758176,-0.6416015625,-0.033203125,0.7783203125,0.18310546875,0.48828125,0.9765625,-2.757568359375,39.891357421875,179.8297119140625
1760967295.7830825,-0.64306640625,-0.0322265625,0.7529296875,0.18310546875,0.42724609375,0.8544921875,-2.7520751953125,39.8968505859375,179.8406982421875
1760967295.7911851,-0.64306640625,-0.0322265625,0.7529296875,0.18310546875,0.42724609375,0.8544921875,-2.7410888671875,39.90234375,179.8516845703125
1760967295.8069003,-0.6376953125,-0.03955078125,0.78173828125,0.48828125,0.48828125,0.732421875,-2.7301025390625,39.90234375,179.8626708984375
1760967295.8143854,-0.6376953125,-0.03955078125,0.78173828125,0.48828125,0.48828125,0.732421875,-2.7191162109375,39.9078369140625,179.8681640625
1760967295.8216534,-0.6318359375,-0.0390625,0.79150390625,0.0,0.48828125,0.8544921875,-2.713623046875,39.913330078125,179.879150390625
1760967295.831665,-0.6318359375,-0.0390625,0.79150390625,0.0,0.48828125,0.8544921875,-2.7081298828125,39.913330078125,179.8846435546875
1760967295.841558,-0.6328125,-0.03173828125,0.77197265625,-0.30517578125,0.3662109375,0.91552734375,-2.70263671875,39.913330078125,179.8956298828125
1760967295.8522284,-0.6328125,-0.03173828125,0.77197265625,-0.30517578125,0.3662109375,0.91552734375,-2.6971435546875,39.9188232421875,179.901123046875
1760967295.8618805,-0.630859375,-0.03076171875,0.77880859375,-0.54931640625,0.30517578125,0.8544921875,-2.6971435546875,39.9188232421875,179.912109375
1760967295.8737633,-0.630859375,-0.03076171875,0.77880859375,-0.54931640625,0.30517578125,0.8544921875,-2.691650390625,39.9188232421875,179.9176025390625
1760967295.8816338,-0.63134765625,-0.03662109375,0.7822265625,-0.8544921875,0.244140625,0.79345703125,-2.6971435546875,39.9188232421875,179.923095703125
1760967295.8915098,-0.63134765625,-0.03662109375,0.7822265625,-0.8544921875,0.244140625,0.79345703125,-2.6971435546875,39.913330078125,179.9285888671875
1760967295.9021943,-0.63525390625,-0.037109375,0.7783203125,-0.6103515625,0.18310546875,0.6103515625,-2.6971435546875,39.913330078125,179.93408203125
1760967295.9113045,-0.63525390625,-0.037109375,0.7783203125,-0.6103515625,0.18310546875,0.6103515625,-2.6971435546875,39.913330078125,179.93408203125
1760967295.9233224,-0.634765625,-0.03515625,0.77880859375,-0.54931640625,0.30517578125,0.54931640625,-2.6971435546875,39.913330078125,179.9395751953125
1760967295.9316432,-0.634765625,-0.03515625,0.77880859375,-0.54931640625,0.30517578125,0.54931640625,-2.6971435546875,39.9078369140625,179.9395751953125
1760967295.9417276,-0.638671875,-0.0302734375,0.7744140625,-0.42724609375,0.244140625,0.42724609375,-2.6971435546875,39.9078369140625,179.945068359375
1760967295.9516811,-0.638671875,-0.0302734375,0.7744140625,-0.42724609375,0.244140625,0.42724609375,-2.6971435546875,39.9078369140625,179.945068359375
1760967295.962002,-0.64013671875,-0.03369140625,0.7685546875,-0.30517578125,0.18310546875,0.30517578125,-2.6971435546875,39.9078369140625,179.945068359375
1760967295.971468,-0.64013671875,-0.03369140625,0.7685546875,-0.30517578125,0.18310546875,0.30517578125,-2.6971435546875,39.9078369140625,179.9505615234375
1760967295.9816287,-0.6357421875,-0.04052734375,0.78076171875,0.48828125,0.06103515625,0.244140625,-2.691650390625,39.90234375,179.9505615234375
1760967295.991734,-0.6357421875,-0.04052734375,0.78076171875,0.48828125,0.06103515625,0.244140625,-2.6861572265625,39.90234375,179.9505615234375
1760967296.0017292,-0.6357421875,-0.03369140625,0.76904296875,1.03759765625,0.0,0.18310546875,-2.669677734375,39.8968505859375,179.9505615234375
1760967296.011568,-0.6357421875,-0.03369140625,0.76904296875,1.03759765625,0.0,0.18310546875,-2.65869140625,39.891357421875,179.9505615234375
1760967296.0232153,-0.6337890625,-0.0283203125,0.77587890625,0.67138671875,-0.06103515625,0.30517578125,-2.647705078125,39.891357421875,179.9505615234375
1760967296.032144,-0.6337890625,-0.0283203125,0.77587890625,0.67138671875,-0.06103515625,0.30517578125,-2.6422119140625,39.8858642578125,179.9560546875
1760967296.0419438,-0.63134765625,-0.0439453125,0.79052734375,0.3662109375,0.0,0.42724609375,-2.6312255859375,39.88037109375,179.9560546875
1760967296.052456,-0.63134765625,-0.0439453125,0.79052734375,0.3662109375,0.0,0.42724609375,-2.625732421875,39.88037109375,179.9560546875
1760967296.0623,-0.63232421875,-0.04052734375,0.77734375,0.6103515625,-0.06103515625,0.6103515625,-2.61474609375,39.8748779296875,179.9615478515625
1760967296.0715704,-0.63232421875,-0.04052734375,0.77734375,0.6103515625,-0.06103515625,0.6103515625,-2.603759765625,39.869384765625,179.967041015625
1760967296.082662,-0.6318359375,-0.0302734375,0.77392578125,1.220703125,-0.244140625,0.6103515625,-2.5872802734375,39.8638916015625,179.9725341796875
1760967296.0919456,-0.6318359375,-0.0302734375,0.77392578125,1.220703125,-0.244140625,0.6103515625,-2.57080078125,39.8583984375,179.9725341796875
1760967296.1018505,-0.63232421875,-0.029296875,0.78125,1.15966796875,-0.3662109375,0.42724609375,-2.5543212890625,39.847412109375,179.9725341796875
1760967296.112669,-0.63232421875,-0.029296875,0.78125,1.15966796875,-0.3662109375,0.42724609375,-2.537841796875,39.8419189453125,179.97802734375
1760967296.1218476,-0.63623046875,-0.025390625,0.7763671875,0.732421875,-0.42724609375,0.48828125,-2.52685546875,39.83642578125,179.97802734375
1760967296.1325974,-0.63623046875,-0.025390625,0.7763671875,0.732421875,-0.42724609375,0.48828125,-2.515869140625,39.825439453125,179.97802734375
1760967296.1426566,-0.6376953125,-0.03466796875,0.7705078125,0.0,-0.3662109375,0.48828125,-2.5103759765625,39.8199462890625,179.9835205078125
1760967296.1520824,-0.6376953125,-0.03466796875,0.7705078125,0.0,-0.3662109375,0.48828125,-2.5048828125,39.8089599609375,179.9835205078125
1760967296.1618626,-0.63671875,-0.04248046875,0.7802734375,0.6103515625,-0.244140625,0.42724609375,-2.493896484375,39.803466796875,179.989013671875
1760967296.1720266,-0.63671875,-0.04248046875,0.7802734375,0.6103515625,-0.244140625,0.42724609375,-2.4884033203125,39.7979736328125,179.9945068359375
1760967296.1821737,-0.634765625,-0.03173828125,0.77001953125,1.46484375,0.0,0.30517578125,-2.471923828125,39.7979736328125,179.9945068359375
1760967296.191686,-0.634765625,-0.03173828125,0.77001953125,1.46484375,0.0,0.30517578125,-2.4554443359375,39.79248046875,179.9945068359375
1760967296.2021947,-0.63720703125,-0.0283203125,0.7890625,2.5634765625,0.1220703125,0.244140625,-2.427978515625,39.79248046875,-179.9945068359375
1760967296.211981,-0.63720703125,-0.0283203125,0.7890625,2.5634765625,0.1220703125,0.244140625,-2.4005126953125,39.79248046875,-179.9945068359375
1760967296.221885,-0.64306640625,-0.025390625,0.76904296875,1.77001953125,0.18310546875,0.18310546875,-2.3785400390625,39.7869873046875,-179.9945068359375
1760967296.2314346,-0.64306640625,-0.025390625,0.76904296875,1.77001953125,0.18310546875,0.18310546875,-2.362060546875,39.7869873046875,-179.9945068359375
1760967296.2420578,-0.63623046875,-0.02490234375,0.7626953125,2.3193359375,0.0,-0.244140625,-2.340087890625,39.7869873046875,179.9945068359375
1760967296.2515504,-0.63623046875,-0.02490234375,0.7626953125,2.3193359375,0.0,-0.244140625,-2.318115234375,39.781494140625,179.989013671875
1760967296.2622595,-0.63525390625,-0.02734375,0.7802734375,2.44140625,0.0,-0.48828125,-2.296142578125,39.781494140625,179.9835205078125
1760967296.2731316,-0.63525390625,-0.02734375,0.7802734375,2.44140625,0.0,-0.48828125,-2.274169921875,39.7760009765625,179.9725341796875
1760967296.2820203,-0.63525390625,-0.02734375,0.7802734375,3.47900390625,0.0,-0.6103515625,-2.2467041015625,39.7760009765625,179.9615478515625
1760967296.291893,-0.6162109375,-0.0263671875,0.787109375,3.47900390625,0.0,-0.6103515625,-2.2137451171875,39.7705078125,179.9505615234375
1760967296.3020928,-0.619140625,-0.021484375,0.80224609375,1.89208984375,0.0,-0.8544921875,-2.2027587890625,39.7650146484375,179.93408203125
1760967296.3117983,-0.619140625,-0.021484375,0.80224609375,1.89208984375,0.0,-0.8544921875,-2.1917724609375,39.759521484375,179.9176025390625
1760967296.3230112,-0.61328125,-0.021484375,0.8046875,-0.1220703125,-0.244140625,-0.91552734375,-2.197265625,39.74853515625,179.901123046875
1760967296.3347628,-0.61328125,-0.021484375,0.8046875,-0.1220703125,-0.244140625,-0.91552734375,-2.2027587890625,39.7430419921875,179.879150390625
1760967296.342417,-0.61572265625,-0.03466796875,0.796875,1.8310546875,-0.42724609375,-1.03759765625,-2.1917724609375,39.7265625,179.857177734375
1760967296.3519526,-0.61572265625,-0.03466796875,0.796875,1.8310546875,-0.42724609375,-1.03759765625,-2.186279296875,39.715576171875,179.835205078125
1760967296.3625858,-0.6474609375,-0.0400390625,0.7744140625,3.72314453125,-0.42724609375,-1.28173828125,-2.1588134765625,39.70458984375,179.8077392578125
1760967296.3720555,-0.6474609375,-0.0400390625,0.7744140625,3.72314453125,-0.42724609375,-1.28173828125,-2.13134765625,39.693603515625,179.7857666015625
1760967296.3819513,-0.6630859375,-0.0283203125,0.7275390625,2.25830078125,-0.1220703125,-1.52587890625,-2.120361328125,39.6881103515625,179.75830078125
1760967296.3927777,-0.6630859375,-0.0283203125,0.7275390625,2.25830078125,-0.1220703125,-1.52587890625,-2.109375,39.6826171875,179.736328125
1760967296.4027243,-0.673828125,-0.0205078125,0.7568359375,3.173828125,0.42724609375,-1.52587890625,-2.0928955078125,39.6881103515625,179.71435546875
1760967296.4118166,-0.673828125,-0.0205078125,0.7568359375,3.173828125,0.42724609375,-1.52587890625,-2.076416015625,39.6881103515625,179.6978759765625
1760967296.4238327,-0.677734375,-0.01904296875,0.744140625,3.11279296875,0.79345703125,-1.52587890625,-2.054443359375,39.6990966796875,179.681396484375
1760967296.4319196,-0.677734375,-0.01904296875,0.744140625,3.11279296875,0.79345703125,-1.52587890625,-2.0379638671875,39.7100830078125,179.6649169921875
1760967296.442208,-0.67626953125,-0.01025390625,0.7431640625,0.9765625,0.9765625,-1.40380859375,-2.0379638671875,39.7210693359375,179.6539306640625
1760967296.4518013,-0.67626953125,-0.01025390625,0.7431640625,0.9765625,0.9765625,-1.40380859375,-2.0379638671875,39.737548828125,179.6429443359375
1760967296.4622571,-0.67626953125,-0.02880859375,0.7353515625,-0.244140625,1.03759765625,-1.15966796875,-2.0489501953125,39.7540283203125,179.637451171875
1760967296.4719431,-0.67626953125,-0.02880859375,0.7353515625,-0.244140625,1.03759765625,-1.15966796875,-2.0599365234375,39.7705078125,179.6319580078125
1760967296.4824674,-0.67333984375,-0.04296875,0.74267578125,-0.732421875,1.3427734375,-0.8544921875,-2.076416015625,39.79248046875,179.6319580078125
1760967296.4918754,-0.67333984375,-0.04296875,0.74267578125,-0.732421875,1.3427734375,-0.8544921875,-2.0928955078125,39.814453125,179.6319580078125
1760967296.502355,-0.67041015625,-0.02490234375,0.76416015625,-1.46484375,1.64794921875,-0.48828125,-2.109375,39.83642578125,179.6319580078125
1760967296.5122623,-0.67041015625,-0.02490234375,0.76416015625,-1.46484375,1.64794921875,-0.48828125,-2.13134765625,39.8583984375,179.637451171875
1760967296.5227125,-0.66455078125,-0.02587890625,0.74169921875,-2.99072265625,1.8310546875,-0.06103515625,-2.1588134765625,39.8858642578125,179.6484375
1760967296.532379,-0.66455078125,-0.02587890625,0.74169921875,-2.99072265625,1.8310546875,-0.06103515625,-2.1917724609375,39.913330078125,179.6539306640625
1760967296.54218,-0.65478515625,-0.04443359375,0.7626953125,-2.74658203125,1.708984375,0.3662109375,-2.2137451171875,39.9407958984375,179.67041015625
1760967296.5520382,-0.65478515625,-0.04443359375,0.7626953125,-2.74658203125,1.708984375,0.3662109375,-2.2412109375,39.9627685546875,179.681396484375
1760967296.5621943,-0.6484375,-0.04052734375,0.7626953125,-2.5634765625,1.3427734375,0.8544921875,-2.2576904296875,39.9847412109375,179.6978759765625
1760967296.5719717,-0.6484375,-0.04052734375,0.7626953125,-2.5634765625,1.3427734375,0.8544921875,-2.2796630859375,40.0067138671875,179.7198486328125
1760967296.5831196,-0.642578125,-0.03076171875,0.765625,-2.44140625,0.732421875,1.0986328125,-2.296142578125,40.0177001953125,179.736328125
1760967296.592082,-0.642578125,-0.03076171875,0.765625,-2.44140625,0.732421875,1.0986328125,-2.3126220703125,40.0286865234375,179.75830078125
1760967296.6025615,-0.64208984375,-0.0205078125,0.7763671875,-2.62451171875,0.244140625,1.220703125,-2.3291015625,40.0396728515625,179.7802734375
1760967296.6122782,-0.64208984375,-0.0205078125,0.7763671875,-2.62451171875,0.244140625,1.220703125,-2.3455810546875,40.045166015625,179.80224609375
1760967296.622238,-0.6455078125,-0.02783203125,0.7666015625,-2.8076171875,0.0,1.220703125,-2.362060546875,40.0506591796875,179.82421875
1760967296.6320024,-0.6455078125,-0.02783203125,0.7666015625,-2.8076171875,0.0,1.220703125,-2.3785400390625,40.0506591796875,179.8406982421875
1760967296.6423626,-0.64599609375,-0.0283203125,0.7724609375,-1.89208984375,0.06103515625,0.91552734375,-2.3895263671875,40.05615234375,179.857177734375
1760967296.6532204,-0.64599609375,-0.0283203125,0.7724609375,-1.89208984375,0.06103515625,0.91552734375,-2.4005126953125,40.05615234375,179.8736572265625
1760967296.6633925,-0.64599609375,-0.02978515625,0.76953125,-1.77001953125,0.48828125,0.6103515625,-2.4114990234375,40.067138671875,179.879150390625
1760967296.672112,-0.64599609375,-0.02978515625,0.76953125,-1.77001953125,0.48828125,0.6103515625,-2.4224853515625,40.0726318359375,179.89013671875
1760967296.682817,-0.6435546875,-0.03564453125,0.77734375,-0.79345703125,0.732421875,0.3662109375,-2.427978515625,40.078125,179.8956298828125
1760967296.6922874,-0.6435546875,-0.03564453125,0.77734375,-0.79345703125,0.732421875,0.3662109375,-2.427978515625,40.089111328125,179.901123046875
1760967296.7024333,-0.63720703125,-0.03125,0.771484375,-0.18310546875,0.67138671875,0.1220703125,-2.427978515625,40.0946044921875,179.901123046875
1760967296.7128575,-0.63720703125,-0.03125,0.771484375,-0.18310546875,0.67138671875,0.1220703125,-2.427978515625,40.10009765625,179.901123046875
1760967296.723169,-0.63720703125,-0.0234375,0.78369140625,0.06103515625,0.30517578125,-0.18310546875,-2.427978515625,40.1055908203125,179.901123046875
1760967296.7323532,-0.63720703125,-0.0234375,0.78369140625,0.06103515625,0.30517578125,-0.18310546875,-2.427978515625,40.1055908203125,179.8956298828125
1760967296.7426503,-0.64111328125,-0.0283203125,0.76318359375,-0.79345703125,0.244140625,-0.48828125,-2.43896484375,40.1055908203125,179.8846435546875
1760967296.7520256,-0.64111328125,-0.0283203125,0.76318359375,-0.79345703125,0.244140625,-0.48828125,-2.449951171875,40.1055908203125,179.879150390625
1760967296.762337,-0.6494140625,-0.03466796875,0.77734375,1.0986328125,0.18310546875,-0.9765625,-2.4444580078125,40.1055908203125,179.8681640625
