timestamp,acc_x,acc_y,acc_z,gyro_x,gyro_y,gyro_z,angle_x,angle_y,angle_z
1761054313.2603216,0.0,0.0,0.0,0.0,0.0,0.0,-1.1920166015625,50.635986328125,-72.103271484375
1761054313.268662,-0.77197265625,-0.0185546875,0.6455078125,-0.1220703125,-1.15966796875,1.15966796875,-1.1865234375,50.6195068359375,-72.0867919921875
1761054313.2778468,-0.77197265625,-0.0185546875,0.6455078125,-0.1220703125,-1.15966796875,1.15966796875,-1.1700439453125,50.6085205078125,-72.0648193359375
1761054313.2866092,-0.7685546875,-0.02392578125,0.6484375,1.0986328125,-1.03759765625,1.40380859375,-1.153564453125,50.592041015625,-72.0428466796875
1761054313.2963967,-0.7685546875,-0.02392578125,0.6484375,1.0986328125,-1.03759765625,1.40380859375,-1.1260986328125,50.5810546875,-72.0208740234375
1761054313.3063765,-0.763671875,-0.00634765625,0.6513671875,0.0,-0.9765625,1.5869140625,-1.1041259765625,50.570068359375,-71.9989013671875
1761054313.3164485,-0.763671875,-0.00634765625,0.6513671875,0.0,-0.9765625,1.5869140625,-1.0821533203125,50.5535888671875,-71.971435546875
1761054313.3263218,-0.76220703125,0.001953125,0.66748046875,-2.9296875,-1.15966796875,1.5869140625,-1.0821533203125,50.5426025390625,-71.949462890625
1761054313.3363721,-0.76220703125,0.001953125,0.66748046875,-2.9296875,-1.15966796875,1.5869140625,-1.087646484375,50.526123046875,-71.9219970703125
1761054313.3461816,-0.76416015625,-0.02099609375,0.662109375,-4.150390625,-1.03759765625,1.5869140625,-1.1041259765625,50.5096435546875,-71.89453125
1761054313.356163,-0.76416015625,-0.02099609375,0.662109375,-4.150390625,-1.03759765625,1.5869140625,-1.1260986328125,50.4986572265625,-71.8670654296875
1761054313.3661125,-0.7666015625,-0.02294921875,0.63720703125,-2.62451171875,-0.732421875,1.220703125,-1.142578125,50.482177734375,-71.8450927734375
1761054313.3761828,-0.7666015625,-0.02294921875,0.63720703125,-2.62451171875,-0.732421875,1.220703125,-1.153564453125,50.47119140625,-71.8231201171875
1761054313.385842,-0.7607421875,-0.00732421875,0.63232421875,1.953125,-0.9765625,0.79345703125,-1.1480712890625,50.460205078125,-71.8121337890625
1761054313.3959026,-0.7607421875,-0.00732421875,0.63232421875,1.953125,-0.9765625,0.79345703125,-1.1151123046875,50.4437255859375,-71.795654296875
1761054313.4058716,-0.76025390625,-0.01611328125,0.65380859375,4.0283203125,-1.15966796875,0.732421875,-1.07666015625,50.4327392578125,-71.78466796875
1761054313.4159148,-0.76025390625,-0.01611328125,0.65380859375,4.0283203125,-1.15966796875,0.732421875,-1.03271484375,50.416259765625,-71.773681640625
1761054313.425931,-0.759765625,-0.01904296875,0.67626953125,2.62451171875,-1.15966796875,1.3427734375,-0.9832763671875,50.3997802734375,-71.7572021484375
1761054313.4359431,-0.759765625,-0.01904296875,0.67626953125,2.62451171875,-1.15966796875,1.3427734375,-0.94482421875,50.38330078125,-71.7352294921875
1761054313.4459174,-0.7578125,-0.00244140625,0.6708984375,1.15966796875,-1.15966796875,1.708984375,-0.911865234375,50.3668212890625,-71.707763671875
1761054313.455948,-0.7578125,-0.00244140625,0.6708984375,1.15966796875,-1.15966796875,1.708984375,-0.87890625,50.350341796875,-71.6802978515625
1761054313.46593,-0.755859375,-0.0048828125,0.64111328125,0.18310546875,-1.46484375,1.708984375,-0.8514404296875,50.3338623046875,-71.65283203125
1761054313.475947,-0.755859375,-0.0048828125,0.64111328125,0.18310546875,-1.46484375,1.708984375,-0.8294677734375,50.3118896484375,-71.6253662109375
1761054313.4859831,-0.76220703125,-0.01171875,0.64111328125,0.9765625,-1.77001953125,1.52587890625,-0.8074951171875,50.2899169921875,-71.6033935546875
1761054313.4960454,-0.76220703125,-0.01171875,0.64111328125,0.9765625,-1.77001953125,1.52587890625,-0.780029296875,50.2679443359375,-71.575927734375
1761054313.506046,-0.77099609375,-0.01953125,0.65185546875,3.11279296875,-1.77001953125,1.220703125,-0.7415771484375,50.2459716796875,-71.553955078125
1761054313.5160387,-0.77099609375,-0.01953125,0.65185546875,3.11279296875,-1.77001953125,1.220703125,-0.6976318359375,50.2239990234375,-71.5374755859375
1761054313.526022,-0.7734375,-0.02099609375,0.64501953125,3.47900390625,-1.8310546875,1.28173828125,-0.6536865234375,50.2020263671875,-71.52099609375
1761054313.5360246,-0.7734375,-0.02099609375,0.64501953125,3.47900390625,-1.8310546875,1.28173828125,-0.6097412109375,50.1800537109375,-71.5045166015625
1761054313.5460246,-0.79248046875,0.0,0.60595703125,2.99072265625,-1.708984375,1.220703125,-0.5657958984375,50.1580810546875,-71.488037109375
1761054313.556043,-0.79248046875,0.0,0.60595703125,2.99072265625,-1.708984375,1.220703125,-0.5218505859375,50.1416015625,-71.4715576171875
1761054313.566116,-0.8056640625,0.01123046875,0.58935546875,2.38037109375,-1.8310546875,1.03759765625,-0.4833984375,50.1251220703125,-71.455078125
1761054313.576086,-0.8056640625,0.01123046875,0.58935546875,2.38037109375,-1.8310546875,1.03759765625,-0.450439453125,50.108642578125,-71.444091796875
1761054313.5861187,-0.80712890625,0.00146484375,0.61181640625,1.0986328125,-1.40380859375,1.3427734375,-0.4229736328125,50.09765625,-71.4276123046875
1761054313.5960963,-0.80712890625,0.00146484375,0.61181640625,1.0986328125,-1.40380859375,1.3427734375,-0.3955078125,50.0921630859375,-71.4056396484375
1761054313.6061182,-0.80615234375,-0.0107421875,0.6142578125,-0.67138671875,-0.48828125,1.708984375,-0.3790283203125,50.0921630859375,-71.3836669921875
1761054313.6161392,-0.80615234375,-0.0107421875,0.6142578125,-0.67138671875,-0.48828125,1.708984375,-0.3680419921875,50.09765625,-71.3616943359375
1761054313.6261885,-0.80078125,-0.0087890625,0.591796875,-0.42724609375,0.0,1.8310546875,-0.3515625,50.1031494140625,-71.3397216796875
1761054313.6362839,-0.80078125,-0.0087890625,0.591796875,-0.42724609375,0.0,1.8310546875,-0.3350830078125,50.1141357421875,-71.312255859375
1761054313.6462982,-0.80419921875,-0.005859375,0.59228515625,0.244140625,0.42724609375,1.8310546875,-0.3131103515625,50.130615234375,-71.290283203125
1761054313.656397,-0.80419921875,-0.005859375,0.59228515625,0.244140625,0.42724609375,1.8310546875,-0.2911376953125,50.1470947265625,-71.268310546875
1761054313.6662776,-0.79541015625,-0.00439453125,0.61083984375,0.06103515625,0.54931640625,1.5869140625,-0.274658203125,50.16357421875,-71.246337890625
1761054313.6763356,-0.79541015625,-0.00439453125,0.61083984375,0.06103515625,0.54931640625,1.5869140625,-0.2581787109375,50.1800537109375,-71.2298583984375
1761054313.6863678,-0.78125,-0.00439453125,0.63037109375,0.30517578125,0.732421875,1.52587890625,-0.2362060546875,50.2020263671875,-71.21337890625
1761054313.696362,-0.78125,-0.00439453125,0.63037109375,0.30517578125,0.732421875,1.52587890625,-0.2197265625,50.218505859375,-71.19140625
1761054313.7063265,-0.77197265625,-0.0009765625,0.6357421875,0.79345703125,0.9765625,1.52587890625,-0.1922607421875,50.240478515625,-71.1749267578125
1761054313.7163305,-0.77197265625,-0.0009765625,0.6357421875,0.79345703125,0.9765625,1.52587890625,-0.1702880859375,50.2569580078125,-71.1529541015625
1761054313.7264042,-0.76123046875,0.00244140625,0.65380859375,0.67138671875,1.0986328125,1.64794921875,-0.142822265625,50.2789306640625,-71.1309814453125
1761054313.7363455,-0.76123046875,0.00244140625,0.65380859375,0.67138671875,1.0986328125,1.64794921875,-0.120849609375,50.29541015625,-71.1090087890625
1761054313.7464259,-0.7626953125,-0.00341796875,0.6796875,0.91552734375,1.3427734375,1.89208984375,-0.087890625,50.3118896484375,-71.0870361328125
1761054313.7563121,-0.7626953125,-0.00341796875,0.6796875,0.91552734375,1.3427734375,1.89208984375,-0.0604248046875,50.328369140625,-71.0595703125
1761054313.7663307,-0.76611328125,-0.001953125,0.65625,0.18310546875,1.40380859375,1.89208984375,-0.032958984375,50.3448486328125,-71.0321044921875
1761054313.7763448,-0.76611328125,-0.001953125,0.65625,0.18310546875,1.40380859375,1.89208984375,-0.010986328125,50.361328125,-71.0101318359375
1761054313.7864573,-0.767578125,0.005859375,0.63623046875,0.244140625,1.0986328125,1.46484375,0.0,50.372314453125,-70.9881591796875
1761054313.7964032,-0.767578125,0.005859375,0.63623046875,0.244140625,1.0986328125,1.46484375,0.02197265625,50.38330078125,-70.9661865234375
1761054313.8064263,-0.767578125,0.0185546875,0.64013671875,0.1220703125,0.54931640625,0.8544921875,0.032958984375,50.3887939453125,-70.9552001953125
1761054313.816459,-0.767578125,0.0185546875,0.64013671875,0.1220703125,0.54931640625,0.8544921875,0.0439453125,50.394287109375,-70.9442138671875
1761054313.8265526,-0.771484375,0.01611328125,0.642578125,-0.30517578125,0.3662109375,0.48828125,0.0494384765625,50.3997802734375,-70.9332275390625
1761054313.8364406,-0.771484375,0.01611328125,0.642578125,-0.30517578125,0.3662109375,0.48828125,0.0494384765625,50.3997802734375,-70.927734375
1761054313.8465528,-0.77734375,0.001953125,0.64697265625,-1.40380859375,0.3662109375,0.30517578125,0.0439453125,50.4052734375,-70.9222412109375
1761054313.856555,-0.77734375,0.001953125,0.64697265625,-1.40380859375,0.3662109375,0.30517578125,0.032958984375,50.4052734375,-70.9112548828125
1761054313.8666253,-0.77880859375,0.0,0.634765625,-1.15966796875,0.3662109375,0.1220703125,0.0274658203125,50.4107666015625,-70.9112548828125
1761054313.8765159,-0.77880859375,0.0,0.634765625,-1.15966796875,0.3662109375,0.1220703125,0.0164794921875,50.416259765625,-70.90576171875
1761054313.8866267,-0.77587890625,0.01025390625,0.625,-0.3662109375,0.30517578125,-0.244140625,0.0164794921875,50.416259765625,-70.9112548828125
1761054313.8965864,-0.77587890625,0.01025390625,0.625,-0.3662109375,0.30517578125,-0.244140625,0.010986328125,50.4217529296875,-70.9112548828125
1761054313.9113307,-0.77099609375,0.00390625,0.634765625,-0.30517578125,0.3662109375,-0.42724609375,0.0054931640625,50.42724609375,-70.9222412109375
1761054313.918714,-0.77099609375,0.00390625,0.634765625,-0.30517578125,0.3662109375,-0.42724609375,0.0,50.4327392578125,-70.927734375
1761054313.9272225,-0.767578125,-0.0087890625,0.6591796875,-0.732421875,0.3662109375,-0.244140625,-0.0054931640625,50.4327392578125,-70.927734375
1761054313.9498708,-0.767578125,-0.0087890625,0.6591796875,-0.732421875,0.3662109375,-0.244140625,-0.010986328125,50.438232421875,-70.9332275390625
1761054313.9576135,-0.76806640625,0.00146484375,0.65380859375,-1.3427734375,0.6103515625,0.0,-0.0274658203125,50.4437255859375,-70.9332275390625
1761054313.9660058,-0.76806640625,0.00146484375,0.65380859375,-1.3427734375,0.6103515625,0.0,-0.0384521484375,50.44921875,-70.9332275390625
1761054313.982965,-0.77197265625,-0.00146484375,0.6513671875,-0.54931640625,0.6103515625,0.0,-0.0439453125,50.4547119140625,-70.9332275390625
1761054313.9972594,-0.77197265625,-0.00146484375,0.6513671875,-0.54931640625,0.6103515625,0.0,-0.0439453125,50.4547119140625,-70.9332275390625
1761054314.0114136,-0.771484375,-0.001953125,0.6396484375,0.0,0.54931640625,-0.18310546875,-0.0494384765625,50.460205078125,-70.938720703125
1761054314.0197008,-0.771484375,-0.001953125,0.6396484375,0.0,0.54931640625,-0.18310546875,-0.0494384765625,50.4656982421875,-70.938720703125
1761054314.0271986,-0.7685546875,0.0107421875,0.63623046875,-0.79345703125,0.06103515625,-0.30517578125,-0.0604248046875,50.460205078125,-70.9442138671875
1761054314.0347111,-0.7685546875,0.0107421875,0.63623046875,-0.79345703125,0.06103515625,-0.30517578125,-0.0714111328125,50.460205078125,-70.94970703125
1761054314.04862,-0.77587890625,0.01171875,0.64453125,-1.46484375,0.0,-0.42724609375,-0.087890625,50.460205078125,-70.9552001953125
1761054314.058253,-0.77587890625,0.01171875,0.64453125,-1.46484375,0.0,-0.42724609375,-0.1043701171875,50.460205078125,-70.960693359375
1761054314.0648746,-0.7744140625,-0.00732421875,0.640625,-1.89208984375,0.1220703125,-0.48828125,-0.1263427734375,50.460205078125,-70.9661865234375
1761054314.0798774,-0.7744140625,-0.00732421875,0.640625,-1.89208984375,0.1220703125,-0.48828125,-0.1483154296875,50.460205078125,-70.9716796875
1761054314.0882533,-0.7744140625,-0.0078125,0.6435546875,-2.0751953125,0.244140625,-0.48828125,-0.17578125,50.460205078125,-70.9771728515625
1761054314.099014,-0.7744140625,-0.0078125,0.6435546875,-2.0751953125,0.244140625,-0.48828125,-0.19775390625,50.460205078125,-70.9881591796875
1761054314.130551,-0.7763671875,0.01025390625,0.63623046875,-1.64794921875,0.244140625,-0.79345703125,-0.2252197265625,50.460205078125,-70.9991455078125
1761054314.1587865,-0.7763671875,0.01025390625,0.63623046875,-1.64794921875,0.244140625,-0.79345703125,-0.2471923828125,50.4656982421875,-71.0101318359375
1761054314.1717563,-0.7763671875,0.0048828125,0.63037109375,-1.708984375,0.30517578125,-1.0986328125,-0.274658203125,50.4656982421875,-71.026611328125
1761054314.1780307,-0.7763671875,0.0048828125,0.63037109375,-1.708984375,0.30517578125,-1.0986328125,-0.3021240234375,50.47119140625,-71.03759765625
1761054314.1843681,-0.7734375,-0.0087890625,0.63623046875,-2.25830078125,0.42724609375,-1.0986328125,-0.3350830078125,50.47119140625,-71.0540771484375
1761054314.1911478,-0.7734375,-0.0087890625,0.63623046875,-2.25830078125,0.42724609375,-1.0986328125,-0.3680419921875,50.4766845703125,-71.070556640625
1761054314.1976447,-0.76513671875,0.0,0.65380859375,-1.8310546875,0.54931640625,-1.220703125,-0.4010009765625,50.482177734375,-71.0870361328125
1761054314.204271,-0.76513671875,0.0,0.65380859375,-1.8310546875,0.54931640625,-1.220703125,-0.428466796875,50.4876708984375,-71.103515625
1761054314.210597,-0.76513671875,-0.00732421875,0.66455078125,-3.7841796875,0.79345703125,-0.8544921875,-0.472412109375,50.4931640625,-71.114501953125
1761054314.2192216,-0.76513671875,-0.00732421875,0.66455078125,-3.7841796875,0.79345703125,-0.8544921875,-0.5218505859375,50.4986572265625,-71.12548828125
1761054314.225921,-0.76806640625,-0.0068359375,0.6640625,-5.18798828125,0.8544921875,-0.6103515625,-0.5767822265625,50.504150390625,-71.136474609375
1761054314.2324839,-0.76806640625,-0.0068359375,0.6640625,-5.18798828125,0.8544921875,-0.6103515625,-0.6317138671875,50.5096435546875,-71.1419677734375
1761054314.2388473,-0.765625,-0.00390625,0.6357421875,-4.08935546875,0.6103515625,-0.8544921875,-0.68115234375,50.5096435546875,-71.1529541015625
1761054314.2449694,-0.765625,-0.00390625,0.6357421875,-4.08935546875,0.6103515625,-0.8544921875,-0.7305908203125,50.51513671875,-71.1639404296875
1761054314.269608,-0.7666015625,-0.0087890625,0.64111328125,-3.173828125,0.30517578125,-1.03759765625,-0.76904296875,50.51513671875,-71.1749267578125
1761054314.2761,-0.7666015625,-0.0087890625,0.64111328125,-3.173828125,0.30517578125,-1.03759765625,-0.81298828125,50.5096435546875,-71.1859130859375
1761054314.2901907,-0.7626953125,-0.0146484375,0.66015625,-3.5400390625,0.18310546875,-1.0986328125,-0.85693359375,50.5096435546875,-71.202392578125
1761054314.2963781,-0.7626953125,-0.0146484375,0.66015625,-3.5400390625,0.18310546875,-1.0986328125,-0.9063720703125,50.5096435546875,-71.2188720703125
1761054314.318992,-0.7607421875,-0.009765625,0.6845703125,-4.08935546875,0.42724609375,-0.91552734375,-0.955810546875,50.5096435546875,-71.2298583984375
1761054314.328786,-0.7607421875,-0.009765625,0.6845703125,-4.08935546875,0.42724609375,-0.91552734375,-1.0052490234375,50.504150390625,-71.2353515625
1761054314.3452008,-0.7548828125,-0.00048828125,0.6650390625,-4.69970703125,0.42724609375,-0.9765625,-1.0601806640625,50.504150390625,-71.246337890625
1761054314.352382,-0.7548828125,-0.00048828125,0.6650390625,-4.69970703125,0.42724609375,-0.9765625,-1.1151123046875,50.4986572265625,-71.25732421875
1761054314.3800626,-0.75390625,-0.01171875,0.66357421875,-3.96728515625,-0.1220703125,-1.3427734375,-1.16455078125,50.4931640625,-71.2738037109375
1761054314.3870668,-0.75390625,-0.01171875,0.66357421875,-3.96728515625,-0.1220703125,-1.3427734375,-1.219482421875,50.482177734375,-71.290283203125
1761054314.3942823,-0.75390625,-0.01171875,0.66357421875,-2.50244140625,-0.91552734375,-1.89208984375,-1.263427734375,50.4656982421875,-71.312255859375
1761054314.402074,-0.7529296875,-0.01806640625,0.6357421875,-2.50244140625,-0.91552734375,-1.89208984375,-1.307373046875,50.44921875,-71.334228515625
1761054314.4097295,-0.763671875,-0.0068359375,0.66259765625,-0.67138671875,-1.46484375,-2.62451171875,-1.34033203125,50.42724609375,-71.3726806640625
1761054314.416188,-0.763671875,-0.0068359375,0.66259765625,-0.67138671875,-1.46484375,-2.62451171875,-1.373291015625,50.4052734375,-71.4056396484375
1761054314.4230309,-0.74755859375,-0.017578125,0.64404296875,0.3662109375,-1.89208984375,-3.23486328125,-1.40625,50.3778076171875,-71.4495849609375
1761054314.4299555,-0.74755859375,-0.017578125,0.64404296875,0.3662109375,-1.89208984375,-3.23486328125,-1.439208984375,50.350341796875,-71.4935302734375
1761054314.438,-0.75537109375,-0.02294921875,0.69384765625,1.89208984375,-1.220703125,-3.173828125,-1.4556884765625,50.328369140625,-71.5374755859375
1761054314.4448626,-0.75537109375,-0.02294921875,0.69384765625,1.89208984375,-1.220703125,-3.173828125,-1.47216796875,50.3118896484375,-71.5814208984375
1761054314.4516282,-0.72412109375,-0.0166015625,0.6767578125,1.3427734375,-1.52587890625,-2.86865234375,-1.4886474609375,50.284423828125,-71.619873046875
1761054314.459036,-0.72412109375,-0.0166015625,0.6767578125,1.3427734375,-1.52587890625,-2.86865234375,-1.505126953125,50.2569580078125,-71.6583251953125
1761054314.466576,-0.74365234375,-0.03125,0.71533203125,0.42724609375,-1.28173828125,-2.74658203125,-1.5325927734375,50.2349853515625,-71.69677734375
1761054314.474448,-0.74365234375,-0.03125,0.71533203125,0.42724609375,-1.28173828125,-2.74658203125,-1.56005859375,50.20751953125,-71.7352294921875
1761054314.4824617,-0.73388671875,-0.00634765625,0.66796875,-3.2958984375,-1.52587890625,-2.5634765625,-1.6204833984375,50.1800537109375,-71.7681884765625
1761054314.488989,-0.73388671875,-0.00634765625,0.66796875,-3.2958984375,-1.52587890625,-2.5634765625,-1.680908203125,50.152587890625,-71.8011474609375
1761054314.495894,-0.7470703125,0.0107421875,0.6630859375,-4.82177734375,-2.0751953125,-2.197265625,-1.7523193359375,50.1141357421875,-71.8231201171875
1761054314.5028696,-0.7470703125,0.0107421875,0.6630859375,-4.82177734375,-2.0751953125,-2.197265625,-1.8182373046875,50.0811767578125,-71.8450927734375
1761054314.5106833,-0.76611328125,0.00244140625,0.62646484375,-5.18798828125,-2.0751953125,-2.25830078125,-1.8896484375,50.0482177734375,-71.87255859375
1761054314.5247579,-0.76611328125,0.00244140625,0.62646484375,-5.18798828125,-2.0751953125,-2.25830078125,-1.9610595703125,50.020751953125,-71.89453125
1761054314.532285,-0.77294921875,-0.02685546875,0.6171875,-7.01904296875,-2.25830078125,-1.89208984375,-2.04345703125,49.98779296875,-71.9110107421875
1761054314.5397608,-0.77294921875,-0.02685546875,0.6171875,-7.01904296875,-2.25830078125,-1.89208984375,-2.1258544921875,49.9603271484375,-71.927490234375
1761054314.5471673,-0.78466796875,-0.03955078125,0.63916015625,-7.26318359375,-1.52587890625,-1.8310546875,-2.2137451171875,49.9383544921875,-71.9439697265625
1761054314.5677867,-0.78466796875,-0.03955078125,0.63916015625,-7.26318359375,-1.52587890625,-1.8310546875,-2.3016357421875,49.921875,-71.9659423828125
1761054314.5993242,-0.7998046875,-0.03173828125,0.607421875,-6.4697265625,-0.67138671875,-1.220703125,-2.3785400390625,49.910888671875,-71.9769287109375
1761054314.6110044,-0.82470703125,-0.03759765625,0.54638671875,-6.16455078125,0.1220703125,-0.9765625,-2.449951171875,49.910888671875,-71.9879150390625
1761054314.630169,-0.82470703125,-0.03759765625,0.54638671875,-6.16455078125,0.1220703125,-0.9765625,-2.5213623046875,49.9163818359375,-71.9989013671875
1761054314.6372907,-0.8203125,-0.0419921875,0.5830078125,-5.0048828125,0.54931640625,-0.732421875,-2.581787109375,49.9273681640625,-72.0098876953125
1761054314.6464717,-0.8203125,-0.0419921875,0.5830078125,-5.0048828125,0.54931640625,-0.732421875,-2.6422119140625,49.9383544921875,-72.0208740234375
1761054314.6548262,-0.8134765625,-0.0537109375,0.6015625,-4.5166015625,1.40380859375,-0.42724609375,-2.691650390625,49.9603271484375,-72.0318603515625
1761054314.6650672,-0.8134765625,-0.0537109375,0.6015625,-4.5166015625,1.40380859375,-0.42724609375,-2.74658203125,49.98779296875,-72.0428466796875
1761054314.672329,-0.80908203125,-0.04833984375,0.59619140625,-3.0517578125,2.0751953125,-0.732421875,-2.79052734375,50.0152587890625,-72.059326171875
1761054314.682567,-0.80908203125,-0.04833984375,0.59619140625,-3.0517578125,2.0751953125,-0.732421875,-2.83447265625,50.0482177734375,-72.0758056640625
1761054314.6904678,-0.80517578125,-0.03759765625,0.5947265625,-2.25830078125,2.50244140625,-0.8544921875,-2.8729248046875,50.086669921875,-72.09228515625
1761054314.699851,-0.80517578125,-0.03759765625,0.5947265625,-2.25830078125,2.50244140625,-0.8544921875,-2.9058837890625,50.1251220703125,-72.1142578125
1761054314.7086759,-0.791015625,-0.02294921875,0.61083984375,-2.01416015625,2.62451171875,-1.0986328125,-2.9443359375,50.16357421875,-72.13623046875
1761054314.7170587,-0.791015625,-0.02294921875,0.61083984375,-2.01416015625,2.62451171875,-1.0986328125,-2.977294921875,50.2020263671875,-72.158203125
1761054314.7256556,-0.779296875,-0.03515625,0.6494140625,-2.197265625,2.8076171875,-0.9765625,-3.0157470703125,50.240478515625,-72.18017578125
1761054314.7343144,-0.779296875,-0.03515625,0.6494140625,-2.197265625,2.8076171875,-0.9765625,-3.0487060546875,50.284423828125,-72.1966552734375
1761054314.741955,-0.76904296875,-0.03857421875,0.646484375,-3.35693359375,3.11279296875,-0.79345703125,-3.0926513671875,50.3228759765625,-72.2186279296875
1761054314.7484508,-0.76904296875,-0.03857421875,0.646484375,-3.35693359375,3.11279296875,-0.79345703125,-3.1365966796875,50.361328125,-72.235107421875
1761054314.755001,-0.765625,-0.0400390625,0.6455078125,-3.47900390625,3.0517578125,-0.67138671875,-3.1805419921875,50.3997802734375,-72.24609375
1761054314.7656364,-0.765625,-0.0400390625,0.6455078125,-3.47900390625,3.0517578125,-0.67138671875,-3.2244873046875,50.4327392578125,-72.2625732421875
1761054314.7893782,-0.76025390625,-0.0478515625,0.646484375,-2.685546875,2.8076171875,-0.79345703125,-3.2684326171875,50.47119140625,-72.2735595703125
1761054314.807116,-0.76025390625,-0.0478515625,0.646484375,-2.685546875,2.8076171875,-0.79345703125,-3.306884765625,50.4986572265625,-72.2900390625
1761054314.8233547,-0.76513671875,-0.03662109375,0.6552734375,-1.5869140625,2.8076171875,-0.8544921875,-3.33984375,50.5316162109375,-72.301025390625
1761054314.8345718,-0.76513671875,-0.03662109375,0.6552734375,-1.5869140625,2.8076171875,-0.8544921875,-3.3673095703125,50.55908203125,-72.3175048828125
1761054314.8406708,-0.7587890625,-0.03515625,0.6416015625,-1.77001953125,2.3193359375,-0.8544921875,-3.394775390625,50.5865478515625,-72.333984375
1761054314.8485477,-0.7587890625,-0.03515625,0.6416015625,-1.77001953125,2.3193359375,-0.8544921875,-3.427734375,50.6085205078125,-72.344970703125
1761054314.8567457,-0.765625,-0.0439453125,0.6552734375,-3.60107421875,2.13623046875,-0.732421875,-3.4661865234375,50.6304931640625,-72.35595703125
1761054314.8631854,-0.765625,-0.0439453125,0.6552734375,-3.60107421875,2.13623046875,-0.732421875,-3.5101318359375,50.64697265625,-72.366943359375
1761054314.869492,-0.76123046875,-0.033203125,0.64306640625,-3.662109375,1.8310546875,-0.91552734375,-3.5595703125,50.6634521484375,-72.3779296875
1761054314.8756278,-0.76123046875,-0.033203125,0.64306640625,-3.662109375,1.8310546875,-0.91552734375,-3.603515625,50.679931640625,-72.3944091796875
1761054314.8820908,-0.7626953125,-0.04638671875,0.650390625,-2.5634765625,1.46484375,-0.9765625,-3.6474609375,50.69091796875,-72.4053955078125
1761054314.8910112,-0.7626953125,-0.04638671875,0.650390625,-2.5634765625,1.46484375,-0.9765625,-3.6859130859375,50.701904296875,-72.4163818359375
1761054314.897656,-0.7685546875,-0.04248046875,0.64501953125,-3.23486328125,1.3427734375,-0.9765625,-3.724365234375,50.712890625,-72.432861328125
1761054314.9042244,-0.7685546875,-0.04248046875,0.64501953125,-3.23486328125,1.3427734375,-0.9765625,-3.768310546875,50.7183837890625,-72.44384765625
1761054314.9128077,-0.77294921875,-0.05029296875,0.63916015625,-3.41796875,1.3427734375,-0.9765625,-3.812255859375,50.7293701171875,-72.454833984375
1761054314.9189816,-0.77294921875,-0.05029296875,0.63916015625,-3.41796875,1.3427734375,-0.9765625,-3.8616943359375,50.7403564453125,-72.4658203125
1761054314.9266055,-0.765625,-0.04931640625,0.6416015625,-2.685546875,1.220703125,-1.15966796875,-3.900146484375,50.745849609375,-72.4822998046875
1761054314.9333453,-0.765625,-0.04931640625,0.6416015625,-2.685546875,1.220703125,-1.15966796875,-3.944091796875,50.7513427734375,-72.498779296875
1761054314.942227,-0.763671875,-0.03466796875,0.64306640625,-1.0986328125,1.0986328125,-1.52587890625,-3.97705078125,50.7623291015625,-72.5152587890625
1761054314.9493687,-0.763671875,-0.03466796875,0.64306640625,-1.0986328125,1.0986328125,-1.52587890625,-4.010009765625,50.767822265625,-72.5372314453125
1761054314.955792,-0.7607421875,-0.056640625,0.6484375,-1.0986328125,0.8544921875,-1.3427734375,-4.0374755859375,50.767822265625,-72.5537109375
1761054314.9621158,-0.7607421875,-0.056640625,0.6484375,-1.0986328125,0.8544921875,-1.3427734375,-4.06494140625,50.7733154296875,-72.5701904296875
1761054314.968911,-0.7734375,-0.06298828125,0.6572265625,-1.52587890625,0.91552734375,-1.15966796875,-4.0924072265625,50.7733154296875,-72.586669921875
1761054314.9751794,-0.7734375,-0.06298828125,0.6572265625,-1.52587890625,0.91552734375,-1.15966796875,-4.119873046875,50.77880859375,-72.6031494140625
1761054314.9819374,-0.759765625,-0.03515625,0.62890625,-1.3427734375,0.42724609375,-1.5869140625,-4.15283203125,50.77880859375,-72.6251220703125
1761054314.9902093,-0.759765625,-0.03515625,0.62890625,-1.3427734375,0.42724609375,-1.5869140625,-4.185791015625,50.77880859375,-72.6470947265625
1761054315.0060647,-0.7607421875,-0.048828125,0.65087890625,-2.3193359375,0.244140625,-1.52587890625,-4.2242431640625,50.7733154296875,-72.66357421875
1761054315.0141535,-0.7607421875,-0.048828125,0.65087890625,-2.3193359375,0.244140625,-1.52587890625,-4.2626953125,50.767822265625,-72.685546875
1761054315.021474,-0.7470703125,-0.05224609375,0.6611328125,-2.44140625,0.06103515625,-1.3427734375,-4.3011474609375,50.7623291015625,-72.7020263671875
1761054315.030054,-0.7470703125,-0.05224609375,0.6611328125,-2.44140625,0.06103515625,-1.3427734375,-4.3450927734375,50.7568359375,-72.718505859375
1761054315.0386493,-0.73681640625,-0.0478515625,0.669921875,-2.62451171875,0.30517578125,-1.0986328125,-4.383544921875,50.7513427734375,-72.7294921875
1761054315.047999,-0.73681640625,-0.0478515625,0.669921875,-2.62451171875,0.30517578125,-1.0986328125,-4.4219970703125,50.745849609375,-72.740478515625
1761054315.0580506,-0.7275390625,-0.0556640625,0.716796875,-2.38037109375,0.0,-0.8544921875,-4.4549560546875,50.73486328125,-72.75146484375
1761054315.0704255,-0.7275390625,-0.0556640625,0.716796875,-2.38037109375,0.0,-0.8544921875,-4.4879150390625,50.723876953125,-72.7569580078125
1761054315.0814636,-0.7373046875,-0.05224609375,0.6708984375,-3.11279296875,0.06103515625,-0.9765625,-4.5263671875,50.7073974609375,-72.762451171875
1761054315.0883338,-0.7373046875,-0.05224609375,0.6708984375,-3.11279296875,0.06103515625,-0.9765625,-4.5648193359375,50.6964111328125,-72.7679443359375
1761054315.0988843,-0.7412109375,-0.0625,0.65185546875,0.91552734375,-0.42724609375,-1.708984375,-4.59228515625,50.679931640625,-72.7789306640625
1761054315.1146576,-0.7412109375,-0.0625,0.65185546875,0.91552734375,-0.42724609375,-1.708984375,-4.5977783203125,50.657958984375,-72.8009033203125
1761054315.135467,-0.7705078125,-0.0712890625,0.65576171875,2.99072265625,-0.244140625,-2.01416015625,-4.603271484375,50.6414794921875,-72.8228759765625
1761054315.1486537,-0.7705078125,-0.0712890625,0.65576171875,2.99072265625,-0.244140625,-2.01416015625,-4.5977783203125,50.625,-72.850341796875
1761054315.155931,-0.80029296875,-0.03466796875,0.58056640625,3.47900390625,0.0,-2.3193359375,-4.59228515625,50.6085205078125,-72.8778076171875
1761054315.177814,-0.80029296875,-0.03466796875,0.58056640625,3.47900390625,0.0,-2.3193359375,-4.5867919921875,50.5975341796875,-72.9107666015625
1761054315.1911511,-0.79736328125,-0.0380859375,0.603515625,3.662109375,-0.48828125,-2.8076171875,-4.581298828125,50.5865478515625,-72.9437255859375
1761054315.2072096,-0.79736328125,-0.0380859375,0.603515625,3.662109375,-0.48828125,-2.8076171875,-4.5758056640625,50.5755615234375,-72.982177734375
1761054315.2149632,-0.80859375,-0.0546875,0.61767578125,1.28173828125,0.42724609375,-2.38037109375,-4.581298828125,50.570068359375,-73.0206298828125
1761054315.226442,-0.80859375,-0.0546875,0.61767578125,1.28173828125,0.42724609375,-2.38037109375,-4.5977783203125,50.5755615234375,-73.0535888671875
1761054315.254554,-0.8046875,-0.0478515625,0.6123046875,1.220703125,0.732421875,-2.25830078125,-4.6142578125,50.5810546875,-73.0865478515625
1761054315.261766,-0.8046875,-0.0478515625,0.6123046875,1.220703125,0.732421875,-2.25830078125,-126.5130615234375,1.25244140625,84.375
1761054315.28216,-0.8046875,-0.0478515625,0.6123046875,1.220703125,0.732421875,-2.25830078125,-4.6307373046875,50.5865478515625,-73.114013671875
1761054315.2885985,-0.80712890625,-0.05908203125,0.5908203125,1.52587890625,1.3427734375,-1.953125,-4.6417236328125,50.5975341796875,-73.14697265625
1761054315.2957523,-0.80712890625,-0.05908203125,0.5908203125,1.52587890625,1.3427734375,-1.953125,-4.6527099609375,50.614013671875,-73.1744384765625
1761054315.3080714,-0.8046875,-0.06787109375,0.60107421875,0.42724609375,1.46484375,-1.77001953125,-4.6636962890625,50.6304931640625,-73.2073974609375
1761054315.3304186,-0.8046875,-0.06787109375,0.60107421875,0.42724609375,1.46484375,-1.77001953125,-4.6856689453125,50.6524658203125,-73.23486328125
1761054315.3394876,-0.8232421875,-0.07080078125,0.60205078125,0.8544921875,2.44140625,-1.40380859375,-4.7021484375,50.6744384765625,-73.2623291015625
1761054315.3778658,-0.8232421875,-0.07080078125,0.60205078125,0.8544921875,2.44140625,-1.40380859375,-4.7186279296875,50.7073974609375,-73.289794921875
1761054315.3850079,-0.8193359375,-0.068359375,0.5791015625,0.79345703125,2.86865234375,-1.28173828125,-4.7296142578125,50.7403564453125,-73.3172607421875
1761054315.3939703,-0.8193359375,-0.068359375,0.5791015625,0.79345703125,2.86865234375,-1.28173828125,-4.74609375,50.77880859375,-73.3447265625
1761054315.402028,-0.818359375,-0.064453125,0.59765625,1.03759765625,3.41796875,-1.5869140625,-4.7625732421875,50.8172607421875,-73.3721923828125
1761054315.4094982,-0.818359375,-0.064453125,0.59765625,1.03759765625,3.41796875,-1.5869140625,-4.779052734375,50.8612060546875,-73.4051513671875
1761054315.4167926,-0.81103515625,-0.05126953125,0.60009765625,2.01416015625,4.0283203125,-1.8310546875,-4.7955322265625,50.91064453125,-73.443603515625
1761054315.424907,-0.81103515625,-0.05126953125,0.60009765625,2.01416015625,4.0283203125,-1.8310546875,-4.8065185546875,50.9600830078125,-73.4820556640625
1761054315.4319048,-0.8076171875,-0.05517578125,0.59716796875,1.708984375,4.33349609375,-1.8310546875,-4.8175048828125,51.009521484375,-73.5205078125
1761054315.4394944,-0.8076171875,-0.05517578125,0.59716796875,1.708984375,4.33349609375,-1.8310546875,-4.833984375,51.064453125,-73.553466796875
1761054315.4473078,-0.81201171875,-0.0498046875,0.6064453125,0.54931640625,4.7607421875,-1.953125,-4.8504638671875,51.119384765625,-73.5919189453125
1761054315.454658,-0.81201171875,-0.0498046875,0.6064453125,0.54931640625,4.7607421875,-1.953125,-4.8779296875,51.1798095703125,-73.6358642578125
1761054315.4610918,-0.81494140625,-0.0478515625,0.59423828125,0.6103515625,5.31005859375,-2.0751953125,-4.9053955078125,51.2347412109375,-73.67431640625
1761054315.4674532,-0.81494140625,-0.0478515625,0.59423828125,0.6103515625,5.31005859375,-2.0751953125,-4.932861328125,51.3006591796875,-73.7127685546875
1761054315.474035,-0.8056640625,-0.05810546875,0.58056640625,1.40380859375,5.55419921875,-2.0751953125,-4.954833984375,51.361083984375,-73.751220703125
1761054315.4805431,-0.8056640625,-0.05810546875,0.58056640625,1.40380859375,5.55419921875,-2.0751953125,-4.976806640625,51.427001953125,-73.795166015625
1761054315.4870281,-0.7890625,-0.0771484375,0.61181640625,1.77001953125,5.67626953125,-1.8310546875,-4.9932861328125,51.492919921875,-73.8336181640625
1761054315.493474,-0.7890625,-0.0771484375,0.61181640625,1.77001953125,5.67626953125,-1.8310546875,-5.009765625,51.558837890625,-73.8720703125
1761054315.4995463,-0.77294921875,-0.0712890625,0.6513671875,0.54931640625,5.7373046875,-0.9765625,-5.0262451171875,51.6192626953125,-73.905029296875
1761054315.5062842,-0.77294921875,-0.0712890625,0.6513671875,0.54931640625,5.7373046875,-0.9765625,-5.042724609375,51.6851806640625,-73.927001953125
1761054315.5135038,-0.76611328125,-0.05908203125,0.65234375,-1.15966796875,5.43212890625,-0.3662109375,-5.064697265625,51.7401123046875,-73.948974609375
1761054315.5200472,-0.76611328125,-0.05908203125,0.65234375,-1.15966796875,5.43212890625,-0.3662109375,-5.086669921875,51.800537109375,-73.9599609375
1761054315.5272045,-0.765625,-0.0693359375,0.6572265625,-2.62451171875,4.69970703125,0.1220703125,-5.11962890625,51.8499755859375,-73.970947265625
1761054315.533711,-0.765625,-0.0693359375,0.6572265625,-2.62451171875,4.69970703125,0.1220703125,-5.152587890625,51.8939208984375,-73.9764404296875
1761054315.5402062,-0.765625,-0.0517578125,0.640625,-4.45556640625,3.90625,0.30517578125,-5.2020263671875,51.932373046875,-73.9764404296875
1761054315.546665,-0.765625,-0.0517578125,0.640625,-4.45556640625,3.90625,0.30517578125,-5.2459716796875,51.96533203125,-73.970947265625
1761054315.5528443,-0.763671875,-0.03662109375,0.62060546875,-4.57763671875,2.8076171875,0.0,-5.29541015625,51.9873046875,-73.970947265625
1761054315.5596297,-0.763671875,-0.03662109375,0.62060546875,-4.57763671875,2.8076171875,0.0,-5.3448486328125,52.00927734375,-73.970947265625
1761054315.5664732,-0.76513671875,-0.0615234375,0.65234375,-3.96728515625,1.89208984375,-0.244140625,-5.3887939453125,52.0257568359375,-73.970947265625
1761054315.6140945,-0.76513671875,-0.0615234375,0.65234375,-3.96728515625,1.89208984375,-0.244140625,-5.4327392578125,52.0367431640625,-73.970947265625
1761054315.6207507,-0.7734375,-0.068359375,0.6494140625,-5.2490234375,1.8310546875,-0.30517578125,-5.4876708984375,52.0477294921875,-73.970947265625
1761054315.664877,-0.7734375,-0.068359375,0.6494140625,-5.2490234375,1.8310546875,-0.30517578125,-5.5426025390625,52.05322265625,-73.970947265625
1761054315.672895,-0.76708984375,-0.06201171875,0.630859375,-6.77490234375,1.28173828125,-0.6103515625,-5.6195068359375,52.0587158203125,-73.9764404296875
1761054315.6969066,-0.76708984375,-0.06201171875,0.630859375,-6.77490234375,1.28173828125,-0.6103515625,-5.6964111328125,52.064208984375,-73.9764404296875
1761054315.706756,-0.77392578125,-0.06494140625,0.65087890625,-8.056640625,1.220703125,-0.48828125,-5.7843017578125,52.064208984375,-73.98193359375
1761054315.724313,-0.77392578125,-0.06494140625,0.65087890625,-8.056640625,1.220703125,-0.48828125,-5.86669921875,52.0697021484375,-73.98193359375
1761054315.7484593,-0.7587890625,-0.05126953125,0.626953125,-7.75146484375,0.67138671875,-0.6103515625,-5.9490966796875,52.064208984375,-73.98193359375
1761054315.7547152,-0.7587890625,-0.05126953125,0.626953125,-7.75146484375,0.67138671875,-0.6103515625,-6.031494140625,52.0587158203125,-73.98193359375
1761054315.770493,-0.75830078125,-0.0546875,0.66162109375,-5.4931640625,-0.1220703125,-0.42724609375,-6.08642578125,52.0477294921875,-73.9764404296875
1761054315.7766209,-0.75830078125,-0.0546875,0.66162109375,-5.4931640625,-0.1220703125,-0.42724609375,-6.141357421875,52.0367431640625,-73.970947265625
1761054315.7930748,-0.78271484375,-0.07568359375,0.64208984375,-8.72802734375,-0.06103515625,0.3662109375,-6.21826171875,52.0257568359375,-73.9544677734375
1761054315.7991529,-0.78271484375,-0.07568359375,0.64208984375,-8.72802734375,-0.06103515625,0.3662109375,-6.295166015625,52.0147705078125,-73.9324951171875
1761054315.8098462,-0.7783203125,-0.06396484375,0.61669921875,-10.25390625,-1.46484375,0.6103515625,-6.383056640625,51.9873046875,-73.9105224609375
1761054315.8464327,-0.7783203125,-0.06396484375,0.61669921875,-10.25390625,-1.46484375,0.6103515625,-6.470947265625,51.96533203125,-73.8885498046875
1761054315.8577502,-0.794921875,-0.07470703125,0.62353515625,-9.6435546875,-1.5869140625,0.9765625,-6.5423583984375,51.943359375,-73.8555908203125
1761054315.8654697,-0.794921875,-0.07470703125,0.62353515625,-9.6435546875,-1.5869140625,0.9765625,-6.6192626953125,51.92138671875,-73.828125
1761054315.8799427,-0.8095703125,-0.0888671875,0.57958984375,-10.68115234375,-1.3427734375,1.708984375,-6.70166015625,51.8994140625,-73.7896728515625
1761054315.8870962,-0.8095703125,-0.0888671875,0.57958984375,-10.68115234375,-1.3427734375,1.708984375,-6.778564453125,51.888427734375,-73.751220703125
1761054315.9120586,-0.80419921875,-0.09228515625,0.591796875,-12.0849609375,-1.220703125,2.3193359375,-6.866455078125,51.87744140625,-73.707275390625
1761054315.9203773,-0.80419921875,-0.09228515625,0.591796875,-12.0849609375,-1.220703125,2.3193359375,-6.954345703125,51.866455078125,-73.663330078125
1761054315.9289556,-0.80908203125,-0.1015625,0.60498046875,-11.77978515625,-0.48828125,3.0517578125,-7.03125,51.8609619140625,-73.6138916015625
1761054315.937279,-0.80908203125,-0.1015625,0.60498046875,-11.77978515625,-0.48828125,3.0517578125,-7.1136474609375,51.8609619140625,-73.5589599609375
1761054315.9459379,-0.7958984375,-0.09033203125,0.5869140625,-10.19287109375,-0.1220703125,3.173828125,-7.174072265625,51.866455078125,-73.509521484375
1761054315.9539669,-0.7958984375,-0.09033203125,0.5869140625,-10.19287109375,-0.1220703125,3.173828125,-7.239990234375,51.8719482421875,-73.4600830078125
1761054315.9639664,-0.78271484375,-0.091796875,0.615234375,-6.103515625,0.1220703125,3.11279296875,-7.261962890625,51.87744140625,-73.41064453125
1761054315.9723773,-0.78271484375,-0.091796875,0.615234375,-6.103515625,0.1220703125,3.11279296875,-7.2894287109375,51.8829345703125,-73.3612060546875
1761054315.9800096,-0.78466796875,-0.08251953125,0.6455078125,-3.35693359375,0.48828125,2.8076171875,-7.2894287109375,51.888427734375,-73.3172607421875
1761054315.9889936,-0.78466796875,-0.08251953125,0.6455078125,-3.35693359375,0.48828125,2.8076171875,-7.2894287109375,51.8994140625,-73.2733154296875
1761054315.9970129,-0.77880859375,-0.06103515625,0.62744140625,-1.5869140625,0.42724609375,2.0751953125,-7.2784423828125,51.9049072265625,-73.2403564453125
1761054316.0067465,-0.77880859375,-0.06103515625,0.62744140625,-1.5869140625,0.42724609375,2.0751953125,-7.27294921875,51.910400390625,-73.201904296875
1761054316.0165713,-0.77734375,-0.05859375,0.61328125,-0.30517578125,-0.06103515625,1.3427734375,-7.2564697265625,51.910400390625,-73.1744384765625
1761054316.0240655,-0.77734375,-0.05859375,0.61328125,-0.30517578125,-0.06103515625,1.3427734375,-7.239990234375,51.9049072265625,-73.14697265625
1761054316.0322602,-0.78173828125,-0.06689453125,0.61376953125,0.3662109375,-0.9765625,0.54931640625,-7.2235107421875,51.8939208984375,-73.1304931640625
1761054316.0444663,-0.78173828125,-0.06689453125,0.61376953125,0.3662109375,-0.9765625,0.54931640625,-7.2125244140625,51.8829345703125,-73.114013671875
1761054316.0520778,-0.78564453125,-0.080078125,0.626953125,1.03759765625,-1.708984375,-0.18310546875,-7.196044921875,51.866455078125,-73.10302734375
1761054316.0602434,-0.78564453125,-0.080078125,0.626953125,1.03759765625,-1.708984375,-0.18310546875,-7.18505859375,51.8499755859375,-73.0975341796875
1761054316.0700057,-0.787109375,-0.0791015625,0.626953125,-0.8544921875,-2.13623046875,-0.67138671875,-7.196044921875,51.822509765625,-73.0975341796875
1761054316.078701,-0.787109375,-0.0791015625,0.626953125,-0.8544921875,-2.13623046875,-0.67138671875,-7.20703125,51.800537109375,-73.0975341796875
1761054316.0892737,-0.77392578125,-0.0654296875,0.61767578125,-0.79345703125,-2.8076171875,-1.220703125,-7.2235107421875,51.767578125,-73.10302734375
1761054316.0960271,-0.77392578125,-0.0654296875,0.61767578125,-0.79345703125,-2.8076171875,-1.220703125,-7.239990234375,51.734619140625,-73.1085205078125
1761054316.1040914,-0.7802734375,-0.0810546875,0.6171875,1.15966796875,-3.2958984375,-1.3427734375,-7.239990234375,51.70166015625,-73.1195068359375
1761054316.1116772,-0.7802734375,-0.0810546875,0.6171875,1.15966796875,-3.2958984375,-1.3427734375,-7.2344970703125,51.6632080078125,-73.125
1761054316.1184025,-0.78369140625,-0.11328125,0.6357421875,1.8310546875,-3.173828125,-0.8544921875,-7.2235107421875,51.6302490234375,-73.1304931640625
1761054316.1270218,-0.78369140625,-0.11328125,0.6357421875,1.8310546875,-3.173828125,-0.8544921875,-7.2125244140625,51.5972900390625,-73.135986328125
1761054316.1394806,-0.802734375,-0.10498046875,0.5771484375,-0.48828125,-2.685546875,0.0,-7.218017578125,51.56982421875,-73.1304931640625
1761054316.148111,-0.802734375,-0.10498046875,0.5771484375,-0.48828125,-2.685546875,0.0,-7.2235107421875,51.5423583984375,-73.125
1761054316.1607811,-0.78515625,-0.07470703125,0.6015625,1.8310546875,-3.90625,0.0,-7.2015380859375,51.50390625,-73.1195068359375
1761054316.1704278,-0.78515625,-0.07470703125,0.6015625,1.8310546875,-3.90625,0.0,-7.1795654296875,51.470947265625,-73.114013671875
1761054316.1795874,-0.8076171875,-0.0927734375,0.60693359375,0.42724609375,-3.23486328125,0.91552734375,-7.1630859375,51.4434814453125,-73.0975341796875
1761054316.1894624,-0.8076171875,-0.0927734375,0.60693359375,0.42724609375,-3.23486328125,0.91552734375,-7.1466064453125,51.416015625,-73.0755615234375
1761054316.1965756,-0.80517578125,-0.0908203125,0.61328125,1.03759765625,-2.9296875,1.46484375,-7.119140625,51.3885498046875,-73.0535888671875
1761054316.2043982,-0.80517578125,-0.0908203125,0.61328125,1.03759765625,-2.9296875,1.46484375,-7.0916748046875,51.3665771484375,-73.026123046875
1761054316.2138696,-0.8095703125,-0.0927734375,0.58154296875,0.0,-2.0751953125,2.25830078125,-7.0697021484375,51.3555908203125,-72.9931640625
1761054316.220485,-0.8095703125,-0.0927734375,0.58154296875,0.0,-2.0751953125,2.25830078125,-7.042236328125,51.3446044921875,-72.960205078125
1761054316.2312033,-0.79736328125,-0.1015625,0.5654296875,-0.732421875,-1.953125,3.11279296875,-7.0147705078125,51.3336181640625,-72.916259765625
1761054316.2401876,-0.79736328125,-0.1015625,0.5654296875,-0.732421875,-1.953125,3.11279296875,-6.9927978515625,51.328125,-72.872314453125
1761054316.2483044,-0.783203125,-0.1162109375,0.6044921875,-0.79345703125,-2.3193359375,4.08935546875,-6.954345703125,51.317138671875,-72.8173828125
1761054316.2565281,-0.783203125,-0.1162109375,0.6044921875,-0.79345703125,-2.3193359375,4.08935546875,-6.92138671875,51.3116455078125,-72.762451171875
1761054316.2637804,-0.76708984375,-0.09326171875,0.65380859375,1.3427734375,-3.11279296875,4.82177734375,-6.85546875,51.2896728515625,-72.6910400390625
1761054316.2714329,-0.76708984375,-0.09326171875,0.65380859375,1.3427734375,-3.11279296875,4.82177734375,-6.78955078125,51.2677001953125,-72.6251220703125
1761054316.2787395,-0.75390625,-0.05615234375,0.6650390625,0.06103515625,-3.84521484375,5.06591796875,-6.734619140625,51.240234375,-72.5482177734375
1761054316.285888,-0.75390625,-0.05615234375,0.6650390625,0.06103515625,-3.84521484375,5.06591796875,-6.6741943359375,51.207275390625,-72.4658203125
1761054316.292068,-0.74560546875,-0.03466796875,0.6826171875,-1.220703125,-4.638671875,4.94384765625,-6.624755859375,51.1688232421875,-72.388916015625
1761054316.298444,-0.74560546875,-0.03466796875,0.6826171875,-1.220703125,-4.638671875,4.94384765625,-6.56982421875,51.1248779296875,-72.301025390625
1761054316.3048928,-0.75146484375,-0.06201171875,0.6689453125,-0.30517578125,-4.638671875,4.69970703125,-6.5093994140625,51.0809326171875,-72.2186279296875
1761054316.3110673,-0.75146484375,-0.06201171875,0.6689453125,-0.30517578125,-4.638671875,4.69970703125,-6.448974609375,51.0369873046875,-72.13623046875
1761054316.3172553,-0.77294921875,-0.1005859375,0.62744140625,2.50244140625,-4.5166015625,4.5166015625,-6.3665771484375,50.9930419921875,-72.059326171875
1761054316.3267307,-0.77294921875,-0.1005859375,0.62744140625,2.50244140625,-4.5166015625,4.5166015625,-6.2841796875,50.9490966796875,-71.982421875
1761054316.3345249,-0.78369140625,-0.10498046875,0.6201171875,6.04248046875,-3.84521484375,4.21142578125,-6.17431640625,50.91064453125,-71.91650390625
1761054316.3431578,-0.78369140625,-0.10498046875,0.6201171875,6.04248046875,-3.84521484375,4.21142578125,-6.064453125,50.8721923828125,-71.8505859375
1761054316.3502078,-0.794921875,-0.06005859375,0.61181640625,6.103515625,-2.99072265625,4.21142578125,-5.9600830078125,50.8447265625,-71.78466796875
1761054316.3570144,-0.794921875,-0.06005859375,0.61181640625,6.103515625,-2.99072265625,4.21142578125,-5.8502197265625,50.82275390625,-71.71875
1761054316.3644128,-0.7880859375,-0.01611328125,0.61474609375,4.638671875,-2.74658203125,3.72314453125,-5.7623291015625,50.7952880859375,-71.663818359375
1761054316.3718536,-0.7880859375,-0.01611328125,0.61474609375,4.638671875,-2.74658203125,3.72314453125,-5.6689453125,50.7733154296875,-71.6033935546875
1761054316.3804133,-0.78662109375,-0.04833984375,0.662109375,3.7841796875,-2.3193359375,3.47900390625,-5.592041015625,50.7568359375,-71.5484619140625
1761054316.3893228,-0.78662109375,-0.04833984375,0.662109375,3.7841796875,-2.3193359375,3.47900390625,-5.5096435546875,50.73486328125,-71.488037109375
1761054316.3987,-0.76708984375,-0.07958984375,0.6328125,1.46484375,-1.8310546875,3.47900390625,-5.4547119140625,50.723876953125,-71.43310546875
1761054316.4081216,-0.76708984375,-0.07958984375,0.6328125,1.46484375,-1.8310546875,3.47900390625,-5.3997802734375,50.7073974609375,-71.3836669921875
1761054316.4182794,-0.75146484375,-0.0791015625,0.6572265625,3.662109375,-2.13623046875,2.8076171875,-5.328369140625,50.69091796875,-71.3397216796875
1761054316.426824,-0.75146484375,-0.0791015625,0.6572265625,3.662109375,-2.13623046875,2.8076171875,-5.262451171875,50.6689453125,-71.2957763671875
1761054316.435658,-0.76416015625,-0.0419921875,0.63623046875,3.90625,-1.953125,2.5634765625,-5.196533203125,50.64697265625,-71.25732421875
1761054316.446268,-0.76416015625,-0.0419921875,0.63623046875,3.90625,-1.953125,2.5634765625,-5.1251220703125,50.6304931640625,-71.2188720703125
1761054316.456862,-0.74072265625,-0.0244140625,0.673828125,4.21142578125,-3.47900390625,1.708984375,-5.0592041015625,50.592041015625,-71.19140625
1761054316.46616,-0.74072265625,-0.0244140625,0.673828125,4.21142578125,-3.47900390625,1.708984375,-4.9932861328125,50.55908203125,-71.158447265625
1761054316.4734018,-0.74951171875,-0.05126953125,0.697265625,0.54931640625,-3.662109375,1.953125,-4.9603271484375,50.51513671875,-71.1199951171875
1761054316.480621,-0.74951171875,-0.05126953125,0.697265625,0.54931640625,-3.662109375,1.953125,-4.9273681640625,50.4766845703125,-71.08154296875
1761054316.4886866,-0.7548828125,-0.05615234375,0.6728515625,-3.5400390625,-4.150390625,2.197265625,-4.932861328125,50.42724609375,-71.03759765625
1761054316.4969475,-0.76318359375,-0.05517578125,0.63525390625,-5.79833984375,-4.21142578125,2.50244140625,-4.9493408203125,50.38330078125,-70.99365234375
1761054316.5046868,-0.76318359375,-0.05517578125,0.63525390625,-5.79833984375,-4.21142578125,2.50244140625,-4.9713134765625,50.3338623046875,-70.9442138671875
1761054316.5129058,-0.76708984375,-0.07470703125,0.63818359375,-4.0283203125,-4.57763671875,2.86865234375,-4.9822998046875,50.284423828125,-70.894775390625
1761054316.5210848,-0.76708984375,-0.07470703125,0.63818359375,-4.0283203125,-4.57763671875,2.86865234375,-4.9822998046875,50.240478515625,-70.8453369140625
1761054316.5285954,-0.7744140625,-0.08056640625,0.642578125,-3.60107421875,-4.33349609375,3.41796875,-4.9822998046875,50.1910400390625,-70.7904052734375
1761054316.5363097,-0.7744140625,-0.08056640625,0.642578125,-3.60107421875,-4.33349609375,3.41796875,-4.976806640625,50.1470947265625,-70.7354736328125
1761054316.543761,-0.77978515625,-0.06298828125,0.6240234375,-3.72314453125,-4.33349609375,4.08935546875,-4.9658203125,50.1031494140625,-70.675048828125
1761054316.5516522,-0.77978515625,-0.06298828125,0.6240234375,-3.72314453125,-4.33349609375,4.08935546875,-4.954833984375,50.064697265625,-70.609130859375
1761054316.5604415,-0.783203125,-0.0595703125,0.62890625,-4.21142578125,-4.45556640625,5.0048828125,-4.9383544921875,50.0262451171875,-70.543212890625
1761054316.5692286,-0.783203125,-0.0595703125,0.62890625,-4.21142578125,-4.45556640625,5.0048828125,-4.921875,49.9822998046875,-70.4608154296875
1761054316.579006,-0.7890625,-0.06982421875,0.60400390625,-3.60107421875,-4.08935546875,5.55419921875,-4.89990234375,49.9493408203125,-70.3839111328125
1761054316.5866392,-0.7890625,-0.06982421875,0.60400390625,-3.60107421875,-4.08935546875,5.55419921875,-4.866943359375,49.910888671875,-70.301513671875
1761054316.5962818,-0.8076171875,-0.07470703125,0.60009765625,-1.46484375,-3.84521484375,6.103515625,-4.8284912109375,49.8834228515625,-70.213623046875
1761054316.6064477,-0.8076171875,-0.07470703125,0.60009765625,-1.46484375,-3.84521484375,6.103515625,-4.7735595703125,49.85595703125,-70.125732421875
1761054316.6143546,-0.81005859375,-0.0634765625,0.578125,0.8544921875,-3.84521484375,5.9814453125,-4.7076416015625,49.8284912109375,-70.037841796875
1761054316.620808,-0.81005859375,-0.0634765625,0.578125,0.8544921875,-3.84521484375,5.9814453125,-4.6307373046875,49.8065185546875,-69.9554443359375
1761054316.630747,-0.79296875,-0.037109375,0.58544921875,3.0517578125,-4.0283203125,5.67626953125,-4.54833984375,49.7845458984375,-69.873046875
1761054316.6369598,-0.79296875,-0.037109375,0.58544921875,3.0517578125,-4.0283203125,5.67626953125,-4.4549560546875,49.7625732421875,-69.796142578125
1761054316.6436617,-0.798828125,-0.05419921875,0.6455078125,1.708984375,-2.99072265625,5.7373046875,-4.3670654296875,49.7406005859375,-69.7137451171875
1761054316.6500163,-0.798828125,-0.05419921875,0.6455078125,1.708984375,-2.99072265625,5.7373046875,-4.28466796875,49.7296142578125,-69.6368408203125
1761054316.6569042,-0.779296875,-0.05322265625,0.62646484375,1.46484375,-2.38037109375,5.7373046875,-4.207763671875,49.7186279296875,-69.5599365234375
1761054316.6644993,-0.779296875,-0.05322265625,0.62646484375,1.46484375,-2.38037109375,5.7373046875,-4.130859375,49.713134765625,-69.4775390625
1761054316.673,-0.76123046875,-0.04736328125,0.6416015625,2.99072265625,-2.38037109375,5.7373046875,-4.04296875,49.7021484375,-69.400634765625
1761054316.6803966,-0.76123046875,-0.04736328125,0.6416015625,2.99072265625,-2.38037109375,5.7373046875,-3.9495849609375,49.6966552734375,-69.32373046875
1761054316.6892862,-0.75390625,-0.03466796875,0.67626953125,3.173828125,-2.62451171875,5.7373046875,-3.856201171875,49.6856689453125,-69.246826171875
1761054316.6994002,-0.75390625,-0.03466796875,0.67626953125,3.173828125,-2.62451171875,5.7373046875,-3.7628173828125,49.669189453125,-69.1644287109375
1761054316.708525,-0.75634765625,-0.04541015625,0.66015625,1.64794921875,-2.5634765625,5.7373046875,-3.6749267578125,49.6527099609375,-69.08203125
1761054316.717876,-0.75634765625,-0.04541015625,0.66015625,1.64794921875,-2.5634765625,5.7373046875,-3.592529296875,49.63623046875,-69.005126953125
1761054316.7262826,-0.76123046875,-0.04541015625,0.64013671875,0.42724609375,-2.74658203125,5.79833984375,-3.5211181640625,49.6197509765625,-68.9227294921875
1761054316.7337277,-0.76123046875,-0.04541015625,0.64013671875,0.42724609375,-2.74658203125,5.79833984375,-3.4552001953125,49.5977783203125,-68.8458251953125
1761054316.742185,-0.76123046875,-0.03857421875,0.6552734375,1.15966796875,-2.86865234375,5.43212890625,-3.3837890625,49.5758056640625,-68.7689208984375
1761054316.7489464,-0.76123046875,-0.03857421875,0.6552734375,1.15966796875,-2.86865234375,5.43212890625,-3.3123779296875,49.5538330078125,-68.6920166015625
1761054316.756987,-0.76025390625,-0.02197265625,0.6640625,1.46484375,-2.685546875,5.31005859375,-3.240966796875,49.5318603515625,-68.62060546875
1761054316.765133,-0.76025390625,-0.02197265625,0.6640625,1.46484375,-2.685546875,5.31005859375,-3.1640625,49.5098876953125,-68.5491943359375
1761054316.7729127,-0.75634765625,-0.02978515625,0.662109375,0.8544921875,-2.685546875,5.4931640625,-3.0926513671875,49.493408203125,-68.4722900390625
1761054316.7810886,-0.75634765625,-0.02978515625,0.662109375,0.8544921875,-2.685546875,5.4931640625,-3.021240234375,49.4659423828125,-68.3953857421875
1761054316.7920983,-0.759765625,-0.044921875,0.650390625,0.8544921875,-2.685546875,5.7373046875,-2.9498291015625,49.4439697265625,-68.31298828125
1761054316.8008976,-0.759765625,-0.044921875,0.650390625,0.8544921875,-2.685546875,5.7373046875,-2.87841796875,49.4219970703125,-68.2305908203125
1761054316.812138,-0.7607421875,-0.04052734375,0.65234375,1.03759765625,-2.8076171875,5.859375,-2.801513671875,49.4000244140625,-68.1536865234375
1761054316.8209321,-0.7607421875,-0.04052734375,0.65234375,1.03759765625,-2.8076171875,5.859375,-2.7301025390625,49.3780517578125,-68.0712890625
1761054316.831526,-0.7578125,-0.03076171875,0.65283203125,0.8544921875,-2.8076171875,5.7373046875,-2.6531982421875,49.3505859375,-67.994384765625
1761054316.841423,-0.7578125,-0.03076171875,0.65283203125,0.8544921875,-2.8076171875,5.7373046875,-2.581787109375,49.32861328125,-67.9119873046875
1761054316.8504145,-0.751953125,-0.017578125,0.66357421875,0.91552734375,-2.99072265625,5.4931640625,-2.515869140625,49.3011474609375,-67.8350830078125
1761054316.8625133,-0.751953125,-0.017578125,0.66357421875,0.91552734375,-2.99072265625,5.4931640625,-2.4444580078125,49.273681640625,-67.763671875
1761054316.8732035,-0.7646484375,-0.02197265625,0.66748046875,0.30517578125,-2.50244140625,5.55419921875,-2.3785400390625,49.251708984375,-67.686767578125
1761054316.881408,-0.7646484375,-0.02197265625,0.66748046875,0.30517578125,-2.50244140625,5.55419921875,-2.3126220703125,49.229736328125,-67.60986328125
1761054316.891257,-0.76318359375,-0.02392578125,0.65673828125,0.9765625,-2.3193359375,5.4931640625,-2.2412109375,49.207763671875,-67.532958984375
1761054316.90423,-0.76318359375,-0.02392578125,0.65673828125,0.9765625,-2.3193359375,5.4931640625,-2.1697998046875,49.185791015625,-67.4560546875
1761054316.912343,-0.76416015625,-0.029296875,0.65234375,2.01416015625,-2.0751953125,5.4931640625,-2.098388671875,49.163818359375,-67.379150390625
1761054316.9206293,-0.76416015625,-0.029296875,0.65234375,2.01416015625,-2.0751953125,5.4931640625,-2.0159912109375,49.1473388671875,-67.30224609375
1761054316.9316578,-0.75341796875,-0.017578125,0.65478515625,1.8310546875,-2.197265625,5.37109375,-1.9390869140625,49.130859375,-67.2308349609375
1761054316.9407234,-0.75341796875,-0.017578125,0.65478515625,1.8310546875,-2.197265625,5.37109375,-1.8621826171875,49.10888671875,-67.159423828125
1761054316.9507952,-0.748046875,-0.00244140625,0.66796875,2.13623046875,-2.38037109375,4.82177734375,-1.7852783203125,49.0869140625,-67.0880126953125
1761054316.9606118,-0.748046875,-0.00244140625,0.66796875,2.13623046875,-2.38037109375,4.82177734375,-1.7083740234375,49.06494140625,-67.0220947265625
1761054316.972027,-0.74365234375,-0.00830078125,0.6708984375,2.62451171875,-2.50244140625,4.45556640625,-1.6314697265625,49.04296875,-66.961669921875
1761054316.982498,-0.74365234375,-0.00830078125,0.6708984375,2.62451171875,-2.50244140625,4.45556640625,-1.5545654296875,49.02099609375,-66.895751953125
1761054316.9919674,-0.7421875,-0.03076171875,0.6796875,2.13623046875,-2.5634765625,4.57763671875,-1.483154296875,48.9935302734375,-66.8353271484375
1761054317.0026326,-0.7421875,-0.03076171875,0.6796875,2.13623046875,-2.5634765625,4.57763671875,-1.4117431640625,48.966064453125,-66.77490234375
1761054317.0109842,-0.7373046875,-0.01416015625,0.68701171875,1.77001953125,-2.8076171875,4.82177734375,-1.34033203125,48.9385986328125,-66.7144775390625
1761054317.0209868,-0.7373046875,-0.01416015625,0.68701171875,1.77001953125,-2.8076171875,4.82177734375,-1.2689208984375,48.9111328125,-66.6485595703125
1761054317.0307062,-0.7373046875,-0.0009765625,0.6748046875,1.8310546875,-3.173828125,4.57763671875,-1.197509765625,48.878173828125,-66.5826416015625
1761054317.0406785,-0.7373046875,-0.0009765625,0.6748046875,1.8310546875,-3.173828125,4.57763671875,-1.131591796875,48.84521484375,-66.522216796875
1761054317.0506747,-0.73486328125,0.0,0.67236328125,1.708984375,-3.662109375,4.2724609375,-1.065673828125,48.8067626953125,-66.4617919921875
1761054317.0612087,-0.73486328125,0.0,0.67236328125,1.708984375,-3.662109375,4.2724609375,-0.999755859375,48.7628173828125,-66.4068603515625
1761054317.0715208,-0.7353515625,-0.0166015625,0.6962890625,1.52587890625,-3.90625,4.150390625,-0.933837890625,48.724365234375,-66.346435546875
1761054317.081539,-0.7353515625,-0.0166015625,0.6962890625,1.52587890625,-3.90625,4.150390625,-0.8734130859375,48.680419921875,-66.29150390625
1761054317.0907836,-0.744140625,-0.015625,0.69677734375,0.30517578125,-3.5400390625,4.45556640625,-0.8184814453125,48.636474609375,-66.236572265625
1761054317.1007922,-0.744140625,-0.015625,0.69677734375,0.30517578125,-3.5400390625,4.45556640625,-0.76904296875,48.5980224609375,-66.1761474609375
1761054317.1114235,-0.7548828125,0.00048828125,0.669921875,0.732421875,-2.86865234375,4.39453125,-0.714111328125,48.5595703125,-66.11572265625
1761054317.1208026,-0.7548828125,0.00048828125,0.669921875,0.732421875,-2.86865234375,4.39453125,-0.6591796875,48.526611328125,-66.0552978515625
1761054317.130941,-0.759765625,-0.001953125,0.64892578125,-0.3662109375,-1.953125,4.5166015625,-0.6097412109375,48.4991455078125,-66.0003662109375
1761054317.1411216,-0.759765625,-0.001953125,0.64892578125,-0.3662109375,-1.953125,4.5166015625,-0.5657958984375,48.4771728515625,-65.93994140625
1761054317.1512983,-0.76123046875,-0.01171875,0.65478515625,-0.8544921875,-1.3427734375,4.5166015625,-0.5218505859375,48.460693359375,-65.8795166015625
1761054317.1615937,-0.76123046875,-0.01171875,0.65478515625,-0.8544921875,-1.3427734375,4.5166015625,-0.4833984375,48.4442138671875,-65.8245849609375
1761054317.1733618,-0.7529296875,-0.01025390625,0.65771484375,0.1220703125,-1.220703125,4.08935546875,-0.439453125,48.4332275390625,-65.7696533203125
1761054317.1808174,-0.7529296875,-0.01025390625,0.65771484375,0.1220703125,-1.220703125,4.08935546875,-0.3955078125,48.4222412109375,-65.7147216796875
1761054317.1923842,-0.74951171875,0.00390625,0.677734375,1.708984375,-1.220703125,3.5400390625,-0.3460693359375,48.40576171875,-65.6707763671875
1761054317.2071974,-0.74951171875,0.00390625,0.677734375,1.708984375,-1.220703125,3.5400390625,-0.2911376953125,48.394775390625,-65.6268310546875
1761054317.2144783,-0.74462890625,0.02099609375,0.6845703125,1.5869140625,-1.15966796875,2.9296875,-0.24169921875,48.3837890625,-65.58837890625
1761054317.223105,-0.74462890625,0.02099609375,0.6845703125,1.5869140625,-1.15966796875,2.9296875,-0.1922607421875,48.372802734375,-65.555419921875
1761054317.2319238,-0.7490234375,0.02001953125,0.67822265625,-0.30517578125,-0.54931640625,2.38037109375,-0.15380859375,48.36181640625,-65.5224609375
1761054317.2410753,-0.7490234375,0.02001953125,0.67822265625,-0.30517578125,-0.54931640625,2.38037109375,-0.1318359375,48.3563232421875,-65.4949951171875
1761054317.2516346,-0.75390625,0.0,0.6650390625,-2.197265625,-0.06103515625,2.25830078125,-0.1153564453125,48.350830078125,-65.4620361328125
1761054317.2620285,-0.75390625,0.0,0.6650390625,-2.197265625,-0.06103515625,2.25830078125,-0.10986328125,48.3453369140625,-65.4345703125
1761054317.2709234,-0.75341796875,-0.01025390625,0.64990234375,-2.13623046875,0.1220703125,1.89208984375,-0.10986328125,48.3453369140625,-65.41259765625
1761054317.2861414,-0.75341796875,-0.01025390625,0.64990234375,-2.13623046875,0.1220703125,1.89208984375,-0.10986328125,48.3453369140625,-65.390625
1761054317.2933261,-0.751953125,-0.00048828125,0.65966796875,-0.8544921875,-0.06103515625,1.8310546875,-0.098876953125,48.350830078125,-65.36865234375
1761054317.3007877,-0.751953125,-0.00048828125,0.65966796875,-0.8544921875,-0.06103515625,1.8310546875,-0.087890625,48.3453369140625,-65.3521728515625
1761054317.3292737,-0.75146484375,0.0107421875,0.67138671875,0.30517578125,-0.1220703125,1.52587890625,-0.0714111328125,48.3453369140625,-65.3302001953125
1761054317.3704371,-0.75146484375,0.0107421875,0.67138671875,0.30517578125,-0.1220703125,1.52587890625,-0.0494384765625,48.3453369140625,-65.313720703125
1761054317.402999,-0.75244140625,0.00341796875,0.66845703125,-0.42724609375,-0.30517578125,1.46484375,-0.032958984375,48.3453369140625,-65.302734375
1761054317.415915,-0.75244140625,0.00341796875,0.66845703125,-0.42724609375,-0.30517578125,1.46484375,-0.02197265625,48.33984375,-65.2862548828125
1761054317.4390287,-0.7568359375,0.00146484375,0.6484375,-1.15966796875,-0.18310546875,1.52587890625,-0.010986328125,48.33984375,-65.269775390625
1761054317.4512784,-0.7568359375,0.00146484375,0.6484375,-1.15966796875,-0.18310546875,1.52587890625,-0.0054931640625,48.33984375,-65.2587890625
1761054317.4576576,-0.75341796875,0.0,0.6533203125,-0.30517578125,-0.1220703125,1.3427734375,0.0,48.33984375,-65.2423095703125
1761054317.483648,-0.75341796875,0.0,0.6533203125,-0.30517578125,-0.1220703125,1.3427734375,0.010986328125,48.33984375,-65.2313232421875
1761054317.4898605,-0.7490234375,-0.00634765625,0.681640625,0.18310546875,0.06103515625,1.220703125,0.0274658203125,48.33984375,-65.2203369140625
1761054317.4961438,-0.7490234375,-0.00634765625,0.681640625,0.18310546875,0.06103515625,1.220703125,0.0439453125,48.3453369140625,-65.2093505859375
1761054317.5022902,-0.74560546875,0.0146484375,0.669921875,1.220703125,0.06103515625,0.67138671875,0.0604248046875,48.3453369140625,-65.2093505859375
1761054317.520479,-0.74560546875,0.0146484375,0.669921875,1.220703125,0.06103515625,0.67138671875,0.0823974609375,48.3453369140625,-65.203857421875
1761054317.5380697,-0.74609375,0.01513671875,0.66357421875,1.40380859375,0.0,0.06103515625,0.098876953125,48.3453369140625,-65.2093505859375
1761054317.5446398,-0.74609375,0.01513671875,0.66357421875,1.40380859375,0.0,0.06103515625,0.1153564453125,48.3453369140625,-65.21484375
1761054317.5673032,-0.7373046875,0.0107421875,0.6689453125,0.8544921875,-0.244140625,-0.48828125,0.120849609375,48.3453369140625,-65.2313232421875
1761054317.5739057,-0.7373046875,0.0107421875,0.6689453125,0.8544921875,-0.244140625,-0.48828125,0.1263427734375,48.33984375,-65.2423095703125
1761054317.5801692,-0.73779296875,-0.001953125,0.69140625,0.91552734375,-0.30517578125,-0.91552734375,0.1263427734375,48.33984375,-65.2587890625
1761054317.5866237,-0.73779296875,-0.001953125,0.69140625,0.91552734375,-0.30517578125,-0.91552734375,0.1263427734375,48.3343505859375,-65.28076171875
1761054317.6076188,-0.7333984375,0.00927734375,0.6943359375,0.6103515625,-0.3662109375,-1.15966796875,0.120849609375,48.328857421875,-65.302734375
1761054317.614802,-0.7333984375,0.00927734375,0.6943359375,0.6103515625,-0.3662109375,-1.15966796875,0.1153564453125,48.3233642578125,-65.32470703125
1761054317.629347,-0.74365234375,0.01806640625,0.6884765625,0.3662109375,-0.06103515625,-1.40380859375,0.10986328125,48.31787109375,-65.3521728515625
1761054317.635749,-0.74365234375,0.01806640625,0.6884765625,0.3662109375,-0.06103515625,-1.40380859375,0.098876953125,48.3123779296875,-65.3741455078125
1761054317.6488414,-0.75634765625,0.013671875,0.6630859375,-0.732421875,0.244140625,-1.708984375,0.076904296875,48.3123779296875,-65.401611328125
1761054317.6586692,-0.75634765625,0.013671875,0.6630859375,-0.732421875,0.244140625,-1.708984375,0.054931640625,48.3123779296875,-65.4290771484375
1761054317.671678,-0.75634765625,0.00634765625,0.640625,-1.708984375,0.3662109375,-2.01416015625,0.0164794921875,48.3123779296875,-65.4620361328125
1761054317.6930602,-0.75634765625,0.00634765625,0.640625,-1.708984375,0.3662109375,-2.01416015625,-0.010986328125,48.3123779296875,-65.4949951171875
1761054317.6996605,-0.76513671875,-0.0087890625,0.66259765625,-1.953125,0.732421875,-1.89208984375,-0.0494384765625,48.3233642578125,-65.5279541015625
1761054317.713027,-0.76513671875,-0.0087890625,0.66259765625,-1.953125,0.732421875,-1.89208984375,-0.0823974609375,48.328857421875,-65.5609130859375
1761054317.7235627,-0.7744140625,-0.01123046875,0.650390625,-0.48828125,1.28173828125,-1.708984375,-0.1043701171875,48.3453369140625,-65.58837890625
1761054317.7382956,-0.7744140625,-0.01123046875,0.650390625,-0.48828125,1.28173828125,-1.708984375,-0.1263427734375,48.3563232421875,-65.621337890625
1761054317.7469385,-0.755859375,-0.00927734375,0.619140625,1.708984375,1.3427734375,-1.5869140625,-0.1263427734375,48.372802734375,-65.6488037109375
1761054317.755158,-0.755859375,-0.00927734375,0.619140625,1.708984375,1.3427734375,-1.5869140625,-0.1263427734375,48.3892822265625,-65.6817626953125
1761054317.764866,-0.75390625,-0.0341796875,0.6708984375,2.25830078125,2.0751953125,-1.03759765625,-0.1153564453125,48.416748046875,-65.7037353515625
1761054317.7820623,-0.75390625,-0.0341796875,0.6708984375,2.25830078125,2.0751953125,-1.03759765625,-0.10986328125,48.438720703125,-65.731201171875
1761054317.7902744,-0.7373046875,0.00732421875,0.6904296875,1.03759765625,2.50244140625,-0.732421875,-0.10986328125,48.4661865234375,-65.753173828125
1761054317.797987,-0.7373046875,0.00732421875,0.6904296875,1.03759765625,2.50244140625,-0.732421875,-0.10986328125,48.49365234375,-65.7696533203125
1761054317.8056238,-0.7158203125,0.0302734375,0.70947265625,0.8544921875,2.0751953125,-1.52587890625,-0.1153564453125,48.5101318359375,-65.797119140625
1761054317.814296,-0.7158203125,0.0302734375,0.70947265625,0.8544921875,2.0751953125,-1.52587890625,-0.120849609375,48.526611328125,-65.8245849609375
1761054317.8334298,-0.71923828125,-0.01318359375,0.716796875,-0.9765625,2.3193359375,-1.8310546875,-0.15380859375,48.548583984375,-65.8575439453125
1761054317.8409219,-0.71923828125,-0.01318359375,0.716796875,-0.9765625,2.3193359375,-1.8310546875,-0.1812744140625,48.5650634765625,-65.885009765625
1761054317.8494372,-0.7255859375,-0.00146484375,0.6962890625,0.18310546875,2.38037109375,-2.13623046875,-0.2032470703125,48.5760498046875,-65.91796875
1761054317.8645957,-0.7255859375,-0.00146484375,0.6962890625,0.18310546875,2.38037109375,-2.13623046875,-0.2252197265625,48.592529296875,-65.9564208984375
1761054317.874399,-0.71923828125,0.02099609375,0.70751953125,1.03759765625,2.62451171875,-2.74658203125,-0.24169921875,48.6090087890625,-65.994873046875
1761054317.8821607,-0.71923828125,0.02099609375,0.70751953125,1.03759765625,2.62451171875,-2.74658203125,-0.263671875,48.62548828125,-66.038818359375
1761054317.8895097,-0.71728515625,0.01220703125,0.732421875,-0.244140625,2.86865234375,-3.0517578125,-0.296630859375,48.6419677734375,-66.082763671875
1761054317.9074793,-0.71728515625,0.01220703125,0.732421875,-0.244140625,2.86865234375,-3.0517578125,-0.32958984375,48.658447265625,-66.1212158203125
1761054317.9241457,-0.71826171875,-0.01123046875,0.7099609375,-0.9765625,2.74658203125,-3.35693359375,-0.37353515625,48.66943359375,-66.170654296875
1761054317.9475517,-0.71826171875,-0.01123046875,0.7099609375,-0.9765625,2.74658203125,-3.35693359375,-0.41748046875,48.6859130859375,-66.214599609375
1761054317.9541135,-0.7314453125,-0.00244140625,0.6708984375,1.46484375,2.197265625,-3.84521484375,-0.439453125,48.69140625,-66.26953125
1761054317.960389,-0.7314453125,-0.00244140625,0.6708984375,1.46484375,2.197265625,-3.84521484375,-0.4669189453125,48.6968994140625,-66.3299560546875
1761054317.9676962,-0.73779296875,0.00732421875,0.6474609375,5.31005859375,1.40380859375,-4.69970703125,-0.46142578125,48.6968994140625,-66.3958740234375
1761054317.9867547,-0.73779296875,0.00732421875,0.6474609375,5.31005859375,1.40380859375,-4.69970703125,-0.46142578125,48.702392578125,-66.4617919921875
1761054317.9963028,-0.748046875,-0.01708984375,0.6533203125,5.37109375,0.91552734375,-5.18798828125,-0.46142578125,48.702392578125,-66.5386962890625
1761054318.003927,-0.748046875,-0.01708984375,0.6533203125,5.37109375,0.91552734375,-5.18798828125,-0.4669189453125,48.702392578125,-66.6156005859375
1761054318.0106833,-0.76806640625,-0.02001953125,0.671875,6.77490234375,0.9765625,-5.55419921875,-0.46142578125,48.702392578125,-66.697998046875
1761054318.033382,-0.76806640625,-0.02001953125,0.671875,6.77490234375,0.9765625,-5.55419921875,-0.4559326171875,48.702392578125,-66.785888671875
1761054318.040596,-0.7822265625,0.0029296875,0.640625,7.8125,1.03759765625,-5.4931640625,-0.439453125,48.7078857421875,-66.8682861328125
1761054318.0483532,-0.7822265625,0.0029296875,0.640625,7.8125,1.03759765625,-5.4931640625,-0.4229736328125,48.71337890625,-66.95068359375
1761054318.0573387,-0.79443359375,0.03125,0.5986328125,3.7841796875,0.732421875,-5.18798828125,-0.439453125,48.7188720703125,-67.027587890625
1761054318.0644546,-0.79443359375,0.03125,0.5986328125,3.7841796875,0.732421875,-5.18798828125,-0.46142578125,48.724365234375,-67.1044921875
1761054318.0792944,-0.79345703125,-0.00634765625,0.61962890625,2.0751953125,0.67138671875,-4.39453125,-0.4833984375,48.7353515625,-67.17041015625
1761054318.0865905,-0.79345703125,-0.00634765625,0.61962890625,2.0751953125,0.67138671875,-4.39453125,-0.5108642578125,48.746337890625,-67.236328125
1761054318.095179,-0.7880859375,-0.04541015625,0.63623046875,-0.18310546875,1.52587890625,-3.47900390625,-0.54931640625,48.768310546875,-67.291259765625
1761054318.1025927,-0.7880859375,-0.04541015625,0.63623046875,-0.18310546875,1.52587890625,-3.47900390625,-0.59326171875,48.790283203125,-67.3516845703125
1761054318.1110947,-0.771484375,-0.0244140625,0.6298828125,-0.18310546875,2.25830078125,-2.86865234375,-0.626220703125,48.8177490234375,-67.3956298828125
1761054318.1190026,-0.771484375,-0.0244140625,0.6298828125,-0.18310546875,2.25830078125,-2.86865234375,-0.6646728515625,48.84521484375,-67.445068359375
1761054318.1276782,-0.765625,-0.02001953125,0.66015625,2.25830078125,2.8076171875,-2.74658203125,-0.6756591796875,48.878173828125,-67.4945068359375
1761054318.141909,-0.765625,-0.02001953125,0.66015625,2.25830078125,2.8076171875,-2.74658203125,-0.6866455078125,48.9166259765625,-67.5439453125
1761054318.1486623,-0.75732421875,-0.005859375,0.65185546875,4.08935546875,2.86865234375,-2.86865234375,-0.68115234375,48.9495849609375,-67.5933837890625
1761054318.15523,-0.75732421875,-0.005859375,0.65185546875,4.08935546875,2.86865234375,-2.86865234375,-0.6756591796875,48.9825439453125,-67.642822265625
1761054318.1635714,-0.75244140625,-0.00048828125,0.6435546875,4.57763671875,2.44140625,-2.9296875,-0.6646728515625,49.010009765625,-67.6922607421875
1761054318.170982,-0.75244140625,-0.00048828125,0.6435546875,4.57763671875,2.44140625,-2.9296875,-0.6536865234375,49.0374755859375,-67.74169921875
1761054318.1816256,-0.7392578125,-0.0126953125,0.69580078125,5.43212890625,1.953125,-2.8076171875,-0.6317138671875,49.0594482421875,-67.7911376953125
1761054318.1936817,-0.7392578125,-0.0126953125,0.69580078125,5.43212890625,1.953125,-2.8076171875,-0.6097412109375,49.0814208984375,-67.8350830078125
1761054318.2010353,-0.73828125,-0.0107421875,0.69970703125,3.47900390625,2.5634765625,-2.5634765625,-0.6097412109375,49.1033935546875,-67.8790283203125
1761054318.2072155,-0.73828125,-0.0107421875,0.69970703125,3.47900390625,2.5634765625,-2.5634765625,-0.604248046875,49.1253662109375,-67.91748046875
1761054318.214085,-0.71240234375,0.01220703125,0.68212890625,3.23486328125,2.0751953125,-3.11279296875,-0.6097412109375,49.141845703125,-67.9669189453125
1761054318.2215126,-0.71240234375,0.01220703125,0.68212890625,3.23486328125,2.0751953125,-3.11279296875,-0.615234375,49.1583251953125,-68.0108642578125
1761054318.234846,-0.71728515625,-0.00927734375,0.71923828125,4.21142578125,2.38037109375,-3.41796875,-0.6097412109375,49.1748046875,-68.0657958984375
1761054318.2433681,-0.71728515625,-0.00927734375,0.71923828125,4.21142578125,2.38037109375,-3.41796875,-0.6097412109375,49.1912841796875,-68.115234375
1761054318.2502713,-0.71142578125,-0.0166015625,0.73291015625,4.57763671875,2.44140625,-3.173828125,-0.5987548828125,49.2022705078125,-68.1591796875
1761054318.2585225,-0.71142578125,-0.0166015625,0.73291015625,4.57763671875,2.44140625,-3.173828125,-0.5877685546875,49.2132568359375,-68.203125
1761054318.2733119,-0.72314453125,0.0107421875,0.703125,4.08935546875,2.44140625,-3.41796875,-0.5877685546875,49.2242431640625,-68.2525634765625
1761054318.2843947,-0.72314453125,0.0107421875,0.703125,4.08935546875,2.44140625,-3.41796875,-0.5877685546875,49.229736328125,-68.2965087890625
1761054318.2919147,-0.740234375,0.00732421875,0.68408203125,2.8076171875,2.01416015625,-3.662109375,-0.5987548828125,49.2352294921875,-68.3514404296875
1761054318.299723,-0.740234375,0.00732421875,0.68408203125,2.8076171875,2.01416015625,-3.662109375,-0.6097412109375,49.24072265625,-68.40087890625
1761054318.3079584,-0.74755859375,-0.0185546875,0.6806640625,2.685546875,1.64794921875,-3.5400390625,-0.626220703125,49.2462158203125,-68.44482421875
1761054318.3215,-0.74755859375,-0.0185546875,0.6806640625,2.685546875,1.64794921875,-3.5400390625,-0.63720703125,49.2462158203125,-68.499755859375
1761054318.3314416,-0.751953125,-0.01318359375,0.65771484375,4.8828125,1.46484375,-3.5400390625,-0.6317138671875,49.2462158203125,-68.5491943359375
1761054318.338832,-0.751953125,-0.01318359375,0.65771484375,4.8828125,1.46484375,-3.5400390625,-0.6207275390625,49.251708984375,-68.5986328125
1761054318.346414,-0.76416015625,-0.0087890625,0.640625,5.37109375,1.40380859375,-3.35693359375,-0.604248046875,49.251708984375,-68.6480712890625
1761054318.360928,-0.76416015625,-0.0087890625,0.640625,5.37109375,1.40380859375,-3.35693359375,-0.59326171875,49.2572021484375,-68.697509765625
1761054318.3688254,-0.76904296875,-0.01318359375,0.63232421875,4.21142578125,1.220703125,-3.2958984375,-0.5877685546875,49.2626953125,-68.7469482421875
1761054318.3758326,-0.76904296875,-0.01318359375,0.63232421875,4.21142578125,1.220703125,-3.2958984375,-0.5877685546875,49.2681884765625,-68.79638671875
1761054318.3837101,-0.7666015625,-0.01953125,0.640625,3.0517578125,1.3427734375,-2.9296875,-0.5877685546875,49.2791748046875,-68.84033203125
1761054318.39745,-0.7666015625,-0.01953125,0.640625,3.0517578125,1.3427734375,-2.9296875,-0.59326171875,49.28466796875,-68.8897705078125
1761054318.4074087,-0.75634765625,-0.01025390625,0.658203125,4.57763671875,1.46484375,-2.74658203125,-0.582275390625,49.295654296875,-68.92822265625
1761054318.4142673,-0.75634765625,-0.01025390625,0.658203125,4.57763671875,1.46484375,-2.74658203125,-0.5712890625,49.306640625,-68.97216796875
1761054318.4217877,-0.75732421875,-0.00927734375,0.67138671875,5.0048828125,1.5869140625,-2.62451171875,-0.5548095703125,49.317626953125,-69.01611328125
1761054318.4386218,-0.75732421875,-0.00927734375,0.67138671875,5.0048828125,1.5869140625,-2.62451171875,-0.538330078125,49.32861328125,-69.0545654296875
1761054318.447114,-0.74560546875,0.0087890625,0.6328125,3.23486328125,1.3427734375,-2.99072265625,-0.5438232421875,49.339599609375,-69.10400390625
1761054318.454151,-0.74560546875,0.0087890625,0.6328125,3.23486328125,1.3427734375,-2.99072265625,-0.5438232421875,49.3505859375,-69.14794921875
1761054318.4718554,-0.74072265625,-0.01025390625,0.66162109375,3.47900390625,0.9765625,-3.35693359375,-0.54931640625,49.3560791015625,-69.1973876953125
1761054318.4798808,-0.74072265625,-0.01025390625,0.66162109375,3.47900390625,0.9765625,-3.35693359375,-0.5548095703125,49.361572265625,-69.246826171875
1761054318.4869168,-0.76611328125,-0.03515625,0.693359375,3.72314453125,1.3427734375,-3.23486328125,-0.5548095703125,49.37255859375,-69.2962646484375
1761054318.5015836,-0.76611328125,-0.03515625,0.693359375,3.72314453125,1.3427734375,-3.23486328125,-0.560302734375,49.3780517578125,-69.345703125
1761054318.511981,-0.79052734375,0.0224609375,0.62646484375,4.82177734375,1.64794921875,-3.96728515625,-0.560302734375,49.3890380859375,-69.41162109375
1761054318.5195072,-0.81298828125,0.0244140625,0.58935546875,1.64794921875,1.8310546875,-4.39453125,-0.5767822265625,49.405517578125,-69.4720458984375
1761054318.5271456,-0.81298828125,0.0244140625,0.58935546875,1.64794921875,1.8310546875,-4.39453125,-0.6097412109375,49.427490234375,-69.5379638671875
1761054318.5436878,-0.79150390625,0.00146484375,0.5986328125,-1.8310546875,2.38037109375,-3.72314453125,-0.6536865234375,49.449462890625,-69.5928955078125
1761054318.5546753,-0.79150390625,0.00146484375,0.5986328125,-1.8310546875,2.38037109375,-3.72314453125,-0.714111328125,49.4769287109375,-69.6478271484375
1761054318.56142,-0.76171875,-0.0673828125,0.6728515625,1.28173828125,2.9296875,-3.0517578125,-0.7525634765625,49.5098876953125,-69.697265625
1761054318.5686245,-0.76171875,-0.0673828125,0.6728515625,1.28173828125,2.9296875,-3.0517578125,-0.780029296875,49.5428466796875,-69.7467041015625
1761054318.583298,-0.7529296875,-0.02099609375,0.681640625,1.220703125,3.173828125,-2.197265625,-0.7965087890625,49.5758056640625,-69.78515625
1761054318.5917788,-0.7529296875,-0.02099609375,0.681640625,1.220703125,3.173828125,-2.197265625,-0.8184814453125,49.6087646484375,-69.8236083984375
1761054318.5996826,-0.7568359375,0.0107421875,0.654296875,-2.8076171875,2.74658203125,-1.89208984375,-0.8514404296875,49.63623046875,-69.8565673828125
1761054318.6074443,-0.7568359375,0.0107421875,0.654296875,-2.8076171875,2.74658203125,-1.89208984375,-0.90087890625,49.6636962890625,-69.8895263671875
1761054318.6151345,-0.75341796875,0.00732421875,0.64892578125,-5.31005859375,2.13623046875,-1.89208984375,-0.966796875,49.691162109375,-69.9169921875
1761054318.6621616,-0.75341796875,0.00732421875,0.64892578125,-5.31005859375,2.13623046875,-1.89208984375,-1.0382080078125,49.7076416015625,-69.93896484375
1761054318.7144752,-0.76806640625,-0.01904296875,0.662109375,-4.45556640625,2.13623046875,-1.64794921875,-1.1041259765625,49.7296142578125,-69.9664306640625
1761054318.7235847,-0.76806640625,-0.01904296875,0.662109375,-4.45556640625,2.13623046875,-1.64794921875,-1.1700439453125,49.74609375,-69.9884033203125
1761054318.7358396,-0.763671875,-0.03125,0.650390625,-3.23486328125,1.77001953125,-1.5869140625,-1.2249755859375,49.76806640625,-70.0103759765625
1761054318.7644067,-0.763671875,-0.03125,0.650390625,-3.23486328125,1.77001953125,-1.5869140625,-1.2744140625,49.779052734375,-70.0323486328125
1761054318.7705138,-0.7626953125,-0.0263671875,0.64501953125,-2.50244140625,1.89208984375,-1.46484375,-1.318359375,49.7955322265625,-70.059814453125
1761054318.7868516,-0.7626953125,-0.0263671875,0.64501953125,-2.50244140625,1.89208984375,-1.46484375,-1.3623046875,49.81201171875,-70.081787109375
1761054318.8134942,-0.75732421875,-0.0087890625,0.65185546875,-2.25830078125,1.8310546875,-1.64794921875,-1.40625,49.8284912109375,-70.103759765625
1761054318.820352,-0.75732421875,-0.0087890625,0.65185546875,-2.25830078125,1.8310546875,-1.64794921875,-1.4501953125,49.844970703125,-70.1312255859375
1761054318.8268554,-0.76123046875,0.0,0.67333984375,-2.99072265625,1.64794921875,-2.01416015625,-1.494140625,49.8614501953125,-70.15869140625
1761054318.849234,-0.76123046875,0.0,0.67333984375,-2.99072265625,1.64794921875,-2.01416015625,-1.5435791015625,49.8724365234375,-70.1861572265625
1761054318.855699,-0.767578125,-0.0029296875,0.64892578125,-5.31005859375,1.46484375,-2.197265625,-1.6094970703125,49.8834228515625,-70.213623046875
1761054318.8817244,-0.767578125,-0.0029296875,0.64892578125,-5.31005859375,1.46484375,-2.197265625,-1.6864013671875,49.8944091796875,-70.2410888671875
1761054318.894541,-0.77197265625,-0.0234375,0.63818359375,-6.9580078125,1.28173828125,-2.197265625,-1.768798828125,49.9053955078125,-70.2685546875
1761054318.907108,-0.77197265625,-0.0234375,0.63818359375,-6.9580078125,1.28173828125,-2.197265625,-1.856689453125,49.9163818359375,-70.2960205078125
1761054318.9198556,-0.76806640625,-0.0302734375,0.64013671875,-5.7373046875,1.220703125,-2.3193359375,-1.944580078125,49.9273681640625,-70.323486328125
1761054318.9284916,-0.76806640625,-0.0302734375,0.64013671875,-5.7373046875,1.220703125,-2.3193359375,-2.0269775390625,49.9383544921875,-70.3564453125
1761054318.9534144,-0.763671875,-0.0234375,0.64501953125,-4.21142578125,1.3427734375,-2.3193359375,-2.098388671875,49.9493408203125,-70.3839111328125
1761054318.9596872,-0.763671875,-0.0234375,0.64501953125,-4.21142578125,1.3427734375,-2.3193359375,-2.164306640625,49.9603271484375,-70.4168701171875
1761054318.9724286,-0.7607421875,-0.0390625,0.6611328125,-4.7607421875,1.46484375,-2.01416015625,-2.2357177734375,49.9713134765625,-70.4443359375
1761054318.9785967,-0.7607421875,-0.0390625,0.6611328125,-4.7607421875,1.46484375,-2.01416015625,-2.3016357421875,49.9822998046875,-70.4718017578125
1761054318.984872,-0.7646484375,-0.03369140625,0.6474609375,-5.37109375,1.5869140625,-1.8310546875,-2.373046875,49.9932861328125,-70.499267578125
1761054318.9920573,-0.7646484375,-0.03369140625,0.6474609375,-5.37109375,1.5869140625,-1.8310546875,-2.449951171875,50.0042724609375,-70.521240234375
1761054318.998774,-0.77294921875,-0.02880859375,0.6474609375,-4.94384765625,1.64794921875,-1.77001953125,-2.5213623046875,50.020751953125,-70.543212890625
1761054319.0058787,-0.77294921875,-0.02880859375,0.6474609375,-4.94384765625,1.64794921875,-1.77001953125,-2.5872802734375,50.03173828125,-70.5706787109375
1761054319.0122628,-0.77734375,-0.0244140625,0.62939453125,-4.638671875,1.77001953125,-1.8310546875,-2.6531982421875,50.0482177734375,-70.5926513671875
1761054319.0192397,-0.77734375,-0.0244140625,0.62939453125,-4.638671875,1.77001953125,-1.8310546875,-2.7191162109375,50.0592041015625,-70.6201171875
1761054319.02645,-0.7734375,-0.041015625,0.623046875,-4.57763671875,1.708984375,-1.708984375,-2.7850341796875,50.07568359375,-70.64208984375
1761054319.0328908,-0.7734375,-0.041015625,0.623046875,-4.57763671875,1.708984375,-1.708984375,-2.8509521484375,50.0921630859375,-70.6640625
1761054319.039667,-0.77001953125,-0.04541015625,0.6435546875,-3.2958984375,1.77001953125,-1.77001953125,-2.911376953125,50.108642578125,-70.68603515625
1761054319.0461304,-0.77001953125,-0.04541015625,0.6435546875,-3.2958984375,1.77001953125,-1.77001953125,-2.9608154296875,50.1251220703125,-70.7135009765625
1761054319.0522263,-0.77001953125,-0.03369140625,0.65283203125,-3.2958984375,1.77001953125,-1.708984375,-3.0157470703125,50.1416015625,-70.7354736328125
1761054319.0594847,-0.77001953125,-0.03369140625,0.65283203125,-3.2958984375,1.77001953125,-1.708984375,-3.0706787109375,50.1580810546875,-70.762939453125
1761054319.081515,-0.763671875,-0.03076171875,0.63818359375,-3.5400390625,1.3427734375,-1.8310546875,-3.1256103515625,50.174560546875,-70.784912109375
1761054319.0895452,-0.763671875,-0.03076171875,0.63818359375,-3.5400390625,1.3427734375,-1.8310546875,-3.1805419921875,50.185546875,-70.806884765625
1761054319.1091163,-0.75390625,-0.0361328125,0.6513671875,-3.23486328125,0.79345703125,-1.953125,-3.2354736328125,50.1910400390625,-70.8343505859375
1761054319.1192374,-0.75390625,-0.0361328125,0.6513671875,-3.23486328125,0.79345703125,-1.953125,-3.284912109375,50.196533203125,-70.8563232421875
1761054319.1259587,-0.75390625,-0.0361328125,0.6513671875,-1.28173828125,0.42724609375,-2.0751953125,-3.3343505859375,50.2020263671875,-70.8837890625
1761054319.1635294,-0.74609375,-0.044921875,0.66748046875,-1.28173828125,0.42724609375,-2.0751953125,-3.3673095703125,50.2020263671875,-70.9112548828125
1761054319.1751657,-0.7490234375,-0.0478515625,0.67822265625,-1.15966796875,0.42724609375,-1.77001953125,-3.4002685546875,50.2020263671875,-70.9332275390625
1761054319.1863737,-0.7490234375,-0.0478515625,0.67822265625,-1.15966796875,0.42724609375,-1.77001953125,-3.4332275390625,50.196533203125,-70.9552001953125
1761054319.2089827,-0.7470703125,-0.04296875,0.6708984375,-2.38037109375,0.244140625,-1.64794921875,-3.4716796875,50.196533203125,-70.9716796875
1761054319.217432,-0.7470703125,-0.04296875,0.6708984375,-2.38037109375,0.244140625,-1.64794921875,-3.5101318359375,50.1910400390625,-70.99365234375
1761054319.2282033,-0.744140625,-0.0458984375,0.67236328125,-2.50244140625,-0.06103515625,-1.5869140625,-3.5540771484375,50.1800537109375,-71.0101318359375
1761054319.236109,-0.744140625,-0.0458984375,0.67236328125,-2.50244140625,-0.06103515625,-1.5869140625,-3.5980224609375,50.174560546875,-71.0321044921875
1761054319.2469041,-0.75830078125,-0.02978515625,0.6611328125,-0.732421875,-0.42724609375,-2.0751953125,-3.6309814453125,50.1580810546875,-71.048583984375
1761054319.2554529,-0.75830078125,-0.02978515625,0.6611328125,-0.732421875,-0.42724609375,-2.0751953125,-3.6639404296875,50.1470947265625,-71.0760498046875
1761054319.2707226,-0.7587890625,-0.048828125,0.6826171875,-0.18310546875,-0.6103515625,-2.01416015625,-3.69140625,50.130615234375,-71.0980224609375
1761054319.277354,-0.7587890625,-0.048828125,0.6826171875,-0.18310546875,-0.6103515625,-2.01416015625,-3.71337890625,50.1141357421875,-71.1199951171875
1761054319.2841766,-0.765625,-0.04443359375,0.607421875,0.91552734375,-0.1220703125,-2.0751953125,-3.7298583984375,50.1031494140625,-71.1474609375
1761054319.2910607,-0.765625,-0.04443359375,0.607421875,0.91552734375,-0.1220703125,-2.0751953125,-3.746337890625,50.0921630859375,-71.16943359375
1761054319.300464,-0.765625,-0.05517578125,0.662109375,2.44140625,-0.8544921875,-2.5634765625,-3.7518310546875,50.0811767578125,-71.1968994140625
1761054319.3179462,-0.765625,-0.05517578125,0.662109375,2.44140625,-0.8544921875,-2.5634765625,-3.75732421875,50.064697265625,-71.2298583984375
1761054319.3274868,-0.76318359375,-0.0439453125,0.62744140625,2.3193359375,-0.18310546875,-2.38037109375,-3.7628173828125,50.0537109375,-71.2628173828125
1761054319.3395123,-0.76318359375,-0.0439453125,0.62744140625,2.3193359375,-0.18310546875,-2.38037109375,-3.768310546875,50.0482177734375,-71.2957763671875
1761054319.3474863,-0.74755859375,-0.0322265625,0.68115234375,6.8359375,-0.79345703125,-2.62451171875,-3.7518310546875,50.0372314453125,-71.3287353515625
1761054319.3554757,-0.74755859375,-0.0322265625,0.68115234375,6.8359375,-0.79345703125,-2.62451171875,-3.71337890625,50.020751953125,-71.3616943359375
1761054319.378048,-0.74853515625,-0.05908203125,0.689453125,6.2255859375,-0.54931640625,-2.01416015625,-3.6749267578125,50.0042724609375,-71.3946533203125
1761054319.3869061,-0.74853515625,-0.05908203125,0.689453125,6.2255859375,-0.54931640625,-2.01416015625,-3.636474609375,49.9932861328125,-71.4166259765625
1761054319.3958807,-0.724609375,-0.05224609375,0.669921875,4.39453125,-0.9765625,-1.52587890625,-3.6090087890625,49.976806640625,-71.4385986328125
1761054319.4133415,-0.724609375,-0.05224609375,0.669921875,4.39453125,-0.9765625,-1.52587890625,-3.58154296875,49.954833984375,-71.4605712890625
1761054319.420898,-0.75244140625,-0.03515625,0.6640625,6.103515625,-1.220703125,-1.89208984375,-3.5540771484375,49.932861328125,-71.4825439453125
1761054319.4296246,-0.75244140625,-0.03515625,0.6640625,6.103515625,-1.220703125,-1.89208984375,-3.515625,49.910888671875,-71.5045166015625
1761054319.4365034,-0.76123046875,-0.029296875,0.6669921875,2.99072265625,-1.0986328125,-1.64794921875,-3.49365234375,49.8944091796875,-71.5264892578125
1761054319.4569697,-0.76123046875,-0.029296875,0.6669921875,2.99072265625,-1.0986328125,-1.64794921875,-3.482666015625,49.8724365234375,-71.54296875
1761054319.46815,-0.7421875,-0.01611328125,0.63427734375,3.90625,-1.40380859375,-1.953125,-3.4661865234375,49.8504638671875,-71.56494140625
1761054319.477641,-0.7421875,-0.01611328125,0.63427734375,3.90625,-1.40380859375,-1.953125,-3.44970703125,49.8284912109375,-71.5869140625
1761054319.4869843,-0.76708984375,-0.04638671875,0.6318359375,2.62451171875,-2.13623046875,-2.01416015625,-3.438720703125,49.801025390625,-71.6033935546875
1761054319.50644,-0.76708984375,-0.04638671875,0.6318359375,2.62451171875,-2.13623046875,-2.01416015625,-3.4332275390625,49.7735595703125,-71.6253662109375
1761054319.5145838,-0.7705078125,-0.05029296875,0.66552734375,-0.6103515625,-1.89208984375,-1.3427734375,-3.438720703125,49.74609375,-71.6473388671875
1761054319.5227268,-0.7705078125,-0.05029296875,0.66552734375,-0.6103515625,-1.89208984375,-1.3427734375,-3.460693359375,49.72412109375,-71.6583251953125
1761054319.533089,-0.7783203125,-0.046875,0.6337890625,-3.96728515625,-1.03759765625,-0.8544921875,-3.49365234375,49.7076416015625,-71.6693115234375
1761054319.551847,-0.7783203125,-0.046875,0.6337890625,-3.96728515625,-1.03759765625,-0.8544921875,-3.5430908203125,49.691162109375,-71.6748046875
1761054319.5592651,-0.79736328125,-0.0400390625,0.609375,-5.2490234375,-0.30517578125,-0.91552734375,-3.603515625,49.6856689453125,-71.685791015625
1761054319.5663857,-0.79736328125,-0.0400390625,0.609375,-5.2490234375,-0.30517578125,-0.91552734375,-3.6639404296875,49.68017578125,-71.69677734375
1761054319.5755706,-0.8076171875,-0.05712890625,0.607421875,-1.28173828125,-0.1220703125,-1.52587890625,-3.71337890625,49.68017578125,-71.7132568359375
1761054319.5833776,-0.8076171875,-0.05712890625,0.607421875,-1.28173828125,-0.1220703125,-1.52587890625,-3.746337890625,49.68017578125,-71.7352294921875
1761054319.5995374,-0.814453125,-0.068359375,0.58544921875,2.9296875,0.1220703125,-1.708984375,-3.75732421875,49.6856689453125,-71.7626953125
1761054319.6071901,-0.814453125,-0.068359375,0.58544921875,2.9296875,0.1220703125,-1.708984375,-3.7518310546875,49.691162109375,-71.7901611328125
1761054319.6171925,-0.7880859375,-0.04736328125,0.58984375,4.39453125,-0.06103515625,-2.197265625,-3.7408447265625,49.7021484375,-71.8231201171875
1761054319.62418,-0.7880859375,-0.04736328125,0.58984375,4.39453125,-0.06103515625,-2.197265625,-3.724365234375,49.7076416015625,-71.861572265625
1761054319.6304095,-0.78466796875,-0.04345703125,0.66015625,2.13623046875,0.48828125,-1.953125,-3.724365234375,49.7186279296875,-71.89453125
1761054319.6437948,-0.78466796875,-0.04345703125,0.66015625,2.13623046875,0.48828125,-1.953125,-3.7298583984375,49.735107421875,-71.927490234375
1761054319.6527238,-0.76220703125,-0.046875,0.65087890625,0.8544921875,0.732421875,-1.953125,-3.7408447265625,49.74609375,-71.96044921875
1761054319.6599061,-0.76220703125,-0.046875,0.65087890625,0.8544921875,0.732421875,-1.953125,-3.75732421875,49.7625732421875,-71.993408203125
1761054319.6672466,-0.76171875,-0.0546875,0.67041015625,2.38037109375,0.8544921875,-2.01416015625,-3.7628173828125,49.7735595703125,-72.0318603515625
1761054319.6762965,-0.76171875,-0.0546875,0.67041015625,2.38037109375,0.8544921875,-2.01416015625,-3.768310546875,49.7845458984375,-72.0648193359375
1761054319.6920378,-0.763671875,-0.041015625,0.65087890625,1.28173828125,0.67138671875,-2.0751953125,-3.7847900390625,49.7955322265625,-72.0977783203125
1761054319.7002883,-0.763671875,-0.041015625,0.65087890625,1.28173828125,0.67138671875,-2.0751953125,-3.7957763671875,49.801025390625,-72.1307373046875
1761054319.7088568,-0.76708984375,-0.0361328125,0.6435546875,0.732421875,0.42724609375,-2.25830078125,-3.8177490234375,49.8065185546875,-72.1636962890625
1761054319.71698,-0.76708984375,-0.0361328125,0.6435546875,0.732421875,0.42724609375,-2.25830078125,-3.8397216796875,49.81201171875,-72.1966552734375
1761054319.7317872,-0.76953125,-0.04638671875,0.64501953125,-0.1220703125,0.54931640625,-2.3193359375,-3.8726806640625,49.822998046875,-72.2296142578125
1761054319.740632,-0.76953125,-0.04638671875,0.64501953125,-0.1220703125,0.54931640625,-2.3193359375,-3.900146484375,49.8284912109375,-72.2625732421875
1761054319.7480688,-0.76220703125,-0.052734375,0.64501953125,1.40380859375,0.42724609375,-2.38037109375,-3.9166259765625,49.833984375,-72.301025390625
1761054319.7551198,-0.76220703125,-0.052734375,0.64501953125,1.40380859375,0.42724609375,-2.38037109375,-3.93310546875,49.833984375,-72.333984375
1761054319.7627604,-0.7626953125,-0.0419921875,0.662109375,3.90625,0.18310546875,-2.62451171875,-3.9276123046875,49.8394775390625,-72.3724365234375
1761054319.7773256,-0.7626953125,-0.0419921875,0.662109375,3.90625,0.18310546875,-2.62451171875,-3.9166259765625,49.8394775390625,-72.410888671875
1761054319.7843306,-0.7607421875,-0.03173828125,0.650390625,3.662109375,0.0,-2.99072265625,-3.9166259765625,49.833984375,-72.454833984375
1761054319.7910728,-0.7607421875,-0.03173828125,0.650390625,3.662109375,0.0,-2.99072265625,-3.9166259765625,49.833984375,-72.498779296875
1761054319.8011763,-0.7646484375,-0.046875,0.66064453125,2.3193359375,-0.244140625,-3.0517578125,-3.9276123046875,49.8284912109375,-72.5372314453125
1761054319.8167074,-0.7646484375,-0.046875,0.66064453125,2.3193359375,-0.244140625,-3.0517578125,-3.9385986328125,49.822998046875,-72.5811767578125
1761054319.8360548,-0.7607421875,-0.06591796875,0.64453125,2.3193359375,-0.1220703125,-2.9296875,-3.9495849609375,49.8175048828125,-72.61962890625
1761054319.8425682,-0.7607421875,-0.06591796875,0.64453125,2.3193359375,-0.1220703125,-2.9296875,-3.966064453125,49.8175048828125,-72.66357421875
1761054319.873597,-0.755859375,-0.044921875,0.65576171875,4.2724609375,-0.48828125,-2.99072265625,-3.9605712890625,49.8065185546875,-72.70751953125
1761054319.8963785,-0.755859375,-0.044921875,0.65576171875,4.2724609375,-0.48828125,-2.99072265625,-3.9495849609375,49.801025390625,-72.75146484375
1761054319.9050953,-0.7509765625,-0.04052734375,0.68115234375,4.45556640625,-0.67138671875,-3.11279296875,-3.944091796875,49.7900390625,-72.7899169921875
1761054319.9122372,-0.7509765625,-0.04052734375,0.68115234375,4.45556640625,-0.67138671875,-3.11279296875,-3.9385986328125,49.7735595703125,-72.8338623046875
1761054319.9217257,-0.748046875,-0.04052734375,0.67333984375,3.11279296875,-1.0986328125,-3.0517578125,-3.9385986328125,49.757080078125,-72.8778076171875
1761054319.9284806,-0.748046875,-0.04052734375,0.67333984375,3.11279296875,-1.0986328125,-3.0517578125,-3.944091796875,49.7406005859375,-72.916259765625
1761054319.9517348,-0.748046875,-0.04052734375,0.67333984375,1.953125,-1.3427734375,-2.99072265625,-3.9605712890625,49.7186279296875,-72.9547119140625
1761054319.9600701,-0.75732421875,-0.04345703125,0.65283203125,1.953125,-1.3427734375,-2.99072265625,-3.9715576171875,49.7021484375,-72.9931640625
1761054319.9695199,-0.76220703125,-0.052734375,0.65869140625,0.48828125,-1.46484375,-2.74658203125,-3.9990234375,49.68017578125,-73.0316162109375
1761054319.9763997,-0.76220703125,-0.052734375,0.65869140625,0.48828125,-1.46484375,-2.74658203125,-4.0264892578125,49.658203125,-73.0645751953125
1761054319.9839926,-0.76806640625,-0.0380859375,0.65283203125,1.0986328125,-1.220703125,-2.86865234375,-4.0484619140625,49.6417236328125,-73.10302734375
1761054320.000359,-0.76806640625,-0.0380859375,0.65283203125,1.0986328125,-1.220703125,-2.86865234375,-4.06494140625,49.625244140625,-73.135986328125
1761054320.01985,-0.77490234375,-0.05126953125,0.62548828125,1.0986328125,-1.0986328125,-2.685546875,-4.0869140625,49.6087646484375,-73.1689453125
1761054320.0269904,-0.77490234375,-0.05126953125,0.62548828125,1.0986328125,-1.0986328125,-2.685546875,-4.1033935546875,49.5977783203125,-73.201904296875
1761054320.0373778,-0.7734375,-0.05908203125,0.630859375,1.77001953125,-1.40380859375,-2.86865234375,-4.119873046875,49.581298828125,-73.2403564453125
1761054320.0461469,-0.7734375,-0.05908203125,0.630859375,1.77001953125,-1.40380859375,-2.86865234375,-4.1363525390625,49.5648193359375,-73.27880859375
1761054320.0540893,-0.77001953125,-0.04931640625,0.63916015625,1.40380859375,-1.0986328125,-2.8076171875,-4.15283203125,49.5538330078125,-73.3172607421875
1761054320.0605922,-0.77001953125,-0.04931640625,0.63916015625,1.40380859375,-1.0986328125,-2.8076171875,-4.1748046875,49.5428466796875,-73.355712890625
1761054320.0800579,-0.7568359375,-0.04248046875,0.66064453125,2.13623046875,-1.3427734375,-2.8076171875,-4.1802978515625,49.5263671875,-73.3941650390625
1761054320.1187546,-0.7568359375,-0.04248046875,0.66064453125,2.13623046875,-1.3427734375,-2.8076171875,-4.1912841796875,49.5098876953125,-73.4326171875
1761054320.1252415,-0.763671875,-0.05810546875,0.6767578125,0.79345703125,-0.9765625,-2.44140625,-4.2132568359375,49.4989013671875,-73.465576171875
1761054320.1313171,-0.763671875,-0.05810546875,0.6767578125,0.79345703125,-0.9765625,-2.44140625,-4.2352294921875,49.4879150390625,-73.4930419921875
1761054320.143215,-0.76123046875,-0.06884765625,0.646484375,-1.64794921875,-1.220703125,-2.13623046875,-4.273681640625,49.471435546875,-73.5205078125
1761054320.1691742,-0.76123046875,-0.06884765625,0.646484375,-1.64794921875,-1.220703125,-2.13623046875,-4.317626953125,49.46044921875,-73.553466796875
1761054320.1780443,-0.77392578125,-0.04443359375,0.63671875,-0.30517578125,-0.9765625,-2.38037109375,-4.3505859375,49.449462890625,-73.5809326171875
1761054320.1877732,-0.77392578125,-0.04443359375,0.63671875,-0.30517578125,-0.9765625,-2.38037109375,-4.3780517578125,49.4384765625,-73.6138916015625
1761054320.194053,-0.7666015625,-0.0576171875,0.63232421875,0.48828125,-0.91552734375,-2.50244140625,-4.405517578125,49.427490234375,-73.6468505859375
1761054320.2028182,-0.7666015625,-0.0576171875,0.63232421875,0.48828125,-0.91552734375,-2.50244140625,-4.427490234375,49.41650390625,-73.6798095703125
1761054320.2090194,-0.76708984375,-0.0693359375,0.6611328125,1.708984375,-0.732421875,-2.197265625,-4.4384765625,49.4110107421875,-73.7127685546875
1761054320.2333236,-0.76708984375,-0.0693359375,0.6611328125,1.708984375,-0.732421875,-2.197265625,-4.449462890625,49.405517578125,-73.740234375
1761054320.2430327,-0.7705078125,-0.05859375,0.64013671875,-0.30517578125,-0.48828125,-2.197265625,-4.4769287109375,49.4000244140625,-73.773193359375
1761054320.25047,-0.7705078125,-0.05859375,0.64013671875,-0.30517578125,-0.48828125,-2.197265625,-4.5098876953125,49.39453125,-73.80615234375
1761054320.256946,-0.78515625,-0.0400390625,0.62744140625,-1.708984375,-0.30517578125,-2.197265625,-4.5538330078125,49.39453125,-73.8336181640625
1761054320.2651722,-0.78515625,-0.0400390625,0.62744140625,-1.708984375,-0.30517578125,-2.197265625,-4.5977783203125,49.3890380859375,-73.8665771484375
1761054320.2894106,-0.78515625,-0.0400390625,0.62744140625,-1.708984375,0.244140625,-2.25830078125,-4.6417236328125,49.39453125,-73.8995361328125
1761054320.2990506,-0.7861328125,-0.052734375,0.60595703125,-1.708984375,0.244140625,-2.25830078125,-4.6856689453125,49.4000244140625,-73.927001953125
1761054320.306424,-0.77734375,-0.07177734375,0.6357421875,0.67138671875,0.48828125,-2.44140625,-4.7076416015625,49.4110107421875,-73.9654541015625
1761054320.312944,-0.77734375,-0.07177734375,0.6357421875,0.67138671875,0.48828125,-2.44140625,-4.735107421875,49.4219970703125,-73.9984130859375
1761054320.3369935,-0.77294921875,-0.064453125,0.642578125,0.0,0.79345703125,-1.64794921875,-4.757080078125,49.4329833984375,-74.02587890625
1761054320.3444273,-0.77294921875,-0.064453125,0.642578125,0.0,0.79345703125,-1.64794921875,-4.779052734375,49.4439697265625,-74.0533447265625
1761054320.352017,-0.76953125,-0.04736328125,0.646484375,-0.42724609375,0.9765625,-1.52587890625,-4.801025390625,49.46044921875,-74.0753173828125
1761054320.3589542,-0.76953125,-0.04736328125,0.646484375,-0.42724609375,0.9765625,-1.52587890625,-4.8284912109375,49.471435546875,-74.0972900390625
1761054320.3658922,-0.7626953125,-0.052734375,0.64404296875,-2.0751953125,0.79345703125,-1.28173828125,-4.866943359375,49.482421875,-74.11376953125
1761054320.372016,-0.7626953125,-0.052734375,0.64404296875,-2.0751953125,0.79345703125,-1.28173828125,-4.89990234375,49.493408203125,-74.1357421875
1761054320.3892813,-0.76171875,-0.06103515625,0.65966796875,-2.50244140625,0.732421875,-1.15966796875,-4.94384765625,49.50439453125,-74.146728515625
1761054320.396779,-0.76171875,-0.06103515625,0.65966796875,-2.50244140625,0.732421875,-1.15966796875,-4.9822998046875,49.515380859375,-74.1632080078125
1761054320.4042978,-0.75244140625,-0.0693359375,0.65576171875,-1.28173828125,0.67138671875,-1.03759765625,-5.009765625,49.5208740234375,-74.1796875
1761054320.411003,-0.75244140625,-0.0693359375,0.65576171875,-1.28173828125,0.67138671875,-1.03759765625,-5.03173828125,49.5318603515625,-74.190673828125
1761054320.418074,-0.75439453125,-0.06884765625,0.66796875,0.0,0.54931640625,-0.79345703125,-5.042724609375,49.537353515625,-74.20166015625
1761054320.4259348,-0.75439453125,-0.06884765625,0.66796875,0.0,0.54931640625,-0.79345703125,-5.0537109375,49.537353515625,-74.212646484375
1761054320.437793,-0.7548828125,-0.060546875,0.6591796875,-1.03759765625,0.30517578125,-0.6103515625,-5.07568359375,49.5428466796875,-74.2181396484375
1761054320.445118,-0.7548828125,-0.060546875,0.6591796875,-1.03759765625,0.30517578125,-0.6103515625,-5.0921630859375,49.5428466796875,-74.2291259765625
1761054320.451658,-0.7548828125,-0.06640625,0.6630859375,-1.708984375,0.244140625,-0.67138671875,-5.11962890625,49.5428466796875,-74.234619140625
1761054320.4587078,-0.7548828125,-0.06640625,0.6630859375,-1.708984375,0.244140625,-0.67138671875,-5.1470947265625,49.5428466796875,-74.2401123046875
1761054320.4656448,-0.75439453125,-0.05078125,0.65185546875,-1.708984375,0.1220703125,-0.9765625,-5.1800537109375,49.5428466796875,-74.2510986328125
1761054320.4728136,-0.75439453125,-0.05078125,0.65185546875,-1.708984375,0.1220703125,-0.9765625,-5.20751953125,49.537353515625,-74.2620849609375
1761054320.480251,-0.759765625,-0.05078125,0.66748046875,-2.5634765625,0.18310546875,-0.8544921875,-5.240478515625,49.537353515625,-74.267578125
1761054320.4937015,-0.759765625,-0.05078125,0.66748046875,-2.5634765625,0.18310546875,-0.8544921875,-5.2789306640625,49.537353515625,-74.278564453125
1761054320.5012841,-0.75732421875,-0.068359375,0.6796875,-2.5634765625,0.06103515625,-0.67138671875,-5.306396484375,49.5318603515625,-74.278564453125
1761054320.50865,-0.75732421875,-0.068359375,0.6796875,-2.5634765625,0.06103515625,-0.67138671875,-5.33935546875,49.5318603515625,-74.2840576171875
1761054320.5163257,-0.7587890625,-0.06005859375,0.6513671875,-2.685546875,-0.18310546875,-0.54931640625,-5.372314453125,49.5208740234375,-74.2840576171875
1761054320.523496,-0.7587890625,-0.06005859375,0.6513671875,-2.685546875,-0.18310546875,-0.54931640625,-5.4052734375,49.515380859375,-74.2840576171875
1761054320.5302525,-0.75537109375,-0.05517578125,0.64013671875,-3.90625,-1.03759765625,-0.54931640625,-5.44921875,49.50439453125,-74.2840576171875
1761054320.536655,-0.75537109375,-0.05517578125,0.64013671875,-3.90625,-1.03759765625,-0.54931640625,-5.4876708984375,49.4879150390625,-74.2840576171875
1761054320.550519,-0.7626953125,-0.08056640625,0.6796875,-4.8828125,-1.3427734375,-0.3662109375,-5.537109375,49.471435546875,-74.2840576171875
1761054320.5577908,-0.7626953125,-0.08056640625,0.6796875,-4.8828125,-1.3427734375,-0.3662109375,-5.592041015625,49.4549560546875,-74.278564453125
1761054320.5659091,-0.76416015625,-0.0634765625,0.65185546875,-4.0283203125,-1.46484375,-0.42724609375,-5.6304931640625,49.4384765625,-74.278564453125
1761054320.572715,-0.76416015625,-0.0634765625,0.65185546875,-4.0283203125,-1.46484375,-0.42724609375,-5.6744384765625,49.4219970703125,-74.278564453125
1761054320.579613,-0.76318359375,-0.04248046875,0.60986328125,-7.2021484375,-2.13623046875,-0.18310546875,-5.745849609375,49.39453125,-74.267578125
1761054320.5871882,-0.76318359375,-0.04248046875,0.60986328125,-7.2021484375,-2.13623046875,-0.18310546875,-5.811767578125,49.3780517578125,-74.2620849609375
1761054320.6035316,-0.76171875,-0.07373046875,0.63916015625,-10.43701171875,-2.25830078125,0.06103515625,-5.91064453125,49.3560791015625,-74.24560546875
1761054320.6118286,-0.76171875,-0.07373046875,0.63916015625,-10.43701171875,-2.25830078125,0.06103515625,-6.009521484375,49.3341064453125,-74.234619140625
1761054320.6200006,-0.76513671875,-0.10693359375,0.6728515625,-10.25390625,-1.40380859375,0.48828125,-6.1029052734375,49.317626953125,-74.2181396484375
1761054320.6273453,-0.76513671875,-0.10693359375,0.6728515625,-10.25390625,-1.40380859375,0.48828125,-6.1962890625,49.306640625,-74.20166015625
1761054320.6435347,-0.7705078125,-0.09130859375,0.63037109375,-7.8125,-0.6103515625,0.732421875,-6.2677001953125,49.3011474609375,-74.1851806640625
1761054320.652103,-0.7705078125,-0.09130859375,0.63037109375,-7.8125,-0.6103515625,0.732421875,-6.3336181640625,49.295654296875,-74.1741943359375
1761054320.65854,-0.76708984375,-0.060546875,0.6015625,-6.40869140625,-0.9765625,0.732421875,-6.3885498046875,49.2901611328125,-74.15771484375
1761054320.665408,-0.77001953125,-0.07470703125,0.64599609375,-5.06591796875,-1.28173828125,0.8544921875,-6.43798828125,49.2791748046875,-74.1412353515625
1761054320.6802635,-0.77001953125,-0.07470703125,0.64599609375,-5.06591796875,-1.28173828125,0.8544921875,-6.4764404296875,49.273681640625,-74.124755859375
1761054320.68695,-0.7607421875,-0.08251953125,0.66015625,-6.16455078125,-1.220703125,1.03759765625,-6.5203857421875,49.2626953125,-74.102783203125
1761054320.6934597,-0.7607421875,-0.08251953125,0.66015625,-6.16455078125,-1.220703125,1.03759765625,-6.56982421875,49.2572021484375,-74.0863037109375
1761054320.700548,-0.7568359375,-0.08056640625,0.6513671875,-7.26318359375,-0.91552734375,1.15966796875,-6.6192626953125,49.251708984375,-74.0643310546875
1761054320.71618,-0.7568359375,-0.08056640625,0.6513671875,-7.26318359375,-0.91552734375,1.15966796875,-6.6796875,49.24072265625,-74.0423583984375
1761054320.7239568,-0.75634765625,-0.0732421875,0.640625,-5.92041015625,-0.732421875,1.0986328125,-6.7291259765625,49.24072265625,-74.0203857421875
1761054320.7319844,-0.75634765625,-0.0732421875,0.640625,-5.92041015625,-0.732421875,1.0986328125,-6.7730712890625,49.2352294921875,-73.9984130859375
1761054320.738856,-0.75341796875,-0.08984375,0.66357421875,-5.4931640625,-0.6103515625,1.3427734375,-6.8170166015625,49.229736328125,-73.970947265625
1761054320.7474263,-0.75341796875,-0.08984375,0.66357421875,-5.4931640625,-0.6103515625,1.3427734375,-6.85546875,49.2242431640625,-73.948974609375
1761054320.76428,-0.748046875,-0.09521484375,0.6884765625,-8.544921875,-0.79345703125,1.89208984375,-6.9049072265625,49.2242431640625,-73.916015625
1761054320.7720356,-0.748046875,-0.09521484375,0.6884765625,-8.544921875,-0.79345703125,1.89208984375,-6.96533203125,49.2132568359375,-73.883056640625
1761054320.779869,-0.7412109375,-0.07568359375,0.69189453125,-11.29150390625,-1.0986328125,2.01416015625,-7.042236328125,49.207763671875,-73.85009765625
1761054320.7879393,-0.7412109375,-0.07568359375,0.69189453125,-11.29150390625,-1.0986328125,2.01416015625,-7.130126953125,49.19677734375,-73.8116455078125
1761054320.8047774,-0.74072265625,-0.06884765625,0.673828125,-13.97705078125,-1.46484375,2.13623046875,-7.22900390625,49.1802978515625,-73.7677001953125
1761054320.8132842,-0.74072265625,-0.06884765625,0.673828125,-13.97705078125,-1.46484375,2.13623046875,-7.3388671875,49.163818359375,-73.7237548828125
1761054320.820806,-0.72509765625,-0.0732421875,0.66650390625,-11.23046875,-2.0751953125,2.0751953125,-7.4322509765625,49.141845703125,-73.6798095703125
1761054320.8283625,-0.72509765625,-0.0732421875,0.66650390625,-11.23046875,-2.0751953125,2.0751953125,-7.5146484375,49.119873046875,-73.6358642578125
1761054320.834794,-0.72998046875,-0.11865234375,0.744140625,-9.70458984375,-2.62451171875,2.50244140625,-7.58056640625,49.0924072265625,-73.58642578125
1761054320.8498998,-0.72998046875,-0.11865234375,0.744140625,-9.70458984375,-2.62451171875,2.50244140625,-7.6409912109375,49.0594482421875,-73.531494140625
1761054320.8577979,-0.7236328125,-0.111328125,0.6875,-12.02392578125,-3.173828125,2.50244140625,-7.71240234375,49.0264892578125,-73.4820556640625
1761054320.866306,-0.7236328125,-0.111328125,0.6875,-12.02392578125,-3.173828125,2.50244140625,-7.80029296875,48.988037109375,-73.4271240234375
1761054320.8738427,-0.74462890625,-0.08740234375,0.67138671875,-9.6435546875,-4.150390625,2.01416015625,-7.8717041015625,48.944091796875,-73.377685546875
1761054320.881889,-0.74462890625,-0.08740234375,0.67138671875,-9.6435546875,-4.150390625,2.01416015625,-7.9376220703125,48.8946533203125,-73.333740234375
1761054320.8972912,-0.759765625,-0.08251953125,0.61865234375,-9.3994140625,-4.5166015625,1.46484375,-8.0035400390625,48.84521484375,-73.289794921875
1761054320.9049842,-0.759765625,-0.08251953125,0.61865234375,-9.3994140625,-4.5166015625,1.46484375,-8.0694580078125,48.7957763671875,-73.2513427734375
1761054320.9150512,-0.75732421875,-0.0888671875,0.6142578125,-2.99072265625,-5.18798828125,0.732421875,-8.10791015625,48.746337890625,-73.212890625
1761054320.9232798,-0.75732421875,-0.0888671875,0.6142578125,-2.99072265625,-5.18798828125,0.732421875,-8.118896484375,48.69140625,-73.1854248046875
1761054320.9302795,-0.76708984375,-0.12109375,0.64892578125,2.0751953125,-4.57763671875,0.6103515625,-8.1024169921875,48.6419677734375,-73.157958984375
1761054320.9493818,-0.76708984375,-0.12109375,0.64892578125,2.0751953125,-4.57763671875,0.6103515625,-8.0694580078125,48.5980224609375,-73.135986328125
1761054320.9581192,-0.75634765625,-0.103515625,0.63818359375,3.23486328125,-4.33349609375,0.244140625,-8.031005859375,48.5540771484375,-73.1195068359375
1761054320.9655864,-0.75634765625,-0.103515625,0.63818359375,3.23486328125,-4.33349609375,0.244140625,-7.9925537109375,48.5101318359375,-73.10302734375
1761054320.9740949,-0.7587890625,-0.08984375,0.6552734375,2.3193359375,-3.90625,0.0,-7.9595947265625,48.4716796875,-73.092041015625
1761054320.9883344,-0.7587890625,-0.08984375,0.6552734375,2.3193359375,-3.90625,0.0,-7.93212890625,48.4332275390625,-73.0865478515625
1761054320.9952972,-0.75634765625,-0.08056640625,0.64990234375,2.0751953125,-3.60107421875,0.1220703125,-7.9046630859375,48.4002685546875,-73.0755615234375
1761054321.0026171,-0.75634765625,-0.08056640625,0.64990234375,2.0751953125,-3.60107421875,0.1220703125,-7.877197265625,48.3673095703125,-73.0645751953125
1761054321.0093708,-0.7548828125,-0.1005859375,0.66162109375,1.40380859375,-3.41796875,0.79345703125,-7.8497314453125,48.3343505859375,-73.048095703125
1761054321.015674,-0.7548828125,-0.1005859375,0.66162109375,1.40380859375,-3.41796875,0.79345703125,-7.822265625,48.306884765625,-73.026123046875
1761054321.0327992,-0.7529296875,-0.10986328125,0.64892578125,0.1220703125,-2.99072265625,1.77001953125,-7.80029296875,48.2794189453125,-72.9986572265625
1761054321.0402045,-0.7529296875,-0.10986328125,0.64892578125,0.1220703125,-2.99072265625,1.77001953125,-7.7783203125,48.251953125,-72.97119140625
1761054321.0485432,-0.736328125,-0.10400390625,0.66943359375,-0.6103515625,-3.2958984375,2.50244140625,-7.75634765625,48.22998046875,-72.9327392578125
1761054321.0558963,-0.736328125,-0.10400390625,0.66943359375,-0.6103515625,-3.2958984375,2.50244140625,-7.734375,48.2025146484375,-72.8887939453125
1761054321.0635424,-0.724609375,-0.103515625,0.7099609375,-1.0986328125,-3.35693359375,3.11279296875,-7.71240234375,48.175048828125,-72.8448486328125
1761054321.0706868,-0.724609375,-0.103515625,0.7099609375,-1.0986328125,-3.35693359375,3.11279296875,-7.6849365234375,48.14208984375,-72.79541015625
1761054321.0782242,-0.71240234375,-0.087890625,0.71044921875,-2.01416015625,-3.90625,3.23486328125,-7.66845703125,48.109130859375,-72.7459716796875
1761054321.0937252,-0.71240234375,-0.087890625,0.71044921875,-2.01416015625,-3.90625,3.23486328125,-7.646484375,48.0706787109375,-72.6910400390625
1761054321.1002326,-0.7109375,-0.0703125,0.70947265625,-2.3193359375,-4.45556640625,2.99072265625,-7.635498046875,48.0322265625,-72.6361083984375
1761054321.107843,-0.7109375,-0.0703125,0.70947265625,-2.3193359375,-4.45556640625,2.99072265625,-7.6190185546875,47.98828125,-72.5811767578125
1761054321.1155138,-0.69873046875,-0.07763671875,0.71923828125,-1.0986328125,-5.18798828125,2.8076171875,-7.5970458984375,47.933349609375,-72.5262451171875
1761054321.1317675,-0.69873046875,-0.07763671875,0.71923828125,-1.0986328125,-5.18798828125,2.8076171875,-7.569580078125,47.87841796875,-72.4713134765625
1761054321.138738,-0.69677734375,-0.09716796875,0.775390625,-2.3193359375,-5.31005859375,3.0517578125,-7.547607421875,47.823486328125,-72.410888671875
1761054321.1452117,-0.69677734375,-0.09716796875,0.775390625,-2.3193359375,-5.31005859375,3.0517578125,-7.525634765625,47.7630615234375,-72.3504638671875
1761054321.151974,-0.6845703125,-0.095703125,0.74560546875,-4.8828125,-5.55419921875,3.2958984375,-7.5201416015625,47.6971435546875,-72.2900390625
1761054321.1581528,-0.6845703125,-0.095703125,0.74560546875,-4.8828125,-5.55419921875,3.2958984375,-7.5201416015625,47.6312255859375,-72.22412109375
1761054321.1729014,-0.66455078125,-0.08642578125,0.75439453125,-6.53076171875,-6.591796875,3.662109375,-7.5311279296875,47.559814453125,-72.1527099609375
1761054321.1823142,-0.66455078125,-0.08642578125,0.75439453125,-6.53076171875,-6.591796875,3.662109375,-7.547607421875,47.4774169921875,-72.0758056640625
1761054321.191739,-0.6455078125,-0.07763671875,0.8251953125,-10.43701171875,-7.62939453125,4.45556640625,-7.5750732421875,47.39501953125,-71.993408203125
1761054321.1996367,-0.6455078125,-0.07763671875,0.8251953125,-10.43701171875,-7.62939453125,4.45556640625,-7.613525390625,47.3016357421875,-71.905517578125
1761054321.2066855,-0.6328125,-0.07373046875,0.80517578125,-18.73779296875,-8.6669921875,5.37109375,-7.6904296875,47.2027587890625,-71.8011474609375
1761054321.21395,-0.6328125,-0.07373046875,0.80517578125,-18.73779296875,-8.6669921875,5.37109375,-7.80029296875,47.0928955078125,-71.6912841796875
1761054321.2299886,-0.626953125,-0.08837890625,0.79638671875,-15.5029296875,-9.6435546875,5.9814453125,-7.88818359375,46.9830322265625,-71.5704345703125
1761054321.2375138,-0.626953125,-0.08837890625,0.79638671875,-15.5029296875,-9.6435546875,5.9814453125,-7.9541015625,46.8621826171875,-71.444091796875
1761054321.2446089,-0.64453125,-0.1318359375,0.79443359375,-10.55908203125,-10.19287109375,6.16455078125,-7.9925537109375,46.7413330078125,-71.3177490234375
1761054321.2532969,-0.64453125,-0.1318359375,0.79443359375,-10.55908203125,-10.19287109375,6.16455078125,-8.009033203125,46.614990234375,-71.19140625
1761054321.2600946,-0.72802734375,-0.1650390625,0.67724609375,-5.31005859375,-8.6669921875,6.4697265625,-8.0035400390625,46.494140625,-71.070556640625
1761054321.274956,-0.72802734375,-0.1650390625,0.67724609375,-5.31005859375,-8.6669921875,6.4697265625,-7.97607421875,46.3897705078125,-70.94970703125
1761054321.2816327,-0.75732421875,-0.11669921875,0.61962890625,2.38037109375,-9.82666015625,6.77490234375,-7.91015625,46.2799072265625,-70.8343505859375
1761054321.2889588,-0.75732421875,-0.11669921875,0.61962890625,2.38037109375,-9.82666015625,6.77490234375,-7.8057861328125,46.1700439453125,-70.718994140625
1761054321.2978086,-0.79638671875,-0.0498046875,0.61669921875,-0.48828125,-9.765625,7.32421875,-7.71240234375,46.0711669921875,-70.6036376953125
1761054321.3064208,-0.79638671875,-0.0498046875,0.61669921875,-0.48828125,-9.765625,7.32421875,-7.635498046875,45.9722900390625,-70.4827880859375
1761054321.3224812,-0.79833984375,-0.033203125,0.580078125,-11.1083984375,-9.70458984375,8.30078125,-7.5970458984375,45.8843994140625,-70.3564453125
1761054321.3302886,-0.79833984375,-0.033203125,0.580078125,-11.1083984375,-9.70458984375,8.30078125,-7.613525390625,45.802001953125,-70.2191162109375
1761054321.3395114,-0.77685546875,-0.08056640625,0.56640625,-20.263671875,-10.19287109375,8.9111328125,-7.6629638671875,45.7196044921875,-70.0762939453125
1761054321.345754,-0.77685546875,-0.08056640625,0.56640625,-20.263671875,-10.19287109375,8.9111328125,-7.7618408203125,45.6427001953125,-69.9334716796875
1761054321.3544364,-0.8154296875,-0.12353515625,0.62158203125,-22.52197265625,-8.544921875,9.3994140625,-7.8662109375,45.5767822265625,-69.7906494140625
1761054321.3624637,-0.8154296875,-0.12353515625,0.62158203125,-22.52197265625,-8.544921875,9.3994140625,-7.9815673828125,45.5218505859375,-69.6478271484375
1761054321.377722,-0.78857421875,-0.12451171875,0.55908203125,-17.9443359375,-8.056640625,9.21630859375,-8.0804443359375,45.472412109375,-69.510498046875
1761054321.3853557,-0.78857421875,-0.12451171875,0.55908203125,-17.9443359375,-8.056640625,9.21630859375,-8.1573486328125,45.428466796875,-69.378662109375
1761054321.3927934,-0.80615234375,-0.1259765625,0.58642578125,-12.51220703125,-6.40869140625,8.72802734375,-8.2122802734375,45.3955078125,-69.2523193359375
1761054321.4026895,-0.80615234375,-0.1259765625,0.58642578125,-12.51220703125,-6.40869140625,8.72802734375,-8.2452392578125,45.37353515625,-69.1314697265625
1761054321.412057,-0.7841796875,-0.11083984375,0.5888671875,-7.14111328125,-5.18798828125,7.4462890625,-8.2562255859375,45.3570556640625,-69.027099609375
1761054321.433845,-0.7841796875,-0.11083984375,0.5888671875,-7.14111328125,-5.18798828125,7.4462890625,-8.250732421875,45.3515625,-68.92822265625
1761054321.4404159,-0.78125,-0.09716796875,0.638671875,-1.15966796875,-4.0283203125,5.92041015625,-8.228759765625,45.3460693359375,-68.8458251953125
1761054321.4533582,-0.78125,-0.09716796875,0.638671875,-1.15966796875,-4.0283203125,5.92041015625,-8.1793212890625,45.3460693359375,-68.7744140625
1761054321.4721992,-0.779296875,-0.07421875,0.63134765625,1.77001953125,-2.86865234375,4.21142578125,-8.1243896484375,45.3515625,-68.7139892578125
1761054321.4862113,-0.779296875,-0.07421875,0.63134765625,1.77001953125,-2.86865234375,4.21142578125,-8.0694580078125,45.362548828125,-68.6700439453125
1761054321.4995444,-0.7744140625,-0.07373046875,0.62744140625,0.48828125,-2.25830078125,2.99072265625,-8.02001953125,45.37353515625,-68.631591796875
1761054321.5221639,-0.7744140625,-0.07373046875,0.62744140625,0.48828125,-2.25830078125,2.99072265625,-7.9815673828125,45.3900146484375,-68.5986328125
1761054321.5348392,-0.76513671875,-0.09033203125,0.64208984375,-1.89208984375,-1.5869140625,2.685546875,-7.9595947265625,45.406494140625,-68.565673828125
1761054321.5422902,-0.76513671875,-0.09033203125,0.64208984375,-1.89208984375,-1.5869140625,2.685546875,-7.9541015625,45.428466796875,-68.5382080078125
1761054321.56383,-0.74169921875,-0.111328125,0.64208984375,-3.84521484375,-1.40380859375,3.11279296875,-7.9541015625,45.4449462890625,-68.5107421875
1761054321.5699377,-0.74169921875,-0.111328125,0.64208984375,-3.84521484375,-1.40380859375,3.11279296875,-7.9595947265625,45.4669189453125,-68.477783203125
1761054321.5872345,-0.70654296875,-0.125,0.6962890625,-4.82177734375,-1.46484375,4.0283203125,-7.9705810546875,45.4833984375,-68.4393310546875
1761054321.600375,-0.70654296875,-0.125,0.6962890625,-4.82177734375,-1.46484375,4.0283203125,-7.9815673828125,45.4998779296875,-68.3953857421875
1761054321.6075022,-0.6767578125,-0.12548828125,0.75634765625,-4.57763671875,-1.708984375,4.82177734375,-7.987060546875,45.5108642578125,-68.345947265625
1761054321.6162858,-0.6767578125,-0.12548828125,0.75634765625,-4.57763671875,-1.708984375,4.82177734375,-7.987060546875,45.516357421875,-68.291015625
